"rt","stimulus","key_press","test_part","trial_type","trial_index","time_elapsed","internal_node_id","totalTime","subject","experiment_name","button_pressed","success","responses","question_order","currentStim","old","correct"
"6447.945000000004","Welcome to the experiment. This is an online experiment so please don't close the tab/window until we say goodbye.  Press any key to begin.","13","instructions","html-keyboard-response","0","6461","0.0-0.0","2699891","co38626","norming","","","","","","",""
"62806.62500000002","<div style='word-wrap: break-word; width: 900px'><h3>Please consider this information carefully before deciding whether to participate in this research</h3><ul style='text-align: left; font-size: .8em;'><li><b>Purpose of the research</b>: To examine how people process images.</li><li><b>What you will do in this research</b>:  Stimuli (images) will be presented on the computer and you will be asked different questions about them.</li><li><b>Time required</b>: Participation will take between 45 and 60 minutes to complete.</li><li><b>Risks</b>:  There are no anticipated risks associated with participating in this study. The effects of participating should be comparable to those you would experience from viewing a computer monitor for 30 minutes and using a mouse or keyboard.</li><li><b>Benefits</b>:  This study provides no benefits to you individually except for the credit. The study provides important information about the nature of perception and learning.</li><li><b>Confidentiality</b>:  Your participation in this study will remain confidential. No personally identifiable information will be associated with your data. Your de-identified data may be shared with other researchers and used in future projects.</li><li><b>Participation and withdrawal</b>:  Your participation in this study is completely voluntary and you may refuse to participate or you may choose to withdraw at any time without penalty.</li><li><b>How to contact the researchers</b>: If you have questions or concerns about your participation or payment, or want to request a summary of research findings, please contact Sander Van de Cruys (KU Leuven), at sander.vandecruys@kuleuven.be.</li></ul><p>The nature and purpose of this research have been sufficiently explained and I agree to participate in this study.  I understand that I am free to withdraw at any time without incurring any penalty.</p><p>Please consent by clicking the button below to continue. Otherwise, please exit the study at this time.</p></div>","","instructions","html-button-response","1","69261","0.0-1.0","2699891","co38626","norming","0","","","","","",""
"","","","instructions","fullscreen","2","76477","0.0-2.0","2699891","co38626","norming","","true","","","","",""
"43167.17000000003","","","sona","survey-html-form","3","119646","0.0-3.0","2699891","co38626","norming","","","[{""name"":""sonaid"",""value"":""38626""},{""name"":""debrief"",""value"":""no""},{""name"":""datajoin"",""value"":""yes""}]","","","",""
"116338.26","<div style='word-wrap: break-word; width: 900px'><h3>Instructions</h3><p>This experiment will have 3 parts. In the first part you will see a series of distorted images like the one below on the left. As you can see in the righthand image, the distorted images are derived from actual photographs. In what follows, you will <strong>briefly</strong> be presented with <strong>only</strong> the distorted image.</p> <div style='float: left; margin-right: 20px;'><img src='../img/018tt.jpg' height='250' width='250'></img></div><div style='float: right; margin-left: 20px;'><img src='../img/018gs.jpg' height='250' width='250'></img></div><p>Subsequently you will be asked a few questions about the image: One question on how <strong>curious</strong> you are about the solution and one on how <strong>confident</strong> you are that you know the solution.</p>Next, we ask you to make a guess on what is in the image. Note that it is OK to name just the <strong>basic level category</strong>. For example when you see a parrot in the image, 'parrot' will obviously be a correct answer but also correct is 'bird'. However, 'animal' will <strong>not</strong> be counted as a correct response. For the example above, 'rose' would be correct or 'flower', but not 'plant'. When soccer players are depicted, 'soccer', 'football', 'soccer players' will be correct, but not 'humans', 'outdoors', or 'sports'. You do not need to describe the image in full, just name the main object in it <strong>in one or two words</strong>. All images depict objects from one of the following broad level categories: animals, inanimate objects, plants, sports, vehicles, and food. Recognizing means knowing <strong>more</strong> than these broad labels for a given image. But we always encourage you to <strong>make a guess</strong> if you can. Note that you are allowed to use <strong>Dutch and English</strong> in your answers, whatever comes easiest for you.</p><p>Press any key to continue.</p></div>","32","instructions","html-keyboard-response","4","235938","0.0-4.0","2699891","co38626","norming","","","","","","",""
"102736.98999999999","<div style='word-wrap: break-word; width: 900px'><h3>Instructions</h3> <p>Next, the solution image will be revealed to you and you'll be asked to indicate how strong your <strong>aha-experience</strong> was after seeing the solution. This describes the positive feeling of the 'click' you sometimes experience, when the pieces of the 'puzzle' fall together and you suddenly have 'insight' in the image.</p><img src='aha.jpg' height='188' width='250'></img><p>Note that there are no right or wrong answers. We are interested in what <strong>you</strong> see in the image and how <strong>you</strong> feel about it.</p><p>Press any key to start the experiment.</p></div>","32","instructions","html-keyboard-response","5","338321","0.0-5.0","2699891","co38626","norming","","","","","","",""
"null","<div style=""font-size:60px;""> </div>","null","fixation","html-keyboard-response","6","338529","0.0-6.0-0.0","2699891","co38626","norming","","","","","","",""
"null","../img/tt/1362tt.jpg","null","mooney1","image-keyboard-response","7","341535","0.0-6.0-1.0","2699891","co38626","norming","","","","","","",""
"12516.285000000033","","","post_mooney1_questions","survey-likert","8","354055","0.0-6.0-2.0","2699891","co38626","norming","","","{""curiosity"":4,""confidence"":0}","[0,1]","../img/tt/1362tt.jpg","",""
"3133.180000000051","","","recognition","survey-text","9","357191","0.0-6.0-3.0","2699891","co38626","norming","","","{""guess"":""""}","","../img/tt/1362tt.jpg","",""
"null","../img/gs/1362gs.jpg","null","reveal","image-keyboard-response","10","359198","0.0-6.0-4.0","2699891","co38626","norming","","","","","","",""
"null","../img/tt/1362tt.jpg","null","mooney2","image-keyboard-response","11","361200","0.0-6.0-5.0","2699891","co38626","norming","","","","","","",""
"4635.95000000007","","","post_reveal_questions","survey-likert","12","365839","0.0-6.0-6.0","2699891","co38626","norming","","","{""aha"":3}","[0]","../img/tt/1362tt.jpg","",""
"null","<div style=""font-size:60px;""> </div>","null","fixation","html-keyboard-response","13","366048","0.0-6.0-0.1","2699891","co38626","norming","","","","","","",""
"null","../img/tt/1127tt.jpg","null","mooney1","image-keyboard-response","14","369049","0.0-6.0-1.1","2699891","co38626","norming","","","","","","",""
"9675.47499999986","","","post_mooney1_questions","survey-likert","15","378727","0.0-6.0-2.1","2699891","co38626","norming","","","{""curiosity"":3,""confidence"":2}","[0,1]","../img/tt/1127tt.jpg","",""
"3765.890000000014","","","recognition","survey-text","16","382495","0.0-6.0-3.1","2699891","co38626","norming","","","{""guess"":""dogs""}","","../img/tt/1127tt.jpg","",""
"null","../img/gs/1127gs.jpg","null","reveal","image-keyboard-response","17","384497","0.0-6.0-4.1","2699891","co38626","norming","","","","","","",""
"null","../img/tt/1127tt.jpg","null","mooney2","image-keyboard-response","18","386505","0.0-6.0-5.1","2699891","co38626","norming","","","","","","",""
"3907.469999999972","","","post_reveal_questions","survey-likert","19","390414","0.0-6.0-6.1","2699891","co38626","norming","","","{""aha"":5}","[0]","../img/tt/1127tt.jpg","",""
"null","<div style=""font-size:60px;""> </div>","null","fixation","html-keyboard-response","20","390617","0.0-6.0-0.2","2699891","co38626","norming","","","","","","",""
"null","../img/tt/111tt.jpg","null","mooney1","image-keyboard-response","21","393620","0.0-6.0-1.2","2699891","co38626","norming","","","","","","",""
"6592.185000000114","","","post_mooney1_questions","survey-likert","22","400000","0.0-6.0-2.2","2699891","co38626","norming","","","{""curiosity"":4,""confidence"":2}","[0,1]","../img/tt/111tt.jpg","",""
"6685.95000000007","","","recognition","survey-text","23","406688","0.0-6.0-3.2","2699891","co38626","norming","","","{""guess"":""platendraaier""}","","../img/tt/111tt.jpg","",""
"null","../img/gs/111gs.jpg","null","reveal","image-keyboard-response","24","408689","0.0-6.0-4.2","2699891","co38626","norming","","","","","","",""
"null","../img/tt/111tt.jpg","null","mooney2","image-keyboard-response","25","410696","0.0-6.0-5.2","2699891","co38626","norming","","","","","","",""
"2429.9250000000466","","","post_reveal_questions","survey-likert","26","413128","0.0-6.0-6.2","2699891","co38626","norming","","","{""aha"":4}","[0]","../img/tt/111tt.jpg","",""
"null","<div style=""font-size:60px;""> </div>","null","fixation","html-keyboard-response","27","413332","0.0-6.0-0.3","2699891","co38626","norming","","","","","","",""
"null","../img/tt/1126tt.jpg","null","mooney1","image-keyboard-response","28","416340","0.0-6.0-1.3","2699891","co38626","norming","","","","","","",""
"6441.559999999998","","","post_mooney1_questions","survey-likert","29","422784","0.0-6.0-2.3","2699891","co38626","norming","","","{""curiosity"":4,""confidence"":0}","[0,1]","../img/tt/1126tt.jpg","",""
"989.8050000000512","","","recognition","survey-text","30","423775","0.0-6.0-3.3","2699891","co38626","norming","","","{""guess"":""""}","","../img/tt/1126tt.jpg","",""
"null","../img/gs/1126gs.jpg","null","reveal","image-keyboard-response","31","425780","0.0-6.0-4.3","2699891","co38626","norming","","","","","","",""
"null","../img/tt/1126tt.jpg","null","mooney2","image-keyboard-response","32","427783","0.0-6.0-5.3","2699891","co38626","norming","","","","","","",""
"3599.8649999999907","","","post_reveal_questions","survey-likert","33","431384","0.0-6.0-6.3","2699891","co38626","norming","","","{""aha"":4}","[0]","../img/tt/1126tt.jpg","",""
"null","<div style=""font-size:60px;""> </div>","null","fixation","html-keyboard-response","34","431586","0.0-6.0-0.4","2699891","co38626","norming","","","","","","",""
"null","../img/tt/019tt.jpg","null","mooney1","image-keyboard-response","35","434590","0.0-6.0-1.4","2699891","co38626","norming","","","","","","",""
"4367.009999999951","","","post_mooney1_questions","survey-likert","36","438960","0.0-6.0-2.4","2699891","co38626","norming","","","{""curiosity"":4,""confidence"":0}","[0,1]","../img/tt/019tt.jpg","",""
"982.0449999999837","","","recognition","survey-text","37","439944","0.0-6.0-3.4","2699891","co38626","norming","","","{""guess"":""""}","","../img/tt/019tt.jpg","",""
"null","../img/gs/019gs.jpg","null","reveal","image-keyboard-response","38","441945","0.0-6.0-4.4","2699891","co38626","norming","","","","","","",""
"null","../img/tt/019tt.jpg","null","mooney2","image-keyboard-response","39","443952","0.0-6.0-5.4","2699891","co38626","norming","","","","","","",""
"2998.265000000072","","","post_reveal_questions","survey-likert","40","446952","0.0-6.0-6.4","2699891","co38626","norming","","","{""aha"":4}","[0]","../img/tt/019tt.jpg","",""
"null","<div style=""font-size:60px;""> </div>","null","fixation","html-keyboard-response","41","447153","0.0-6.0-0.5","2699891","co38626","norming","","","","","","",""
"null","../img/tt/1189tt.jpg","null","mooney1","image-keyboard-response","42","450161","0.0-6.0-1.5","2699891","co38626","norming","","","","","","",""
"5140.054999999993","","","post_mooney1_questions","survey-likert","43","455304","0.0-6.0-2.5","2699891","co38626","norming","","","{""curiosity"":4,""confidence"":0}","[0,1]","../img/tt/1189tt.jpg","",""
"1765.9050000000861","","","recognition","survey-text","44","457071","0.0-6.0-3.5","2699891","co38626","norming","","","{""guess"":""""}","","../img/tt/1189tt.jpg","",""
"null","../img/gs/1189gs.jpg","null","reveal","image-keyboard-response","45","458873","0.0-6.0-4.5","2699891","co38626","norming","","","","","","",""
"null","../img/tt/1189tt.jpg","null","mooney2","image-keyboard-response","46","460875","0.0-6.0-5.5","2699891","co38626","norming","","","","","","",""
"5189.265000000014","","","post_reveal_questions","survey-likert","47","466066","0.0-6.0-6.5","2699891","co38626","norming","","","{""aha"":3}","[0]","../img/tt/1189tt.jpg","",""
"null","<div style=""font-size:60px;""> </div>","null","fixation","html-keyboard-response","48","466273","0.0-6.0-0.6","2699891","co38626","norming","","","","","","",""
"null","../img/tt/481tt.jpg","null","mooney1","image-keyboard-response","49","469279","0.0-6.0-1.6","2699891","co38626","norming","","","","","","",""
"4785.300000000047","","","post_mooney1_questions","survey-likert","50","474067","0.0-6.0-2.6","2699891","co38626","norming","","","{""curiosity"":3,""confidence"":1}","[0,1]","../img/tt/481tt.jpg","",""
"2934.4000000000233","","","recognition","survey-text","51","477003","0.0-6.0-3.6","2699891","co38626","norming","","","{""guess"":""dog""}","","../img/tt/481tt.jpg","",""
"null","../img/gs/481gs.jpg","null","reveal","image-keyboard-response","52","479004","0.0-6.0-4.6","2699891","co38626","norming","","","","","","",""
"null","../img/tt/481tt.jpg","null","mooney2","image-keyboard-response","53","481017","0.0-6.0-5.6","2699891","co38626","norming","","","","","","",""
"3743.640000000072","","","post_reveal_questions","survey-likert","54","484763","0.0-6.0-6.6","2699891","co38626","norming","","","{""aha"":4}","[0]","../img/tt/481tt.jpg","",""
"null","<div style=""font-size:60px;""> </div>","null","fixation","html-keyboard-response","55","484967","0.0-6.0-0.7","2699891","co38626","norming","","","","","","",""
"null","../img/tt/353tt.jpg","null","mooney1","image-keyboard-response","56","487973","0.0-6.0-1.7","2699891","co38626","norming","","","","","","",""
"8547.415000000037","","","post_mooney1_questions","survey-likert","57","496523","0.0-6.0-2.7","2699891","co38626","norming","","","{""curiosity"":4,""confidence"":1}","[0,1]","../img/tt/353tt.jpg","",""
"1934.0449999999837","","","recognition","survey-text","58","498458","0.0-6.0-3.7","2699891","co38626","norming","","","{""guess"":""""}","","../img/tt/353tt.jpg","",""
"null","../img/gs/353gs.jpg","null","reveal","image-keyboard-response","59","500464","0.0-6.0-4.7","2699891","co38626","norming","","","","","","",""
"null","../img/tt/353tt.jpg","null","mooney2","image-keyboard-response","60","502468","0.0-6.0-5.7","2699891","co38626","norming","","","","","","",""
"4044.340000000084","","","post_reveal_questions","survey-likert","61","506515","0.0-6.0-6.7","2699891","co38626","norming","","","{""aha"":4}","[0]","../img/tt/353tt.jpg","",""
"null","<div style=""font-size:60px;""> </div>","null","fixation","html-keyboard-response","62","506716","0.0-6.0-0.8","2699891","co38626","norming","","","","","","",""
"null","../img/tt/534tt.jpg","null","mooney1","image-keyboard-response","63","509725","0.0-6.0-1.8","2699891","co38626","norming","","","","","","",""
"8130.879999999946","","","post_mooney1_questions","survey-likert","64","517859","0.0-6.0-2.8","2699891","co38626","norming","","","{""curiosity"":4,""confidence"":1}","[0,1]","../img/tt/534tt.jpg","",""
"7701.825000000012","","","recognition","survey-text","65","525350","0.0-6.0-3.8","2699891","co38626","norming","","","{""guess"":""plants""}","","../img/tt/534tt.jpg","",""
"null","../img/gs/534gs.jpg","null","reveal","image-keyboard-response","66","527358","0.0-6.0-4.8","2699891","co38626","norming","","","","","","",""
"null","../img/tt/534tt.jpg","null","mooney2","image-keyboard-response","67","529368","0.0-6.0-5.8","2699891","co38626","norming","","","","","","",""
"2301.3749999998836","","","post_reveal_questions","survey-likert","68","531670","0.0-6.0-6.8","2699891","co38626","norming","","","{""aha"":4}","[0]","../img/tt/534tt.jpg","",""
"null","<div style=""font-size:60px;""> </div>","null","fixation","html-keyboard-response","69","531876","0.0-6.0-0.9","2699891","co38626","norming","","","","","","",""
"null","../img/tt/522tt.jpg","null","mooney1","image-keyboard-response","70","534882","0.0-6.0-1.9","2699891","co38626","norming","","","","","","",""
"4633.619999999995","","","post_mooney1_questions","survey-likert","71","539519","0.0-6.0-2.9","2699891","co38626","norming","","","{""curiosity"":3,""confidence"":0}","[0,1]","../img/tt/522tt.jpg","",""
"942","","","recognition","survey-text","72","540462","0.0-6.0-3.9","2699891","co38626","norming","","","{""guess"":""""}","","../img/tt/522tt.jpg","",""
"null","../img/gs/522gs.jpg","null","reveal","image-keyboard-response","73","542471","0.0-6.0-4.9","2699891","co38626","norming","","","","","","",""
"null","../img/tt/522tt.jpg","null","mooney2","image-keyboard-response","74","544477","0.0-6.0-5.9","2699891","co38626","norming","","","","","","",""
"2208.57500000007","","","post_reveal_questions","survey-likert","75","546686","0.0-6.0-6.9","2699891","co38626","norming","","","{""aha"":4}","[0]","../img/tt/522tt.jpg","",""
"null","<div style=""font-size:60px;""> </div>","null","fixation","html-keyboard-response","76","546889","0.0-6.0-0.10","2699891","co38626","norming","","","","","","",""
"null","../img/tt/603tt.jpg","null","mooney1","image-keyboard-response","77","549900","0.0-6.0-1.10","2699891","co38626","norming","","","","","","",""
"4624.3099999999395","","","post_mooney1_questions","survey-likert","78","554527","0.0-6.0-2.10","2699891","co38626","norming","","","{""curiosity"":4,""confidence"":2}","[0,1]","../img/tt/603tt.jpg","",""
"3572.564999999944","","","recognition","survey-text","79","558102","0.0-6.0-3.10","2699891","co38626","norming","","","{""guess"":""human""}","","../img/tt/603tt.jpg","",""
"null","../img/gs/603gs.jpg","null","reveal","image-keyboard-response","80","560104","0.0-6.0-4.10","2699891","co38626","norming","","","","","","",""
"null","../img/tt/603tt.jpg","null","mooney2","image-keyboard-response","81","562106","0.0-6.0-5.10","2699891","co38626","norming","","","","","","",""
"2105.6500000000233","","","post_reveal_questions","survey-likert","82","564214","0.0-6.0-6.10","2699891","co38626","norming","","","{""aha"":4}","[0]","../img/tt/603tt.jpg","",""
"null","<div style=""font-size:60px;""> </div>","null","fixation","html-keyboard-response","83","564416","0.0-6.0-0.11","2699891","co38626","norming","","","","","","",""
"null","../img/tt/590tt.jpg","null","mooney1","image-keyboard-response","84","567421","0.0-6.0-1.11","2699891","co38626","norming","","","","","","",""
"5152.135000000126","","","post_mooney1_questions","survey-likert","85","572574","0.0-6.0-2.11","2699891","co38626","norming","","","{""curiosity"":4,""confidence"":0}","[0,1]","../img/tt/590tt.jpg","",""
"1397.7900000000373","","","recognition","survey-text","86","573974","0.0-6.0-3.11","2699891","co38626","norming","","","{""guess"":""""}","","../img/tt/590tt.jpg","",""
"null","../img/gs/590gs.jpg","null","reveal","image-keyboard-response","87","575983","0.0-6.0-4.11","2699891","co38626","norming","","","","","","",""
"null","../img/tt/590tt.jpg","null","mooney2","image-keyboard-response","88","577985","0.0-6.0-5.11","2699891","co38626","norming","","","","","","",""
"3203.210000000079","","","post_reveal_questions","survey-likert","89","581194","0.0-6.0-6.11","2699891","co38626","norming","","","{""aha"":3}","[0]","../img/tt/590tt.jpg","",""
"null","<div style=""font-size:60px;""> </div>","null","fixation","html-keyboard-response","90","581396","0.0-6.0-0.12","2699891","co38626","norming","","","","","","",""
"null","../img/tt/135tt.jpg","null","mooney1","image-keyboard-response","91","584398","0.0-6.0-1.12","2699891","co38626","norming","","","","","","",""
"5706.069999999949","","","post_mooney1_questions","survey-likert","92","590106","0.0-6.0-2.12","2699891","co38626","norming","","","{""curiosity"":4,""confidence"":4}","[0,1]","../img/tt/135tt.jpg","",""
"4094.20000000007","","","recognition","survey-text","93","594202","0.0-6.0-3.12","2699891","co38626","norming","","","{""guess"":""toilet seat""}","","../img/tt/135tt.jpg","",""
"null","../img/gs/135gs.jpg","null","reveal","image-keyboard-response","94","596203","0.0-6.0-4.12","2699891","co38626","norming","","","","","","",""
"null","../img/tt/135tt.jpg","null","mooney2","image-keyboard-response","95","598209","0.0-6.0-5.12","2699891","co38626","norming","","","","","","",""
"2551.134999999893","","","post_reveal_questions","survey-likert","96","600762","0.0-6.0-6.12","2699891","co38626","norming","","","{""aha"":4}","[0]","../img/tt/135tt.jpg","",""
"null","<div style=""font-size:60px;""> </div>","null","fixation","html-keyboard-response","97","600970","0.0-6.0-0.13","2699891","co38626","norming","","","","","","",""
"null","../img/tt/1122tt.jpg","null","mooney1","image-keyboard-response","98","603973","0.0-6.0-1.13","2699891","co38626","norming","","","","","","",""
"4354.319999999949","","","post_mooney1_questions","survey-likert","99","608330","0.0-6.0-2.13","2699891","co38626","norming","","","{""curiosity"":4,""confidence"":1}","[0,1]","../img/tt/1122tt.jpg","",""
"1918.2449999999953","","","recognition","survey-text","100","610250","0.0-6.0-3.13","2699891","co38626","norming","","","{""guess"":""trafix""}","","../img/tt/1122tt.jpg","",""
"null","../img/gs/1122gs.jpg","null","reveal","image-keyboard-response","101","612258","0.0-6.0-4.13","2699891","co38626","norming","","","","","","",""
"null","../img/tt/1122tt.jpg","null","mooney2","image-keyboard-response","102","614260","0.0-6.0-5.13","2699891","co38626","norming","","","","","","",""
"2636.484999999986","","","post_reveal_questions","survey-likert","103","616898","0.0-6.0-6.13","2699891","co38626","norming","","","{""aha"":4}","[0]","../img/tt/1122tt.jpg","",""
"null","<div style=""font-size:60px;""> </div>","null","fixation","html-keyboard-response","104","617102","0.0-6.0-0.14","2699891","co38626","norming","","","","","","",""
"null","../img/tt/096tt.jpg","null","mooney1","image-keyboard-response","105","620113","0.0-6.0-1.14","2699891","co38626","norming","","","","","","",""
"5286.680000000051","","","post_mooney1_questions","survey-likert","106","625402","0.0-6.0-2.14","2699891","co38626","norming","","","{""curiosity"":4,""confidence"":0}","[0,1]","../img/tt/096tt.jpg","",""
"646.3749999998836","","","recognition","survey-text","107","626050","0.0-6.0-3.14","2699891","co38626","norming","","","{""guess"":""""}","","../img/tt/096tt.jpg","",""
"null","../img/gs/096gs.jpg","null","reveal","image-keyboard-response","108","628055","0.0-6.0-4.14","2699891","co38626","norming","","","","","","",""
"null","../img/tt/096tt.jpg","null","mooney2","image-keyboard-response","109","630058","0.0-6.0-5.14","2699891","co38626","norming","","","","","","",""
"3966.305000000051","","","post_reveal_questions","survey-likert","110","634026","0.0-6.0-6.14","2699891","co38626","norming","","","{""aha"":3}","[0]","../img/tt/096tt.jpg","",""
"null","<div style=""font-size:60px;""> </div>","null","fixation","html-keyboard-response","111","634227","0.0-6.0-0.15","2699891","co38626","norming","","","","","","",""
"null","../img/tt/013tt.jpg","null","mooney1","image-keyboard-response","112","637235","0.0-6.0-1.15","2699891","co38626","norming","","","","","","",""
"3885.085000000079","","","post_mooney1_questions","survey-likert","113","641119","0.0-6.0-2.15","2699891","co38626","norming","","","{""curiosity"":4,""confidence"":0}","[0,1]","../img/tt/013tt.jpg","",""
"998.0799999999581","","","recognition","survey-text","114","642119","0.0-6.0-3.15","2699891","co38626","norming","","","{""guess"":""""}","","../img/tt/013tt.jpg","",""
"null","../img/gs/013gs.jpg","null","reveal","image-keyboard-response","115","644125","0.0-6.0-4.15","2699891","co38626","norming","","","","","","",""
"null","../img/tt/013tt.jpg","null","mooney2","image-keyboard-response","116","646127","0.0-6.0-5.15","2699891","co38626","norming","","","","","","",""
"2678.045000000042","","","post_reveal_questions","survey-likert","117","648807","0.0-6.0-6.15","2699891","co38626","norming","","","{""aha"":4}","[0]","../img/tt/013tt.jpg","",""
"null","<div style=""font-size:60px;""> </div>","null","fixation","html-keyboard-response","118","649013","0.0-6.0-0.16","2699891","co38626","norming","","","","","","",""
"null","../img/tt/1276tt.jpg","null","mooney1","image-keyboard-response","119","652022","0.0-6.0-1.16","2699891","co38626","norming","","","","","","",""
"3966.4000000000233","","","post_mooney1_questions","survey-likert","120","655991","0.0-6.0-2.16","2699891","co38626","norming","","","{""curiosity"":4,""confidence"":0}","[0,1]","../img/tt/1276tt.jpg","",""
"1030.115000000107","","","recognition","survey-text","121","657023","0.0-6.0-3.16","2699891","co38626","norming","","","{""guess"":""""}","","../img/tt/1276tt.jpg","",""
"null","../img/gs/1276gs.jpg","null","reveal","image-keyboard-response","122","659025","0.0-6.0-4.16","2699891","co38626","norming","","","","","","",""
"null","../img/tt/1276tt.jpg","null","mooney2","image-keyboard-response","123","661027","0.0-6.0-5.16","2699891","co38626","norming","","","","","","",""
"3745.5400000000373","","","post_reveal_questions","survey-likert","124","664775","0.0-6.0-6.16","2699891","co38626","norming","","","{""aha"":4}","[0]","../img/tt/1276tt.jpg","",""
"null","<div style=""font-size:60px;""> </div>","null","fixation","html-keyboard-response","125","664977","0.0-6.0-0.17","2699891","co38626","norming","","","","","","",""
"null","../img/tt/1159tt.jpg","null","mooney1","image-keyboard-response","126","667983","0.0-6.0-1.17","2699891","co38626","norming","","","","","","",""
"6741.505000000005","","","post_mooney1_questions","survey-likert","127","674727","0.0-6.0-2.17","2699891","co38626","norming","","","{""curiosity"":4,""confidence"":1}","[0,1]","../img/tt/1159tt.jpg","",""
"6685.869999999879","","","recognition","survey-text","128","681415","0.0-6.0-3.17","2699891","co38626","norming","","","{""guess"":""view house""}","","../img/tt/1159tt.jpg","",""
"null","../img/gs/1159gs.jpg","null","reveal","image-keyboard-response","129","683416","0.0-6.0-4.17","2699891","co38626","norming","","","","","","",""
"null","../img/tt/1159tt.jpg","null","mooney2","image-keyboard-response","130","685420","0.0-6.0-5.17","2699891","co38626","norming","","","","","","",""
"3490.0749999999534","","","post_reveal_questions","survey-likert","131","688911","0.0-6.0-6.17","2699891","co38626","norming","","","{""aha"":4}","[0]","../img/tt/1159tt.jpg","",""
"null","<div style=""font-size:60px;""> </div>","null","fixation","html-keyboard-response","132","689116","0.0-6.0-0.18","2699891","co38626","norming","","","","","","",""
"null","../img/tt/442tt.jpg","null","mooney1","image-keyboard-response","133","692126","0.0-6.0-1.18","2699891","co38626","norming","","","","","","",""
"4198.204999999958","","","post_mooney1_questions","survey-likert","134","696327","0.0-6.0-2.18","2699891","co38626","norming","","","{""curiosity"":4,""confidence"":1}","[0,1]","../img/tt/442tt.jpg","",""
"1870.1849999999395","","","recognition","survey-text","135","698199","0.0-6.0-3.18","2699891","co38626","norming","","","{""guess"":""animal""}","","../img/tt/442tt.jpg","",""
"null","../img/gs/442gs.jpg","null","reveal","image-keyboard-response","136","700209","0.0-6.0-4.18","2699891","co38626","norming","","","","","","",""
"null","../img/tt/442tt.jpg","null","mooney2","image-keyboard-response","137","702220","0.0-6.0-5.18","2699891","co38626","norming","","","","","","",""
"3708.045000000042","","","post_reveal_questions","survey-likert","138","705930","0.0-6.0-6.18","2699891","co38626","norming","","","{""aha"":4}","[0]","../img/tt/442tt.jpg","",""
"null","<div style=""font-size:60px;""> </div>","null","fixation","html-keyboard-response","139","706140","0.0-6.0-0.19","2699891","co38626","norming","","","","","","",""
"null","../img/tt/1205tt.jpg","null","mooney1","image-keyboard-response","140","709144","0.0-6.0-1.19","2699891","co38626","norming","","","","","","",""
"3535.439999999944","","","post_mooney1_questions","survey-likert","141","712682","0.0-6.0-2.19","2699891","co38626","norming","","","{""curiosity"":4,""confidence"":0}","[0,1]","../img/tt/1205tt.jpg","",""
"646.2849999999162","","","recognition","survey-text","142","713330","0.0-6.0-3.19","2699891","co38626","norming","","","{""guess"":""""}","","../img/tt/1205tt.jpg","",""
"null","../img/gs/1205gs.jpg","null","reveal","image-keyboard-response","143","715340","0.0-6.0-4.19","2699891","co38626","norming","","","","","","",""
"null","../img/tt/1205tt.jpg","null","mooney2","image-keyboard-response","144","717342","0.0-6.0-5.19","2699891","co38626","norming","","","","","","",""
"2169.8950000000186","","","post_reveal_questions","survey-likert","145","719514","0.0-6.0-6.19","2699891","co38626","norming","","","{""aha"":4}","[0]","../img/tt/1205tt.jpg","",""
"null","<div style=""font-size:60px;""> </div>","null","fixation","html-keyboard-response","146","719718","0.0-6.0-0.20","2699891","co38626","norming","","","","","","",""
"null","../img/tt/063tt.jpg","null","mooney1","image-keyboard-response","147","722721","0.0-6.0-1.20","2699891","co38626","norming","","","","","","",""
"3926.2850000000326","","","post_mooney1_questions","survey-likert","148","726650","0.0-6.0-2.20","2699891","co38626","norming","","","{""curiosity"":4,""confidence"":0}","[0,1]","../img/tt/063tt.jpg","",""
"998.2499999998836","","","recognition","survey-text","149","727650","0.0-6.0-3.20","2699891","co38626","norming","","","{""guess"":""""}","","../img/tt/063tt.jpg","",""
"null","../img/gs/063gs.jpg","null","reveal","image-keyboard-response","150","729654","0.0-6.0-4.20","2699891","co38626","norming","","","","","","",""
"null","../img/tt/063tt.jpg","null","mooney2","image-keyboard-response","151","731663","0.0-6.0-5.20","2699891","co38626","norming","","","","","","",""
"2009.2600000000093","","","post_reveal_questions","survey-likert","152","733674","0.0-6.0-6.20","2699891","co38626","norming","","","{""aha"":3}","[0]","../img/tt/063tt.jpg","",""
"null","<div style=""font-size:60px;""> </div>","null","fixation","html-keyboard-response","153","733885","0.0-6.0-0.21","2699891","co38626","norming","","","","","","",""
"null","../img/tt/1078tt.jpg","null","mooney1","image-keyboard-response","154","736888","0.0-6.0-1.21","2699891","co38626","norming","","","","","","",""
"5335.204999999958","","","post_mooney1_questions","survey-likert","155","742226","0.0-6.0-2.21","2699891","co38626","norming","","","{""curiosity"":4,""confidence"":4}","[0,1]","../img/tt/1078tt.jpg","",""
"2918.210000000079","","","recognition","survey-text","156","745146","0.0-6.0-3.21","2699891","co38626","norming","","","{""guess"":""skater""}","","../img/tt/1078tt.jpg","",""
"null","../img/gs/1078gs.jpg","null","reveal","image-keyboard-response","157","747156","0.0-6.0-4.21","2699891","co38626","norming","","","","","","",""
"null","../img/tt/1078tt.jpg","null","mooney2","image-keyboard-response","158","749159","0.0-6.0-5.21","2699891","co38626","norming","","","","","","",""
"2841.3300000000745","","","post_reveal_questions","survey-likert","159","752002","0.0-6.0-6.21","2699891","co38626","norming","","","{""aha"":2}","[0]","../img/tt/1078tt.jpg","",""
"null","<div style=""font-size:60px;""> </div>","null","fixation","html-keyboard-response","160","752204","0.0-6.0-0.22","2699891","co38626","norming","","","","","","",""
"null","../img/tt/1228tt.jpg","null","mooney1","image-keyboard-response","161","755212","0.0-6.0-1.22","2699891","co38626","norming","","","","","","",""
"5179.6849999999395","","","post_mooney1_questions","survey-likert","162","760394","0.0-6.0-2.22","2699891","co38626","norming","","","{""curiosity"":4,""confidence"":5}","[0,1]","../img/tt/1228tt.jpg","",""
"2062.1600000000326","","","recognition","survey-text","163","762457","0.0-6.0-3.22","2699891","co38626","norming","","","{""guess"":""swimmer""}","","../img/tt/1228tt.jpg","",""
"null","../img/gs/1228gs.jpg","null","reveal","image-keyboard-response","164","764468","0.0-6.0-4.22","2699891","co38626","norming","","","","","","",""
"null","../img/tt/1228tt.jpg","null","mooney2","image-keyboard-response","165","766470","0.0-6.0-5.22","2699891","co38626","norming","","","","","","",""
"5680.689999999944","","","post_reveal_questions","survey-likert","166","772153","0.0-6.0-6.22","2699891","co38626","norming","","","{""aha"":1}","[0]","../img/tt/1228tt.jpg","",""
"null","<div style=""font-size:60px;""> </div>","null","fixation","html-keyboard-response","167","772359","0.0-6.0-0.23","2699891","co38626","norming","","","","","","",""
"null","../img/tt/1089tt.jpg","null","mooney1","image-keyboard-response","168","775367","0.0-6.0-1.23","2699891","co38626","norming","","","","","","",""
"6953.520000000019","","","post_mooney1_questions","survey-likert","169","782322","0.0-6.0-2.23","2699891","co38626","norming","","","{""curiosity"":5,""confidence"":2}","[0,1]","../img/tt/1089tt.jpg","",""
"1862.0499999999302","","","recognition","survey-text","170","784185","0.0-6.0-3.23","2699891","co38626","norming","","","{""guess"":""dog""}","","../img/tt/1089tt.jpg","",""
"null","../img/gs/1089gs.jpg","null","reveal","image-keyboard-response","171","786193","0.0-6.0-4.23","2699891","co38626","norming","","","","","","",""
"null","../img/tt/1089tt.jpg","null","mooney2","image-keyboard-response","172","788195","0.0-6.0-5.23","2699891","co38626","norming","","","","","","",""
"7372.594999999972","","","post_reveal_questions","survey-likert","173","795569","0.0-6.0-6.23","2699891","co38626","norming","","","{""aha"":2}","[0]","../img/tt/1089tt.jpg","",""
"null","<div style=""font-size:60px;""> </div>","null","fixation","html-keyboard-response","174","795771","0.0-6.0-0.24","2699891","co38626","norming","","","","","","",""
"null","../img/tt/301tt.jpg","null","mooney1","image-keyboard-response","175","798775","0.0-6.0-1.24","2699891","co38626","norming","","","","","","",""
"5423.539999999921","","","post_mooney1_questions","survey-likert","176","804202","0.0-6.0-2.24","2699891","co38626","norming","","","{""curiosity"":3,""confidence"":0}","[0,1]","../img/tt/301tt.jpg","",""
"846.125","","","recognition","survey-text","177","805049","0.0-6.0-3.24","2699891","co38626","norming","","","{""guess"":""""}","","../img/tt/301tt.jpg","",""
"null","../img/gs/301gs.jpg","null","reveal","image-keyboard-response","178","807051","0.0-6.0-4.24","2699891","co38626","norming","","","","","","",""
"null","../img/tt/301tt.jpg","null","mooney2","image-keyboard-response","179","809057","0.0-6.0-5.24","2699891","co38626","norming","","","","","","",""
"3213.7550000000047","","","post_reveal_questions","survey-likert","180","812273","0.0-6.0-6.24","2699891","co38626","norming","","","{""aha"":3}","[0]","../img/tt/301tt.jpg","",""
"null","<div style=""font-size:60px;""> </div>","null","fixation","html-keyboard-response","181","812478","0.0-6.0-0.25","2699891","co38626","norming","","","","","","",""
"null","../img/tt/1063tt.jpg","null","mooney1","image-keyboard-response","182","815481","0.0-6.0-1.25","2699891","co38626","norming","","","","","","",""
"3583.969999999972","","","post_mooney1_questions","survey-likert","183","819065","0.0-6.0-2.25","2699891","co38626","norming","","","{""curiosity"":4,""confidence"":1}","[0,1]","../img/tt/1063tt.jpg","",""
"1854.1600000000326","","","recognition","survey-text","184","820921","0.0-6.0-3.25","2699891","co38626","norming","","","{""guess"":""animals""}","","../img/tt/1063tt.jpg","",""
"null","../img/gs/1063gs.jpg","null","reveal","image-keyboard-response","185","822927","0.0-6.0-4.25","2699891","co38626","norming","","","","","","",""
"null","../img/tt/1063tt.jpg","null","mooney2","image-keyboard-response","186","824935","0.0-6.0-5.25","2699891","co38626","norming","","","","","","",""
"8384.879999999888","","","post_reveal_questions","survey-likert","187","833322","0.0-6.0-6.25","2699891","co38626","norming","","","{""aha"":4}","[0]","../img/tt/1063tt.jpg","",""
"null","<div style=""font-size:60px;""> </div>","null","fixation","html-keyboard-response","188","833524","0.0-6.0-0.26","2699891","co38626","norming","","","","","","",""
"null","../img/tt/1191tt.jpg","null","mooney1","image-keyboard-response","189","836527","0.0-6.0-1.26","2699891","co38626","norming","","","","","","",""
"5624.364999999991","","","post_mooney1_questions","survey-likert","190","842154","0.0-6.0-2.26","2699891","co38626","norming","","","{""curiosity"":4,""confidence"":2}","[0,1]","../img/tt/1191tt.jpg","",""
"4366.104999999981","","","recognition","survey-text","191","846522","0.0-6.0-3.26","2699891","co38626","norming","","","{""guess"":""deer""}","","../img/tt/1191tt.jpg","",""
"null","../img/gs/1191gs.jpg","null","reveal","image-keyboard-response","192","848530","0.0-6.0-4.26","2699891","co38626","norming","","","","","","",""
"null","../img/tt/1191tt.jpg","null","mooney2","image-keyboard-response","193","850534","0.0-6.0-5.26","2699891","co38626","norming","","","","","","",""
"2074.5000000001164","","","post_reveal_questions","survey-likert","194","852610","0.0-6.0-6.26","2699891","co38626","norming","","","{""aha"":3}","[0]","../img/tt/1191tt.jpg","",""
"null","<div style=""font-size:60px;""> </div>","null","fixation","html-keyboard-response","195","852813","0.0-6.0-0.27","2699891","co38626","norming","","","","","","",""
"null","../img/tt/055tt.jpg","null","mooney1","image-keyboard-response","196","855816","0.0-6.0-1.27","2699891","co38626","norming","","","","","","",""
"5761.179999999935","","","post_mooney1_questions","survey-likert","197","861578","0.0-6.0-2.27","2699891","co38626","norming","","","{""curiosity"":3,""confidence"":0}","[0,1]","../img/tt/055tt.jpg","",""
"957.8050000000512","","","recognition","survey-text","198","862538","0.0-6.0-3.27","2699891","co38626","norming","","","{""guess"":""""}","","../img/tt/055tt.jpg","",""
"null","../img/gs/055gs.jpg","null","reveal","image-keyboard-response","199","864549","0.0-6.0-4.27","2699891","co38626","norming","","","","","","",""
"null","../img/tt/055tt.jpg","null","mooney2","image-keyboard-response","200","866560","0.0-6.0-5.27","2699891","co38626","norming","","","","","","",""
"2440.155000000028","","","post_reveal_questions","survey-likert","201","869002","0.0-6.0-6.27","2699891","co38626","norming","","","{""aha"":3}","[0]","../img/tt/055tt.jpg","",""
"null","<div style=""font-size:60px;""> </div>","null","fixation","html-keyboard-response","202","869206","0.0-6.0-0.28","2699891","co38626","norming","","","","","","",""
"null","../img/tt/1269tt.jpg","null","mooney1","image-keyboard-response","203","872218","0.0-6.0-1.28","2699891","co38626","norming","","","","","","",""
"5637.685000000056","","","post_mooney1_questions","survey-likert","204","877858","0.0-6.0-2.28","2699891","co38626","norming","","","{""curiosity"":4,""confidence"":1}","[0,1]","../img/tt/1269tt.jpg","",""
"2310.215000000084","","","recognition","survey-text","205","880170","0.0-6.0-3.28","2699891","co38626","norming","","","{""guess"":""animal""}","","../img/tt/1269tt.jpg","",""
"null","../img/gs/1269gs.jpg","null","reveal","image-keyboard-response","206","882171","0.0-6.0-4.28","2699891","co38626","norming","","","","","","",""
"null","../img/tt/1269tt.jpg","null","mooney2","image-keyboard-response","207","884177","0.0-6.0-5.28","2699891","co38626","norming","","","","","","",""
"4230.755000000005","","","post_reveal_questions","survey-likert","208","888410","0.0-6.0-6.28","2699891","co38626","norming","","","{""aha"":4}","[0]","../img/tt/1269tt.jpg","",""
"null","<div style=""font-size:60px;""> </div>","null","fixation","html-keyboard-response","209","888613","0.0-6.0-0.29","2699891","co38626","norming","","","","","","",""
"null","../img/tt/1070tt.jpg","null","mooney1","image-keyboard-response","210","891623","0.0-6.0-1.29","2699891","co38626","norming","","","","","","",""
"3840.034999999916","","","post_mooney1_questions","survey-likert","211","895467","0.0-6.0-2.29","2699891","co38626","norming","","","{""curiosity"":4,""confidence"":0}","[0,1]","../img/tt/1070tt.jpg","",""
"2173.8599999998696","","","recognition","survey-text","212","897642","0.0-6.0-3.29","2699891","co38626","norming","","","{""guess"":""food""}","","../img/tt/1070tt.jpg","",""
"null","../img/gs/1070gs.jpg","null","reveal","image-keyboard-response","213","899648","0.0-6.0-4.29","2699891","co38626","norming","","","","","","",""
"null","../img/tt/1070tt.jpg","null","mooney2","image-keyboard-response","214","901657","0.0-6.0-5.29","2699891","co38626","norming","","","","","","",""
"4015.444999999949","","","post_reveal_questions","survey-likert","215","905674","0.0-6.0-6.29","2699891","co38626","norming","","","{""aha"":4}","[0]","../img/tt/1070tt.jpg","",""
"null","<div style=""font-size:60px;""> </div>","null","fixation","html-keyboard-response","216","905878","0.0-6.0-0.30","2699891","co38626","norming","","","","","","",""
"null","../img/tt/456tt.jpg","null","mooney1","image-keyboard-response","217","908883","0.0-6.0-1.30","2699891","co38626","norming","","","","","","",""
"3166.3500000002095","","","post_mooney1_questions","survey-likert","218","912050","0.0-6.0-2.30","2699891","co38626","norming","","","{""curiosity"":4,""confidence"":1}","[0,1]","../img/tt/456tt.jpg","",""
"781.6500000001397","","","recognition","survey-text","219","912834","0.0-6.0-3.30","2699891","co38626","norming","","","{""guess"":""""}","","../img/tt/456tt.jpg","",""
"null","../img/gs/456gs.jpg","null","reveal","image-keyboard-response","220","914840","0.0-6.0-4.30","2699891","co38626","norming","","","","","","",""
"null","../img/tt/456tt.jpg","null","mooney2","image-keyboard-response","221","916847","0.0-6.0-5.30","2699891","co38626","norming","","","","","","",""
"3329.9150000000373","","","post_reveal_questions","survey-likert","222","920178","0.0-6.0-6.30","2699891","co38626","norming","","","{""aha"":4}","[0]","../img/tt/456tt.jpg","",""
"null","<div style=""font-size:60px;""> </div>","null","fixation","html-keyboard-response","223","920385","0.0-6.0-0.31","2699891","co38626","norming","","","","","","",""
"null","../img/tt/270tt.jpg","null","mooney1","image-keyboard-response","224","923396","0.0-6.0-1.31","2699891","co38626","norming","","","","","","",""
"5621.364999999991","","","post_mooney1_questions","survey-likert","225","929018","0.0-6.0-2.31","2699891","co38626","norming","","","{""curiosity"":4,""confidence"":0}","[0,1]","../img/tt/270tt.jpg","",""
"637.7049999999581","","","recognition","survey-text","226","929658","0.0-6.0-3.31","2699891","co38626","norming","","","{""guess"":""""}","","../img/tt/270tt.jpg","",""
"null","../img/gs/270gs.jpg","null","reveal","image-keyboard-response","227","931668","0.0-6.0-4.31","2699891","co38626","norming","","","","","","",""
"null","../img/tt/270tt.jpg","null","mooney2","image-keyboard-response","228","933669","0.0-6.0-5.31","2699891","co38626","norming","","","","","","",""
"2475.384999999893","","","post_reveal_questions","survey-likert","229","936146","0.0-6.0-6.31","2699891","co38626","norming","","","{""aha"":0}","[0]","../img/tt/270tt.jpg","",""
"null","<div style=""font-size:60px;""> </div>","null","fixation","html-keyboard-response","230","936349","0.0-6.0-0.32","2699891","co38626","norming","","","","","","",""
"null","../img/tt/1255tt.jpg","null","mooney1","image-keyboard-response","231","939354","0.0-6.0-1.32","2699891","co38626","norming","","","","","","",""
"3367.6350000001257","","","post_mooney1_questions","survey-likert","232","942722","0.0-6.0-2.32","2699891","co38626","norming","","","{""curiosity"":4,""confidence"":0}","[0,1]","../img/tt/1255tt.jpg","",""
"1190.160000000149","","","recognition","survey-text","233","943914","0.0-6.0-3.32","2699891","co38626","norming","","","{""guess"":""""}","","../img/tt/1255tt.jpg","",""
"null","../img/gs/1255gs.jpg","null","reveal","image-keyboard-response","234","945925","0.0-6.0-4.32","2699891","co38626","norming","","","","","","",""
"null","../img/tt/1255tt.jpg","null","mooney2","image-keyboard-response","235","947926","0.0-6.0-5.32","2699891","co38626","norming","","","","","","",""
"1712.3200000000652","","","post_reveal_questions","survey-likert","236","949642","0.0-6.0-6.32","2699891","co38626","norming","","","{""aha"":0}","[0]","../img/tt/1255tt.jpg","",""
"null","<div style=""font-size:60px;""> </div>","null","fixation","html-keyboard-response","237","949847","0.0-6.0-0.33","2699891","co38626","norming","","","","","","",""
"null","../img/tt/1154tt.jpg","null","mooney1","image-keyboard-response","238","952858","0.0-6.0-1.33","2699891","co38626","norming","","","","","","",""
"3788.7750000000233","","","post_mooney1_questions","survey-likert","239","956650","0.0-6.0-2.33","2699891","co38626","norming","","","{""curiosity"":3,""confidence"":0}","[0,1]","../img/tt/1154tt.jpg","",""
"1382.140000000014","","","recognition","survey-text","240","958034","0.0-6.0-3.33","2699891","co38626","norming","","","{""guess"":""""}","","../img/tt/1154tt.jpg","",""
"null","../img/gs/1154gs.jpg","null","reveal","image-keyboard-response","241","960042","0.0-6.0-4.33","2699891","co38626","norming","","","","","","",""
"null","../img/tt/1154tt.jpg","null","mooney2","image-keyboard-response","242","962046","0.0-6.0-5.33","2699891","co38626","norming","","","","","","",""
"2057.860000000219","","","post_reveal_questions","survey-likert","243","964106","0.0-6.0-6.33","2699891","co38626","norming","","","{""aha"":1}","[0]","../img/tt/1154tt.jpg","",""
"null","<div style=""font-size:60px;""> </div>","null","fixation","html-keyboard-response","244","964310","0.0-6.0-0.34","2699891","co38626","norming","","","","","","",""
"null","../img/tt/1199tt.jpg","null","mooney1","image-keyboard-response","245","967320","0.0-6.0-1.34","2699891","co38626","norming","","","","","","",""
"4023.4049999999115","","","post_mooney1_questions","survey-likert","246","971346","0.0-6.0-2.34","2699891","co38626","norming","","","{""curiosity"":4,""confidence"":2}","[0,1]","../img/tt/1199tt.jpg","",""
"2262.2949999999255","","","recognition","survey-text","247","973610","0.0-6.0-3.34","2699891","co38626","norming","","","{""guess"":""driver""}","","../img/tt/1199tt.jpg","",""
"null","../img/gs/1199gs.jpg","null","reveal","image-keyboard-response","248","975619","0.0-6.0-4.34","2699891","co38626","norming","","","","","","",""
"null","../img/tt/1199tt.jpg","null","mooney2","image-keyboard-response","249","977621","0.0-6.0-5.34","2699891","co38626","norming","","","","","","",""
"3738.6149999999907","","","post_reveal_questions","survey-likert","250","981362","0.0-6.0-6.34","2699891","co38626","norming","","","{""aha"":2}","[0]","../img/tt/1199tt.jpg","",""
"null","<div style=""font-size:60px;""> </div>","null","fixation","html-keyboard-response","251","981566","0.0-6.0-0.35","2699891","co38626","norming","","","","","","",""
"null","../img/tt/1202tt.jpg","null","mooney1","image-keyboard-response","252","984569","0.0-6.0-1.35","2699891","co38626","norming","","","","","","",""
"3782.069999999949","","","post_mooney1_questions","survey-likert","253","988354","0.0-6.0-2.35","2699891","co38626","norming","","","{""curiosity"":3,""confidence"":0}","[0,1]","../img/tt/1202tt.jpg","",""
"989.5549999998184","","","recognition","survey-text","254","989346","0.0-6.0-3.35","2699891","co38626","norming","","","{""guess"":""""}","","../img/tt/1202tt.jpg","",""
"null","../img/gs/1202gs.jpg","null","reveal","image-keyboard-response","255","991355","0.0-6.0-4.35","2699891","co38626","norming","","","","","","",""
"null","../img/tt/1202tt.jpg","null","mooney2","image-keyboard-response","256","993358","0.0-6.0-5.35","2699891","co38626","norming","","","","","","",""
"1770.1500000000233","","","post_reveal_questions","survey-likert","257","995130","0.0-6.0-6.35","2699891","co38626","norming","","","{""aha"":1}","[0]","../img/tt/1202tt.jpg","",""
"null","<div style=""font-size:60px;""> </div>","null","fixation","html-keyboard-response","258","995339","0.0-6.0-0.36","2699891","co38626","norming","","","","","","",""
"null","../img/tt/1080tt.jpg","null","mooney1","image-keyboard-response","259","998346","0.0-6.0-1.36","2699891","co38626","norming","","","","","","",""
"3564.6249999998836","","","post_mooney1_questions","survey-likert","260","1001914","0.0-6.0-2.36","2699891","co38626","norming","","","{""curiosity"":3,""confidence"":0}","[0,1]","../img/tt/1080tt.jpg","",""
"1245.8850000001257","","","recognition","survey-text","261","1003162","0.0-6.0-3.36","2699891","co38626","norming","","","{""guess"":""""}","","../img/tt/1080tt.jpg","",""
"null","../img/gs/1080gs.jpg","null","reveal","image-keyboard-response","262","1005163","0.0-6.0-4.36","2699891","co38626","norming","","","","","","",""
"null","../img/tt/1080tt.jpg","null","mooney2","image-keyboard-response","263","1007168","0.0-6.0-5.36","2699891","co38626","norming","","","","","","",""
"1789.0000000001164","","","post_reveal_questions","survey-likert","264","1008957","0.0-6.0-6.36","2699891","co38626","norming","","","{""aha"":0}","[0]","../img/tt/1080tt.jpg","",""
"null","<div style=""font-size:60px;""> </div>","null","fixation","html-keyboard-response","265","1009163","0.0-6.0-0.37","2699891","co38626","norming","","","","","","",""
"null","../img/tt/496tt.jpg","null","mooney1","image-keyboard-response","266","1012166","0.0-6.0-1.37","2699891","co38626","norming","","","","","","",""
"7276.089999999967","","","post_mooney1_questions","survey-likert","267","1019446","0.0-6.0-2.37","2699891","co38626","norming","","","{""curiosity"":2,""confidence"":0}","[0,1]","../img/tt/496tt.jpg","",""
"1885.9150000000373","","","recognition","survey-text","268","1021333","0.0-6.0-3.37","2699891","co38626","norming","","","{""guess"":""""}","","../img/tt/496tt.jpg","",""
"null","../img/gs/496gs.jpg","null","reveal","image-keyboard-response","269","1023339","0.0-6.0-4.37","2699891","co38626","norming","","","","","","",""
"null","../img/tt/496tt.jpg","null","mooney2","image-keyboard-response","270","1025341","0.0-6.0-5.37","2699891","co38626","norming","","","","","","",""
"3901.32500000007","","","post_reveal_questions","survey-likert","271","1029245","0.0-6.0-6.37","2699891","co38626","norming","","","{""aha"":1}","[0]","../img/tt/496tt.jpg","",""
"null","<div style=""font-size:60px;""> </div>","null","fixation","html-keyboard-response","272","1029451","0.0-6.0-0.38","2699891","co38626","norming","","","","","","",""
"null","../img/tt/1044tt.jpg","null","mooney1","image-keyboard-response","273","1032459","0.0-6.0-1.38","2699891","co38626","norming","","","","","","",""
"3935.7449999999953","","","post_mooney1_questions","survey-likert","274","1036398","0.0-6.0-2.38","2699891","co38626","norming","","","{""curiosity"":2,""confidence"":0}","[0,1]","../img/tt/1044tt.jpg","",""
"733.9999999998836","","","recognition","survey-text","275","1037133","0.0-6.0-3.38","2699891","co38626","norming","","","{""guess"":""""}","","../img/tt/1044tt.jpg","",""
"null","../img/gs/1044gs.jpg","null","reveal","image-keyboard-response","276","1039144","0.0-6.0-4.38","2699891","co38626","norming","","","","","","",""
"null","../img/tt/1044tt.jpg","null","mooney2","image-keyboard-response","277","1041154","0.0-6.0-5.38","2699891","co38626","norming","","","","","","",""
"1721.9300000001676","","","post_reveal_questions","survey-likert","278","1042877","0.0-6.0-6.38","2699891","co38626","norming","","","{""aha"":0}","[0]","../img/tt/1044tt.jpg","",""
"null","<div style=""font-size:60px;""> </div>","null","fixation","html-keyboard-response","279","1043088","0.0-6.0-0.39","2699891","co38626","norming","","","","","","",""
"null","../img/tt/300tt.jpg","null","mooney1","image-keyboard-response","280","1046092","0.0-6.0-1.39","2699891","co38626","norming","","","","","","",""
"6078.390000000014","","","post_mooney1_questions","survey-likert","281","1052174","0.0-6.0-2.39","2699891","co38626","norming","","","{""curiosity"":2,""confidence"":1}","[0,1]","../img/tt/300tt.jpg","",""
"2381.6400000001304","","","recognition","survey-text","282","1054557","0.0-6.0-3.39","2699891","co38626","norming","","","{""guess"":""indian""}","","../img/tt/300tt.jpg","",""
"null","../img/gs/300gs.jpg","null","reveal","image-keyboard-response","283","1056565","0.0-6.0-4.39","2699891","co38626","norming","","","","","","",""
"null","../img/tt/300tt.jpg","null","mooney2","image-keyboard-response","284","1058567","0.0-6.0-5.39","2699891","co38626","norming","","","","","","",""
"2531.850000000093","","","post_reveal_questions","survey-likert","285","1061101","0.0-6.0-6.39","2699891","co38626","norming","","","{""aha"":3}","[0]","../img/tt/300tt.jpg","",""
"null","<div style=""font-size:60px;""> </div>","null","fixation","html-keyboard-response","286","1061305","0.0-6.0-0.40","2699891","co38626","norming","","","","","","",""
"null","../img/tt/1279tt.jpg","null","mooney1","image-keyboard-response","287","1064317","0.0-6.0-1.40","2699891","co38626","norming","","","","","","",""
"8189.804999999935","","","post_mooney1_questions","survey-likert","288","1072513","0.0-6.0-2.40","2699891","co38626","norming","","","{""curiosity"":4,""confidence"":1}","[0,1]","../img/tt/1279tt.jpg","",""
"909.875","","","recognition","survey-text","289","1073424","0.0-6.0-3.40","2699891","co38626","norming","","","{""guess"":""""}","","../img/tt/1279tt.jpg","",""
"null","../img/gs/1279gs.jpg","null","reveal","image-keyboard-response","290","1075433","0.0-6.0-4.40","2699891","co38626","norming","","","","","","",""
"null","../img/tt/1279tt.jpg","null","mooney2","image-keyboard-response","291","1077434","0.0-6.0-5.40","2699891","co38626","norming","","","","","","",""
"4733.914999999804","","","post_reveal_questions","survey-likert","292","1082168","0.0-6.0-6.40","2699891","co38626","norming","","","{""aha"":2}","[0]","../img/tt/1279tt.jpg","",""
"null","<div style=""font-size:60px;""> </div>","null","fixation","html-keyboard-response","293","1082377","0.0-6.0-0.41","2699891","co38626","norming","","","","","","",""
"null","../img/tt/1181tt.jpg","null","mooney1","image-keyboard-response","294","1085381","0.0-6.0-1.41","2699891","co38626","norming","","","","","","",""
"5466.494999999879","","","post_mooney1_questions","survey-likert","295","1090849","0.0-6.0-2.41","2699891","co38626","norming","","","{""curiosity"":4,""confidence"":4}","[0,1]","../img/tt/1181tt.jpg","",""
"1725.8649999997579","","","recognition","survey-text","296","1092576","0.0-6.0-3.41","2699891","co38626","norming","","","{""guess"":""guys""}","","../img/tt/1181tt.jpg","",""
"null","../img/gs/1181gs.jpg","null","reveal","image-keyboard-response","297","1094578","0.0-6.0-4.41","2699891","co38626","norming","","","","","","",""
"null","../img/tt/1181tt.jpg","null","mooney2","image-keyboard-response","298","1096584","0.0-6.0-5.41","2699891","co38626","norming","","","","","","",""
"2870.0049999998882","","","post_reveal_questions","survey-likert","299","1099456","0.0-6.0-6.41","2699891","co38626","norming","","","{""aha"":3}","[0]","../img/tt/1181tt.jpg","",""
"null","<div style=""font-size:60px;""> </div>","null","fixation","html-keyboard-response","300","1099660","0.0-6.0-0.42","2699891","co38626","norming","","","","","","",""
"null","../img/tt/1217tt.jpg","null","mooney1","image-keyboard-response","301","1102668","0.0-6.0-1.42","2699891","co38626","norming","","","","","","",""
"4569.245000000112","","","post_mooney1_questions","survey-likert","302","1107240","0.0-6.0-2.42","2699891","co38626","norming","","","{""curiosity"":4,""confidence"":1}","[0,1]","../img/tt/1217tt.jpg","",""
"2422.060000000056","","","recognition","survey-text","303","1109664","0.0-6.0-3.42","2699891","co38626","norming","","","{""guess"":""people""}","","../img/tt/1217tt.jpg","",""
"null","../img/gs/1217gs.jpg","null","reveal","image-keyboard-response","304","1111666","0.0-6.0-4.42","2699891","co38626","norming","","","","","","",""
"null","../img/tt/1217tt.jpg","null","mooney2","image-keyboard-response","305","1113669","0.0-6.0-5.42","2699891","co38626","norming","","","","","","",""
"4213.594999999972","","","post_reveal_questions","survey-likert","306","1117889","0.0-6.0-6.42","2699891","co38626","norming","","","{""aha"":2}","[0]","../img/tt/1217tt.jpg","",""
"null","<div style=""font-size:60px;""> </div>","null","fixation","html-keyboard-response","307","1118098","0.0-6.0-0.43","2699891","co38626","norming","","","","","","",""
"null","../img/tt/598tt.jpg","null","mooney1","image-keyboard-response","308","1121101","0.0-6.0-1.43","2699891","co38626","norming","","","","","","",""
"4024.3899999998976","","","post_mooney1_questions","survey-likert","309","1125128","0.0-6.0-2.43","2699891","co38626","norming","","","{""curiosity"":2,""confidence"":0}","[0,1]","../img/tt/598tt.jpg","",""
"1309.8149999999441","","","recognition","survey-text","310","1126440","0.0-6.0-3.43","2699891","co38626","norming","","","{""guess"":""""}","","../img/tt/598tt.jpg","",""
"null","../img/gs/598gs.jpg","null","reveal","image-keyboard-response","311","1128446","0.0-6.0-4.43","2699891","co38626","norming","","","","","","",""
"null","../img/tt/598tt.jpg","null","mooney2","image-keyboard-response","312","1130455","0.0-6.0-5.43","2699891","co38626","norming","","","","","","",""
"2105.2099999999627","","","post_reveal_questions","survey-likert","313","1132563","0.0-6.0-6.43","2699891","co38626","norming","","","{""aha"":2}","[0]","../img/tt/598tt.jpg","",""
"null","<div style=""font-size:60px;""> </div>","null","fixation","html-keyboard-response","314","1132766","0.0-6.0-0.44","2699891","co38626","norming","","","","","","",""
"null","../img/tt/163tt.jpg","null","mooney1","image-keyboard-response","315","1135777","0.0-6.0-1.44","2699891","co38626","norming","","","","","","",""
"3878.649999999907","","","post_mooney1_questions","survey-likert","316","1139659","0.0-6.0-2.44","2699891","co38626","norming","","","{""curiosity"":3,""confidence"":0}","[0,1]","../img/tt/163tt.jpg","",""
"1254.3049999999348","","","recognition","survey-text","317","1140915","0.0-6.0-3.44","2699891","co38626","norming","","","{""guess"":""""}","","../img/tt/163tt.jpg","",""
"null","../img/gs/163gs.jpg","null","reveal","image-keyboard-response","318","1142920","0.0-6.0-4.44","2699891","co38626","norming","","","","","","",""
"null","../img/tt/163tt.jpg","null","mooney2","image-keyboard-response","319","1144928","0.0-6.0-5.44","2699891","co38626","norming","","","","","","",""
"4231.995000000112","","","post_reveal_questions","survey-likert","320","1149163","0.0-6.0-6.44","2699891","co38626","norming","","","{""aha"":2}","[0]","../img/tt/163tt.jpg","",""
"null","<div style=""font-size:60px;""> </div>","null","fixation","html-keyboard-response","321","1149367","0.0-6.0-0.45","2699891","co38626","norming","","","","","","",""
"null","../img/tt/418tt.jpg","null","mooney1","image-keyboard-response","322","1152376","0.0-6.0-1.45","2699891","co38626","norming","","","","","","",""
"4719.095000000205","","","post_mooney1_questions","survey-likert","323","1157099","0.0-6.0-2.45","2699891","co38626","norming","","","{""curiosity"":3,""confidence"":0}","[0,1]","../img/tt/418tt.jpg","",""
"766.0200000000186","","","recognition","survey-text","324","1157867","0.0-6.0-3.45","2699891","co38626","norming","","","{""guess"":""""}","","../img/tt/418tt.jpg","",""
"null","../img/gs/418gs.jpg","null","reveal","image-keyboard-response","325","1159877","0.0-6.0-4.45","2699891","co38626","norming","","","","","","",""
"null","../img/tt/418tt.jpg","null","mooney2","image-keyboard-response","326","1161880","0.0-6.0-5.45","2699891","co38626","norming","","","","","","",""
"2024.9899999999907","","","post_reveal_questions","survey-likert","327","1163907","0.0-6.0-6.45","2699891","co38626","norming","","","{""aha"":1}","[0]","../img/tt/418tt.jpg","",""
"null","<div style=""font-size:60px;""> </div>","null","fixation","html-keyboard-response","328","1164113","0.0-6.0-0.46","2699891","co38626","norming","","","","","","",""
"null","../img/tt/189tt.jpg","null","mooney1","image-keyboard-response","329","1167123","0.0-6.0-1.46","2699891","co38626","norming","","","","","","",""
"4509.070000000065","","","post_mooney1_questions","survey-likert","330","1171635","0.0-6.0-2.46","2699891","co38626","norming","","","{""curiosity"":2,""confidence"":0}","[0,1]","../img/tt/189tt.jpg","",""
"669.7800000000279","","","recognition","survey-text","331","1172307","0.0-6.0-3.46","2699891","co38626","norming","","","{""guess"":""""}","","../img/tt/189tt.jpg","",""
"null","../img/gs/189gs.jpg","null","reveal","image-keyboard-response","332","1174308","0.0-6.0-4.46","2699891","co38626","norming","","","","","","",""
"null","../img/tt/189tt.jpg","null","mooney2","image-keyboard-response","333","1176311","0.0-6.0-5.46","2699891","co38626","norming","","","","","","",""
"1913.094999999972","","","post_reveal_questions","survey-likert","334","1178227","0.0-6.0-6.46","2699891","co38626","norming","","","{""aha"":1}","[0]","../img/tt/189tt.jpg","",""
"null","<div style=""font-size:60px;""> </div>","null","fixation","html-keyboard-response","335","1178433","0.0-6.0-0.47","2699891","co38626","norming","","","","","","",""
"null","../img/tt/105tt.jpg","null","mooney1","image-keyboard-response","336","1181446","0.0-6.0-1.47","2699891","co38626","norming","","","","","","",""
"5955.840000000084","","","post_mooney1_questions","survey-likert","337","1187403","0.0-6.0-2.47","2699891","co38626","norming","","","{""curiosity"":3,""confidence"":0}","[0,1]","../img/tt/105tt.jpg","",""
"941.9850000001024","","","recognition","survey-text","338","1188347","0.0-6.0-3.47","2699891","co38626","norming","","","{""guess"":""""}","","../img/tt/105tt.jpg","",""
"null","../img/gs/105gs.jpg","null","reveal","image-keyboard-response","339","1190360","0.0-6.0-4.47","2699891","co38626","norming","","","","","","",""
"null","../img/tt/105tt.jpg","null","mooney2","image-keyboard-response","340","1192369","0.0-6.0-5.47","2699891","co38626","norming","","","","","","",""
"1641.8500000000931","","","post_reveal_questions","survey-likert","341","1194014","0.0-6.0-6.47","2699891","co38626","norming","","","{""aha"":3}","[0]","../img/tt/105tt.jpg","",""
"null","<div style=""font-size:60px;""> </div>","null","fixation","html-keyboard-response","342","1194221","0.0-6.0-0.48","2699891","co38626","norming","","","","","","",""
"null","../img/tt/1146tt.jpg","null","mooney1","image-keyboard-response","343","1197223","0.0-6.0-1.48","2699891","co38626","norming","","","","","","",""
"3947.79000000027","","","post_mooney1_questions","survey-likert","344","1201174","0.0-6.0-2.48","2699891","co38626","norming","","","{""curiosity"":2,""confidence"":0}","[0,1]","../img/tt/1146tt.jpg","",""
"821.9900000002235","","","recognition","survey-text","345","1201998","0.0-6.0-3.48","2699891","co38626","norming","","","{""guess"":""""}","","../img/tt/1146tt.jpg","",""
"null","../img/gs/1146gs.jpg","null","reveal","image-keyboard-response","346","1204002","0.0-6.0-4.48","2699891","co38626","norming","","","","","","",""
"null","../img/tt/1146tt.jpg","null","mooney2","image-keyboard-response","347","1206004","0.0-6.0-5.48","2699891","co38626","norming","","","","","","",""
"3918.8300000000745","","","post_reveal_questions","survey-likert","348","1209926","0.0-6.0-6.48","2699891","co38626","norming","","","{""aha"":3}","[0]","../img/tt/1146tt.jpg","",""
"null","<div style=""font-size:60px;""> </div>","null","fixation","html-keyboard-response","349","1210136","0.0-6.0-0.49","2699891","co38626","norming","","","","","","",""
"null","../img/tt/584tt.jpg","null","mooney1","image-keyboard-response","350","1213140","0.0-6.0-1.49","2699891","co38626","norming","","","","","","",""
"4414.829999999842","","","post_mooney1_questions","survey-likert","351","1217558","0.0-6.0-2.49","2699891","co38626","norming","","","{""curiosity"":3,""confidence"":0}","[0,1]","../img/tt/584tt.jpg","",""
"846.3799999998882","","","recognition","survey-text","352","1218406","0.0-6.0-3.49","2699891","co38626","norming","","","{""guess"":""""}","","../img/tt/584tt.jpg","",""
"null","../img/gs/584gs.jpg","null","reveal","image-keyboard-response","353","1220411","0.0-6.0-4.49","2699891","co38626","norming","","","","","","",""
"null","../img/tt/584tt.jpg","null","mooney2","image-keyboard-response","354","1222414","0.0-6.0-5.49","2699891","co38626","norming","","","","","","",""
"2909.1550000002608","","","post_reveal_questions","survey-likert","355","1225326","0.0-6.0-6.49","2699891","co38626","norming","","","{""aha"":1}","[0]","../img/tt/584tt.jpg","",""
"null","<div style=""font-size:60px;""> </div>","null","fixation","html-keyboard-response","356","1225530","0.0-6.0-0.50","2699891","co38626","norming","","","","","","",""
"null","../img/tt/1097tt.jpg","null","mooney1","image-keyboard-response","357","1228535","0.0-6.0-1.50","2699891","co38626","norming","","","","","","",""
"5747.945000000065","","","post_mooney1_questions","survey-likert","358","1234286","0.0-6.0-2.50","2699891","co38626","norming","","","{""curiosity"":2,""confidence"":0}","[0,1]","../img/tt/1097tt.jpg","",""
"869.9799999997485","","","recognition","survey-text","359","1235158","0.0-6.0-3.50","2699891","co38626","norming","","","{""guess"":""""}","","../img/tt/1097tt.jpg","",""
"null","../img/gs/1097gs.jpg","null","reveal","image-keyboard-response","360","1237160","0.0-6.0-4.50","2699891","co38626","norming","","","","","","",""
"null","../img/tt/1097tt.jpg","null","mooney2","image-keyboard-response","361","1239168","0.0-6.0-5.50","2699891","co38626","norming","","","","","","",""
"2147.160000000149","","","post_reveal_questions","survey-likert","362","1241318","0.0-6.0-6.50","2699891","co38626","norming","","","{""aha"":3}","[0]","../img/tt/1097tt.jpg","",""
"null","<div style=""font-size:60px;""> </div>","null","fixation","html-keyboard-response","363","1241521","0.0-6.0-0.51","2699891","co38626","norming","","","","","","",""
"null","../img/tt/1116tt.jpg","null","mooney1","image-keyboard-response","364","1244532","0.0-6.0-1.51","2699891","co38626","norming","","","","","","",""
"6782.894999999786","","","post_mooney1_questions","survey-likert","365","1251317","0.0-6.0-2.51","2699891","co38626","norming","","","{""curiosity"":3,""confidence"":0}","[0,1]","../img/tt/1116tt.jpg","",""
"813.8500000000931","","","recognition","survey-text","366","1252132","0.0-6.0-3.51","2699891","co38626","norming","","","{""guess"":""""}","","../img/tt/1116tt.jpg","",""
"null","../img/gs/1116gs.jpg","null","reveal","image-keyboard-response","367","1254137","0.0-6.0-4.51","2699891","co38626","norming","","","","","","",""
"null","../img/tt/1116tt.jpg","null","mooney2","image-keyboard-response","368","1256140","0.0-6.0-5.51","2699891","co38626","norming","","","","","","",""
"2213.7700000002515","","","post_reveal_questions","survey-likert","369","1258356","0.0-6.0-6.51","2699891","co38626","norming","","","{""aha"":0}","[0]","../img/tt/1116tt.jpg","",""
"null","<div style=""font-size:60px;""> </div>","null","fixation","html-keyboard-response","370","1258559","0.0-6.0-0.52","2699891","co38626","norming","","","","","","",""
"null","../img/tt/1251tt.jpg","null","mooney1","image-keyboard-response","371","1261570","0.0-6.0-1.52","2699891","co38626","norming","","","","","","",""
"6910.685000000056","","","post_mooney1_questions","survey-likert","372","1268485","0.0-6.0-2.52","2699891","co38626","norming","","","{""curiosity"":1,""confidence"":0}","[0,1]","../img/tt/1251tt.jpg","",""
"1861.994999999879","","","recognition","survey-text","373","1270348","0.0-6.0-3.52","2699891","co38626","norming","","","{""guess"":""""}","","../img/tt/1251tt.jpg","",""
"null","../img/gs/1251gs.jpg","null","reveal","image-keyboard-response","374","1272350","0.0-6.0-4.52","2699891","co38626","norming","","","","","","",""
"null","../img/tt/1251tt.jpg","null","mooney2","image-keyboard-response","375","1274360","0.0-6.0-5.52","2699891","co38626","norming","","","","","","",""
"2618.255000000121","","","post_reveal_questions","survey-likert","376","1276980","0.0-6.0-6.52","2699891","co38626","norming","","","{""aha"":2}","[0]","../img/tt/1251tt.jpg","",""
"null","<div style=""font-size:60px;""> </div>","null","fixation","html-keyboard-response","377","1277186","0.0-6.0-0.53","2699891","co38626","norming","","","","","","",""
"null","../img/tt/222tt.jpg","null","mooney1","image-keyboard-response","378","1280189","0.0-6.0-1.53","2699891","co38626","norming","","","","","","",""
"7475.664999999804","","","post_mooney1_questions","survey-likert","379","1287668","0.0-6.0-2.53","2699891","co38626","norming","","","{""curiosity"":4,""confidence"":1}","[0,1]","../img/tt/222tt.jpg","",""
"958.0200000000186","","","recognition","survey-text","380","1288628","0.0-6.0-3.53","2699891","co38626","norming","","","{""guess"":""""}","","../img/tt/222tt.jpg","",""
"null","../img/gs/222gs.jpg","null","reveal","image-keyboard-response","381","1290636","0.0-6.0-4.53","2699891","co38626","norming","","","","","","",""
"null","../img/tt/222tt.jpg","null","mooney2","image-keyboard-response","382","1292645","0.0-6.0-5.53","2699891","co38626","norming","","","","","","",""
"2036.059999999823","","","post_reveal_questions","survey-likert","383","1294684","0.0-6.0-6.53","2699891","co38626","norming","","","{""aha"":3}","[0]","../img/tt/222tt.jpg","",""
"null","<div style=""font-size:60px;""> </div>","null","fixation","html-keyboard-response","384","1294894","0.0-6.0-0.54","2699891","co38626","norming","","","","","","",""
"null","../img/tt/1128tt.jpg","null","mooney1","image-keyboard-response","385","1297898","0.0-6.0-1.54","2699891","co38626","norming","","","","","","",""
"4961.319999999832","","","post_mooney1_questions","survey-likert","386","1302861","0.0-6.0-2.54","2699891","co38626","norming","","","{""curiosity"":4,""confidence"":3}","[0,1]","../img/tt/1128tt.jpg","",""
"3078.04000000027","","","recognition","survey-text","387","1305940","0.0-6.0-3.54","2699891","co38626","norming","","","{""guess"":""bear""}","","../img/tt/1128tt.jpg","",""
"null","../img/gs/1128gs.jpg","null","reveal","image-keyboard-response","388","1307949","0.0-6.0-4.54","2699891","co38626","norming","","","","","","",""
"null","../img/tt/1128tt.jpg","null","mooney2","image-keyboard-response","389","1309951","0.0-6.0-5.54","2699891","co38626","norming","","","","","","",""
"2970.9200000001583","","","post_reveal_questions","survey-likert","390","1312924","0.0-6.0-6.54","2699891","co38626","norming","","","{""aha"":1}","[0]","../img/tt/1128tt.jpg","",""
"null","<div style=""font-size:60px;""> </div>","null","fixation","html-keyboard-response","391","1313130","0.0-6.0-0.55","2699891","co38626","norming","","","","","","",""
"null","../img/tt/1125tt.jpg","null","mooney1","image-keyboard-response","392","1316135","0.0-6.0-1.55","2699891","co38626","norming","","","","","","",""
"3953.5200000000186","","","post_mooney1_questions","survey-likert","393","1320092","0.0-6.0-2.55","2699891","co38626","norming","","","{""curiosity"":4,""confidence"":0}","[0,1]","../img/tt/1125tt.jpg","",""
"909.6950000000652","","","recognition","survey-text","394","1321004","0.0-6.0-3.55","2699891","co38626","norming","","","{""guess"":""""}","","../img/tt/1125tt.jpg","",""
"null","../img/gs/1125gs.jpg","null","reveal","image-keyboard-response","395","1323010","0.0-6.0-4.55","2699891","co38626","norming","","","","","","",""
"null","../img/tt/1125tt.jpg","null","mooney2","image-keyboard-response","396","1325015","0.0-6.0-5.55","2699891","co38626","norming","","","","","","",""
"2842.2299999999814","","","post_reveal_questions","survey-likert","397","1327860","0.0-6.0-6.55","2699891","co38626","norming","","","{""aha"":1}","[0]","../img/tt/1125tt.jpg","",""
"null","<div style=""font-size:60px;""> </div>","null","fixation","html-keyboard-response","398","1328067","0.0-6.0-0.56","2699891","co38626","norming","","","","","","",""
"null","../img/tt/082tt.jpg","null","mooney1","image-keyboard-response","399","1331070","0.0-6.0-1.56","2699891","co38626","norming","","","","","","",""
"5322.364999999991","","","post_mooney1_questions","survey-likert","400","1336396","0.0-6.0-2.56","2699891","co38626","norming","","","{""curiosity"":2,""confidence"":0}","[0,1]","../img/tt/082tt.jpg","",""
"1109.8549999999814","","","recognition","survey-text","401","1337508","0.0-6.0-3.56","2699891","co38626","norming","","","{""guess"":""""}","","../img/tt/082tt.jpg","",""
"null","../img/gs/082gs.jpg","null","reveal","image-keyboard-response","402","1339514","0.0-6.0-4.56","2699891","co38626","norming","","","","","","",""
"null","../img/tt/082tt.jpg","null","mooney2","image-keyboard-response","403","1341515","0.0-6.0-5.56","2699891","co38626","norming","","","","","","",""
"2776.010000000242","","","post_reveal_questions","survey-likert","404","1344292","0.0-6.0-6.56","2699891","co38626","norming","","","{""aha"":2}","[0]","../img/tt/082tt.jpg","",""
"null","<div style=""font-size:60px;""> </div>","null","fixation","html-keyboard-response","405","1344494","0.0-6.0-0.57","2699891","co38626","norming","","","","","","",""
"null","../img/tt/1069tt.jpg","null","mooney1","image-keyboard-response","406","1347505","0.0-6.0-1.57","2699891","co38626","norming","","","","","","",""
"6441.35999999987","","","post_mooney1_questions","survey-likert","407","1353948","0.0-6.0-2.57","2699891","co38626","norming","","","{""curiosity"":1,""confidence"":0}","[0,1]","../img/tt/1069tt.jpg","",""
"917.9199999999255","","","recognition","survey-text","408","1354868","0.0-6.0-3.57","2699891","co38626","norming","","","{""guess"":""""}","","../img/tt/1069tt.jpg","",""
"null","../img/gs/1069gs.jpg","null","reveal","image-keyboard-response","409","1356876","0.0-6.0-4.57","2699891","co38626","norming","","","","","","",""
"null","../img/tt/1069tt.jpg","null","mooney2","image-keyboard-response","410","1358878","0.0-6.0-5.57","2699891","co38626","norming","","","","","","",""
"2275.7750000001397","","","post_reveal_questions","survey-likert","411","1361156","0.0-6.0-6.57","2699891","co38626","norming","","","{""aha"":2}","[0]","../img/tt/1069tt.jpg","",""
"null","<div style=""font-size:60px;""> </div>","null","fixation","html-keyboard-response","412","1361359","0.0-6.0-0.58","2699891","co38626","norming","","","","","","",""
"null","../img/tt/1002tt.jpg","null","mooney1","image-keyboard-response","413","1364363","0.0-6.0-1.58","2699891","co38626","norming","","","","","","",""
"7542.274999999907","","","post_mooney1_questions","survey-likert","414","1371908","0.0-6.0-2.58","2699891","co38626","norming","","","{""curiosity"":1,""confidence"":0}","[0,1]","../img/tt/1002tt.jpg","",""
"869.9300000001676","","","recognition","survey-text","415","1372776","0.0-6.0-3.58","2699891","co38626","norming","","","{""guess"":""""}","","../img/tt/1002tt.jpg","",""
"null","../img/gs/1002gs.jpg","null","reveal","image-keyboard-response","416","1374783","0.0-6.0-4.58","2699891","co38626","norming","","","","","","",""
"null","../img/tt/1002tt.jpg","null","mooney2","image-keyboard-response","417","1376786","0.0-6.0-5.58","2699891","co38626","norming","","","","","","",""
"2837.524999999907","","","post_reveal_questions","survey-likert","418","1379624","0.0-6.0-6.58","2699891","co38626","norming","","","{""aha"":1}","[0]","../img/tt/1002tt.jpg","",""
"null","<div style=""font-size:60px;""> </div>","null","fixation","html-keyboard-response","419","1379825","0.0-6.0-0.59","2699891","co38626","norming","","","","","","",""
"null","../img/tt/1107tt.jpg","null","mooney1","image-keyboard-response","420","1382836","0.0-6.0-1.59","2699891","co38626","norming","","","","","","",""
"7384.530000000261","","","post_mooney1_questions","survey-likert","421","1390224","0.0-6.0-2.59","2699891","co38626","norming","","","{""curiosity"":2,""confidence"":0}","[0,1]","../img/tt/1107tt.jpg","",""
"1046.0900000000838","","","recognition","survey-text","422","1391272","0.0-6.0-3.59","2699891","co38626","norming","","","{""guess"":""""}","","../img/tt/1107tt.jpg","",""
"null","../img/gs/1107gs.jpg","null","reveal","image-keyboard-response","423","1393274","0.0-6.0-4.59","2699891","co38626","norming","","","","","","",""
"null","../img/tt/1107tt.jpg","null","mooney2","image-keyboard-response","424","1395283","0.0-6.0-5.59","2699891","co38626","norming","","","","","","",""
"3274.4600000001956","","","post_reveal_questions","survey-likert","425","1398560","0.0-6.0-6.59","2699891","co38626","norming","","","{""aha"":3}","[0]","../img/tt/1107tt.jpg","",""
"null","<div style=""font-size:60px;""> </div>","null","fixation","html-keyboard-response","426","1398763","0.0-6.0-0.60","2699891","co38626","norming","","","","","","",""
"null","../img/tt/060tt.jpg","null","mooney1","image-keyboard-response","427","1401767","0.0-6.0-1.60","2699891","co38626","norming","","","","","","",""
"4742.0449999999255","","","post_mooney1_questions","survey-likert","428","1406512","0.0-6.0-2.60","2699891","co38626","norming","","","{""curiosity"":2,""confidence"":0}","[0,1]","../img/tt/060tt.jpg","",""
"1093.5849999999627","","","recognition","survey-text","429","1407608","0.0-6.0-3.60","2699891","co38626","norming","","","{""guess"":""""}","","../img/tt/060tt.jpg","",""
"null","../img/gs/060gs.jpg","null","reveal","image-keyboard-response","430","1409609","0.0-6.0-4.60","2699891","co38626","norming","","","","","","",""
"null","../img/tt/060tt.jpg","null","mooney2","image-keyboard-response","431","1411614","0.0-6.0-5.60","2699891","co38626","norming","","","","","","",""
"5783.060000000056","","","post_reveal_questions","survey-likert","432","1417400","0.0-6.0-6.60","2699891","co38626","norming","","","{""aha"":1}","[0]","../img/tt/060tt.jpg","",""
"null","<div style=""font-size:60px;""> </div>","null","fixation","html-keyboard-response","433","1417609","0.0-6.0-0.61","2699891","co38626","norming","","","","","","",""
"null","../img/tt/1040tt.jpg","null","mooney1","image-keyboard-response","434","1420611","0.0-6.0-1.61","2699891","co38626","norming","","","","","","",""
"5425.550000000279","","","post_mooney1_questions","survey-likert","435","1426040","0.0-6.0-2.61","2699891","co38626","norming","","","{""curiosity"":3,""confidence"":2}","[0,1]","../img/tt/1040tt.jpg","",""
"5510.035000000149","","","recognition","survey-text","436","1431552","0.0-6.0-3.61","2699891","co38626","norming","","","{""guess"":""women""}","","../img/tt/1040tt.jpg","",""
"null","../img/gs/1040gs.jpg","null","reveal","image-keyboard-response","437","1433566","0.0-6.0-4.61","2699891","co38626","norming","","","","","","",""
"null","../img/tt/1040tt.jpg","null","mooney2","image-keyboard-response","438","1435573","0.0-6.0-5.61","2699891","co38626","norming","","","","","","",""
"2088.9749999998603","","","post_reveal_questions","survey-likert","439","1437664","0.0-6.0-6.61","2699891","co38626","norming","","","{""aha"":2}","[0]","../img/tt/1040tt.jpg","",""
"null","<div style=""font-size:60px;""> </div>","null","fixation","html-keyboard-response","440","1437871","0.0-6.0-0.62","2699891","co38626","norming","","","","","","",""
"null","../img/tt/435tt.jpg","null","mooney1","image-keyboard-response","441","1440883","0.0-6.0-1.62","2699891","co38626","norming","","","","","","",""
"4561.165000000037","","","post_mooney1_questions","survey-likert","442","1445448","0.0-6.0-2.62","2699891","co38626","norming","","","{""curiosity"":3,""confidence"":2}","[0,1]","../img/tt/435tt.jpg","",""
"5566.264999999898","","","recognition","survey-text","443","1451016","0.0-6.0-3.62","2699891","co38626","norming","","","{""guess"":""cleaning lady""}","","../img/tt/435tt.jpg","",""
"null","../img/gs/435gs.jpg","null","reveal","image-keyboard-response","444","1453023","0.0-6.0-4.62","2699891","co38626","norming","","","","","","",""
"null","../img/tt/435tt.jpg","null","mooney2","image-keyboard-response","445","1455024","0.0-6.0-5.62","2699891","co38626","norming","","","","","","",""
"2741.239999999758","","","post_reveal_questions","survey-likert","446","1457768","0.0-6.0-6.62","2699891","co38626","norming","","","{""aha"":4}","[0]","../img/tt/435tt.jpg","",""
"null","<div style=""font-size:60px;""> </div>","null","fixation","html-keyboard-response","447","1457977","0.0-6.0-0.63","2699891","co38626","norming","","","","","","",""
"null","../img/tt/1200tt.jpg","null","mooney1","image-keyboard-response","448","1460982","0.0-6.0-1.63","2699891","co38626","norming","","","","","","",""
"5742.870000000112","","","post_mooney1_questions","survey-likert","449","1466728","0.0-6.0-2.63","2699891","co38626","norming","","","{""curiosity"":4,""confidence"":4}","[0,1]","../img/tt/1200tt.jpg","",""
"4077.9899999999907","","","recognition","survey-text","450","1470808","0.0-6.0-3.63","2699891","co38626","norming","","","{""guess"":""kayak""}","","../img/tt/1200tt.jpg","",""
"null","../img/gs/1200gs.jpg","null","reveal","image-keyboard-response","451","1472810","0.0-6.0-4.63","2699891","co38626","norming","","","","","","",""
"null","../img/tt/1200tt.jpg","null","mooney2","image-keyboard-response","452","1474813","0.0-6.0-5.63","2699891","co38626","norming","","","","","","",""
"3816.6650000000373","","","post_reveal_questions","survey-likert","453","1478632","0.0-6.0-6.63","2699891","co38626","norming","","","{""aha"":3}","[0]","../img/tt/1200tt.jpg","",""
"null","<div style=""font-size:60px;""> </div>","null","fixation","html-keyboard-response","454","1478839","0.0-6.0-0.64","2699891","co38626","norming","","","","","","",""
"null","../img/tt/306tt.jpg","null","mooney1","image-keyboard-response","455","1481844","0.0-6.0-1.64","2699891","co38626","norming","","","","","","",""
"7280.399999999907","","","post_mooney1_questions","survey-likert","456","1489128","0.0-6.0-2.64","2699891","co38626","norming","","","{""curiosity"":2,""confidence"":0}","[0,1]","../img/tt/306tt.jpg","",""
"966.0550000001676","","","recognition","survey-text","457","1490096","0.0-6.0-3.64","2699891","co38626","norming","","","{""guess"":""""}","","../img/tt/306tt.jpg","",""
"null","../img/gs/306gs.jpg","null","reveal","image-keyboard-response","458","1492102","0.0-6.0-4.64","2699891","co38626","norming","","","","","","",""
"null","../img/tt/306tt.jpg","null","mooney2","image-keyboard-response","459","1494104","0.0-6.0-5.64","2699891","co38626","norming","","","","","","",""
"2652.9150000000373","","","post_reveal_questions","survey-likert","460","1496760","0.0-6.0-6.64","2699891","co38626","norming","","","{""aha"":1}","[0]","../img/tt/306tt.jpg","",""
"null","<div style=""font-size:60px;""> </div>","null","fixation","html-keyboard-response","461","1496963","0.0-6.0-0.65","2699891","co38626","norming","","","","","","",""
"null","../img/tt/098tt.jpg","null","mooney1","image-keyboard-response","462","1499968","0.0-6.0-1.65","2699891","co38626","norming","","","","","","",""
"5174.889999999898","","","post_mooney1_questions","survey-likert","463","1505144","0.0-6.0-2.65","2699891","co38626","norming","","","{""curiosity"":3,""confidence"":0}","[0,1]","../img/tt/098tt.jpg","",""
"1286.095000000205","","","recognition","survey-text","464","1506432","0.0-6.0-3.65","2699891","co38626","norming","","","{""guess"":""""}","","../img/tt/098tt.jpg","",""
"null","../img/gs/098gs.jpg","null","reveal","image-keyboard-response","465","1508434","0.0-6.0-4.65","2699891","co38626","norming","","","","","","",""
"null","../img/tt/098tt.jpg","null","mooney2","image-keyboard-response","466","1510436","0.0-6.0-5.65","2699891","co38626","norming","","","","","","",""
"1569.3850000000093","","","post_reveal_questions","survey-likert","467","1512008","0.0-6.0-6.65","2699891","co38626","norming","","","{""aha"":0}","[0]","../img/tt/098tt.jpg","",""
"null","<div style=""font-size:60px;""> </div>","null","fixation","html-keyboard-response","468","1512217","0.0-6.0-0.66","2699891","co38626","norming","","","","","","",""
"null","../img/tt/1243tt.jpg","null","mooney1","image-keyboard-response","469","1515220","0.0-6.0-1.66","2699891","co38626","norming","","","","","","",""
"5472.860000000102","","","post_mooney1_questions","survey-likert","470","1520696","0.0-6.0-2.66","2699891","co38626","norming","","","{""curiosity"":2,""confidence"":0}","[0,1]","../img/tt/1243tt.jpg","",""
"1269.9499999999534","","","recognition","survey-text","471","1521968","0.0-6.0-3.66","2699891","co38626","norming","","","{""guess"":""""}","","../img/tt/1243tt.jpg","",""
"null","../img/gs/1243gs.jpg","null","reveal","image-keyboard-response","472","1523976","0.0-6.0-4.66","2699891","co38626","norming","","","","","","",""
"null","../img/tt/1243tt.jpg","null","mooney2","image-keyboard-response","473","1525980","0.0-6.0-5.66","2699891","co38626","norming","","","","","","",""
"2721.239999999758","","","post_reveal_questions","survey-likert","474","1528704","0.0-6.0-6.66","2699891","co38626","norming","","","{""aha"":2}","[0]","../img/tt/1243tt.jpg","",""
"null","<div style=""font-size:60px;""> </div>","null","fixation","html-keyboard-response","475","1528909","0.0-6.0-0.67","2699891","co38626","norming","","","","","","",""
"null","../img/tt/1232tt.jpg","null","mooney1","image-keyboard-response","476","1531913","0.0-6.0-1.67","2699891","co38626","norming","","","","","","",""
"2915.625000000233","","","post_mooney1_questions","survey-likert","477","1534832","0.0-6.0-2.67","2699891","co38626","norming","","","{""curiosity"":1,""confidence"":0}","[0,1]","../img/tt/1232tt.jpg","",""
"862.0850000001956","","","recognition","survey-text","478","1535696","0.0-6.0-3.67","2699891","co38626","norming","","","{""guess"":""""}","","../img/tt/1232tt.jpg","",""
"null","../img/gs/1232gs.jpg","null","reveal","image-keyboard-response","479","1537697","0.0-6.0-4.67","2699891","co38626","norming","","","","","","",""
"null","../img/tt/1232tt.jpg","null","mooney2","image-keyboard-response","480","1539707","0.0-6.0-5.67","2699891","co38626","norming","","","","","","",""
"1570.714999999851","","","post_reveal_questions","survey-likert","481","1541280","0.0-6.0-6.67","2699891","co38626","norming","","","{""aha"":2}","[0]","../img/tt/1232tt.jpg","",""
"null","<div style=""font-size:60px;""> </div>","null","fixation","html-keyboard-response","482","1541482","0.0-6.0-0.68","2699891","co38626","norming","","","","","","",""
"null","../img/tt/118tt.jpg","null","mooney1","image-keyboard-response","483","1544484","0.0-6.0-1.68","2699891","co38626","norming","","","","","","",""
"3904.8250000001863","","","post_mooney1_questions","survey-likert","484","1548392","0.0-6.0-2.68","2699891","co38626","norming","","","{""curiosity"":1,""confidence"":0}","[0,1]","../img/tt/118tt.jpg","",""
"789.8349999999627","","","recognition","survey-text","485","1549184","0.0-6.0-3.68","2699891","co38626","norming","","","{""guess"":""""}","","../img/tt/118tt.jpg","",""
"null","../img/gs/118gs.jpg","null","reveal","image-keyboard-response","486","1551185","0.0-6.0-4.68","2699891","co38626","norming","","","","","","",""
"null","../img/tt/118tt.jpg","null","mooney2","image-keyboard-response","487","1553193","0.0-6.0-5.68","2699891","co38626","norming","","","","","","",""
"1564.7549999998882","","","post_reveal_questions","survey-likert","488","1554760","0.0-6.0-6.68","2699891","co38626","norming","","","{""aha"":2}","[0]","../img/tt/118tt.jpg","",""
"null","<div style=""font-size:60px;""> </div>","null","fixation","html-keyboard-response","489","1554961","0.0-6.0-0.69","2699891","co38626","norming","","","","","","",""
"null","../img/tt/1290tt.jpg","null","mooney1","image-keyboard-response","490","1557965","0.0-6.0-1.69","2699891","co38626","norming","","","","","","",""
"4583.34999999986","","","post_mooney1_questions","survey-likert","491","1562552","0.0-6.0-2.69","2699891","co38626","norming","","","{""curiosity"":1,""confidence"":0}","[0,1]","../img/tt/1290tt.jpg","",""
"661.8149999999441","","","recognition","survey-text","492","1563215","0.0-6.0-3.69","2699891","co38626","norming","","","{""guess"":""""}","","../img/tt/1290tt.jpg","",""
"null","../img/gs/1290gs.jpg","null","reveal","image-keyboard-response","493","1565222","0.0-6.0-4.69","2699891","co38626","norming","","","","","","",""
"null","../img/tt/1290tt.jpg","null","mooney2","image-keyboard-response","494","1567225","0.0-6.0-5.69","2699891","co38626","norming","","","","","","",""
"2907.594999999972","","","post_reveal_questions","survey-likert","495","1570136","0.0-6.0-6.69","2699891","co38626","norming","","","{""aha"":1}","[0]","../img/tt/1290tt.jpg","",""
"null","<div style=""font-size:60px;""> </div>","null","fixation","html-keyboard-response","496","1570341","0.0-6.0-0.70","2699891","co38626","norming","","","","","","",""
"null","../img/tt/1046tt.jpg","null","mooney1","image-keyboard-response","497","1573344","0.0-6.0-1.70","2699891","co38626","norming","","","","","","",""
"4412.280000000028","","","post_mooney1_questions","survey-likert","498","1577760","0.0-6.0-2.70","2699891","co38626","norming","","","{""curiosity"":0,""confidence"":0}","[0,1]","../img/tt/1046tt.jpg","",""
"973.9000000001397","","","recognition","survey-text","499","1578735","0.0-6.0-3.70","2699891","co38626","norming","","","{""guess"":""""}","","../img/tt/1046tt.jpg","",""
"null","../img/gs/1046gs.jpg","null","reveal","image-keyboard-response","500","1580737","0.0-6.0-4.70","2699891","co38626","norming","","","","","","",""
"null","../img/tt/1046tt.jpg","null","mooney2","image-keyboard-response","501","1582739","0.0-6.0-5.70","2699891","co38626","norming","","","","","","",""
"1610.094999999972","","","post_reveal_questions","survey-likert","502","1584352","0.0-6.0-6.70","2699891","co38626","norming","","","{""aha"":1}","[0]","../img/tt/1046tt.jpg","",""
"null","<div style=""font-size:60px;""> </div>","null","fixation","html-keyboard-response","503","1584553","0.0-6.0-0.71","2699891","co38626","norming","","","","","","",""
"null","../img/tt/1275tt.jpg","null","mooney1","image-keyboard-response","504","1587557","0.0-6.0-1.71","2699891","co38626","norming","","","","","","",""
"4631.860000000102","","","post_mooney1_questions","survey-likert","505","1592192","0.0-6.0-2.71","2699891","co38626","norming","","","{""curiosity"":1,""confidence"":3}","[0,1]","../img/tt/1275tt.jpg","",""
"3974.1399999998976","","","recognition","survey-text","506","1596167","0.0-6.0-3.71","2699891","co38626","norming","","","{""guess"":""dier""}","","../img/tt/1275tt.jpg","",""
"null","../img/gs/1275gs.jpg","null","reveal","image-keyboard-response","507","1598169","0.0-6.0-4.71","2699891","co38626","norming","","","","","","",""
"null","../img/tt/1275tt.jpg","null","mooney2","image-keyboard-response","508","1600171","0.0-6.0-5.71","2699891","co38626","norming","","","","","","",""
"2361.4549999998417","","","post_reveal_questions","survey-likert","509","1602536","0.0-6.0-6.71","2699891","co38626","norming","","","{""aha"":3}","[0]","../img/tt/1275tt.jpg","",""
"null","<div style=""font-size:60px;""> </div>","null","fixation","html-keyboard-response","510","1602737","0.0-6.0-0.72","2699891","co38626","norming","","","","","","",""
"null","../img/tt/020tt.jpg","null","mooney1","image-keyboard-response","511","1605742","0.0-6.0-1.72","2699891","co38626","norming","","","","","","",""
"3678.2399999999907","","","post_mooney1_questions","survey-likert","512","1609423","0.0-6.0-2.72","2699891","co38626","norming","","","{""curiosity"":3,""confidence"":3}","[0,1]","../img/tt/020tt.jpg","",""
"2934.20999999973","","","recognition","survey-text","513","1612359","0.0-6.0-3.72","2699891","co38626","norming","","","{""guess"":""dog""}","","../img/tt/020tt.jpg","",""
"null","../img/gs/020gs.jpg","null","reveal","image-keyboard-response","514","1614363","0.0-6.0-4.72","2699891","co38626","norming","","","","","","",""
"null","../img/tt/020tt.jpg","null","mooney2","image-keyboard-response","515","1616368","0.0-6.0-5.72","2699891","co38626","norming","","","","","","",""
"3701.7600000000093","","","post_reveal_questions","survey-likert","516","1620072","0.0-6.0-6.72","2699891","co38626","norming","","","{""aha"":4}","[0]","../img/tt/020tt.jpg","",""
"null","<div style=""font-size:60px;""> </div>","null","fixation","html-keyboard-response","517","1620283","0.0-6.0-0.73","2699891","co38626","norming","","","","","","",""
"null","../img/tt/552tt.jpg","null","mooney1","image-keyboard-response","518","1623291","0.0-6.0-1.73","2699891","co38626","norming","","","","","","",""
"8168.750000000233","","","post_mooney1_questions","survey-likert","519","1631464","0.0-6.0-2.73","2699891","co38626","norming","","","{""curiosity"":4,""confidence"":4}","[0,1]","../img/tt/552tt.jpg","",""
"3726.410000000149","","","recognition","survey-text","520","1635192","0.0-6.0-3.73","2699891","co38626","norming","","","{""guess"":""stinkdier""}","","../img/tt/552tt.jpg","",""
"null","../img/gs/552gs.jpg","null","reveal","image-keyboard-response","521","1637198","0.0-6.0-4.73","2699891","co38626","norming","","","","","","",""
"null","../img/tt/552tt.jpg","null","mooney2","image-keyboard-response","522","1639200","0.0-6.0-5.73","2699891","co38626","norming","","","","","","",""
"1965.434999999823","","","post_reveal_questions","survey-likert","523","1641168","0.0-6.0-6.73","2699891","co38626","norming","","","{""aha"":4}","[0]","../img/tt/552tt.jpg","",""
"null","<div style=""font-size:60px;""> </div>","null","fixation","html-keyboard-response","524","1641374","0.0-6.0-0.74","2699891","co38626","norming","","","","","","",""
"null","../img/tt/007tt.jpg","null","mooney1","image-keyboard-response","525","1644384","0.0-6.0-1.74","2699891","co38626","norming","","","","","","",""
"8454.45999999973","","","post_mooney1_questions","survey-likert","526","1652840","0.0-6.0-2.74","2699891","co38626","norming","","","{""curiosity"":2,""confidence"":0}","[0,1]","../img/tt/007tt.jpg","",""
"741.6850000000559","","","recognition","survey-text","527","1653584","0.0-6.0-3.74","2699891","co38626","norming","","","{""guess"":""""}","","../img/tt/007tt.jpg","",""
"null","../img/gs/007gs.jpg","null","reveal","image-keyboard-response","528","1655585","0.0-6.0-4.74","2699891","co38626","norming","","","","","","",""
"null","../img/tt/007tt.jpg","null","mooney2","image-keyboard-response","529","1657593","0.0-6.0-5.74","2699891","co38626","norming","","","","","","",""
"2036.5349999999162","","","post_reveal_questions","survey-likert","530","1659632","0.0-6.0-6.74","2699891","co38626","norming","","","{""aha"":2}","[0]","../img/tt/007tt.jpg","",""
"null","<div style=""font-size:60px;""> </div>","null","fixation","html-keyboard-response","531","1659842","0.0-6.0-0.75","2699891","co38626","norming","","","","","","",""
"null","../img/tt/412tt.jpg","null","mooney1","image-keyboard-response","532","1662848","0.0-6.0-1.75","2699891","co38626","norming","","","","","","",""
"3860.4899999999907","","","post_mooney1_questions","survey-likert","533","1666712","0.0-6.0-2.75","2699891","co38626","norming","","","{""curiosity"":1,""confidence"":0}","[0,1]","../img/tt/412tt.jpg","",""
"917.7750000001397","","","recognition","survey-text","534","1667632","0.0-6.0-3.75","2699891","co38626","norming","","","{""guess"":""""}","","../img/tt/412tt.jpg","",""
"null","../img/gs/412gs.jpg","null","reveal","image-keyboard-response","535","1669640","0.0-6.0-4.75","2699891","co38626","norming","","","","","","",""
"null","../img/tt/412tt.jpg","null","mooney2","image-keyboard-response","536","1671646","0.0-6.0-5.75","2699891","co38626","norming","","","","","","",""
"1863.0600000000559","","","post_reveal_questions","survey-likert","537","1673512","0.0-6.0-6.75","2699891","co38626","norming","","","{""aha"":2}","[0]","../img/tt/412tt.jpg","",""
"null","<div style=""font-size:60px;""> </div>","null","fixation","html-keyboard-response","538","1673713","0.0-6.0-0.76","2699891","co38626","norming","","","","","","",""
"null","../img/tt/1151tt.jpg","null","mooney1","image-keyboard-response","539","1676722","0.0-6.0-1.76","2699891","co38626","norming","","","","","","",""
"7562.805000000168","","","post_mooney1_questions","survey-likert","540","1684288","0.0-6.0-2.76","2699891","co38626","norming","","","{""curiosity"":1,""confidence"":0}","[0,1]","../img/tt/1151tt.jpg","",""
"638.0149999998976","","","recognition","survey-text","541","1684928","0.0-6.0-3.76","2699891","co38626","norming","","","{""guess"":""""}","","../img/tt/1151tt.jpg","",""
"null","../img/gs/1151gs.jpg","null","reveal","image-keyboard-response","542","1686930","0.0-6.0-4.76","2699891","co38626","norming","","","","","","",""
"null","../img/tt/1151tt.jpg","null","mooney2","image-keyboard-response","543","1688932","0.0-6.0-5.76","2699891","co38626","norming","","","","","","",""
"1432.9249999998137","","","post_reveal_questions","survey-likert","544","1690368","0.0-6.0-6.76","2699891","co38626","norming","","","{""aha"":3}","[0]","../img/tt/1151tt.jpg","",""
"null","<div style=""font-size:60px;""> </div>","null","fixation","html-keyboard-response","545","1690577","0.0-6.0-0.77","2699891","co38626","norming","","","","","","",""
"null","../img/tt/1236tt.jpg","null","mooney1","image-keyboard-response","546","1693589","0.0-6.0-1.77","2699891","co38626","norming","","","","","","",""
"4607.574999999953","","","post_mooney1_questions","survey-likert","547","1698200","0.0-6.0-2.77","2699891","co38626","norming","","","{""curiosity"":1,""confidence"":0}","[0,1]","../img/tt/1236tt.jpg","",""
"1261.5749999999534","","","recognition","survey-text","548","1699463","0.0-6.0-3.77","2699891","co38626","norming","","","{""guess"":""""}","","../img/tt/1236tt.jpg","",""
"null","../img/gs/1236gs.jpg","null","reveal","image-keyboard-response","549","1701464","0.0-6.0-4.77","2699891","co38626","norming","","","","","","",""
"null","../img/tt/1236tt.jpg","null","mooney2","image-keyboard-response","550","1703465","0.0-6.0-5.77","2699891","co38626","norming","","","","","","",""
"2261.9850000001024","","","post_reveal_questions","survey-likert","551","1705728","0.0-6.0-6.77","2699891","co38626","norming","","","{""aha"":4}","[0]","../img/tt/1236tt.jpg","",""
"null","<div style=""font-size:60px;""> </div>","null","fixation","html-keyboard-response","552","1705938","0.0-6.0-0.78","2699891","co38626","norming","","","","","","",""
"null","../img/tt/497tt.jpg","null","mooney1","image-keyboard-response","553","1708950","0.0-6.0-1.78","2699891","co38626","norming","","","","","","",""
