"rt","stimulus","key_press","test_part","trial_type","trial_index","time_elapsed","internal_node_id","totalTime","subject","experiment_name","button_pressed","success","responses","question_order","currentStim","old","correct"
"8443.030000000363","Welcome to the experiment. This is an online experiment so please don't close the tab/window until we say goodbye.  Press any key to begin.","32","instructions","html-keyboard-response","0","8474","0.0-0.0","2855201","co38005","norming","","","","","","",""
"60305.70500000067","<div style='word-wrap: break-word; width: 900px'><h3>Please consider this information carefully before deciding whether to participate in this research</h3><ul style='text-align: left; font-size: .8em;'><li><b>Purpose of the research</b>: To examine how people process images.</li><li><b>What you will do in this research</b>:  Stimuli (images) will be presented on the computer and you will be asked different questions about them.</li><li><b>Time required</b>: Participation will take between 45 and 60 minutes to complete.</li><li><b>Risks</b>:  There are no anticipated risks associated with participating in this study. The effects of participating should be comparable to those you would experience from viewing a computer monitor for 30 minutes and using a mouse or keyboard.</li><li><b>Benefits</b>:  This study provides no benefits to you individually except for the credit. The study provides important information about the nature of perception and learning.</li><li><b>Confidentiality</b>:  Your participation in this study will remain confidential. No personally identifiable information will be associated with your data. Your de-identified data may be shared with other researchers and used in future projects.</li><li><b>Participation and withdrawal</b>:  Your participation in this study is completely voluntary and you may refuse to participate or you may choose to withdraw at any time without penalty.</li><li><b>How to contact the researchers</b>: If you have questions or concerns about your participation or payment, or want to request a summary of research findings, please contact Sander Van de Cruys (KU Leuven), at sander.vandecruys@kuleuven.be.</li></ul><p>The nature and purpose of this research have been sufficiently explained and I agree to participate in this study.  I understand that I am free to withdraw at any time without incurring any penalty.</p><p>Please consent by clicking the button below to continue. Otherwise, please exit the study at this time.</p></div>","","instructions","html-button-response","1","68779","0.0-1.0","2855201","co38005","norming","0","","","","","",""
"","","","instructions","fullscreen","2","78719","0.0-2.0","2855201","co38005","norming","","true","","","","",""
"33641.25000000058","","","sona","survey-html-form","3","112367","0.0-3.0","2855201","co38005","norming","","","[{""name"":""sonaid"",""value"":""38005""},{""name"":""debrief"",""value"":""yes""},{""name"":""datajoin"",""value"":""yes""}]","","","",""
"62035.33500000047","<div style='word-wrap: break-word; width: 900px'><h3>Instructions</h3><p>This experiment will have 3 parts. In the first part you will see a series of distorted images like the one below on the left. As you can see in the righthand image, the distorted images are derived from actual photographs. In what follows, you will <strong>briefly</strong> be presented with <strong>only</strong> the distorted image.</p> <div style='float: left; margin-right: 20px;'><img src='../img/018tt.jpg' height='250' width='250'></img></div><div style='float: right; margin-left: 20px;'><img src='../img/018gs.jpg' height='250' width='250'></img></div><p>Subsequently you will be asked a few questions about the image: One question on how <strong>curious</strong> you are about the solution and one on how <strong>confident</strong> you are that you know the solution.</p>Next, we ask you to make a guess on what is in the image. Note that it is OK to name just the <strong>basic level category</strong>. For example when you see a parrot in the image, 'parrot' will obviously be a correct answer but also correct is 'bird'. However, 'animal' will <strong>not</strong> be counted as a correct response. For the example above, 'rose' would be correct or 'flower', but not 'plant'. When soccer players are depicted, 'soccer', 'football', 'soccer players' will be correct, but not 'humans', 'outdoors', or 'sports'. You do not need to describe the image in full, just name the main object in it <strong>in one or two words</strong>. All images depict objects from one of the following broad level categories: animals, inanimate objects, plants, sports, vehicles, and food. Recognizing means knowing <strong>more</strong> than these broad labels for a given image. But we always encourage you to <strong>make a guess</strong> if you can. Note that you are allowed to use <strong>Dutch and English</strong> in your answers, whatever comes easiest for you.</p><p>Press any key to continue.</p></div>","32","instructions","html-keyboard-response","4","174407","0.0-4.0","2855201","co38005","norming","","","","","","",""
"112094.45500000042","<div style='word-wrap: break-word; width: 900px'><h3>Instructions</h3> <p>Next, the solution image will be revealed to you and you'll be asked to indicate how strong your <strong>aha-experience</strong> was after seeing the solution. This describes the positive feeling of the 'click' you sometimes experience, when the pieces of the 'puzzle' fall together and you suddenly have 'insight' in the image.</p><img src='aha.jpg' height='188' width='250'></img><p>Note that there are no right or wrong answers. We are interested in what <strong>you</strong> see in the image and how <strong>you</strong> feel about it.</p><p>Press any key to start the experiment.</p></div>","32","instructions","html-keyboard-response","5","286498","0.0-5.0","2855201","co38005","norming","","","","","","",""
"null","<div style=""font-size:60px;""> </div>","null","fixation","html-keyboard-response","6","286709","0.0-6.0-0.0","2855201","co38005","norming","","","","","","",""
"null","../img/tt/1188tt.jpg","null","mooney1","image-keyboard-response","7","289722","0.0-6.0-1.0","2855201","co38005","norming","","","","","","",""
"9235.350000000792","","","post_mooney1_questions","survey-likert","8","298961","0.0-6.0-2.0","2855201","co38005","norming","","","{""curiosity"":4,""confidence"":2}","[0,1]","../img/tt/1188tt.jpg","",""
"4909.944999999425","","","recognition","survey-text","9","303873","0.0-6.0-3.0","2855201","co38005","norming","","","{""guess"":""wielrenner""}","","../img/tt/1188tt.jpg","",""
"null","../img/gs/1188gs.jpg","null","reveal","image-keyboard-response","10","305879","0.0-6.0-4.0","2855201","co38005","norming","","","","","","",""
"null","../img/tt/1188tt.jpg","null","mooney2","image-keyboard-response","11","307887","0.0-6.0-5.0","2855201","co38005","norming","","","","","","",""
"6735.915000001143","","","post_reveal_questions","survey-likert","12","314625","0.0-6.0-6.0","2855201","co38005","norming","","","{""aha"":2}","[0]","../img/tt/1188tt.jpg","",""
"null","<div style=""font-size:60px;""> </div>","null","fixation","html-keyboard-response","13","314834","0.0-6.0-0.1","2855201","co38005","norming","","","","","","",""
"null","../img/tt/1125tt.jpg","null","mooney1","image-keyboard-response","14","317843","0.0-6.0-1.1","2855201","co38005","norming","","","","","","",""
"6115.754999998899","","","post_mooney1_questions","survey-likert","15","323961","0.0-6.0-2.1","2855201","co38005","norming","","","{""curiosity"":4,""confidence"":1}","[0,1]","../img/tt/1125tt.jpg","",""
"9942.274999999383","","","recognition","survey-text","16","333905","0.0-6.0-3.1","2855201","co38005","norming","","","{""guess"":""hockey players""}","","../img/tt/1125tt.jpg","",""
"null","../img/gs/1125gs.jpg","null","reveal","image-keyboard-response","17","335914","0.0-6.0-4.1","2855201","co38005","norming","","","","","","",""
"null","../img/tt/1125tt.jpg","null","mooney2","image-keyboard-response","18","337915","0.0-6.0-5.1","2855201","co38005","norming","","","","","","",""
"4811.190000000352","","","post_reveal_questions","survey-likert","19","342728","0.0-6.0-6.1","2855201","co38005","norming","","","{""aha"":2}","[0]","../img/tt/1125tt.jpg","",""
"null","<div style=""font-size:60px;""> </div>","null","fixation","html-keyboard-response","20","342932","0.0-6.0-0.2","2855201","co38005","norming","","","","","","",""
"null","../img/tt/189tt.jpg","null","mooney1","image-keyboard-response","21","345943","0.0-6.0-1.2","2855201","co38005","norming","","","","","","",""
"6551.555000000051","","","post_mooney1_questions","survey-likert","22","352503","0.0-6.0-2.2","2855201","co38005","norming","","","{""curiosity"":6,""confidence"":0}","[0,1]","../img/tt/189tt.jpg","",""
"4742.325000001059","","","recognition","survey-text","23","357247","0.0-6.0-3.2","2855201","co38005","norming","","","{""guess"":""dinosaurus""}","","../img/tt/189tt.jpg","",""
"null","../img/gs/189gs.jpg","null","reveal","image-keyboard-response","24","359252","0.0-6.0-4.2","2855201","co38005","norming","","","","","","",""
"null","../img/tt/189tt.jpg","null","mooney2","image-keyboard-response","25","361264","0.0-6.0-5.2","2855201","co38005","norming","","","","","","",""
"3141.569999999774","","","post_reveal_questions","survey-likert","26","364407","0.0-6.0-6.2","2855201","co38005","norming","","","{""aha"":4}","[0]","../img/tt/189tt.jpg","",""
"null","<div style=""font-size:60px;""> </div>","null","fixation","html-keyboard-response","27","364617","0.0-6.0-0.3","2855201","co38005","norming","","","","","","",""
"null","../img/tt/1366tt.jpg","null","mooney1","image-keyboard-response","28","367623","0.0-6.0-1.3","2855201","co38005","norming","","","","","","",""
"8253.800000000454","","","post_mooney1_questions","survey-likert","29","375879","0.0-6.0-2.3","2855201","co38005","norming","","","{""curiosity"":4,""confidence"":1}","[0,1]","../img/tt/1366tt.jpg","",""
"7510.21000000037","","","recognition","survey-text","30","383391","0.0-6.0-3.3","2855201","co38005","norming","","","{""guess"":""schildpad""}","","../img/tt/1366tt.jpg","",""
"null","../img/gs/1366gs.jpg","null","reveal","image-keyboard-response","31","385399","0.0-6.0-4.3","2855201","co38005","norming","","","","","","",""
"null","../img/tt/1366tt.jpg","null","mooney2","image-keyboard-response","32","387408","0.0-6.0-5.3","2855201","co38005","norming","","","","","","",""
"3805.1749999995227","","","post_reveal_questions","survey-likert","33","391215","0.0-6.0-6.3","2855201","co38005","norming","","","{""aha"":0}","[0]","../img/tt/1366tt.jpg","",""
"null","<div style=""font-size:60px;""> </div>","null","fixation","html-keyboard-response","34","391417","0.0-6.0-0.4","2855201","co38005","norming","","","","","","",""
"null","../img/tt/534tt.jpg","null","mooney1","image-keyboard-response","35","394421","0.0-6.0-1.4","2855201","co38005","norming","","","","","","",""
"5913.479999999225","","","post_mooney1_questions","survey-likert","36","400335","0.0-6.0-2.4","2855201","co38005","norming","","","{""curiosity"":4,""confidence"":1}","[0,1]","../img/tt/534tt.jpg","",""
"3278.2399999996414","","","recognition","survey-text","37","403615","0.0-6.0-3.4","2855201","co38005","norming","","","{""guess"":""koala""}","","../img/tt/534tt.jpg","",""
"null","../img/gs/534gs.jpg","null","reveal","image-keyboard-response","38","405625","0.0-6.0-4.4","2855201","co38005","norming","","","","","","",""
"null","../img/tt/534tt.jpg","null","mooney2","image-keyboard-response","39","407632","0.0-6.0-5.4","2855201","co38005","norming","","","","","","",""
"5901.314999999187","","","post_reveal_questions","survey-likert","40","413526","0.0-6.0-6.4","2855201","co38005","norming","","","{""aha"":2}","[0]","../img/tt/534tt.jpg","",""
"null","<div style=""font-size:60px;""> </div>","null","fixation","html-keyboard-response","41","413729","0.0-6.0-0.5","2855201","co38005","norming","","","","","","",""
"null","../img/tt/078tt.jpg","null","mooney1","image-keyboard-response","42","416740","0.0-6.0-1.5","2855201","co38005","norming","","","","","","",""
"7431.469999999565","","","post_mooney1_questions","survey-likert","43","424175","0.0-6.0-2.5","2855201","co38005","norming","","","{""curiosity"":2,""confidence"":4}","[0,1]","../img/tt/078tt.jpg","",""
"3085.9550000004238","","","recognition","survey-text","44","427262","0.0-6.0-3.5","2855201","co38005","norming","","","{""guess"":""druiven""}","","../img/tt/078tt.jpg","",""
"null","../img/gs/078gs.jpg","null","reveal","image-keyboard-response","45","429272","0.0-6.0-4.5","2855201","co38005","norming","","","","","","",""
"null","../img/tt/078tt.jpg","null","mooney2","image-keyboard-response","46","431275","0.0-6.0-5.5","2855201","co38005","norming","","","","","","",""
"2593.349999999162","","","post_reveal_questions","survey-likert","47","433870","0.0-6.0-6.5","2855201","co38005","norming","","","{""aha"":0}","[0]","../img/tt/078tt.jpg","",""
"null","<div style=""font-size:60px;""> </div>","null","fixation","html-keyboard-response","48","434078","0.0-6.0-0.6","2855201","co38005","norming","","","","","","",""
"null","../img/tt/416tt.jpg","null","mooney1","image-keyboard-response","49","437084","0.0-6.0-1.6","2855201","co38005","norming","","","","","","",""
"5297.324999999546","","","post_mooney1_questions","survey-likert","50","442382","0.0-6.0-2.6","2855201","co38005","norming","","","{""curiosity"":5,""confidence"":3}","[0,1]","../img/tt/416tt.jpg","",""
"3214.070000000007","","","recognition","survey-text","51","445598","0.0-6.0-3.6","2855201","co38005","norming","","","{""guess"":""eland""}","","../img/tt/416tt.jpg","",""
"null","../img/gs/416gs.jpg","null","reveal","image-keyboard-response","52","447606","0.0-6.0-4.6","2855201","co38005","norming","","","","","","",""
"null","../img/tt/416tt.jpg","null","mooney2","image-keyboard-response","53","449617","0.0-6.0-5.6","2855201","co38005","norming","","","","","","",""
"3723.054999998538","","","post_reveal_questions","survey-likert","54","453342","0.0-6.0-6.6","2855201","co38005","norming","","","{""aha"":1}","[0]","../img/tt/416tt.jpg","",""
"null","<div style=""font-size:60px;""> </div>","null","fixation","html-keyboard-response","55","453546","0.0-6.0-0.7","2855201","co38005","norming","","","","","","",""
"null","../img/tt/080tt.jpg","null","mooney1","image-keyboard-response","56","456556","0.0-6.0-1.7","2855201","co38005","norming","","","","","","",""
"4231.470000000612","","","post_mooney1_questions","survey-likert","57","460790","0.0-6.0-2.7","2855201","co38005","norming","","","{""curiosity"":6,""confidence"":0}","[0,1]","../img/tt/080tt.jpg","",""
"1782.1699999985285","","","recognition","survey-text","58","462574","0.0-6.0-3.7","2855201","co38005","norming","","","{""guess"":""ei""}","","../img/tt/080tt.jpg","",""
"null","../img/gs/080gs.jpg","null","reveal","image-keyboard-response","59","464576","0.0-6.0-4.7","2855201","co38005","norming","","","","","","",""
"null","../img/tt/080tt.jpg","null","mooney2","image-keyboard-response","60","466577","0.0-6.0-5.7","2855201","co38005","norming","","","","","","",""
"4794.970000000845","","","post_reveal_questions","survey-likert","61","471383","0.0-6.0-6.7","2855201","co38005","norming","","","{""aha"":1}","[0]","../img/tt/080tt.jpg","",""
"null","<div style=""font-size:60px;""> </div>","null","fixation","html-keyboard-response","62","471584","0.0-6.0-0.8","2855201","co38005","norming","","","","","","",""
"null","../img/tt/273tt.jpg","null","mooney1","image-keyboard-response","63","474597","0.0-6.0-1.8","2855201","co38005","norming","","","","","","",""
"8542.690000000177","","","post_mooney1_questions","survey-likert","64","483143","0.0-6.0-2.8","2855201","co38005","norming","","","{""curiosity"":3,""confidence"":5}","[0,1]","../img/tt/273tt.jpg","",""
"6174.350000001141","","","recognition","survey-text","65","489319","0.0-6.0-3.8","2855201","co38005","norming","","","{""guess"":""iemand die zijn tong uitsteekt""}","","../img/tt/273tt.jpg","",""
"null","../img/gs/273gs.jpg","null","reveal","image-keyboard-response","66","491323","0.0-6.0-4.8","2855201","co38005","norming","","","","","","",""
"null","../img/tt/273tt.jpg","null","mooney2","image-keyboard-response","67","493331","0.0-6.0-5.8","2855201","co38005","norming","","","","","","",""
"5977.319999999949","","","post_reveal_questions","survey-likert","68","499311","0.0-6.0-6.8","2855201","co38005","norming","","","{""aha"":0}","[0]","../img/tt/273tt.jpg","",""
"null","<div style=""font-size:60px;""> </div>","null","fixation","html-keyboard-response","69","499517","0.0-6.0-0.9","2855201","co38005","norming","","","","","","",""
"null","../img/tt/053tt.jpg","null","mooney1","image-keyboard-response","70","502525","0.0-6.0-1.9","2855201","co38005","norming","","","","","","",""
"4254.369999998715","","","post_mooney1_questions","survey-likert","71","506783","0.0-6.0-2.9","2855201","co38005","norming","","","{""curiosity"":5,""confidence"":2}","[0,1]","../img/tt/053tt.jpg","",""
"2134.665000001376","","","recognition","survey-text","72","508919","0.0-6.0-3.9","2855201","co38005","norming","","","{""guess"":""vogel""}","","../img/tt/053tt.jpg","",""
"null","../img/gs/053gs.jpg","null","reveal","image-keyboard-response","73","510924","0.0-6.0-4.9","2855201","co38005","norming","","","","","","",""
"null","../img/tt/053tt.jpg","null","mooney2","image-keyboard-response","74","512934","0.0-6.0-5.9","2855201","co38005","norming","","","","","","",""
"2182.3449999992736","","","post_reveal_questions","survey-likert","75","515119","0.0-6.0-6.9","2855201","co38005","norming","","","{""aha"":0}","[0]","../img/tt/053tt.jpg","",""
"null","<div style=""font-size:60px;""> </div>","null","fixation","html-keyboard-response","76","515321","0.0-6.0-0.10","2855201","co38005","norming","","","","","","",""
"null","../img/tt/318tt.jpg","null","mooney1","image-keyboard-response","77","518329","0.0-6.0-1.10","2855201","co38005","norming","","","","","","",""
"4690.94500000024","","","post_mooney1_questions","survey-likert","78","523023","0.0-6.0-2.10","2855201","co38005","norming","","","{""curiosity"":6,""confidence"":0}","[0,1]","../img/tt/318tt.jpg","",""
"2885.8849999997765","","","recognition","survey-text","79","525910","0.0-6.0-3.10","2855201","co38005","norming","","","{""guess"":""indiaan""}","","../img/tt/318tt.jpg","",""
"null","../img/gs/318gs.jpg","null","reveal","image-keyboard-response","80","527912","0.0-6.0-4.10","2855201","co38005","norming","","","","","","",""
"null","../img/tt/318tt.jpg","null","mooney2","image-keyboard-response","81","529919","0.0-6.0-5.10","2855201","co38005","norming","","","","","","",""
"4925.0949999986915","","","post_reveal_questions","survey-likert","82","534841","0.0-6.0-6.10","2855201","co38005","norming","","","{""aha"":2}","[0]","../img/tt/318tt.jpg","",""
"null","<div style=""font-size:60px;""> </div>","null","fixation","html-keyboard-response","83","535050","0.0-6.0-0.11","2855201","co38005","norming","","","","","","",""
"null","../img/tt/091tt.jpg","null","mooney1","image-keyboard-response","84","538061","0.0-6.0-1.11","2855201","co38005","norming","","","","","","",""
"7371.105000000098","","","post_mooney1_questions","survey-likert","85","545433","0.0-6.0-2.11","2855201","co38005","norming","","","{""curiosity"":5,""confidence"":1}","[0,1]","../img/tt/091tt.jpg","",""
"2293.879999999306","","","recognition","survey-text","86","547729","0.0-6.0-3.11","2855201","co38005","norming","","","{""guess"":""""}","","../img/tt/091tt.jpg","",""
"null","../img/gs/091gs.jpg","null","reveal","image-keyboard-response","87","549740","0.0-6.0-4.11","2855201","co38005","norming","","","","","","",""
"null","../img/tt/091tt.jpg","null","mooney2","image-keyboard-response","88","551744","0.0-6.0-5.11","2855201","co38005","norming","","","","","","",""
"2430.974999999278","","","post_reveal_questions","survey-likert","89","554177","0.0-6.0-6.11","2855201","co38005","norming","","","{""aha"":0}","[0]","../img/tt/091tt.jpg","",""
"null","<div style=""font-size:60px;""> </div>","null","fixation","html-keyboard-response","90","554381","0.0-6.0-0.12","2855201","co38005","norming","","","","","","",""
"null","../img/tt/456tt.jpg","null","mooney1","image-keyboard-response","91","557387","0.0-6.0-1.12","2855201","co38005","norming","","","","","","",""
"3388.059999999241","","","post_mooney1_questions","survey-likert","92","560778","0.0-6.0-2.12","2855201","co38005","norming","","","{""curiosity"":6,""confidence"":2}","[0,1]","../img/tt/456tt.jpg","",""
"4637.940000000526","","","recognition","survey-text","93","565417","0.0-6.0-3.12","2855201","co38005","norming","","","{""guess"":""omgevallen boom""}","","../img/tt/456tt.jpg","",""
"null","../img/gs/456gs.jpg","null","reveal","image-keyboard-response","94","567422","0.0-6.0-4.12","2855201","co38005","norming","","","","","","",""
"null","../img/tt/456tt.jpg","null","mooney2","image-keyboard-response","95","569432","0.0-6.0-5.12","2855201","co38005","norming","","","","","","",""
"2966.4950000005774","","","post_reveal_questions","survey-likert","96","572401","0.0-6.0-6.12","2855201","co38005","norming","","","{""aha"":4}","[0]","../img/tt/456tt.jpg","",""
"null","<div style=""font-size:60px;""> </div>","null","fixation","html-keyboard-response","97","572605","0.0-6.0-0.13","2855201","co38005","norming","","","","","","",""
"null","../img/tt/1307tt.jpg","null","mooney1","image-keyboard-response","98","575608","0.0-6.0-1.13","2855201","co38005","norming","","","","","","",""
"4792.315000000643","","","post_mooney1_questions","survey-likert","99","580402","0.0-6.0-2.13","2855201","co38005","norming","","","{""curiosity"":4,""confidence"":1}","[0,1]","../img/tt/1307tt.jpg","",""
"5717.844999999274","","","recognition","survey-text","100","586121","0.0-6.0-3.13","2855201","co38005","norming","","","{""guess"":""fruitmand""}","","../img/tt/1307tt.jpg","",""
"null","../img/gs/1307gs.jpg","null","reveal","image-keyboard-response","101","588131","0.0-6.0-4.13","2855201","co38005","norming","","","","","","",""
"null","../img/tt/1307tt.jpg","null","mooney2","image-keyboard-response","102","590141","0.0-6.0-5.13","2855201","co38005","norming","","","","","","",""
"5113.934999999357","","","post_reveal_questions","survey-likert","103","595258","0.0-6.0-6.13","2855201","co38005","norming","","","{""aha"":2}","[0]","../img/tt/1307tt.jpg","",""
"null","<div style=""font-size:60px;""> </div>","null","fixation","html-keyboard-response","104","595464","0.0-6.0-0.14","2855201","co38005","norming","","","","","","",""
"null","../img/tt/135tt.jpg","null","mooney1","image-keyboard-response","105","598467","0.0-6.0-1.14","2855201","co38005","norming","","","","","","",""
"3764.839999999851","","","post_mooney1_questions","survey-likert","106","602234","0.0-6.0-2.14","2855201","co38005","norming","","","{""curiosity"":0,""confidence"":6}","[0,1]","../img/tt/135tt.jpg","",""
"2502.2949999982957","","","recognition","survey-text","107","604738","0.0-6.0-3.14","2855201","co38005","norming","","","{""guess"":""wc""}","","../img/tt/135tt.jpg","",""
"null","../img/gs/135gs.jpg","null","reveal","image-keyboard-response","108","606748","0.0-6.0-4.14","2855201","co38005","norming","","","","","","",""
"null","../img/tt/135tt.jpg","null","mooney2","image-keyboard-response","109","608758","0.0-6.0-5.14","2855201","co38005","norming","","","","","","",""
"2794.055000000284","","","post_reveal_questions","survey-likert","110","611554","0.0-6.0-6.14","2855201","co38005","norming","","","{""aha"":0}","[0]","../img/tt/135tt.jpg","",""
"null","<div style=""font-size:60px;""> </div>","null","fixation","html-keyboard-response","111","611757","0.0-6.0-0.15","2855201","co38005","norming","","","","","","",""
"null","../img/tt/1024tt.jpg","null","mooney1","image-keyboard-response","112","614769","0.0-6.0-1.15","2855201","co38005","norming","","","","","","",""
"3998.684999998659","","","post_mooney1_questions","survey-likert","113","618770","0.0-6.0-2.15","2855201","co38005","norming","","","{""curiosity"":4,""confidence"":2}","[0,1]","../img/tt/1024tt.jpg","",""
"4030.375000000233","","","recognition","survey-text","114","622802","0.0-6.0-3.15","2855201","co38005","norming","","","{""guess"":""tennis speler""}","","../img/tt/1024tt.jpg","",""
"null","../img/gs/1024gs.jpg","null","reveal","image-keyboard-response","115","624812","0.0-6.0-4.15","2855201","co38005","norming","","","","","","",""
"null","../img/tt/1024tt.jpg","null","mooney2","image-keyboard-response","116","626820","0.0-6.0-5.15","2855201","co38005","norming","","","","","","",""
"2611.785000000964","","","post_reveal_questions","survey-likert","117","629434","0.0-6.0-6.15","2855201","co38005","norming","","","{""aha"":1}","[0]","../img/tt/1024tt.jpg","",""
"null","<div style=""font-size:60px;""> </div>","null","fixation","html-keyboard-response","118","629641","0.0-6.0-0.16","2855201","co38005","norming","","","","","","",""
"null","../img/tt/380tt.jpg","null","mooney1","image-keyboard-response","119","632645","0.0-6.0-1.16","2855201","co38005","norming","","","","","","",""
"4170.189999998896","","","post_mooney1_questions","survey-likert","120","636818","0.0-6.0-2.16","2855201","co38005","norming","","","{""curiosity"":3,""confidence"":3}","[0,1]","../img/tt/380tt.jpg","",""
"2102.1700000001583","","","recognition","survey-text","121","638922","0.0-6.0-3.16","2855201","co38005","norming","","","{""guess"":""koala""}","","../img/tt/380tt.jpg","",""
"null","../img/gs/380gs.jpg","null","reveal","image-keyboard-response","122","640933","0.0-6.0-4.16","2855201","co38005","norming","","","","","","",""
"null","../img/tt/380tt.jpg","null","mooney2","image-keyboard-response","123","642941","0.0-6.0-5.16","2855201","co38005","norming","","","","","","",""
"2290.680000000051","","","post_reveal_questions","survey-likert","124","645234","0.0-6.0-6.16","2855201","co38005","norming","","","{""aha"":0}","[0]","../img/tt/380tt.jpg","",""
"null","<div style=""font-size:60px;""> </div>","null","fixation","html-keyboard-response","125","645437","0.0-6.0-0.17","2855201","co38005","norming","","","","","","",""
"null","../img/tt/1237tt.jpg","null","mooney1","image-keyboard-response","126","648448","0.0-6.0-1.17","2855201","co38005","norming","","","","","","",""
"4168.110000000452","","","post_mooney1_questions","survey-likert","127","652625","0.0-6.0-2.17","2855201","co38005","norming","","","{""curiosity"":2,""confidence"":4}","[0,1]","../img/tt/1237tt.jpg","",""
"3558.0649999992456","","","recognition","survey-text","128","656185","0.0-6.0-3.17","2855201","co38005","norming","","","{""guess"":""eend""}","","../img/tt/1237tt.jpg","",""
"null","../img/gs/1237gs.jpg","null","reveal","image-keyboard-response","129","658188","0.0-6.0-4.17","2855201","co38005","norming","","","","","","",""
"null","../img/tt/1237tt.jpg","null","mooney2","image-keyboard-response","130","660194","0.0-6.0-5.17","2855201","co38005","norming","","","","","","",""
"3085.3150000002934","","","post_reveal_questions","survey-likert","131","663281","0.0-6.0-6.17","2855201","co38005","norming","","","{""aha"":0}","[0]","../img/tt/1237tt.jpg","",""
"null","<div style=""font-size:60px;""> </div>","null","fixation","html-keyboard-response","132","663483","0.0-6.0-0.18","2855201","co38005","norming","","","","","","",""
"null","../img/tt/094tt.jpg","null","mooney1","image-keyboard-response","133","666486","0.0-6.0-1.18","2855201","co38005","norming","","","","","","",""
"4528.785000000382","","","post_mooney1_questions","survey-likert","134","671018","0.0-6.0-2.18","2855201","co38005","norming","","","{""curiosity"":2,""confidence"":4}","[0,1]","../img/tt/094tt.jpg","",""
"1774.13499999966","","","recognition","survey-text","135","672793","0.0-6.0-3.18","2855201","co38005","norming","","","{""guess"":""beer""}","","../img/tt/094tt.jpg","",""
"null","../img/gs/094gs.jpg","null","reveal","image-keyboard-response","136","674799","0.0-6.0-4.18","2855201","co38005","norming","","","","","","",""
"null","../img/tt/094tt.jpg","null","mooney2","image-keyboard-response","137","676810","0.0-6.0-5.18","2855201","co38005","norming","","","","","","",""
"2588.5199999994365","","","post_reveal_questions","survey-likert","138","679401","0.0-6.0-6.18","2855201","co38005","norming","","","{""aha"":1}","[0]","../img/tt/094tt.jpg","",""
"null","<div style=""font-size:60px;""> </div>","null","fixation","html-keyboard-response","139","679603","0.0-6.0-0.19","2855201","co38005","norming","","","","","","",""
"null","../img/tt/440tt.jpg","null","mooney1","image-keyboard-response","140","682607","0.0-6.0-1.19","2855201","co38005","norming","","","","","","",""
"3295.3900000010617","","","post_mooney1_questions","survey-likert","141","685905","0.0-6.0-2.19","2855201","co38005","norming","","","{""curiosity"":4,""confidence"":2}","[0,1]","../img/tt/440tt.jpg","",""
"2374.284999999916","","","recognition","survey-text","142","688281","0.0-6.0-3.19","2855201","co38005","norming","","","{""guess"":""kameel""}","","../img/tt/440tt.jpg","",""
"null","../img/gs/440gs.jpg","null","reveal","image-keyboard-response","143","690291","0.0-6.0-4.19","2855201","co38005","norming","","","","","","",""
"null","../img/tt/440tt.jpg","null","mooney2","image-keyboard-response","144","692301","0.0-6.0-5.19","2855201","co38005","norming","","","","","","",""
"2273.7249999990454","","","post_reveal_questions","survey-likert","145","694577","0.0-6.0-6.19","2855201","co38005","norming","","","{""aha"":1}","[0]","../img/tt/440tt.jpg","",""
"null","<div style=""font-size:60px;""> </div>","null","fixation","html-keyboard-response","146","694786","0.0-6.0-0.20","2855201","co38005","norming","","","","","","",""
"null","../img/tt/567tt.jpg","null","mooney1","image-keyboard-response","147","697793","0.0-6.0-1.20","2855201","co38005","norming","","","","","","",""
"4342.024999999907","","","post_mooney1_questions","survey-likert","148","702138","0.0-6.0-2.20","2855201","co38005","norming","","","{""curiosity"":4,""confidence"":1}","[0,1]","../img/tt/567tt.jpg","",""
"2558.02499999851","","","recognition","survey-text","149","704697","0.0-6.0-3.20","2855201","co38005","norming","","","{""guess"":""bed""}","","../img/tt/567tt.jpg","",""
"null","../img/gs/567gs.jpg","null","reveal","image-keyboard-response","150","706704","0.0-6.0-4.20","2855201","co38005","norming","","","","","","",""
"null","../img/tt/567tt.jpg","null","mooney2","image-keyboard-response","151","708707","0.0-6.0-5.20","2855201","co38005","norming","","","","","","",""
"3228.1550000007264","","","post_reveal_questions","survey-likert","152","711937","0.0-6.0-6.20","2855201","co38005","norming","","","{""aha"":4}","[0]","../img/tt/567tt.jpg","",""
"null","<div style=""font-size:60px;""> </div>","null","fixation","html-keyboard-response","153","712144","0.0-6.0-0.21","2855201","co38005","norming","","","","","","",""
"null","../img/tt/1226tt.jpg","null","mooney1","image-keyboard-response","154","715157","0.0-6.0-1.21","2855201","co38005","norming","","","","","","",""
"3068.929999999469","","","post_mooney1_questions","survey-likert","155","718227","0.0-6.0-2.21","2855201","co38005","norming","","","{""curiosity"":2,""confidence"":5}","[0,1]","../img/tt/1226tt.jpg","",""
"3078.260000000242","","","recognition","survey-text","156","721306","0.0-6.0-3.21","2855201","co38005","norming","","","{""guess"":""gans""}","","../img/tt/1226tt.jpg","",""
"null","../img/gs/1226gs.jpg","null","reveal","image-keyboard-response","157","723313","0.0-6.0-4.21","2855201","co38005","norming","","","","","","",""
"null","../img/tt/1226tt.jpg","null","mooney2","image-keyboard-response","158","725318","0.0-6.0-5.21","2855201","co38005","norming","","","","","","",""
"3130.5499999998137","","","post_reveal_questions","survey-likert","159","728451","0.0-6.0-6.21","2855201","co38005","norming","","","{""aha"":1}","[0]","../img/tt/1226tt.jpg","",""
"null","<div style=""font-size:60px;""> </div>","null","fixation","html-keyboard-response","160","728654","0.0-6.0-0.22","2855201","co38005","norming","","","","","","",""
"null","../img/tt/056tt.jpg","null","mooney1","image-keyboard-response","161","731658","0.0-6.0-1.22","2855201","co38005","norming","","","","","","",""
"4661.694999998785","","","post_mooney1_questions","survey-likert","162","736323","0.0-6.0-2.22","2855201","co38005","norming","","","{""curiosity"":4,""confidence"":0}","[0,1]","../img/tt/056tt.jpg","",""
"2037.839999999036","","","recognition","survey-text","163","738362","0.0-6.0-3.22","2855201","co38005","norming","","","{""guess"":""kikker""}","","../img/tt/056tt.jpg","",""
"null","../img/gs/056gs.jpg","null","reveal","image-keyboard-response","164","740371","0.0-6.0-4.22","2855201","co38005","norming","","","","","","",""
"null","../img/tt/056tt.jpg","null","mooney2","image-keyboard-response","165","742375","0.0-6.0-5.22","2855201","co38005","norming","","","","","","",""
"3129.0449999996927","","","post_reveal_questions","survey-likert","166","745506","0.0-6.0-6.22","2855201","co38005","norming","","","{""aha"":1}","[0]","../img/tt/056tt.jpg","",""
"null","<div style=""font-size:60px;""> </div>","null","fixation","html-keyboard-response","167","745714","0.0-6.0-0.23","2855201","co38005","norming","","","","","","",""
"null","../img/tt/098tt.jpg","null","mooney1","image-keyboard-response","168","748726","0.0-6.0-1.23","2855201","co38005","norming","","","","","","",""
"3722.1899999986636","","","post_mooney1_questions","survey-likert","169","752451","0.0-6.0-2.23","2855201","co38005","norming","","","{""curiosity"":5,""confidence"":1}","[0,1]","../img/tt/098tt.jpg","",""
"2614.1999999999534","","","recognition","survey-text","170","755067","0.0-6.0-3.23","2855201","co38005","norming","","","{""guess"":""kameleon""}","","../img/tt/098tt.jpg","",""
"null","../img/gs/098gs.jpg","null","reveal","image-keyboard-response","171","757068","0.0-6.0-4.23","2855201","co38005","norming","","","","","","",""
"null","../img/tt/098tt.jpg","null","mooney2","image-keyboard-response","172","759070","0.0-6.0-5.23","2855201","co38005","norming","","","","","","",""
"3608.9049999990966","","","post_reveal_questions","survey-likert","173","762682","0.0-6.0-6.23","2855201","co38005","norming","","","{""aha"":2}","[0]","../img/tt/098tt.jpg","",""
"null","<div style=""font-size:60px;""> </div>","null","fixation","html-keyboard-response","174","762884","0.0-6.0-0.24","2855201","co38005","norming","","","","","","",""
"null","../img/tt/1154tt.jpg","null","mooney1","image-keyboard-response","175","765890","0.0-6.0-1.24","2855201","co38005","norming","","","","","","",""
"4997.290000001085","","","post_mooney1_questions","survey-likert","176","770891","0.0-6.0-2.24","2855201","co38005","norming","","","{""curiosity"":5,""confidence"":1}","[0,1]","../img/tt/1154tt.jpg","",""
"2558.234999998589","","","recognition","survey-text","177","773450","0.0-6.0-3.24","2855201","co38005","norming","","","{""guess"":""konijn""}","","../img/tt/1154tt.jpg","",""
"null","../img/gs/1154gs.jpg","null","reveal","image-keyboard-response","178","775461","0.0-6.0-4.24","2855201","co38005","norming","","","","","","",""
"null","../img/tt/1154tt.jpg","null","mooney2","image-keyboard-response","179","777464","0.0-6.0-5.24","2855201","co38005","norming","","","","","","",""
"2616.5999999993946","","","post_reveal_questions","survey-likert","180","780083","0.0-6.0-6.24","2855201","co38005","norming","","","{""aha"":0}","[0]","../img/tt/1154tt.jpg","",""
"null","<div style=""font-size:60px;""> </div>","null","fixation","html-keyboard-response","181","780292","0.0-6.0-0.25","2855201","co38005","norming","","","","","","",""
"null","../img/tt/163tt.jpg","null","mooney1","image-keyboard-response","182","783295","0.0-6.0-1.25","2855201","co38005","norming","","","","","","",""
"7378.025000000023","","","post_mooney1_questions","survey-likert","183","790676","0.0-6.0-2.25","2855201","co38005","norming","","","{""curiosity"":3,""confidence"":1}","[0,1]","../img/tt/163tt.jpg","",""
"2166.035000000149","","","recognition","survey-text","184","792843","0.0-6.0-3.25","2855201","co38005","norming","","","{""guess"":""bloem""}","","../img/tt/163tt.jpg","",""
"null","../img/gs/163gs.jpg","null","reveal","image-keyboard-response","185","794845","0.0-6.0-4.25","2855201","co38005","norming","","","","","","",""
"null","../img/tt/163tt.jpg","null","mooney2","image-keyboard-response","186","796855","0.0-6.0-5.25","2855201","co38005","norming","","","","","","",""
"5009.855000000331","","","post_reveal_questions","survey-likert","187","801867","0.0-6.0-6.25","2855201","co38005","norming","","","{""aha"":1}","[0]","../img/tt/163tt.jpg","",""
"null","<div style=""font-size:60px;""> </div>","null","fixation","html-keyboard-response","188","802077","0.0-6.0-0.26","2855201","co38005","norming","","","","","","",""
"null","../img/tt/1143tt.jpg","null","mooney1","image-keyboard-response","189","805083","0.0-6.0-1.26","2855201","co38005","norming","","","","","","",""
"5141.250000000582","","","post_mooney1_questions","survey-likert","190","810228","0.0-6.0-2.26","2855201","co38005","norming","","","{""curiosity"":2,""confidence"":2}","[0,1]","../img/tt/1143tt.jpg","",""
"1894.1400000002468","","","recognition","survey-text","191","812123","0.0-6.0-3.26","2855201","co38005","norming","","","{""guess"":""bus""}","","../img/tt/1143tt.jpg","",""
"null","../img/gs/1143gs.jpg","null","reveal","image-keyboard-response","192","814132","0.0-6.0-4.26","2855201","co38005","norming","","","","","","",""
"null","../img/tt/1143tt.jpg","null","mooney2","image-keyboard-response","193","816134","0.0-6.0-5.26","2855201","co38005","norming","","","","","","",""
"2346.319999998668","","","post_reveal_questions","survey-likert","194","818483","0.0-6.0-6.26","2855201","co38005","norming","","","{""aha"":0}","[0]","../img/tt/1143tt.jpg","",""
"null","<div style=""font-size:60px;""> </div>","null","fixation","html-keyboard-response","195","818690","0.0-6.0-0.27","2855201","co38005","norming","","","","","","",""
"null","../img/tt/1027tt.jpg","null","mooney1","image-keyboard-response","196","821703","0.0-6.0-1.27","2855201","co38005","norming","","","","","","",""
"5225.694999999134","","","post_mooney1_questions","survey-likert","197","826931","0.0-6.0-2.27","2855201","co38005","norming","","","{""curiosity"":0,""confidence"":6}","[0,1]","../img/tt/1027tt.jpg","",""
"1414.2950000005076","","","recognition","survey-text","198","828347","0.0-6.0-3.27","2855201","co38005","norming","","","{""guess"":""koe""}","","../img/tt/1027tt.jpg","",""
"null","../img/gs/1027gs.jpg","null","reveal","image-keyboard-response","199","830352","0.0-6.0-4.27","2855201","co38005","norming","","","","","","",""
"null","../img/tt/1027tt.jpg","null","mooney2","image-keyboard-response","200","832354","0.0-6.0-5.27","2855201","co38005","norming","","","","","","",""
"1966.809999999823","","","post_reveal_questions","survey-likert","201","834323","0.0-6.0-6.27","2855201","co38005","norming","","","{""aha"":0}","[0]","../img/tt/1027tt.jpg","",""
"null","<div style=""font-size:60px;""> </div>","null","fixation","html-keyboard-response","202","834525","0.0-6.0-0.28","2855201","co38005","norming","","","","","","",""
"null","../img/tt/1002tt.jpg","null","mooney1","image-keyboard-response","203","837534","0.0-6.0-1.28","2855201","co38005","norming","","","","","","",""
"4091.775000000722","","","post_mooney1_questions","survey-likert","204","841628","0.0-6.0-2.28","2855201","co38005","norming","","","{""curiosity"":2,""confidence"":4}","[0,1]","../img/tt/1002tt.jpg","",""
"1613.9750000002095","","","recognition","survey-text","205","843244","0.0-6.0-3.28","2855201","co38005","norming","","","{""guess"":""beer""}","","../img/tt/1002tt.jpg","",""
"null","../img/gs/1002gs.jpg","null","reveal","image-keyboard-response","206","845246","0.0-6.0-4.28","2855201","co38005","norming","","","","","","",""
"null","../img/tt/1002tt.jpg","null","mooney2","image-keyboard-response","207","847247","0.0-6.0-5.28","2855201","co38005","norming","","","","","","",""
"2155.8500000010245","","","post_reveal_questions","survey-likert","208","849404","0.0-6.0-6.28","2855201","co38005","norming","","","{""aha"":0}","[0]","../img/tt/1002tt.jpg","",""
"null","<div style=""font-size:60px;""> </div>","null","fixation","html-keyboard-response","209","849605","0.0-6.0-0.29","2855201","co38005","norming","","","","","","",""
"null","../img/tt/1224tt.jpg","null","mooney1","image-keyboard-response","210","852609","0.0-6.0-1.29","2855201","co38005","norming","","","","","","",""
"4720.680000000284","","","post_mooney1_questions","survey-likert","211","857332","0.0-6.0-2.29","2855201","co38005","norming","","","{""curiosity"":1,""confidence"":3}","[0,1]","../img/tt/1224tt.jpg","",""
"4142.039999998873","","","recognition","survey-text","212","861476","0.0-6.0-3.29","2855201","co38005","norming","","","{""guess"":""karate ""}","","../img/tt/1224tt.jpg","",""
"null","../img/gs/1224gs.jpg","null","reveal","image-keyboard-response","213","863483","0.0-6.0-4.29","2855201","co38005","norming","","","","","","",""
"null","../img/tt/1224tt.jpg","null","mooney2","image-keyboard-response","214","865488","0.0-6.0-5.29","2855201","co38005","norming","","","","","","",""
"2706.1949999987846","","","post_reveal_questions","survey-likert","215","868196","0.0-6.0-6.29","2855201","co38005","norming","","","{""aha"":0}","[0]","../img/tt/1224tt.jpg","",""
"null","<div style=""font-size:60px;""> </div>","null","fixation","html-keyboard-response","216","868398","0.0-6.0-0.30","2855201","co38005","norming","","","","","","",""
"null","../img/tt/1066tt.jpg","null","mooney1","image-keyboard-response","217","871409","0.0-6.0-1.30","2855201","co38005","norming","","","","","","",""
"4064.7850000004983","","","post_mooney1_questions","survey-likert","218","875477","0.0-6.0-2.30","2855201","co38005","norming","","","{""curiosity"":3,""confidence"":2}","[0,1]","../img/tt/1066tt.jpg","",""
"1590.2349999996368","","","recognition","survey-text","219","877069","0.0-6.0-3.30","2855201","co38005","norming","","","{""guess"":""bus""}","","../img/tt/1066tt.jpg","",""
"null","../img/gs/1066gs.jpg","null","reveal","image-keyboard-response","220","879078","0.0-6.0-4.30","2855201","co38005","norming","","","","","","",""
"null","../img/tt/1066tt.jpg","null","mooney2","image-keyboard-response","221","881082","0.0-6.0-5.30","2855201","co38005","norming","","","","","","",""
"2928.1750000008615","","","post_reveal_questions","survey-likert","222","884012","0.0-6.0-6.30","2855201","co38005","norming","","","{""aha"":1}","[0]","../img/tt/1066tt.jpg","",""
"null","<div style=""font-size:60px;""> </div>","null","fixation","html-keyboard-response","223","884215","0.0-6.0-0.31","2855201","co38005","norming","","","","","","",""
"null","../img/tt/477tt.jpg","null","mooney1","image-keyboard-response","224","887225","0.0-6.0-1.31","2855201","co38005","norming","","","","","","",""
"4098.859999999986","","","post_mooney1_questions","survey-likert","225","891324","0.0-6.0-2.31","2855201","co38005","norming","","","{""curiosity"":4,""confidence"":2}","[0,1]","../img/tt/477tt.jpg","",""
"2077.6199999999953","","","recognition","survey-text","226","893404","0.0-6.0-3.31","2855201","co38005","norming","","","{""guess"":""panda""}","","../img/tt/477tt.jpg","",""
"null","../img/gs/477gs.jpg","null","reveal","image-keyboard-response","227","895411","0.0-6.0-4.31","2855201","co38005","norming","","","","","","",""
"null","../img/tt/477tt.jpg","null","mooney2","image-keyboard-response","228","897421","0.0-6.0-5.31","2855201","co38005","norming","","","","","","",""
"4340.904999999097","","","post_reveal_questions","survey-likert","229","901765","0.0-6.0-6.31","2855201","co38005","norming","","","{""aha"":0}","[0]","../img/tt/477tt.jpg","",""
"null","<div style=""font-size:60px;""> </div>","null","fixation","html-keyboard-response","230","901971","0.0-6.0-0.32","2855201","co38005","norming","","","","","","",""
"null","../img/tt/1232tt.jpg","null","mooney1","image-keyboard-response","231","904973","0.0-6.0-1.32","2855201","co38005","norming","","","","","","",""
"3389.010000000708","","","post_mooney1_questions","survey-likert","232","908365","0.0-6.0-2.32","2855201","co38005","norming","","","{""curiosity"":0,""confidence"":6}","[0,1]","../img/tt/1232tt.jpg","",""
"1822.1699999994598","","","recognition","survey-text","233","910189","0.0-6.0-3.32","2855201","co38005","norming","","","{""guess"":""duif""}","","../img/tt/1232tt.jpg","",""
"null","../img/gs/1232gs.jpg","null","reveal","image-keyboard-response","234","912191","0.0-6.0-4.32","2855201","co38005","norming","","","","","","",""
"null","../img/tt/1232tt.jpg","null","mooney2","image-keyboard-response","235","914202","0.0-6.0-5.32","2855201","co38005","norming","","","","","","",""
"3729.8100000007544","","","post_reveal_questions","survey-likert","236","917933","0.0-6.0-6.32","2855201","co38005","norming","","","{""aha"":0}","[0]","../img/tt/1232tt.jpg","",""
"null","<div style=""font-size:60px;""> </div>","null","fixation","html-keyboard-response","237","918136","0.0-6.0-0.33","2855201","co38005","norming","","","","","","",""
"null","../img/tt/123tt.jpg","null","mooney1","image-keyboard-response","238","921144","0.0-6.0-1.33","2855201","co38005","norming","","","","","","",""
"4476.215000000666","","","post_mooney1_questions","survey-likert","239","925621","0.0-6.0-2.33","2855201","co38005","norming","","","{""curiosity"":2,""confidence"":4}","[0,1]","../img/tt/123tt.jpg","",""
"6182.249999999884","","","recognition","survey-text","240","931805","0.0-6.0-3.33","2855201","co38005","norming","","","{""guess"":""boekentas""}","","../img/tt/123tt.jpg","",""
"null","../img/gs/123gs.jpg","null","reveal","image-keyboard-response","241","933812","0.0-6.0-4.33","2855201","co38005","norming","","","","","","",""
"null","../img/tt/123tt.jpg","null","mooney2","image-keyboard-response","242","935813","0.0-6.0-5.33","2855201","co38005","norming","","","","","","",""
"3302.490000000107","","","post_reveal_questions","survey-likert","243","939117","0.0-6.0-6.33","2855201","co38005","norming","","","{""aha"":0}","[0]","../img/tt/123tt.jpg","",""
"null","<div style=""font-size:60px;""> </div>","null","fixation","html-keyboard-response","244","939321","0.0-6.0-0.34","2855201","co38005","norming","","","","","","",""
"null","../img/tt/1128tt.jpg","null","mooney1","image-keyboard-response","245","942327","0.0-6.0-1.34","2855201","co38005","norming","","","","","","",""
"6676.915000000037","","","post_mooney1_questions","survey-likert","246","949005","0.0-6.0-2.34","2855201","co38005","norming","","","{""curiosity"":5,""confidence"":1}","[0,1]","../img/tt/1128tt.jpg","",""
"5101.945000000414","","","recognition","survey-text","247","954109","0.0-6.0-3.34","2855201","co38005","norming","","","{""guess"":""worstelaars""}","","../img/tt/1128tt.jpg","",""
"null","../img/gs/1128gs.jpg","null","reveal","image-keyboard-response","248","956113","0.0-6.0-4.34","2855201","co38005","norming","","","","","","",""
"null","../img/tt/1128tt.jpg","null","mooney2","image-keyboard-response","249","958115","0.0-6.0-5.34","2855201","co38005","norming","","","","","","",""
"5975.684999999474","","","post_reveal_questions","survey-likert","250","964093","0.0-6.0-6.34","2855201","co38005","norming","","","{""aha"":0}","[0]","../img/tt/1128tt.jpg","",""
"null","<div style=""font-size:60px;""> </div>","null","fixation","html-keyboard-response","251","964300","0.0-6.0-0.35","2855201","co38005","norming","","","","","","",""
"null","../img/tt/358tt.jpg","null","mooney1","image-keyboard-response","252","967303","0.0-6.0-1.35","2855201","co38005","norming","","","","","","",""
"6387.469999999623","","","post_mooney1_questions","survey-likert","253","973693","0.0-6.0-2.35","2855201","co38005","norming","","","{""curiosity"":6,""confidence"":2}","[0,1]","../img/tt/358tt.jpg","",""
"2366.1050000009127","","","recognition","survey-text","254","976061","0.0-6.0-3.35","2855201","co38005","norming","","","{""guess"":""hond""}","","../img/tt/358tt.jpg","",""
"null","../img/gs/358gs.jpg","null","reveal","image-keyboard-response","255","978066","0.0-6.0-4.35","2855201","co38005","norming","","","","","","",""
"null","../img/tt/358tt.jpg","null","mooney2","image-keyboard-response","256","980069","0.0-6.0-5.35","2855201","co38005","norming","","","","","","",""
"6045.285000000149","","","post_reveal_questions","survey-likert","257","986117","0.0-6.0-6.35","2855201","co38005","norming","","","{""aha"":0}","[0]","../img/tt/358tt.jpg","",""
"null","<div style=""font-size:60px;""> </div>","null","fixation","html-keyboard-response","258","986323","0.0-6.0-0.36","2855201","co38005","norming","","","","","","",""
"null","../img/tt/1290tt.jpg","null","mooney1","image-keyboard-response","259","989330","0.0-6.0-1.36","2855201","co38005","norming","","","","","","",""
"6168.695000000298","","","post_mooney1_questions","survey-likert","260","995501","0.0-6.0-2.36","2855201","co38005","norming","","","{""curiosity"":2,""confidence"":6}","[0,1]","../img/tt/1290tt.jpg","",""
"3278.140000000363","","","recognition","survey-text","261","998781","0.0-6.0-3.36","2855201","co38005","norming","","","{""guess"":""skilift""}","","../img/tt/1290tt.jpg","",""
"null","../img/gs/1290gs.jpg","null","reveal","image-keyboard-response","262","1000790","0.0-6.0-4.36","2855201","co38005","norming","","","","","","",""
"null","../img/tt/1290tt.jpg","null","mooney2","image-keyboard-response","263","1002792","0.0-6.0-5.36","2855201","co38005","norming","","","","","","",""
"4187.140000000014","","","post_reveal_questions","survey-likert","264","1006981","0.0-6.0-6.36","2855201","co38005","norming","","","{""aha"":0}","[0]","../img/tt/1290tt.jpg","",""
"null","<div style=""font-size:60px;""> </div>","null","fixation","html-keyboard-response","265","1007191","0.0-6.0-0.37","2855201","co38005","norming","","","","","","",""
"null","../img/tt/081tt.jpg","null","mooney1","image-keyboard-response","266","1010195","0.0-6.0-1.37","2855201","co38005","norming","","","","","","",""
"2791.3549999993993","","","post_mooney1_questions","survey-likert","267","1012989","0.0-6.0-2.37","2855201","co38005","norming","","","{""curiosity"":0,""confidence"":4}","[0,1]","../img/tt/081tt.jpg","",""
"2878.1600000002654","","","recognition","survey-text","268","1015869","0.0-6.0-3.37","2855201","co38005","norming","","","{""guess"":""wielrenner""}","","../img/tt/081tt.jpg","",""
"null","../img/gs/081gs.jpg","null","reveal","image-keyboard-response","269","1017879","0.0-6.0-4.37","2855201","co38005","norming","","","","","","",""
"null","../img/tt/081tt.jpg","null","mooney2","image-keyboard-response","270","1019881","0.0-6.0-5.37","2855201","co38005","norming","","","","","","",""
"4185.460000000661","","","post_reveal_questions","survey-likert","271","1024071","0.0-6.0-6.37","2855201","co38005","norming","","","{""aha"":3}","[0]","../img/tt/081tt.jpg","",""
"null","<div style=""font-size:60px;""> </div>","null","fixation","html-keyboard-response","272","1024274","0.0-6.0-0.38","2855201","co38005","norming","","","","","","",""
"null","../img/tt/1102tt.jpg","null","mooney1","image-keyboard-response","273","1027284","0.0-6.0-1.38","2855201","co38005","norming","","","","","","",""
"3960.32500000007","","","post_mooney1_questions","survey-likert","274","1031247","0.0-6.0-2.38","2855201","co38005","norming","","","{""curiosity"":0,""confidence"":0}","[0,1]","../img/tt/1102tt.jpg","",""
"5694.47500000021","","","recognition","survey-text","275","1036943","0.0-6.0-3.38","2855201","co38005","norming","","","{""guess"":""man in hangmat""}","","../img/tt/1102tt.jpg","",""
"null","../img/gs/1102gs.jpg","null","reveal","image-keyboard-response","276","1038946","0.0-6.0-4.38","2855201","co38005","norming","","","","","","",""
"null","../img/tt/1102tt.jpg","null","mooney2","image-keyboard-response","277","1040950","0.0-6.0-5.38","2855201","co38005","norming","","","","","","",""
"3085.995000001276","","","post_reveal_questions","survey-likert","278","1044038","0.0-6.0-6.38","2855201","co38005","norming","","","{""aha"":0}","[0]","../img/tt/1102tt.jpg","",""
"null","<div style=""font-size:60px;""> </div>","null","fixation","html-keyboard-response","279","1044240","0.0-6.0-0.39","2855201","co38005","norming","","","","","","",""
"null","../img/tt/307tt.jpg","null","mooney1","image-keyboard-response","280","1047247","0.0-6.0-1.39","2855201","co38005","norming","","","","","","",""
"5398.64499999932","","","post_mooney1_questions","survey-likert","281","1052647","0.0-6.0-2.39","2855201","co38005","norming","","","{""curiosity"":4,""confidence"":3}","[0,1]","../img/tt/307tt.jpg","",""
"4838.300000001211","","","recognition","survey-text","282","1057487","0.0-6.0-3.39","2855201","co38005","norming","","","{""guess"":""papegaai en schildpad""}","","../img/tt/307tt.jpg","",""
"null","../img/gs/307gs.jpg","null","reveal","image-keyboard-response","283","1059493","0.0-6.0-4.39","2855201","co38005","norming","","","","","","",""
"null","../img/tt/307tt.jpg","null","mooney2","image-keyboard-response","284","1061496","0.0-6.0-5.39","2855201","co38005","norming","","","","","","",""
"3100.575000000419","","","post_reveal_questions","survey-likert","285","1064599","0.0-6.0-6.39","2855201","co38005","norming","","","{""aha"":0}","[0]","../img/tt/307tt.jpg","",""
"null","<div style=""font-size:60px;""> </div>","null","fixation","html-keyboard-response","286","1064801","0.0-6.0-0.40","2855201","co38005","norming","","","","","","",""
"null","../img/tt/1262tt.jpg","null","mooney1","image-keyboard-response","287","1067808","0.0-6.0-1.40","2855201","co38005","norming","","","","","","",""
"3683.4400000008754","","","post_mooney1_questions","survey-likert","288","1071495","0.0-6.0-2.40","2855201","co38005","norming","","","{""curiosity"":4,""confidence"":3}","[0,1]","../img/tt/1262tt.jpg","",""
"3446.175000000978","","","recognition","survey-text","289","1074943","0.0-6.0-3.40","2855201","co38005","norming","","","{""guess"":""kameleon""}","","../img/tt/1262tt.jpg","",""
"null","../img/gs/1262gs.jpg","null","reveal","image-keyboard-response","290","1076944","0.0-6.0-4.40","2855201","co38005","norming","","","","","","",""
"null","../img/tt/1262tt.jpg","null","mooney2","image-keyboard-response","291","1078953","0.0-6.0-5.40","2855201","co38005","norming","","","","","","",""
"3474.519999999786","","","post_reveal_questions","survey-likert","292","1082430","0.0-6.0-6.40","2855201","co38005","norming","","","{""aha"":1}","[0]","../img/tt/1262tt.jpg","",""
"null","<div style=""font-size:60px;""> </div>","null","fixation","html-keyboard-response","293","1082632","0.0-6.0-0.41","2855201","co38005","norming","","","","","","",""
"null","../img/tt/1151tt.jpg","null","mooney1","image-keyboard-response","294","1085637","0.0-6.0-1.41","2855201","co38005","norming","","","","","","",""
"6014.545000000158","","","post_mooney1_questions","survey-likert","295","1091655","0.0-6.0-2.41","2855201","co38005","norming","","","{""curiosity"":5,""confidence"":1}","[0,1]","../img/tt/1151tt.jpg","",""
"3669.9050000007264","","","recognition","survey-text","296","1095327","0.0-6.0-3.41","2855201","co38005","norming","","","{""guess"":""miereneter""}","","../img/tt/1151tt.jpg","",""
"null","../img/gs/1151gs.jpg","null","reveal","image-keyboard-response","297","1097329","0.0-6.0-4.41","2855201","co38005","norming","","","","","","",""
"null","../img/tt/1151tt.jpg","null","mooney2","image-keyboard-response","298","1099340","0.0-6.0-5.41","2855201","co38005","norming","","","","","","",""
"4552.035000000615","","","post_reveal_questions","survey-likert","299","1103895","0.0-6.0-6.41","2855201","co38005","norming","","","{""aha"":0}","[0]","../img/tt/1151tt.jpg","",""
"null","<div style=""font-size:60px;""> </div>","null","fixation","html-keyboard-response","300","1104097","0.0-6.0-0.42","2855201","co38005","norming","","","","","","",""
"null","../img/tt/378tt.jpg","null","mooney1","image-keyboard-response","301","1107100","0.0-6.0-1.42","2855201","co38005","norming","","","","","","",""
"6152.180000000866","","","post_mooney1_questions","survey-likert","302","1113255","0.0-6.0-2.42","2855201","co38005","norming","","","{""curiosity"":5,""confidence"":2}","[0,1]","../img/tt/378tt.jpg","",""
"2646.4949999991804","","","recognition","survey-text","303","1115903","0.0-6.0-3.42","2855201","co38005","norming","","","{""guess"":""uil""}","","../img/tt/378tt.jpg","",""
"null","../img/gs/378gs.jpg","null","reveal","image-keyboard-response","304","1117910","0.0-6.0-4.42","2855201","co38005","norming","","","","","","",""
"null","../img/tt/378tt.jpg","null","mooney2","image-keyboard-response","305","1119919","0.0-6.0-5.42","2855201","co38005","norming","","","","","","",""
"2915.380000000354","","","post_reveal_questions","survey-likert","306","1122839","0.0-6.0-6.42","2855201","co38005","norming","","","{""aha"":0}","[0]","../img/tt/378tt.jpg","",""
"null","<div style=""font-size:60px;""> </div>","null","fixation","html-keyboard-response","307","1123044","0.0-6.0-0.43","2855201","co38005","norming","","","","","","",""
"null","../img/tt/301tt.jpg","null","mooney1","image-keyboard-response","308","1126053","0.0-6.0-1.43","2855201","co38005","norming","","","","","","",""
"5318.280000001425","","","post_mooney1_questions","survey-likert","309","1131375","0.0-6.0-2.43","2855201","co38005","norming","","","{""curiosity"":4,""confidence"":1}","[0,1]","../img/tt/301tt.jpg","",""
"1934.3449999997392","","","recognition","survey-text","310","1133311","0.0-6.0-3.43","2855201","co38005","norming","","","{""guess"":""kerk""}","","../img/tt/301tt.jpg","",""
"null","../img/gs/301gs.jpg","null","reveal","image-keyboard-response","311","1135320","0.0-6.0-4.43","2855201","co38005","norming","","","","","","",""
"null","../img/tt/301tt.jpg","null","mooney2","image-keyboard-response","312","1137324","0.0-6.0-5.43","2855201","co38005","norming","","","","","","",""
"3878.8700000003446","","","post_reveal_questions","survey-likert","313","1141207","0.0-6.0-6.43","2855201","co38005","norming","","","{""aha"":0}","[0]","../img/tt/301tt.jpg","",""
"null","<div style=""font-size:60px;""> </div>","null","fixation","html-keyboard-response","314","1141413","0.0-6.0-0.44","2855201","co38005","norming","","","","","","",""
"null","../img/tt/353tt.jpg","null","mooney1","image-keyboard-response","315","1144426","0.0-6.0-1.44","2855201","co38005","norming","","","","","","",""
"5746.065000001108","","","post_mooney1_questions","survey-likert","316","1150172","0.0-6.0-2.44","2855201","co38005","norming","","","{""curiosity"":0,""confidence"":6}","[0,1]","../img/tt/353tt.jpg","",""
"4062.4700000009034","","","recognition","survey-text","317","1154236","0.0-6.0-3.44","2855201","co38005","norming","","","{""guess"":""pinguin""}","","../img/tt/353tt.jpg","",""
"null","../img/gs/353gs.jpg","null","reveal","image-keyboard-response","318","1156242","0.0-6.0-4.44","2855201","co38005","norming","","","","","","",""
"null","../img/tt/353tt.jpg","null","mooney2","image-keyboard-response","319","1158244","0.0-6.0-5.44","2855201","co38005","norming","","","","","","",""
"2382.000000001397","","","post_reveal_questions","survey-likert","320","1160627","0.0-6.0-6.44","2855201","co38005","norming","","","{""aha"":0}","[0]","../img/tt/353tt.jpg","",""
"null","<div style=""font-size:60px;""> </div>","null","fixation","html-keyboard-response","321","1160829","0.0-6.0-0.45","2855201","co38005","norming","","","","","","",""
"null","../img/tt/405tt.jpg","null","mooney1","image-keyboard-response","322","1163833","0.0-6.0-1.45","2855201","co38005","norming","","","","","","",""
"4054.9150000007357","","","post_mooney1_questions","survey-likert","323","1167892","0.0-6.0-2.45","2855201","co38005","norming","","","{""curiosity"":0,""confidence"":6}","[0,1]","../img/tt/405tt.jpg","",""
"3990.0099999995437","","","recognition","survey-text","324","1171884","0.0-6.0-3.45","2855201","co38005","norming","","","{""guess"":""koala""}","","../img/tt/405tt.jpg","",""
"null","../img/gs/405gs.jpg","null","reveal","image-keyboard-response","325","1173885","0.0-6.0-4.45","2855201","co38005","norming","","","","","","",""
"null","../img/tt/405tt.jpg","null","mooney2","image-keyboard-response","326","1175891","0.0-6.0-5.45","2855201","co38005","norming","","","","","","",""
"3991.020000001183","","","post_reveal_questions","survey-likert","327","1179883","0.0-6.0-6.45","2855201","co38005","norming","","","{""aha"":0}","[0]","../img/tt/405tt.jpg","",""
"null","<div style=""font-size:60px;""> </div>","null","fixation","html-keyboard-response","328","1180085","0.0-6.0-0.46","2855201","co38005","norming","","","","","","",""
"null","../img/tt/1126tt.jpg","null","mooney1","image-keyboard-response","329","1183096","0.0-6.0-1.46","2855201","co38005","norming","","","","","","",""
"3391.850000000093","","","post_mooney1_questions","survey-likert","330","1186491","0.0-6.0-2.46","2855201","co38005","norming","","","{""curiosity"":0,""confidence"":0}","[0,1]","../img/tt/1126tt.jpg","",""
"4222.34999999986","","","recognition","survey-text","331","1190715","0.0-6.0-3.46","2855201","co38005","norming","","","{""guess"":""kikker""}","","../img/tt/1126tt.jpg","",""
"null","../img/gs/1126gs.jpg","null","reveal","image-keyboard-response","332","1192717","0.0-6.0-4.46","2855201","co38005","norming","","","","","","",""
"null","../img/tt/1126tt.jpg","null","mooney2","image-keyboard-response","333","1194721","0.0-6.0-5.46","2855201","co38005","norming","","","","","","",""
"2288.1550000002608","","","post_reveal_questions","survey-likert","334","1197012","0.0-6.0-6.46","2855201","co38005","norming","","","{""aha"":0}","[0]","../img/tt/1126tt.jpg","",""
"null","<div style=""font-size:60px;""> </div>","null","fixation","html-keyboard-response","335","1197218","0.0-6.0-0.47","2855201","co38005","norming","","","","","","",""
"null","../img/tt/1097tt.jpg","null","mooney1","image-keyboard-response","336","1200221","0.0-6.0-1.47","2855201","co38005","norming","","","","","","",""
"6579.360000001499","","","post_mooney1_questions","survey-likert","337","1206806","0.0-6.0-2.47","2855201","co38005","norming","","","{""curiosity"":3,""confidence"":3}","[0,1]","../img/tt/1097tt.jpg","",""
"2534.305000001099","","","recognition","survey-text","338","1209342","0.0-6.0-3.47","2855201","co38005","norming","","","{""guess"":""SUP""}","","../img/tt/1097tt.jpg","",""
"null","../img/gs/1097gs.jpg","null","reveal","image-keyboard-response","339","1211345","0.0-6.0-4.47","2855201","co38005","norming","","","","","","",""
"null","../img/tt/1097tt.jpg","null","mooney2","image-keyboard-response","340","1213349","0.0-6.0-5.47","2855201","co38005","norming","","","","","","",""
"2109.7200000004377","","","post_reveal_questions","survey-likert","341","1215462","0.0-6.0-6.47","2855201","co38005","norming","","","{""aha"":0}","[0]","../img/tt/1097tt.jpg","",""
"null","<div style=""font-size:60px;""> </div>","null","fixation","html-keyboard-response","342","1215663","0.0-6.0-0.48","2855201","co38005","norming","","","","","","",""
"null","../img/tt/1269tt.jpg","null","mooney1","image-keyboard-response","343","1218669","0.0-6.0-1.48","2855201","co38005","norming","","","","","","",""
"3837.780000000028","","","post_mooney1_questions","survey-likert","344","1222510","0.0-6.0-2.48","2855201","co38005","norming","","","{""curiosity"":0,""confidence"":0}","[0,1]","../img/tt/1269tt.jpg","",""
"3054.2550000010524","","","recognition","survey-text","345","1225566","0.0-6.0-3.48","2855201","co38005","norming","","","{""guess"":""vogel""}","","../img/tt/1269tt.jpg","",""
"null","../img/gs/1269gs.jpg","null","reveal","image-keyboard-response","346","1227571","0.0-6.0-4.48","2855201","co38005","norming","","","","","","",""
"null","../img/tt/1269tt.jpg","null","mooney2","image-keyboard-response","347","1229577","0.0-6.0-5.48","2855201","co38005","norming","","","","","","",""
"2642.3749999993015","","","post_reveal_questions","survey-likert","348","1232222","0.0-6.0-6.48","2855201","co38005","norming","","","{""aha"":0}","[0]","../img/tt/1269tt.jpg","",""
"null","<div style=""font-size:60px;""> </div>","null","fixation","html-keyboard-response","349","1232429","0.0-6.0-0.49","2855201","co38005","norming","","","","","","",""
"null","../img/tt/507tt.jpg","null","mooney1","image-keyboard-response","350","1235431","0.0-6.0-1.49","2855201","co38005","norming","","","","","","",""
"3020.9800000011455","","","post_mooney1_questions","survey-likert","351","1238454","0.0-6.0-2.49","2855201","co38005","norming","","","{""curiosity"":3,""confidence"":3}","[0,1]","../img/tt/507tt.jpg","",""
"3190.0000000004657","","","recognition","survey-text","352","1241646","0.0-6.0-3.49","2855201","co38005","norming","","","{""guess"":""catwalk""}","","../img/tt/507tt.jpg","",""
"null","../img/gs/507gs.jpg","null","reveal","image-keyboard-response","353","1243648","0.0-6.0-4.49","2855201","co38005","norming","","","","","","",""
"null","../img/tt/507tt.jpg","null","mooney2","image-keyboard-response","354","1245650","0.0-6.0-5.49","2855201","co38005","norming","","","","","","",""
"3016.255000000354","","","post_reveal_questions","survey-likert","355","1248669","0.0-6.0-6.49","2855201","co38005","norming","","","{""aha"":0}","[0]","../img/tt/507tt.jpg","",""
"null","<div style=""font-size:60px;""> </div>","null","fixation","html-keyboard-response","356","1248880","0.0-6.0-0.50","2855201","co38005","norming","","","","","","",""
"null","../img/tt/599tt.jpg","null","mooney1","image-keyboard-response","357","1251888","0.0-6.0-1.50","2855201","co38005","norming","","","","","","",""
"3514.800000000745","","","post_mooney1_questions","survey-likert","358","1255406","0.0-6.0-2.50","2855201","co38005","norming","","","{""curiosity"":4,""confidence"":2}","[0,1]","../img/tt/599tt.jpg","",""
"5846.0899999991525","","","recognition","survey-text","359","1261254","0.0-6.0-3.50","2855201","co38005","norming","","","{""guess"":""schaatser""}","","../img/tt/599tt.jpg","",""
"null","../img/gs/599gs.jpg","null","reveal","image-keyboard-response","360","1263259","0.0-6.0-4.50","2855201","co38005","norming","","","","","","",""
"null","../img/tt/599tt.jpg","null","mooney2","image-keyboard-response","361","1265262","0.0-6.0-5.50","2855201","co38005","norming","","","","","","",""
"2829.7700000002515","","","post_reveal_questions","survey-likert","362","1268096","0.0-6.0-6.50","2855201","co38005","norming","","","{""aha"":0}","[0]","../img/tt/599tt.jpg","",""
"null","<div style=""font-size:60px;""> </div>","null","fixation","html-keyboard-response","363","1268305","0.0-6.0-0.51","2855201","co38005","norming","","","","","","",""
"null","../img/tt/020tt.jpg","null","mooney1","image-keyboard-response","364","1271308","0.0-6.0-1.51","2855201","co38005","norming","","","","","","",""
"5266.630000000121","","","post_mooney1_questions","survey-likert","365","1276576","0.0-6.0-2.51","2855201","co38005","norming","","","{""curiosity"":5,""confidence"":0}","[0,1]","../img/tt/020tt.jpg","",""
"3645.9949999989476","","","recognition","survey-text","366","1280224","0.0-6.0-3.51","2855201","co38005","norming","","","{""guess"":""kangoeroe""}","","../img/tt/020tt.jpg","",""
"null","../img/gs/020gs.jpg","null","reveal","image-keyboard-response","367","1282234","0.0-6.0-4.51","2855201","co38005","norming","","","","","","",""
"null","../img/tt/020tt.jpg","null","mooney2","image-keyboard-response","368","1284244","0.0-6.0-5.51","2855201","co38005","norming","","","","","","",""
"2041.405000000028","","","post_reveal_questions","survey-likert","369","1286288","0.0-6.0-6.51","2855201","co38005","norming","","","{""aha"":0}","[0]","../img/tt/020tt.jpg","",""
"null","<div style=""font-size:60px;""> </div>","null","fixation","html-keyboard-response","370","1286496","0.0-6.0-0.52","2855201","co38005","norming","","","","","","",""
"null","../img/tt/549tt.jpg","null","mooney1","image-keyboard-response","371","1289507","0.0-6.0-1.52","2855201","co38005","norming","","","","","","",""
"6841.854999998817","","","post_mooney1_questions","survey-likert","372","1296352","0.0-6.0-2.52","2855201","co38005","norming","","","{""curiosity"":1,""confidence"":0}","[0,1]","../img/tt/549tt.jpg","",""
"3758.155000001192","","","recognition","survey-text","373","1300112","0.0-6.0-3.52","2855201","co38005","norming","","","{""guess"":""toneelstuk""}","","../img/tt/549tt.jpg","",""
"null","../img/gs/549gs.jpg","null","reveal","image-keyboard-response","374","1302113","0.0-6.0-4.52","2855201","co38005","norming","","","","","","",""
"null","../img/tt/549tt.jpg","null","mooney2","image-keyboard-response","375","1304120","0.0-6.0-5.52","2855201","co38005","norming","","","","","","",""
"2869.66500000027","","","post_reveal_questions","survey-likert","376","1306992","0.0-6.0-6.52","2855201","co38005","norming","","","{""aha"":0}","[0]","../img/tt/549tt.jpg","",""
"null","<div style=""font-size:60px;""> </div>","null","fixation","html-keyboard-response","377","1307201","0.0-6.0-0.53","2855201","co38005","norming","","","","","","",""
"null","../img/tt/036tt.jpg","null","mooney1","image-keyboard-response","378","1310205","0.0-6.0-1.53","2855201","co38005","norming","","","","","","",""
"5080.110000000801","","","post_mooney1_questions","survey-likert","379","1315288","0.0-6.0-2.53","2855201","co38005","norming","","","{""curiosity"":6,""confidence"":0}","[0,1]","../img/tt/036tt.jpg","",""
"3526.045000000624","","","recognition","survey-text","380","1318816","0.0-6.0-3.53","2855201","co38005","norming","","","{""guess"":""spinnenweb""}","","../img/tt/036tt.jpg","",""
"null","../img/gs/036gs.jpg","null","reveal","image-keyboard-response","381","1320822","0.0-6.0-4.53","2855201","co38005","norming","","","","","","",""
"null","../img/tt/036tt.jpg","null","mooney2","image-keyboard-response","382","1322831","0.0-6.0-5.53","2855201","co38005","norming","","","","","","",""
"3766.0550000001676","","","post_reveal_questions","survey-likert","383","1326600","0.0-6.0-6.53","2855201","co38005","norming","","","{""aha"":0}","[0]","../img/tt/036tt.jpg","",""
"null","<div style=""font-size:60px;""> </div>","null","fixation","html-keyboard-response","384","1326805","0.0-6.0-0.54","2855201","co38005","norming","","","","","","",""
"null","../img/tt/1048tt.jpg","null","mooney1","image-keyboard-response","385","1329815","0.0-6.0-1.54","2855201","co38005","norming","","","","","","",""
"6081.195000000764","","","post_mooney1_questions","survey-likert","386","1335897","0.0-6.0-2.54","2855201","co38005","norming","","","{""curiosity"":4,""confidence"":1}","[0,1]","../img/tt/1048tt.jpg","",""
"4229.675000000512","","","recognition","survey-text","387","1340129","0.0-6.0-3.54","2855201","co38005","norming","","","{""guess"":""palmboom""}","","../img/tt/1048tt.jpg","",""
"null","../img/gs/1048gs.jpg","null","reveal","image-keyboard-response","388","1342131","0.0-6.0-4.54","2855201","co38005","norming","","","","","","",""
"null","../img/tt/1048tt.jpg","null","mooney2","image-keyboard-response","389","1344134","0.0-6.0-5.54","2855201","co38005","norming","","","","","","",""
"3935.625000000233","","","post_reveal_questions","survey-likert","390","1348073","0.0-6.0-6.54","2855201","co38005","norming","","","{""aha"":0}","[0]","../img/tt/1048tt.jpg","",""
"null","<div style=""font-size:60px;""> </div>","null","fixation","html-keyboard-response","391","1348275","0.0-6.0-0.55","2855201","co38005","norming","","","","","","",""
"null","../img/tt/1091tt.jpg","null","mooney1","image-keyboard-response","392","1351278","0.0-6.0-1.55","2855201","co38005","norming","","","","","","",""
"3897.3100000002887","","","post_mooney1_questions","survey-likert","393","1355177","0.0-6.0-2.55","2855201","co38005","norming","","","{""curiosity"":4,""confidence"":5}","[0,1]","../img/tt/1091tt.jpg","",""
"2118.399999999441","","","recognition","survey-text","394","1357297","0.0-6.0-3.55","2855201","co38005","norming","","","{""guess"":""paard""}","","../img/tt/1091tt.jpg","",""
"null","../img/gs/1091gs.jpg","null","reveal","image-keyboard-response","395","1359299","0.0-6.0-4.55","2855201","co38005","norming","","","","","","",""
"null","../img/tt/1091tt.jpg","null","mooney2","image-keyboard-response","396","1361305","0.0-6.0-5.55","2855201","co38005","norming","","","","","","",""
"1981.9499999994878","","","post_reveal_questions","survey-likert","397","1363289","0.0-6.0-6.55","2855201","co38005","norming","","","{""aha"":0}","[0]","../img/tt/1091tt.jpg","",""
"null","<div style=""font-size:60px;""> </div>","null","fixation","html-keyboard-response","398","1363493","0.0-6.0-0.56","2855201","co38005","norming","","","","","","",""
"null","../img/tt/1037tt.jpg","null","mooney1","image-keyboard-response","399","1366502","0.0-6.0-1.56","2855201","co38005","norming","","","","","","",""
"4135.690000000875","","","post_mooney1_questions","survey-likert","400","1370641","0.0-6.0-2.56","2855201","co38005","norming","","","{""curiosity"":5,""confidence"":2}","[0,1]","../img/tt/1037tt.jpg","",""
"1678.0999999991618","","","recognition","survey-text","401","1372321","0.0-6.0-3.56","2855201","co38005","norming","","","{""guess"":""beer""}","","../img/tt/1037tt.jpg","",""
"null","../img/gs/1037gs.jpg","null","reveal","image-keyboard-response","402","1374325","0.0-6.0-4.56","2855201","co38005","norming","","","","","","",""
"null","../img/tt/1037tt.jpg","null","mooney2","image-keyboard-response","403","1376332","0.0-6.0-5.56","2855201","co38005","norming","","","","","","",""
"4090.1049999995157","","","post_reveal_questions","survey-likert","404","1380425","0.0-6.0-6.56","2855201","co38005","norming","","","{""aha"":0}","[0]","../img/tt/1037tt.jpg","",""
"null","<div style=""font-size:60px;""> </div>","null","fixation","html-keyboard-response","405","1380633","0.0-6.0-0.57","2855201","co38005","norming","","","","","","",""
"null","../img/tt/013tt.jpg","null","mooney1","image-keyboard-response","406","1383636","0.0-6.0-1.57","2855201","co38005","norming","","","","","","",""
"5114.090000001015","","","post_mooney1_questions","survey-likert","407","1388753","0.0-6.0-2.57","2855201","co38005","norming","","","{""curiosity"":6,""confidence"":0}","[0,1]","../img/tt/013tt.jpg","",""
"782.2350000005681","","","recognition","survey-text","408","1389537","0.0-6.0-3.57","2855201","co38005","norming","","","{""guess"":""""}","","../img/tt/013tt.jpg","",""
"null","../img/gs/013gs.jpg","null","reveal","image-keyboard-response","409","1391543","0.0-6.0-4.57","2855201","co38005","norming","","","","","","",""
"null","../img/tt/013tt.jpg","null","mooney2","image-keyboard-response","410","1393550","0.0-6.0-5.57","2855201","co38005","norming","","","","","","",""
"4048.0599999991246","","","post_reveal_questions","survey-likert","411","1397601","0.0-6.0-6.57","2855201","co38005","norming","","","{""aha"":2}","[0]","../img/tt/013tt.jpg","",""
"null","<div style=""font-size:60px;""> </div>","null","fixation","html-keyboard-response","412","1397806","0.0-6.0-0.58","2855201","co38005","norming","","","","","","",""
"null","../img/tt/1055tt.jpg","null","mooney1","image-keyboard-response","413","1400808","0.0-6.0-1.58","2855201","co38005","norming","","","","","","",""
"6349.635000000475","","","post_mooney1_questions","survey-likert","414","1407161","0.0-6.0-2.58","2855201","co38005","norming","","","{""curiosity"":5,""confidence"":1}","[0,1]","../img/tt/1055tt.jpg","",""
"2086.2849999992177","","","recognition","survey-text","415","1409249","0.0-6.0-3.58","2855201","co38005","norming","","","{""guess"":""boot""}","","../img/tt/1055tt.jpg","",""
"null","../img/gs/1055gs.jpg","null","reveal","image-keyboard-response","416","1411258","0.0-6.0-4.58","2855201","co38005","norming","","","","","","",""
"null","../img/tt/1055tt.jpg","null","mooney2","image-keyboard-response","417","1413262","0.0-6.0-5.58","2855201","co38005","norming","","","","","","",""
"4122.045000000158","","","post_reveal_questions","survey-likert","418","1417385","0.0-6.0-6.58","2855201","co38005","norming","","","{""aha"":1}","[0]","../img/tt/1055tt.jpg","",""
"null","<div style=""font-size:60px;""> </div>","null","fixation","html-keyboard-response","419","1417590","0.0-6.0-0.59","2855201","co38005","norming","","","","","","",""
"null","../img/tt/1173tt.jpg","null","mooney1","image-keyboard-response","420","1420601","0.0-6.0-1.59","2855201","co38005","norming","","","","","","",""
"4243.960000001593","","","post_mooney1_questions","survey-likert","421","1424849","0.0-6.0-2.59","2855201","co38005","norming","","","{""curiosity"":5,""confidence"":4}","[0,1]","../img/tt/1173tt.jpg","",""
"2894.000000000233","","","recognition","survey-text","422","1427745","0.0-6.0-3.59","2855201","co38005","norming","","","{""guess"":""hockey""}","","../img/tt/1173tt.jpg","",""
"null","../img/gs/1173gs.jpg","null","reveal","image-keyboard-response","423","1429755","0.0-6.0-4.59","2855201","co38005","norming","","","","","","",""
"null","../img/tt/1173tt.jpg","null","mooney2","image-keyboard-response","424","1431763","0.0-6.0-5.59","2855201","co38005","norming","","","","","","",""
"4691.339999999385","","","post_reveal_questions","survey-likert","425","1436457","0.0-6.0-6.59","2855201","co38005","norming","","","{""aha"":0}","[0]","../img/tt/1173tt.jpg","",""
"null","<div style=""font-size:60px;""> </div>","null","fixation","html-keyboard-response","426","1436660","0.0-6.0-0.60","2855201","co38005","norming","","","","","","",""
"null","../img/tt/418tt.jpg","null","mooney1","image-keyboard-response","427","1439662","0.0-6.0-1.60","2855201","co38005","norming","","","","","","",""
"4119.6899999994785","","","post_mooney1_questions","survey-likert","428","1443785","0.0-6.0-2.60","2855201","co38005","norming","","","{""curiosity"":6,""confidence"":0}","[0,1]","../img/tt/418tt.jpg","",""
"3349.985000000801","","","recognition","survey-text","429","1447137","0.0-6.0-3.60","2855201","co38005","norming","","","{""guess"":""praline""}","","../img/tt/418tt.jpg","",""
"null","../img/gs/418gs.jpg","null","reveal","image-keyboard-response","430","1449148","0.0-6.0-4.60","2855201","co38005","norming","","","","","","",""
"null","../img/tt/418tt.jpg","null","mooney2","image-keyboard-response","431","1451158","0.0-6.0-5.60","2855201","co38005","norming","","","","","","",""
"4208.744999999879","","","post_reveal_questions","survey-likert","432","1455370","0.0-6.0-6.60","2855201","co38005","norming","","","{""aha"":3}","[0]","../img/tt/418tt.jpg","",""
"null","<div style=""font-size:60px;""> </div>","null","fixation","html-keyboard-response","433","1455578","0.0-6.0-0.61","2855201","co38005","norming","","","","","","",""
"null","../img/tt/1254tt.jpg","null","mooney1","image-keyboard-response","434","1458588","0.0-6.0-1.61","2855201","co38005","norming","","","","","","",""
"3706.6100000010338","","","post_mooney1_questions","survey-likert","435","1462298","0.0-6.0-2.61","2855201","co38005","norming","","","{""curiosity"":6,""confidence"":3}","[0,1]","../img/tt/1254tt.jpg","",""
"3782.0700000009965","","","recognition","survey-text","436","1466082","0.0-6.0-3.61","2855201","co38005","norming","","","{""guess"":""konijn""}","","../img/tt/1254tt.jpg","",""
"null","../img/gs/1254gs.jpg","null","reveal","image-keyboard-response","437","1468090","0.0-6.0-4.61","2855201","co38005","norming","","","","","","",""
"null","../img/tt/1254tt.jpg","null","mooney2","image-keyboard-response","438","1470094","0.0-6.0-5.61","2855201","co38005","norming","","","","","","",""
"3905.375000000233","","","post_reveal_questions","survey-likert","439","1474002","0.0-6.0-6.61","2855201","co38005","norming","","","{""aha"":0}","[0]","../img/tt/1254tt.jpg","",""
"null","<div style=""font-size:60px;""> </div>","null","fixation","html-keyboard-response","440","1474206","0.0-6.0-0.62","2855201","co38005","norming","","","","","","",""
"null","../img/tt/1033tt.jpg","null","mooney1","image-keyboard-response","441","1477210","0.0-6.0-1.62","2855201","co38005","norming","","","","","","",""
"8166.48499999987","","","post_mooney1_questions","survey-likert","442","1485378","0.0-6.0-2.62","2855201","co38005","norming","","","{""curiosity"":6,""confidence"":0}","[0,1]","../img/tt/1033tt.jpg","",""
"6062.24500000081","","","recognition","survey-text","443","1491442","0.0-6.0-3.62","2855201","co38005","norming","","","{""guess"":""dode hond met pijl""}","","../img/tt/1033tt.jpg","",""
"null","../img/gs/1033gs.jpg","null","reveal","image-keyboard-response","444","1493450","0.0-6.0-4.62","2855201","co38005","norming","","","","","","",""
"null","../img/tt/1033tt.jpg","null","mooney2","image-keyboard-response","445","1495461","0.0-6.0-5.62","2855201","co38005","norming","","","","","","",""
"2250.4849999987055","","","post_reveal_questions","survey-likert","446","1497714","0.0-6.0-6.62","2855201","co38005","norming","","","{""aha"":0}","[0]","../img/tt/1033tt.jpg","",""
"null","<div style=""font-size:60px;""> </div>","null","fixation","html-keyboard-response","447","1497915","0.0-6.0-0.63","2855201","co38005","norming","","","","","","",""
"null","../img/tt/435tt.jpg","null","mooney1","image-keyboard-response","448","1500920","0.0-6.0-1.63","2855201","co38005","norming","","","","","","",""
"5190.685000001453","","","post_mooney1_questions","survey-likert","449","1506114","0.0-6.0-2.63","2855201","co38005","norming","","","{""curiosity"":5,""confidence"":4}","[0,1]","../img/tt/435tt.jpg","",""
"2606.130000000354","","","recognition","survey-text","450","1508722","0.0-6.0-3.63","2855201","co38005","norming","","","{""guess"":""pooltafel""}","","../img/tt/435tt.jpg","",""
"null","../img/gs/435gs.jpg","null","reveal","image-keyboard-response","451","1510728","0.0-6.0-4.63","2855201","co38005","norming","","","","","","",""
"null","../img/tt/435tt.jpg","null","mooney2","image-keyboard-response","452","1512731","0.0-6.0-5.63","2855201","co38005","norming","","","","","","",""
"2635.7299999999814","","","post_reveal_questions","survey-likert","453","1515370","0.0-6.0-6.63","2855201","co38005","norming","","","{""aha"":0}","[0]","../img/tt/435tt.jpg","",""
"null","<div style=""font-size:60px;""> </div>","null","fixation","html-keyboard-response","454","1515573","0.0-6.0-0.64","2855201","co38005","norming","","","","","","",""
"null","../img/tt/1243tt.jpg","null","mooney1","image-keyboard-response","455","1518580","0.0-6.0-1.64","2855201","co38005","norming","","","","","","",""
"6234.169999999693","","","post_mooney1_questions","survey-likert","456","1524818","0.0-6.0-2.64","2855201","co38005","norming","","","{""curiosity"":5,""confidence"":3}","[0,1]","../img/tt/1243tt.jpg","",""
"1806.06499999878","","","recognition","survey-text","457","1526626","0.0-6.0-3.64","2855201","co38005","norming","","","{""guess"":""kat""}","","../img/tt/1243tt.jpg","",""
"null","../img/gs/1243gs.jpg","null","reveal","image-keyboard-response","458","1528628","0.0-6.0-4.64","2855201","co38005","norming","","","","","","",""
"null","../img/tt/1243tt.jpg","null","mooney2","image-keyboard-response","459","1530638","0.0-6.0-5.64","2855201","co38005","norming","","","","","","",""
"3673.4550000000745","","","post_reveal_questions","survey-likert","460","1534314","0.0-6.0-6.64","2855201","co38005","norming","","","{""aha"":0}","[0]","../img/tt/1243tt.jpg","",""
"null","<div style=""font-size:60px;""> </div>","null","fixation","html-keyboard-response","461","1534518","0.0-6.0-0.65","2855201","co38005","norming","","","","","","",""
"null","../img/tt/1239tt.jpg","null","mooney1","image-keyboard-response","462","1537529","0.0-6.0-1.65","2855201","co38005","norming","","","","","","",""
"5886.174999999581","","","post_mooney1_questions","survey-likert","463","1543418","0.0-6.0-2.65","2855201","co38005","norming","","","{""curiosity"":5,""confidence"":5}","[0,1]","../img/tt/1239tt.jpg","",""
"1957.9599999999627","","","recognition","survey-text","464","1545378","0.0-6.0-3.65","2855201","co38005","norming","","","{""guess"":""hond""}","","../img/tt/1239tt.jpg","",""
"null","../img/gs/1239gs.jpg","null","reveal","image-keyboard-response","465","1547380","0.0-6.0-4.65","2855201","co38005","norming","","","","","","",""
"null","../img/tt/1239tt.jpg","null","mooney2","image-keyboard-response","466","1549387","0.0-6.0-5.65","2855201","co38005","norming","","","","","","",""
"3508.6150000004563","","","post_reveal_questions","survey-likert","467","1552898","0.0-6.0-6.65","2855201","co38005","norming","","","{""aha"":0}","[0]","../img/tt/1239tt.jpg","",""
"null","<div style=""font-size:60px;""> </div>","null","fixation","html-keyboard-response","468","1553100","0.0-6.0-0.66","2855201","co38005","norming","","","","","","",""
"null","../img/tt/1142tt.jpg","null","mooney1","image-keyboard-response","469","1556106","0.0-6.0-1.66","2855201","co38005","norming","","","","","","",""
"6612.299999998882","","","post_mooney1_questions","survey-likert","470","1562722","0.0-6.0-2.66","2855201","co38005","norming","","","{""curiosity"":4,""confidence"":3}","[0,1]","../img/tt/1142tt.jpg","",""
"3294.0049999998882","","","recognition","survey-text","471","1566018","0.0-6.0-3.66","2855201","co38005","norming","","","{""guess"":""basket""}","","../img/tt/1142tt.jpg","",""
"null","../img/gs/1142gs.jpg","null","reveal","image-keyboard-response","472","1568022","0.0-6.0-4.66","2855201","co38005","norming","","","","","","",""
"null","../img/tt/1142tt.jpg","null","mooney2","image-keyboard-response","473","1570025","0.0-6.0-5.66","2855201","co38005","norming","","","","","","",""
"3589.325000000652","","","post_reveal_questions","survey-likert","474","1573618","0.0-6.0-6.66","2855201","co38005","norming","","","{""aha"":0}","[0]","../img/tt/1142tt.jpg","",""
"null","<div style=""font-size:60px;""> </div>","null","fixation","html-keyboard-response","475","1573826","0.0-6.0-0.67","2855201","co38005","norming","","","","","","",""
"null","../img/tt/1070tt.jpg","null","mooney1","image-keyboard-response","476","1576836","0.0-6.0-1.67","2855201","co38005","norming","","","","","","",""
"6227.220000000671","","","post_mooney1_questions","survey-likert","477","1583066","0.0-6.0-2.67","2855201","co38005","norming","","","{""curiosity"":4,""confidence"":4}","[0,1]","../img/tt/1070tt.jpg","",""
"2293.7700000002515","","","recognition","survey-text","478","1585362","0.0-6.0-3.67","2855201","co38005","norming","","","{""guess"":""wrap""}","","../img/tt/1070tt.jpg","",""
"null","../img/gs/1070gs.jpg","null","reveal","image-keyboard-response","479","1587373","0.0-6.0-4.67","2855201","co38005","norming","","","","","","",""
"null","../img/tt/1070tt.jpg","null","mooney2","image-keyboard-response","480","1589378","0.0-6.0-5.67","2855201","co38005","norming","","","","","","",""
"2501.2800000002608","","","post_reveal_questions","survey-likert","481","1591882","0.0-6.0-6.67","2855201","co38005","norming","","","{""aha"":0}","[0]","../img/tt/1070tt.jpg","",""
"null","<div style=""font-size:60px;""> </div>","null","fixation","html-keyboard-response","482","1592083","0.0-6.0-0.68","2855201","co38005","norming","","","","","","",""
"null","../img/tt/1278tt.jpg","null","mooney1","image-keyboard-response","483","1595095","0.0-6.0-1.68","2855201","co38005","norming","","","","","","",""
"7690.425000000512","","","post_mooney1_questions","survey-likert","484","1602786","0.0-6.0-2.68","2855201","co38005","norming","","","{""curiosity"":5,""confidence"":2}","[0,1]","../img/tt/1278tt.jpg","",""
"1710.0799999989104","","","recognition","survey-text","485","1604498","0.0-6.0-3.68","2855201","co38005","norming","","","{""guess"":""hond""}","","../img/tt/1278tt.jpg","",""
"null","../img/gs/1278gs.jpg","null","reveal","image-keyboard-response","486","1606499","0.0-6.0-4.68","2855201","co38005","norming","","","","","","",""
"null","../img/tt/1278tt.jpg","null","mooney2","image-keyboard-response","487","1608504","0.0-6.0-5.68","2855201","co38005","norming","","","","","","",""
"3911.6649999995716","","","post_reveal_questions","survey-likert","488","1612418","0.0-6.0-6.68","2855201","co38005","norming","","","{""aha"":0}","[0]","../img/tt/1278tt.jpg","",""
"null","<div style=""font-size:60px;""> </div>","null","fixation","html-keyboard-response","489","1612626","0.0-6.0-0.69","2855201","co38005","norming","","","","","","",""
"null","../img/tt/1096tt.jpg","null","mooney1","image-keyboard-response","490","1615629","0.0-6.0-1.69","2855201","co38005","norming","","","","","","",""
"5185.369999999413","","","post_mooney1_questions","survey-likert","491","1620818","0.0-6.0-2.69","2855201","co38005","norming","","","{""curiosity"":5,""confidence"":0}","[0,1]","../img/tt/1096tt.jpg","",""
"2718.4749999996275","","","recognition","survey-text","492","1623538","0.0-6.0-3.69","2855201","co38005","norming","","","{""guess"":""piano""}","","../img/tt/1096tt.jpg","",""
"null","../img/gs/1096gs.jpg","null","reveal","image-keyboard-response","493","1625541","0.0-6.0-4.69","2855201","co38005","norming","","","","","","",""
"null","../img/tt/1096tt.jpg","null","mooney2","image-keyboard-response","494","1627552","0.0-6.0-5.69","2855201","co38005","norming","","","","","","",""
"2983.30999999959","","","post_reveal_questions","survey-likert","495","1630538","0.0-6.0-6.69","2855201","co38005","norming","","","{""aha"":0}","[0]","../img/tt/1096tt.jpg","",""
"null","<div style=""font-size:60px;""> </div>","null","fixation","html-keyboard-response","496","1630745","0.0-6.0-0.70","2855201","co38005","norming","","","","","","",""
"null","../img/tt/412tt.jpg","null","mooney1","image-keyboard-response","497","1633751","0.0-6.0-1.70","2855201","co38005","norming","","","","","","",""
"8431.63000000082","","","post_mooney1_questions","survey-likert","498","1642179","0.0-6.0-2.70","2855201","co38005","norming","","","{""curiosity"":3,""confidence"":2}","[0,1]","../img/tt/412tt.jpg","",""
"2486.0250000001397","","","recognition","survey-text","499","1644667","0.0-6.0-3.70","2855201","co38005","norming","","","{""guess"":""piano""}","","../img/tt/412tt.jpg","",""
"null","../img/gs/412gs.jpg","null","reveal","image-keyboard-response","500","1646671","0.0-6.0-4.70","2855201","co38005","norming","","","","","","",""
"null","../img/tt/412tt.jpg","null","mooney2","image-keyboard-response","501","1648680","0.0-6.0-5.70","2855201","co38005","norming","","","","","","",""
"3880.619999999879","","","post_reveal_questions","survey-likert","502","1652563","0.0-6.0-6.70","2855201","co38005","norming","","","{""aha"":0}","[0]","../img/tt/412tt.jpg","",""
"null","<div style=""font-size:60px;""> </div>","null","fixation","html-keyboard-response","503","1652773","0.0-6.0-0.71","2855201","co38005","norming","","","","","","",""
"null","../img/tt/1272tt.jpg","null","mooney1","image-keyboard-response","504","1655779","0.0-6.0-1.71","2855201","co38005","norming","","","","","","",""
"4732.029999999097","","","post_mooney1_questions","survey-likert","505","1660515","0.0-6.0-2.71","2855201","co38005","norming","","","{""curiosity"":5,""confidence"":2}","[0,1]","../img/tt/1272tt.jpg","",""
"7765.885000000708","","","recognition","survey-text","506","1668283","0.0-6.0-3.71","2855201","co38005","norming","","","{""guess"":""dier in een kooi""}","","../img/tt/1272tt.jpg","",""
"null","../img/gs/1272gs.jpg","null","reveal","image-keyboard-response","507","1670284","0.0-6.0-4.71","2855201","co38005","norming","","","","","","",""
"null","../img/tt/1272tt.jpg","null","mooney2","image-keyboard-response","508","1672287","0.0-6.0-5.71","2855201","co38005","norming","","","","","","",""
"2521.210000000894","","","post_reveal_questions","survey-likert","509","1674811","0.0-6.0-6.71","2855201","co38005","norming","","","{""aha"":0}","[0]","../img/tt/1272tt.jpg","",""
"null","<div style=""font-size:60px;""> </div>","null","fixation","html-keyboard-response","510","1675018","0.0-6.0-0.72","2855201","co38005","norming","","","","","","",""
"null","../img/tt/522tt.jpg","null","mooney1","image-keyboard-response","511","1678022","0.0-6.0-1.72","2855201","co38005","norming","","","","","","",""
"5288.864999998594","","","post_mooney1_questions","survey-likert","512","1683315","0.0-6.0-2.72","2855201","co38005","norming","","","{""curiosity"":2,""confidence"":6}","[0,1]","../img/tt/522tt.jpg","",""
"2806.024999999907","","","recognition","survey-text","513","1686123","0.0-6.0-3.72","2855201","co38005","norming","","","{""guess"":""kat""}","","../img/tt/522tt.jpg","",""
"null","../img/gs/522gs.jpg","null","reveal","image-keyboard-response","514","1688124","0.0-6.0-4.72","2855201","co38005","norming","","","","","","",""
"null","../img/tt/522tt.jpg","null","mooney2","image-keyboard-response","515","1690128","0.0-6.0-5.72","2855201","co38005","norming","","","","","","",""
"2728.170000000391","","","post_reveal_questions","survey-likert","516","1692859","0.0-6.0-6.72","2855201","co38005","norming","","","{""aha"":0}","[0]","../img/tt/522tt.jpg","",""
"null","<div style=""font-size:60px;""> </div>","null","fixation","html-keyboard-response","517","1693061","0.0-6.0-0.73","2855201","co38005","norming","","","","","","",""
"null","../img/tt/032tt.jpg","null","mooney1","image-keyboard-response","518","1696064","0.0-6.0-1.73","2855201","co38005","norming","","","","","","",""
"5727.530000000028","","","post_mooney1_questions","survey-likert","519","1701796","0.0-6.0-2.73","2855201","co38005","norming","","","{""curiosity"":4,""confidence"":3}","[0,1]","../img/tt/032tt.jpg","",""
"4342.140000000596","","","recognition","survey-text","520","1706140","0.0-6.0-3.73","2855201","co38005","norming","","","{""guess"":""slang en vogel""}","","../img/tt/032tt.jpg","",""
"null","../img/gs/032gs.jpg","null","reveal","image-keyboard-response","521","1708150","0.0-6.0-4.73","2855201","co38005","norming","","","","","","",""
"null","../img/tt/032tt.jpg","null","mooney2","image-keyboard-response","522","1710159","0.0-6.0-5.73","2855201","co38005","norming","","","","","","",""
"3034.0499999984168","","","post_reveal_questions","survey-likert","523","1713196","0.0-6.0-6.73","2855201","co38005","norming","","","{""aha"":0}","[0]","../img/tt/032tt.jpg","",""
"null","<div style=""font-size:60px;""> </div>","null","fixation","html-keyboard-response","524","1713397","0.0-6.0-0.74","2855201","co38005","norming","","","","","","",""
"null","../img/tt/1228tt.jpg","null","mooney1","image-keyboard-response","525","1716400","0.0-6.0-1.74","2855201","co38005","norming","","","","","","",""
"5160.734999999404","","","post_mooney1_questions","survey-likert","526","1721564","0.0-6.0-2.74","2855201","co38005","norming","","","{""curiosity"":3,""confidence"":2}","[0,1]","../img/tt/1228tt.jpg","",""
"2174.2400000002235","","","recognition","survey-text","527","1723740","0.0-6.0-3.74","2855201","co38005","norming","","","{""guess"":""vogel""}","","../img/tt/1228tt.jpg","",""
"null","../img/gs/1228gs.jpg","null","reveal","image-keyboard-response","528","1725742","0.0-6.0-4.74","2855201","co38005","norming","","","","","","",""
"null","../img/tt/1228tt.jpg","null","mooney2","image-keyboard-response","529","1727751","0.0-6.0-5.74","2855201","co38005","norming","","","","","","",""
"3561.895000000717","","","post_reveal_questions","survey-likert","530","1731316","0.0-6.0-6.74","2855201","co38005","norming","","","{""aha"":5}","[0]","../img/tt/1228tt.jpg","",""
"null","<div style=""font-size:60px;""> </div>","null","fixation","html-keyboard-response","531","1731519","0.0-6.0-0.75","2855201","co38005","norming","","","","","","",""
"null","../img/tt/1156tt.jpg","null","mooney1","image-keyboard-response","532","1734524","0.0-6.0-1.75","2855201","co38005","norming","","","","","","",""
"5140.149999999208","","","post_mooney1_questions","survey-likert","533","1739668","0.0-6.0-2.75","2855201","co38005","norming","","","{""curiosity"":4,""confidence"":2}","[0,1]","../img/tt/1156tt.jpg","",""
"5774.180000000168","","","recognition","survey-text","534","1745444","0.0-6.0-3.75","2855201","co38005","norming","","","{""guess"":""slapende mensen""}","","../img/tt/1156tt.jpg","",""
"null","../img/gs/1156gs.jpg","null","reveal","image-keyboard-response","535","1747451","0.0-6.0-4.75","2855201","co38005","norming","","","","","","",""
"null","../img/tt/1156tt.jpg","null","mooney2","image-keyboard-response","536","1749456","0.0-6.0-5.75","2855201","co38005","norming","","","","","","",""
"3161.6200000008103","","","post_reveal_questions","survey-likert","537","1752620","0.0-6.0-6.75","2855201","co38005","norming","","","{""aha"":3}","[0]","../img/tt/1156tt.jpg","",""
"null","<div style=""font-size:60px;""> </div>","null","fixation","html-keyboard-response","538","1752822","0.0-6.0-0.76","2855201","co38005","norming","","","","","","",""
"null","../img/tt/140tt.jpg","null","mooney1","image-keyboard-response","539","1755829","0.0-6.0-1.76","2855201","co38005","norming","","","","","","",""
"4259.610000000801","","","post_mooney1_questions","survey-likert","540","1760096","0.0-6.0-2.76","2855201","co38005","norming","","","{""curiosity"":0,""confidence"":6}","[0,1]","../img/tt/140tt.jpg","",""
"2302.0550000001676","","","recognition","survey-text","541","1762400","0.0-6.0-3.76","2855201","co38005","norming","","","{""guess"":""vorken""}","","../img/tt/140tt.jpg","",""
"null","../img/gs/140gs.jpg","null","reveal","image-keyboard-response","542","1764404","0.0-6.0-4.76","2855201","co38005","norming","","","","","","",""
"null","../img/tt/140tt.jpg","null","mooney2","image-keyboard-response","543","1766410","0.0-6.0-5.76","2855201","co38005","norming","","","","","","",""
"2458.6049999997485","","","post_reveal_questions","survey-likert","544","1768872","0.0-6.0-6.76","2855201","co38005","norming","","","{""aha"":0}","[0]","../img/tt/140tt.jpg","",""
"null","<div style=""font-size:60px;""> </div>","null","fixation","html-keyboard-response","545","1769073","0.0-6.0-0.77","2855201","co38005","norming","","","","","","",""
"null","../img/tt/1234tt.jpg","null","mooney1","image-keyboard-response","546","1772078","0.0-6.0-1.77","2855201","co38005","norming","","","","","","",""
"7926.434999999357","","","post_mooney1_questions","survey-likert","547","1780008","0.0-6.0-2.77","2855201","co38005","norming","","","{""curiosity"":3,""confidence"":4}","[0,1]","../img/tt/1234tt.jpg","",""
"2854.2400000004563","","","recognition","survey-text","548","1782864","0.0-6.0-3.77","2855201","co38005","norming","","","{""guess"":""roeiboot""}","","../img/tt/1234tt.jpg","",""
"null","../img/gs/1234gs.jpg","null","reveal","image-keyboard-response","549","1784870","0.0-6.0-4.77","2855201","co38005","norming","","","","","","",""
"null","../img/tt/1234tt.jpg","null","mooney2","image-keyboard-response","550","1786881","0.0-6.0-5.77","2855201","co38005","norming","","","","","","",""
"2308.0750000008848","","","post_reveal_questions","survey-likert","551","1789192","0.0-6.0-6.77","2855201","co38005","norming","","","{""aha"":0}","[0]","../img/tt/1234tt.jpg","",""
