"rt","stimulus","key_press","test_part","trial_type","trial_index","time_elapsed","internal_node_id","totalTime","subject","experiment_name","button_pressed","success","responses","question_order","currentStim","old","correct"
"15123.225000000006","Welcome to the experiment. This is an online experiment so please don't close the tab/window until we say goodbye.  Press any key to begin.","13","instructions","html-keyboard-response","0","15136","0.0-0.0","2723468","co38353","norming","","","","","","",""
"22262.069999999992","<div style='word-wrap: break-word; width: 900px'><h3>Please consider this information carefully before deciding whether to participate in this research</h3><ul style='text-align: left; font-size: .8em;'><li><b>Purpose of the research</b>: To examine how people process images.</li><li><b>What you will do in this research</b>:  Stimuli (images) will be presented on the computer and you will be asked different questions about them.</li><li><b>Time required</b>: Participation will take between 45 and 60 minutes to complete.</li><li><b>Risks</b>:  There are no anticipated risks associated with participating in this study. The effects of participating should be comparable to those you would experience from viewing a computer monitor for 30 minutes and using a mouse or keyboard.</li><li><b>Benefits</b>:  This study provides no benefits to you individually except for the credit. The study provides important information about the nature of perception and learning.</li><li><b>Confidentiality</b>:  Your participation in this study will remain confidential. No personally identifiable information will be associated with your data. Your de-identified data may be shared with other researchers and used in future projects.</li><li><b>Participation and withdrawal</b>:  Your participation in this study is completely voluntary and you may refuse to participate or you may choose to withdraw at any time without penalty.</li><li><b>How to contact the researchers</b>: If you have questions or concerns about your participation or payment, or want to request a summary of research findings, please contact Sander Van de Cruys (KU Leuven), at sander.vandecruys@kuleuven.be.</li></ul><p>The nature and purpose of this research have been sufficiently explained and I agree to participate in this study.  I understand that I am free to withdraw at any time without incurring any penalty.</p><p>Please consent by clicking the button below to continue. Otherwise, please exit the study at this time.</p></div>","","instructions","html-button-response","1","37400","0.0-1.0","2723468","co38353","norming","0","","","","","",""
"","","","instructions","fullscreen","2","44185","0.0-2.0","2723468","co38353","norming","","true","","","","",""
"33901.30999999999","","","sona","survey-html-form","3","78092","0.0-3.0","2723468","co38353","norming","","","[{""name"":""sonaid"",""value"":""38353""},{""name"":""debrief"",""value"":""no""},{""name"":""datajoin"",""value"":""yes""}]","","","",""
"89522.18000000002","<div style='word-wrap: break-word; width: 900px'><h3>Instructions</h3><p>This experiment will have 3 parts. In the first part you will see a series of distorted images like the one below on the left. As you can see in the righthand image, the distorted images are derived from actual photographs. In what follows, you will <strong>briefly</strong> be presented with <strong>only</strong> the distorted image.</p> <div style='float: left; margin-right: 20px;'><img src='../img/018tt.jpg' height='250' width='250'></img></div><div style='float: right; margin-left: 20px;'><img src='../img/018gs.jpg' height='250' width='250'></img></div><p>Subsequently you will be asked a few questions about the image: One question on how <strong>curious</strong> you are about the solution and one on how <strong>confident</strong> you are that you know the solution.</p>Next, we ask you to make a guess on what is in the image. Note that it is OK to name just the <strong>basic level category</strong>. For example when you see a parrot in the image, 'parrot' will obviously be a correct answer but also correct is 'bird'. However, 'animal' will <strong>not</strong> be counted as a correct response. For the example above, 'rose' would be correct or 'flower', but not 'plant'. When soccer players are depicted, 'soccer', 'football', 'soccer players' will be correct, but not 'humans', 'outdoors', or 'sports'. You do not need to describe the image in full, just name the main object in it <strong>in one or two words</strong>. All images depict objects from one of the following broad level categories: animals, inanimate objects, plants, sports, vehicles, and food. Recognizing means knowing <strong>more</strong> than these broad labels for a given image. But we always encourage you to <strong>make a guess</strong> if you can. Note that you are allowed to use <strong>Dutch and English</strong> in your answers, whatever comes easiest for you.</p><p>Press any key to continue.</p></div>","13","instructions","html-keyboard-response","4","167616","0.0-4.0","2723468","co38353","norming","","","","","","",""
"164321.19000000006","<div style='word-wrap: break-word; width: 900px'><h3>Instructions</h3> <p>Next, the solution image will be revealed to you and you'll be asked to indicate how strong your <strong>aha-experience</strong> was after seeing the solution. This describes the positive feeling of the 'click' you sometimes experience, when the pieces of the 'puzzle' fall together and you suddenly have 'insight' in the image.</p><img src='aha.jpg' height='188' width='250'></img><p>Note that there are no right or wrong answers. We are interested in what <strong>you</strong> see in the image and how <strong>you</strong> feel about it.</p><p>Press any key to start the experiment.</p></div>","32","instructions","html-keyboard-response","5","331796","0.0-5.0","2723468","co38353","norming","","","","","","",""
"null","<div style=""font-size:60px;""> </div>","null","fixation","html-keyboard-response","6","331998","0.0-6.0-0.0","2723468","co38353","norming","","","","","","",""
"null","../img/tt/1080tt.jpg","null","mooney1","image-keyboard-response","7","335001","0.0-6.0-1.0","2723468","co38353","norming","","","","","","",""
"7062.099999999977","","","post_mooney1_questions","survey-likert","8","342067","0.0-6.0-2.0","2723468","co38353","norming","","","{""curiosity"":4,""confidence"":0}","[0,1]","../img/tt/1080tt.jpg","",""
"4485.5650000000605","","","recognition","survey-text","9","346554","0.0-6.0-3.0","2723468","co38353","norming","","","{""guess"":""""}","","../img/tt/1080tt.jpg","",""
"null","../img/gs/1080gs.jpg","null","reveal","image-keyboard-response","10","348556","0.0-6.0-4.0","2723468","co38353","norming","","","","","","",""
"null","../img/tt/1080tt.jpg","null","mooney2","image-keyboard-response","11","350559","0.0-6.0-5.0","2723468","co38353","norming","","","","","","",""
"6168.694999999949","","","post_reveal_questions","survey-likert","12","356730","0.0-6.0-6.0","2723468","co38353","norming","","","{""aha"":0}","[0]","../img/tt/1080tt.jpg","",""
"null","<div style=""font-size:60px;""> </div>","null","fixation","html-keyboard-response","13","356932","0.0-6.0-0.1","2723468","co38353","norming","","","","","","",""
"null","../img/tt/497tt.jpg","null","mooney1","image-keyboard-response","14","359934","0.0-6.0-1.1","2723468","co38353","norming","","","","","","",""
"9899.70000000007","","","post_mooney1_questions","survey-likert","15","369834","0.0-6.0-2.1","2723468","co38353","norming","","","{""curiosity"":3,""confidence"":0}","[0,1]","../img/tt/497tt.jpg","",""
"2157.9550000000163","","","recognition","survey-text","16","371994","0.0-6.0-3.1","2723468","co38353","norming","","","{""guess"":""""}","","../img/tt/497tt.jpg","",""
"null","../img/gs/497gs.jpg","null","reveal","image-keyboard-response","17","373996","0.0-6.0-4.1","2723468","co38353","norming","","","","","","",""
"null","../img/tt/497tt.jpg","null","mooney2","image-keyboard-response","18","375998","0.0-6.0-5.1","2723468","co38353","norming","","","","","","",""
"2259.5","","","post_reveal_questions","survey-likert","19","378258","0.0-6.0-6.1","2723468","co38353","norming","","","{""aha"":0}","[0]","../img/tt/497tt.jpg","",""
"null","<div style=""font-size:60px;""> </div>","null","fixation","html-keyboard-response","20","378460","0.0-6.0-0.2","2723468","co38353","norming","","","","","","",""
"null","../img/tt/1211tt.jpg","null","mooney1","image-keyboard-response","21","381463","0.0-6.0-1.2","2723468","co38353","norming","","","","","","",""
"9639.610000000102","","","post_mooney1_questions","survey-likert","22","391106","0.0-6.0-2.2","2723468","co38353","norming","","","{""curiosity"":2,""confidence"":1}","[0,1]","../img/tt/1211tt.jpg","",""
"2966.125000000058","","","recognition","survey-text","23","393997","0.0-6.0-3.2","2723468","co38353","norming","","","{""guess"":""pool""}","","../img/tt/1211tt.jpg","",""
"null","../img/gs/1211gs.jpg","null","reveal","image-keyboard-response","24","395999","0.0-6.0-4.2","2723468","co38353","norming","","","","","","",""
"null","../img/tt/1211tt.jpg","null","mooney2","image-keyboard-response","25","398001","0.0-6.0-5.2","2723468","co38353","norming","","","","","","",""
"1841.2150000000256","","","post_reveal_questions","survey-likert","26","399845","0.0-6.0-6.2","2723468","co38353","norming","","","{""aha"":0}","[0]","../img/tt/1211tt.jpg","",""
"null","<div style=""font-size:60px;""> </div>","null","fixation","html-keyboard-response","27","400046","0.0-6.0-0.3","2723468","co38353","norming","","","","","","",""
"null","../img/tt/584tt.jpg","null","mooney1","image-keyboard-response","28","403050","0.0-6.0-1.3","2723468","co38353","norming","","","","","","",""
"5193.025000000023","","","post_mooney1_questions","survey-likert","29","408245","0.0-6.0-2.3","2723468","co38353","norming","","","{""curiosity"":3,""confidence"":2}","[0,1]","../img/tt/584tt.jpg","",""
"910.2000000000698","","","recognition","survey-text","30","409157","0.0-6.0-3.3","2723468","co38353","norming","","","{""guess"":""""}","","../img/tt/584tt.jpg","",""
"null","../img/gs/584gs.jpg","null","reveal","image-keyboard-response","31","411160","0.0-6.0-4.3","2723468","co38353","norming","","","","","","",""
"null","../img/tt/584tt.jpg","null","mooney2","image-keyboard-response","32","413161","0.0-6.0-5.3","2723468","co38353","norming","","","","","","",""
"3393.509999999951","","","post_reveal_questions","survey-likert","33","416557","0.0-6.0-6.3","2723468","co38353","norming","","","{""aha"":2}","[0]","../img/tt/584tt.jpg","",""
"null","<div style=""font-size:60px;""> </div>","null","fixation","html-keyboard-response","34","416758","0.0-6.0-0.4","2723468","co38353","norming","","","","","","",""
"null","../img/tt/603tt.jpg","null","mooney1","image-keyboard-response","35","419761","0.0-6.0-1.4","2723468","co38353","norming","","","","","","",""
"7617.25","","","post_mooney1_questions","survey-likert","36","427381","0.0-6.0-2.4","2723468","co38353","norming","","","{""curiosity"":2,""confidence"":5}","[0,1]","../img/tt/603tt.jpg","",""
"2406.0349999999744","","","recognition","survey-text","37","429789","0.0-6.0-3.4","2723468","co38353","norming","","","{""guess"":""cat""}","","../img/tt/603tt.jpg","",""
"null","../img/gs/603gs.jpg","null","reveal","image-keyboard-response","38","431790","0.0-6.0-4.4","2723468","co38353","norming","","","","","","",""
"null","../img/tt/603tt.jpg","null","mooney2","image-keyboard-response","39","433796","0.0-6.0-5.4","2723468","co38353","norming","","","","","","",""
"2247.060000000056","","","post_reveal_questions","survey-likert","40","436045","0.0-6.0-6.4","2723468","co38353","norming","","","{""aha"":6}","[0]","../img/tt/603tt.jpg","",""
"null","<div style=""font-size:60px;""> </div>","null","fixation","html-keyboard-response","41","436247","0.0-6.0-0.5","2723468","co38353","norming","","","","","","",""
"null","../img/tt/1224tt.jpg","null","mooney1","image-keyboard-response","42","439251","0.0-6.0-1.5","2723468","co38353","norming","","","","","","",""
"4575.360000000102","","","post_mooney1_questions","survey-likert","43","443829","0.0-6.0-2.5","2723468","co38353","norming","","","{""curiosity"":2,""confidence"":3}","[0,1]","../img/tt/1224tt.jpg","",""
"3150.579999999958","","","recognition","survey-text","44","446981","0.0-6.0-3.5","2723468","co38353","norming","","","{""guess"":""boxen""}","","../img/tt/1224tt.jpg","",""
"null","../img/gs/1224gs.jpg","null","reveal","image-keyboard-response","45","448983","0.0-6.0-4.5","2723468","co38353","norming","","","","","","",""
"null","../img/tt/1224tt.jpg","null","mooney2","image-keyboard-response","46","450985","0.0-6.0-5.5","2723468","co38353","norming","","","","","","",""
"2329.9899999999325","","","post_reveal_questions","survey-likert","47","453240","0.0-6.0-6.5","2723468","co38353","norming","","","{""aha"":1}","[0]","../img/tt/1224tt.jpg","",""
"null","<div style=""font-size:60px;""> </div>","null","fixation","html-keyboard-response","48","453442","0.0-6.0-0.6","2723468","co38353","norming","","","","","","",""
"null","../img/tt/1151tt.jpg","null","mooney1","image-keyboard-response","49","456445","0.0-6.0-1.6","2723468","co38353","norming","","","","","","",""
"5184.804999999993","","","post_mooney1_questions","survey-likert","50","461633","0.0-6.0-2.6","2723468","co38353","norming","","","{""curiosity"":5,""confidence"":0}","[0,1]","../img/tt/1151tt.jpg","",""
"638.0299999999697","","","recognition","survey-text","51","462272","0.0-6.0-3.6","2723468","co38353","norming","","","{""guess"":""""}","","../img/tt/1151tt.jpg","",""
"null","../img/gs/1151gs.jpg","null","reveal","image-keyboard-response","52","464275","0.0-6.0-4.6","2723468","co38353","norming","","","","","","",""
"null","../img/tt/1151tt.jpg","null","mooney2","image-keyboard-response","53","466278","0.0-6.0-5.6","2723468","co38353","norming","","","","","","",""
"3296.774999999907","","","post_reveal_questions","survey-likert","54","469577","0.0-6.0-6.6","2723468","co38353","norming","","","{""aha"":1}","[0]","../img/tt/1151tt.jpg","",""
"null","<div style=""font-size:60px;""> </div>","null","fixation","html-keyboard-response","55","469779","0.0-6.0-0.7","2723468","co38353","norming","","","","","","",""
"null","../img/tt/080tt.jpg","null","mooney1","image-keyboard-response","56","472780","0.0-6.0-1.7","2723468","co38353","norming","","","","","","",""
"5385.98000000004","","","post_mooney1_questions","survey-likert","57","478169","0.0-6.0-2.7","2723468","co38353","norming","","","{""curiosity"":4,""confidence"":1}","[0,1]","../img/tt/080tt.jpg","",""
"990.0900000000256","","","recognition","survey-text","58","479160","0.0-6.0-3.7","2723468","co38353","norming","","","{""guess"":""""}","","../img/tt/080tt.jpg","",""
"null","../img/gs/080gs.jpg","null","reveal","image-keyboard-response","59","481162","0.0-6.0-4.7","2723468","co38353","norming","","","","","","",""
"null","../img/tt/080tt.jpg","null","mooney2","image-keyboard-response","60","483164","0.0-6.0-5.7","2723468","co38353","norming","","","","","","",""
"2298.704999999958","","","post_reveal_questions","survey-likert","61","485465","0.0-6.0-6.7","2723468","co38353","norming","","","{""aha"":2}","[0]","../img/tt/080tt.jpg","",""
"null","<div style=""font-size:60px;""> </div>","null","fixation","html-keyboard-response","62","485666","0.0-6.0-0.8","2723468","co38353","norming","","","","","","",""
"null","../img/tt/1130tt.jpg","null","mooney1","image-keyboard-response","63","488668","0.0-6.0-1.8","2723468","co38353","norming","","","","","","",""
"3347.655000000028","","","post_mooney1_questions","survey-likert","64","492017","0.0-6.0-2.8","2723468","co38353","norming","","","{""curiosity"":3,""confidence"":3}","[0,1]","../img/tt/1130tt.jpg","",""
"4094.2099999999627","","","recognition","survey-text","65","496112","0.0-6.0-3.8","2723468","co38353","norming","","","{""guess"":""athletiek""}","","../img/tt/1130tt.jpg","",""
"null","../img/gs/1130gs.jpg","null","reveal","image-keyboard-response","66","498114","0.0-6.0-4.8","2723468","co38353","norming","","","","","","",""
"null","../img/tt/1130tt.jpg","null","mooney2","image-keyboard-response","67","500116","0.0-6.0-5.8","2723468","co38353","norming","","","","","","",""
"2017.7949999999837","","","post_reveal_questions","survey-likert","68","502137","0.0-6.0-6.8","2723468","co38353","norming","","","{""aha"":1}","[0]","../img/tt/1130tt.jpg","",""
"null","<div style=""font-size:60px;""> </div>","null","fixation","html-keyboard-response","69","502340","0.0-6.0-0.9","2723468","co38353","norming","","","","","","",""
"null","../img/tt/1159tt.jpg","null","mooney1","image-keyboard-response","70","505343","0.0-6.0-1.9","2723468","co38353","norming","","","","","","",""
"5223.365000000049","","","post_mooney1_questions","survey-likert","71","510569","0.0-6.0-2.9","2723468","co38353","norming","","","{""curiosity"":5,""confidence"":1}","[0,1]","../img/tt/1159tt.jpg","",""
"2990.0800000000163","","","recognition","survey-text","72","513484","0.0-6.0-3.9","2723468","co38353","norming","","","{""guess"":""zeiler""}","","../img/tt/1159tt.jpg","",""
"null","../img/gs/1159gs.jpg","null","reveal","image-keyboard-response","73","515486","0.0-6.0-4.9","2723468","co38353","norming","","","","","","",""
"null","../img/tt/1159tt.jpg","null","mooney2","image-keyboard-response","74","517488","0.0-6.0-5.9","2723468","co38353","norming","","","","","","",""
"2038.825000000128","","","post_reveal_questions","survey-likert","75","519532","0.0-6.0-6.9","2723468","co38353","norming","","","{""aha"":1}","[0]","../img/tt/1159tt.jpg","",""
"null","<div style=""font-size:60px;""> </div>","null","fixation","html-keyboard-response","76","519734","0.0-6.0-0.10","2723468","co38353","norming","","","","","","",""
"null","../img/tt/084tt.jpg","null","mooney1","image-keyboard-response","77","522735","0.0-6.0-1.10","2723468","co38353","norming","","","","","","",""
"3178.899999999965","","","post_mooney1_questions","survey-likert","78","525917","0.0-6.0-2.10","2723468","co38353","norming","","","{""curiosity"":1,""confidence"":1}","[0,1]","../img/tt/084tt.jpg","",""
"2430.25","","","recognition","survey-text","79","528348","0.0-6.0-3.10","2723468","co38353","norming","","","{""guess"":""kip""}","","../img/tt/084tt.jpg","",""
"null","../img/gs/084gs.jpg","null","reveal","image-keyboard-response","80","530350","0.0-6.0-4.10","2723468","co38353","norming","","","","","","",""
"null","../img/tt/084tt.jpg","null","mooney2","image-keyboard-response","81","532351","0.0-6.0-5.10","2723468","co38353","norming","","","","","","",""
"1875.8699999999953","","","post_reveal_questions","survey-likert","82","534228","0.0-6.0-6.10","2723468","co38353","norming","","","{""aha"":1}","[0]","../img/tt/084tt.jpg","",""
"null","<div style=""font-size:60px;""> </div>","null","fixation","html-keyboard-response","83","534429","0.0-6.0-0.11","2723468","co38353","norming","","","","","","",""
"null","../img/tt/1126tt.jpg","null","mooney1","image-keyboard-response","84","537432","0.0-6.0-1.11","2723468","co38353","norming","","","","","","",""
"4227.484999999986","","","post_mooney1_questions","survey-likert","85","541660","0.0-6.0-2.11","2723468","co38353","norming","","","{""curiosity"":4,""confidence"":0}","[0,1]","../img/tt/1126tt.jpg","",""
"606.2550000001211","","","recognition","survey-text","86","542268","0.0-6.0-3.11","2723468","co38353","norming","","","{""guess"":""""}","","../img/tt/1126tt.jpg","",""
"null","../img/gs/1126gs.jpg","null","reveal","image-keyboard-response","87","544270","0.0-6.0-4.11","2723468","co38353","norming","","","","","","",""
"null","../img/tt/1126tt.jpg","null","mooney2","image-keyboard-response","88","546272","0.0-6.0-5.11","2723468","co38353","norming","","","","","","",""
"2186.295000000042","","","post_reveal_questions","survey-likert","89","548460","0.0-6.0-6.11","2723468","co38353","norming","","","{""aha"":1}","[0]","../img/tt/1126tt.jpg","",""
"null","<div style=""font-size:60px;""> </div>","null","fixation","html-keyboard-response","90","548661","0.0-6.0-0.12","2723468","co38353","norming","","","","","","",""
"null","../img/tt/1353tt.jpg","null","mooney1","image-keyboard-response","91","551673","0.0-6.0-1.12","2723468","co38353","norming","","","","","","",""
"5322.9349999999395","","","post_mooney1_questions","survey-likert","92","556996","0.0-6.0-2.12","2723468","co38353","norming","","","{""curiosity"":4,""confidence"":0}","[0,1]","../img/tt/1353tt.jpg","",""
"661.9949999999953","","","recognition","survey-text","93","557660","0.0-6.0-3.12","2723468","co38353","norming","","","{""guess"":""""}","","../img/tt/1353tt.jpg","",""
"null","../img/gs/1353gs.jpg","null","reveal","image-keyboard-response","94","559661","0.0-6.0-4.12","2723468","co38353","norming","","","","","","",""
"null","../img/tt/1353tt.jpg","null","mooney2","image-keyboard-response","95","561662","0.0-6.0-5.12","2723468","co38353","norming","","","","","","",""
"3469.280000000028","","","post_reveal_questions","survey-likert","96","565132","0.0-6.0-6.12","2723468","co38353","norming","","","{""aha"":2}","[0]","../img/tt/1353tt.jpg","",""
"null","<div style=""font-size:60px;""> </div>","null","fixation","html-keyboard-response","97","565334","0.0-6.0-0.13","2723468","co38353","norming","","","","","","",""
"null","../img/tt/163tt.jpg","null","mooney1","image-keyboard-response","98","568337","0.0-6.0-1.13","2723468","co38353","norming","","","","","","",""
"4321.165000000037","","","post_mooney1_questions","survey-likert","99","572651","0.0-6.0-2.13","2723468","co38353","norming","","","{""curiosity"":6,""confidence"":0}","[0,1]","../img/tt/163tt.jpg","",""
"654.2350000001024","","","recognition","survey-text","100","573307","0.0-6.0-3.13","2723468","co38353","norming","","","{""guess"":""""}","","../img/tt/163tt.jpg","",""
"null","../img/gs/163gs.jpg","null","reveal","image-keyboard-response","101","575308","0.0-6.0-4.13","2723468","co38353","norming","","","","","","",""
"null","../img/tt/163tt.jpg","null","mooney2","image-keyboard-response","102","577311","0.0-6.0-5.13","2723468","co38353","norming","","","","","","",""
"1897.6450000000186","","","post_reveal_questions","survey-likert","103","579211","0.0-6.0-6.13","2723468","co38353","norming","","","{""aha"":1}","[0]","../img/tt/163tt.jpg","",""
"null","<div style=""font-size:60px;""> </div>","null","fixation","html-keyboard-response","104","579412","0.0-6.0-0.14","2723468","co38353","norming","","","","","","",""
"null","../img/tt/416tt.jpg","null","mooney1","image-keyboard-response","105","582415","0.0-6.0-1.14","2723468","co38353","norming","","","","","","",""
"5633.844999999972","","","post_mooney1_questions","survey-likert","106","588051","0.0-6.0-2.14","2723468","co38353","norming","","","{""curiosity"":3,""confidence"":1}","[0,1]","../img/tt/416tt.jpg","",""
"3341.9599999999627","","","recognition","survey-text","107","591395","0.0-6.0-3.14","2723468","co38353","norming","","","{""guess"":""bomen""}","","../img/tt/416tt.jpg","",""
"null","../img/gs/416gs.jpg","null","reveal","image-keyboard-response","108","593397","0.0-6.0-4.14","2723468","co38353","norming","","","","","","",""
"null","../img/tt/416tt.jpg","null","mooney2","image-keyboard-response","109","595398","0.0-6.0-5.14","2723468","co38353","norming","","","","","","",""
"3050.640000000014","","","post_reveal_questions","survey-likert","110","598451","0.0-6.0-6.14","2723468","co38353","norming","","","{""aha"":6}","[0]","../img/tt/416tt.jpg","",""
"null","<div style=""font-size:60px;""> </div>","null","fixation","html-keyboard-response","111","598653","0.0-6.0-0.15","2723468","co38353","norming","","","","","","",""
"null","../img/tt/1270tt.jpg","null","mooney1","image-keyboard-response","112","601656","0.0-6.0-1.15","2723468","co38353","norming","","","","","","",""
"3882.180000000051","","","post_mooney1_questions","survey-likert","113","605539","0.0-6.0-2.15","2723468","co38353","norming","","","{""curiosity"":1,""confidence"":0}","[0,1]","../img/tt/1270tt.jpg","",""
"2981.9599999999627","","","recognition","survey-text","114","608523","0.0-6.0-3.15","2723468","co38353","norming","","","{""guess"":""kikker""}","","../img/tt/1270tt.jpg","",""
"null","../img/gs/1270gs.jpg","null","reveal","image-keyboard-response","115","610525","0.0-6.0-4.15","2723468","co38353","norming","","","","","","",""
"null","../img/tt/1270tt.jpg","null","mooney2","image-keyboard-response","116","612527","0.0-6.0-5.15","2723468","co38353","norming","","","","","","",""
"2761.814999999944","","","post_reveal_questions","survey-likert","117","615291","0.0-6.0-6.15","2723468","co38353","norming","","","{""aha"":0}","[0]","../img/tt/1270tt.jpg","",""
"null","<div style=""font-size:60px;""> </div>","null","fixation","html-keyboard-response","118","615493","0.0-6.0-0.16","2723468","co38353","norming","","","","","","",""
"null","../img/tt/436tt.jpg","null","mooney1","image-keyboard-response","119","618495","0.0-6.0-1.16","2723468","co38353","norming","","","","","","",""
"5145.449999999953","","","post_mooney1_questions","survey-likert","120","623643","0.0-6.0-2.16","2723468","co38353","norming","","","{""curiosity"":2,""confidence"":0}","[0,1]","../img/tt/436tt.jpg","",""
"4133.964999999967","","","recognition","survey-text","121","627779","0.0-6.0-3.16","2723468","co38353","norming","","","{""guess"":""krokodil""}","","../img/tt/436tt.jpg","",""
"null","../img/gs/436gs.jpg","null","reveal","image-keyboard-response","122","629782","0.0-6.0-4.16","2723468","co38353","norming","","","","","","",""
"null","../img/tt/436tt.jpg","null","mooney2","image-keyboard-response","123","631783","0.0-6.0-5.16","2723468","co38353","norming","","","","","","",""
"2835.125","","","post_reveal_questions","survey-likert","124","634620","0.0-6.0-6.16","2723468","co38353","norming","","","{""aha"":1}","[0]","../img/tt/436tt.jpg","",""
"null","<div style=""font-size:60px;""> </div>","null","fixation","html-keyboard-response","125","634822","0.0-6.0-0.17","2723468","co38353","norming","","","","","","",""
"null","../img/tt/1154tt.jpg","null","mooney1","image-keyboard-response","126","637825","0.0-6.0-1.17","2723468","co38353","norming","","","","","","",""
"3848.2650000001304","","","post_mooney1_questions","survey-likert","127","641676","0.0-6.0-2.17","2723468","co38353","norming","","","{""curiosity"":1,""confidence"":1}","[0,1]","../img/tt/1154tt.jpg","",""
"2862.319999999949","","","recognition","survey-text","128","644539","0.0-6.0-3.17","2723468","co38353","norming","","","{""guess"":""kano""}","","../img/tt/1154tt.jpg","",""
"null","../img/gs/1154gs.jpg","null","reveal","image-keyboard-response","129","646541","0.0-6.0-4.17","2723468","co38353","norming","","","","","","",""
"null","../img/tt/1154tt.jpg","null","mooney2","image-keyboard-response","130","648543","0.0-6.0-5.17","2723468","co38353","norming","","","","","","",""
"2426.4250000000466","","","post_reveal_questions","survey-likert","131","650972","0.0-6.0-6.17","2723468","co38353","norming","","","{""aha"":6}","[0]","../img/tt/1154tt.jpg","",""
"null","<div style=""font-size:60px;""> </div>","null","fixation","html-keyboard-response","132","651173","0.0-6.0-0.18","2723468","co38353","norming","","","","","","",""
"null","../img/tt/1250tt.jpg","null","mooney1","image-keyboard-response","133","654176","0.0-6.0-1.18","2723468","co38353","norming","","","","","","",""
"4529.535000000033","","","post_mooney1_questions","survey-likert","134","658708","0.0-6.0-2.18","2723468","co38353","norming","","","{""curiosity"":1,""confidence"":1}","[0,1]","../img/tt/1250tt.jpg","",""
"3670.155000000028","","","recognition","survey-text","135","662379","0.0-6.0-3.18","2723468","co38353","norming","","","{""guess"":""golven""}","","../img/tt/1250tt.jpg","",""
"null","../img/gs/1250gs.jpg","null","reveal","image-keyboard-response","136","664381","0.0-6.0-4.18","2723468","co38353","norming","","","","","","",""
"null","../img/tt/1250tt.jpg","null","mooney2","image-keyboard-response","137","666384","0.0-6.0-5.18","2723468","co38353","norming","","","","","","",""
"3105.054999999935","","","post_reveal_questions","survey-likert","138","669492","0.0-6.0-6.18","2723468","co38353","norming","","","{""aha"":0}","[0]","../img/tt/1250tt.jpg","",""
"null","<div style=""font-size:60px;""> </div>","null","fixation","html-keyboard-response","139","669693","0.0-6.0-0.19","2723468","co38353","norming","","","","","","",""
"null","../img/tt/1363tt.jpg","null","mooney1","image-keyboard-response","140","672694","0.0-6.0-1.19","2723468","co38353","norming","","","","","","",""
"4650.314999999944","","","post_mooney1_questions","survey-likert","141","677347","0.0-6.0-2.19","2723468","co38353","norming","","","{""curiosity"":2,""confidence"":1}","[0,1]","../img/tt/1363tt.jpg","",""
"3093.844999999972","","","recognition","survey-text","142","680443","0.0-6.0-3.19","2723468","co38353","norming","","","{""guess"":""walvis""}","","../img/tt/1363tt.jpg","",""
"null","../img/gs/1363gs.jpg","null","reveal","image-keyboard-response","143","682445","0.0-6.0-4.19","2723468","co38353","norming","","","","","","",""
"null","../img/tt/1363tt.jpg","null","mooney2","image-keyboard-response","144","684447","0.0-6.0-5.19","2723468","co38353","norming","","","","","","",""
"3875.4349999999395","","","post_reveal_questions","survey-likert","145","688323","0.0-6.0-6.19","2723468","co38353","norming","","","{""aha"":0}","[0]","../img/tt/1363tt.jpg","",""
"null","<div style=""font-size:60px;""> </div>","null","fixation","html-keyboard-response","146","688524","0.0-6.0-0.20","2723468","co38353","norming","","","","","","",""
"null","../img/tt/418tt.jpg","null","mooney1","image-keyboard-response","147","691526","0.0-6.0-1.20","2723468","co38353","norming","","","","","","",""
"4469.0299999999115","","","post_mooney1_questions","survey-likert","148","695995","0.0-6.0-2.20","2723468","co38353","norming","","","{""curiosity"":3,""confidence"":2}","[0,1]","../img/tt/418tt.jpg","",""
"3118.1250000001164","","","recognition","survey-text","149","699115","0.0-6.0-3.20","2723468","co38353","norming","","","{""guess"":""luiaard""}","","../img/tt/418tt.jpg","",""
"null","../img/gs/418gs.jpg","null","reveal","image-keyboard-response","150","701117","0.0-6.0-4.20","2723468","co38353","norming","","","","","","",""
"null","../img/tt/418tt.jpg","null","mooney2","image-keyboard-response","151","703118","0.0-6.0-5.20","2723468","co38353","norming","","","","","","",""
"4081.859999999986","","","post_reveal_questions","survey-likert","152","707203","0.0-6.0-6.20","2723468","co38353","norming","","","{""aha"":0}","[0]","../img/tt/418tt.jpg","",""
"null","<div style=""font-size:60px;""> </div>","null","fixation","html-keyboard-response","153","707405","0.0-6.0-0.21","2723468","co38353","norming","","","","","","",""
"null","../img/tt/1043tt.jpg","null","mooney1","image-keyboard-response","154","710407","0.0-6.0-1.21","2723468","co38353","norming","","","","","","",""
"4403.290000000154","","","post_mooney1_questions","survey-likert","155","714811","0.0-6.0-2.21","2723468","co38353","norming","","","{""curiosity"":4,""confidence"":0}","[0,1]","../img/tt/1043tt.jpg","",""
"1102.1000000000931","","","recognition","survey-text","156","715915","0.0-6.0-3.21","2723468","co38353","norming","","","{""guess"":""""}","","../img/tt/1043tt.jpg","",""
"null","../img/gs/1043gs.jpg","null","reveal","image-keyboard-response","157","717916","0.0-6.0-4.21","2723468","co38353","norming","","","","","","",""
"null","../img/tt/1043tt.jpg","null","mooney2","image-keyboard-response","158","719917","0.0-6.0-5.21","2723468","co38353","norming","","","","","","",""
"2267.560000000056","","","post_reveal_questions","survey-likert","159","722187","0.0-6.0-6.21","2723468","co38353","norming","","","{""aha"":1}","[0]","../img/tt/1043tt.jpg","",""
"null","<div style=""font-size:60px;""> </div>","null","fixation","html-keyboard-response","160","722389","0.0-6.0-0.22","2723468","co38353","norming","","","","","","",""
"null","../img/tt/019tt.jpg","null","mooney1","image-keyboard-response","161","725390","0.0-6.0-1.22","2723468","co38353","norming","","","","","","",""
"4124.5650000000605","","","post_mooney1_questions","survey-likert","162","729515","0.0-6.0-2.22","2723468","co38353","norming","","","{""curiosity"":1,""confidence"":1}","[0,1]","../img/tt/019tt.jpg","",""
"3102.07500000007","","","recognition","survey-text","163","732619","0.0-6.0-3.22","2723468","co38353","norming","","","{""guess"":""tang""}","","../img/tt/019tt.jpg","",""
"null","../img/gs/019gs.jpg","null","reveal","image-keyboard-response","164","734621","0.0-6.0-4.22","2723468","co38353","norming","","","","","","",""
"null","../img/tt/019tt.jpg","null","mooney2","image-keyboard-response","165","736623","0.0-6.0-5.22","2723468","co38353","norming","","","","","","",""
"2019.1449999999022","","","post_reveal_questions","survey-likert","166","738643","0.0-6.0-6.22","2723468","co38353","norming","","","{""aha"":6}","[0]","../img/tt/019tt.jpg","",""
"null","<div style=""font-size:60px;""> </div>","null","fixation","html-keyboard-response","167","738845","0.0-6.0-0.23","2723468","co38353","norming","","","","","","",""
"null","../img/tt/306tt.jpg","null","mooney1","image-keyboard-response","168","741847","0.0-6.0-1.23","2723468","co38353","norming","","","","","","",""
"6202.75","","","post_mooney1_questions","survey-likert","169","748051","0.0-6.0-2.23","2723468","co38353","norming","","","{""curiosity"":6,""confidence"":1}","[0,1]","../img/tt/306tt.jpg","",""
"2462.034999999916","","","recognition","survey-text","170","750515","0.0-6.0-3.23","2723468","co38353","norming","","","{""guess"":""road""}","","../img/tt/306tt.jpg","",""
"null","../img/gs/306gs.jpg","null","reveal","image-keyboard-response","171","752516","0.0-6.0-4.23","2723468","co38353","norming","","","","","","",""
"null","../img/tt/306tt.jpg","null","mooney2","image-keyboard-response","172","754518","0.0-6.0-5.23","2723468","co38353","norming","","","","","","",""
"2501.1849999999395","","","post_reveal_questions","survey-likert","173","757020","0.0-6.0-6.23","2723468","co38353","norming","","","{""aha"":0}","[0]","../img/tt/306tt.jpg","",""
"null","<div style=""font-size:60px;""> </div>","null","fixation","html-keyboard-response","174","757221","0.0-6.0-0.24","2723468","co38353","norming","","","","","","",""
"null","../img/tt/082tt.jpg","null","mooney1","image-keyboard-response","175","760223","0.0-6.0-1.24","2723468","co38353","norming","","","","","","",""
"16611.994999999995","","","post_mooney1_questions","survey-likert","176","776836","0.0-6.0-2.24","2723468","co38353","norming","","","{""curiosity"":5,""confidence"":2}","[0,1]","../img/tt/082tt.jpg","",""
"3669.7750000000233","","","recognition","survey-text","177","780508","0.0-6.0-3.24","2723468","co38353","norming","","","{""guess"":""paardrijder""}","","../img/tt/082tt.jpg","",""
"null","../img/gs/082gs.jpg","null","reveal","image-keyboard-response","178","782509","0.0-6.0-4.24","2723468","co38353","norming","","","","","","",""
"null","../img/tt/082tt.jpg","null","mooney2","image-keyboard-response","179","784510","0.0-6.0-5.24","2723468","co38353","norming","","","","","","",""
"2701.320000000065","","","post_reveal_questions","survey-likert","180","787212","0.0-6.0-6.24","2723468","co38353","norming","","","{""aha"":0}","[0]","../img/tt/082tt.jpg","",""
"null","<div style=""font-size:60px;""> </div>","null","fixation","html-keyboard-response","181","787415","0.0-6.0-0.25","2723468","co38353","norming","","","","","","",""
"null","../img/tt/380tt.jpg","null","mooney1","image-keyboard-response","182","790417","0.0-6.0-1.25","2723468","co38353","norming","","","","","","",""
"3554.3099999999395","","","post_mooney1_questions","survey-likert","183","793972","0.0-6.0-2.25","2723468","co38353","norming","","","{""curiosity"":1,""confidence"":0}","[0,1]","../img/tt/380tt.jpg","",""
"3789.6849999999395","","","recognition","survey-text","184","797764","0.0-6.0-3.25","2723468","co38353","norming","","","{""guess"":""vogel""}","","../img/tt/380tt.jpg","",""
"null","../img/gs/380gs.jpg","null","reveal","image-keyboard-response","185","799766","0.0-6.0-4.25","2723468","co38353","norming","","","","","","",""
"null","../img/tt/380tt.jpg","null","mooney2","image-keyboard-response","186","801766","0.0-6.0-5.25","2723468","co38353","norming","","","","","","",""
"2540.5449999999255","","","post_reveal_questions","survey-likert","187","804308","0.0-6.0-6.25","2723468","co38353","norming","","","{""aha"":0}","[0]","../img/tt/380tt.jpg","",""
"null","<div style=""font-size:60px;""> </div>","null","fixation","html-keyboard-response","188","804509","0.0-6.0-0.26","2723468","co38353","norming","","","","","","",""
"null","../img/tt/1241tt.jpg","null","mooney1","image-keyboard-response","189","807510","0.0-6.0-1.26","2723468","co38353","norming","","","","","","",""
"5356.90000000014","","","post_mooney1_questions","survey-likert","190","812868","0.0-6.0-2.26","2723468","co38353","norming","","","{""curiosity"":1,""confidence"":1}","[0,1]","../img/tt/1241tt.jpg","",""
"2645.765000000014","","","recognition","survey-text","191","815516","0.0-6.0-3.26","2723468","co38353","norming","","","{""guess"":""hond""}","","../img/tt/1241tt.jpg","",""
"null","../img/gs/1241gs.jpg","null","reveal","image-keyboard-response","192","817518","0.0-6.0-4.26","2723468","co38353","norming","","","","","","",""
"null","../img/tt/1241tt.jpg","null","mooney2","image-keyboard-response","193","819519","0.0-6.0-5.26","2723468","co38353","norming","","","","","","",""
"3396.2249999999767","","","post_reveal_questions","survey-likert","194","822916","0.0-6.0-6.26","2723468","co38353","norming","","","{""aha"":2}","[0]","../img/tt/1241tt.jpg","",""
"null","<div style=""font-size:60px;""> </div>","null","fixation","html-keyboard-response","195","823117","0.0-6.0-0.27","2723468","co38353","norming","","","","","","",""
"null","../img/tt/1261tt.jpg","null","mooney1","image-keyboard-response","196","826118","0.0-6.0-1.27","2723468","co38353","norming","","","","","","",""
"4172.5950000000885","","","post_mooney1_questions","survey-likert","197","830292","0.0-6.0-2.27","2723468","co38353","norming","","","{""curiosity"":4,""confidence"":2}","[0,1]","../img/tt/1261tt.jpg","",""
"2734.2099999999627","","","recognition","survey-text","198","833028","0.0-6.0-3.27","2723468","co38353","norming","","","{""guess"":""schaap""}","","../img/tt/1261tt.jpg","",""
"null","../img/gs/1261gs.jpg","null","reveal","image-keyboard-response","199","835030","0.0-6.0-4.27","2723468","co38353","norming","","","","","","",""
"null","../img/tt/1261tt.jpg","null","mooney2","image-keyboard-response","200","837033","0.0-6.0-5.27","2723468","co38353","norming","","","","","","",""
"1921.9450000000652","","","post_reveal_questions","survey-likert","201","838956","0.0-6.0-6.27","2723468","co38353","norming","","","{""aha"":1}","[0]","../img/tt/1261tt.jpg","",""
"null","<div style=""font-size:60px;""> </div>","null","fixation","html-keyboard-response","202","839157","0.0-6.0-0.28","2723468","co38353","norming","","","","","","",""
"null","../img/tt/1101tt.jpg","null","mooney1","image-keyboard-response","203","842158","0.0-6.0-1.28","2723468","co38353","norming","","","","","","",""
"9404.420000000042","","","post_mooney1_questions","survey-likert","204","851564","0.0-6.0-2.28","2723468","co38353","norming","","","{""curiosity"":1,""confidence"":1}","[0,1]","../img/tt/1101tt.jpg","",""
"5630.124999999884","","","recognition","survey-text","205","857196","0.0-6.0-3.28","2723468","co38353","norming","","","{""guess"":""sportbeoefenaar""}","","../img/tt/1101tt.jpg","",""
"null","../img/gs/1101gs.jpg","null","reveal","image-keyboard-response","206","859197","0.0-6.0-4.28","2723468","co38353","norming","","","","","","",""
"null","../img/tt/1101tt.jpg","null","mooney2","image-keyboard-response","207","861198","0.0-6.0-5.28","2723468","co38353","norming","","","","","","",""
"2084.6199999999953","","","post_reveal_questions","survey-likert","208","863284","0.0-6.0-6.28","2723468","co38353","norming","","","{""aha"":3}","[0]","../img/tt/1101tt.jpg","",""
"null","<div style=""font-size:60px;""> </div>","null","fixation","html-keyboard-response","209","863485","0.0-6.0-0.29","2723468","co38353","norming","","","","","","",""
"null","../img/tt/1196tt.jpg","null","mooney1","image-keyboard-response","210","866486","0.0-6.0-1.29","2723468","co38353","norming","","","","","","",""
"4364.760000000009","","","post_mooney1_questions","survey-likert","211","870852","0.0-6.0-2.29","2723468","co38353","norming","","","{""curiosity"":1,""confidence"":1}","[0,1]","../img/tt/1196tt.jpg","",""
"3686.0250000000233","","","recognition","survey-text","212","874540","0.0-6.0-3.29","2723468","co38353","norming","","","{""guess"":""standbeeld""}","","../img/tt/1196tt.jpg","",""
"null","../img/gs/1196gs.jpg","null","reveal","image-keyboard-response","213","876542","0.0-6.0-4.29","2723468","co38353","norming","","","","","","",""
"null","../img/tt/1196tt.jpg","null","mooney2","image-keyboard-response","214","878543","0.0-6.0-5.29","2723468","co38353","norming","","","","","","",""
"2019.890000000014","","","post_reveal_questions","survey-likert","215","880564","0.0-6.0-6.29","2723468","co38353","norming","","","{""aha"":1}","[0]","../img/tt/1196tt.jpg","",""
"null","<div style=""font-size:60px;""> </div>","null","fixation","html-keyboard-response","216","880767","0.0-6.0-0.30","2723468","co38353","norming","","","","","","",""
"null","../img/tt/1239tt.jpg","null","mooney1","image-keyboard-response","217","883769","0.0-6.0-1.30","2723468","co38353","norming","","","","","","",""
"5690.494999999995","","","post_mooney1_questions","survey-likert","218","889460","0.0-6.0-2.30","2723468","co38353","norming","","","{""curiosity"":0,""confidence"":0}","[0,1]","../img/tt/1239tt.jpg","",""
"4517.695000000065","","","recognition","survey-text","219","893980","0.0-6.0-3.30","2723468","co38353","norming","","","{""guess"":""baseball""}","","../img/tt/1239tt.jpg","",""
"null","../img/gs/1239gs.jpg","null","reveal","image-keyboard-response","220","895983","0.0-6.0-4.30","2723468","co38353","norming","","","","","","",""
"null","../img/tt/1239tt.jpg","null","mooney2","image-keyboard-response","221","897984","0.0-6.0-5.30","2723468","co38353","norming","","","","","","",""
"2802.6600000000326","","","post_reveal_questions","survey-likert","222","900788","0.0-6.0-6.30","2723468","co38353","norming","","","{""aha"":0}","[0]","../img/tt/1239tt.jpg","",""
"null","<div style=""font-size:60px;""> </div>","null","fixation","html-keyboard-response","223","900991","0.0-6.0-0.31","2723468","co38353","norming","","","","","","",""
"null","../img/tt/1146tt.jpg","null","mooney1","image-keyboard-response","224","903992","0.0-6.0-1.31","2723468","co38353","norming","","","","","","",""
"3498.820000000065","","","post_mooney1_questions","survey-likert","225","907492","0.0-6.0-2.31","2723468","co38353","norming","","","{""curiosity"":0,""confidence"":0}","[0,1]","../img/tt/1146tt.jpg","",""
"2485.8100000001723","","","recognition","survey-text","226","909980","0.0-6.0-3.31","2723468","co38353","norming","","","{""guess"":""trein""}","","../img/tt/1146tt.jpg","",""
"null","../img/gs/1146gs.jpg","null","reveal","image-keyboard-response","227","911981","0.0-6.0-4.31","2723468","co38353","norming","","","","","","",""
"null","../img/tt/1146tt.jpg","null","mooney2","image-keyboard-response","228","913983","0.0-6.0-5.31","2723468","co38353","norming","","","","","","",""
"2267.7450000001118","","","post_reveal_questions","survey-likert","229","916252","0.0-6.0-6.31","2723468","co38353","norming","","","{""aha"":0}","[0]","../img/tt/1146tt.jpg","",""
"null","<div style=""font-size:60px;""> </div>","null","fixation","html-keyboard-response","230","916456","0.0-6.0-0.32","2723468","co38353","norming","","","","","","",""
"null","../img/tt/296tt.jpg","null","mooney1","image-keyboard-response","231","919457","0.0-6.0-1.32","2723468","co38353","norming","","","","","","",""
"4257.790000000154","","","post_mooney1_questions","survey-likert","232","923716","0.0-6.0-2.32","2723468","co38353","norming","","","{""curiosity"":1,""confidence"":0}","[0,1]","../img/tt/296tt.jpg","",""
"1958.0650000000605","","","recognition","survey-text","233","925676","0.0-6.0-3.32","2723468","co38353","norming","","","{""guess"":""bed""}","","../img/tt/296tt.jpg","",""
"null","../img/gs/296gs.jpg","null","reveal","image-keyboard-response","234","927677","0.0-6.0-4.32","2723468","co38353","norming","","","","","","",""
"null","../img/tt/296tt.jpg","null","mooney2","image-keyboard-response","235","929679","0.0-6.0-5.32","2723468","co38353","norming","","","","","","",""
"2604.634999999893","","","post_reveal_questions","survey-likert","236","932284","0.0-6.0-6.32","2723468","co38353","norming","","","{""aha"":4}","[0]","../img/tt/296tt.jpg","",""
"null","<div style=""font-size:60px;""> </div>","null","fixation","html-keyboard-response","237","932485","0.0-6.0-0.33","2723468","co38353","norming","","","","","","",""
"null","../img/tt/1037tt.jpg","null","mooney1","image-keyboard-response","238","935486","0.0-6.0-1.33","2723468","co38353","norming","","","","","","",""
"5005.009999999893","","","post_mooney1_questions","survey-likert","239","940492","0.0-6.0-2.33","2723468","co38353","norming","","","{""curiosity"":3,""confidence"":1}","[0,1]","../img/tt/1037tt.jpg","",""
"3405.9149999998044","","","recognition","survey-text","240","943900","0.0-6.0-3.33","2723468","co38353","norming","","","{""guess"":""eekhoorn""}","","../img/tt/1037tt.jpg","",""
"null","../img/gs/1037gs.jpg","null","reveal","image-keyboard-response","241","945901","0.0-6.0-4.33","2723468","co38353","norming","","","","","","",""
"null","../img/tt/1037tt.jpg","null","mooney2","image-keyboard-response","242","947902","0.0-6.0-5.33","2723468","co38353","norming","","","","","","",""
"2013.1699999999255","","","post_reveal_questions","survey-likert","243","949916","0.0-6.0-6.33","2723468","co38353","norming","","","{""aha"":1}","[0]","../img/tt/1037tt.jpg","",""
"null","<div style=""font-size:60px;""> </div>","null","fixation","html-keyboard-response","244","950118","0.0-6.0-0.34","2723468","co38353","norming","","","","","","",""
"null","../img/tt/1156tt.jpg","null","mooney1","image-keyboard-response","245","953120","0.0-6.0-1.34","2723468","co38353","norming","","","","","","",""
"2811.140000000014","","","post_mooney1_questions","survey-likert","246","955932","0.0-6.0-2.34","2723468","co38353","norming","","","{""curiosity"":1,""confidence"":1}","[0,1]","../img/tt/1156tt.jpg","",""
"3293.9099999997998","","","recognition","survey-text","247","959228","0.0-6.0-3.34","2723468","co38353","norming","","","{""guess"":""krokodil""}","","../img/tt/1156tt.jpg","",""
"null","../img/gs/1156gs.jpg","null","reveal","image-keyboard-response","248","961229","0.0-6.0-4.34","2723468","co38353","norming","","","","","","",""
"null","../img/tt/1156tt.jpg","null","mooney2","image-keyboard-response","249","963231","0.0-6.0-5.34","2723468","co38353","norming","","","","","","",""
"2652.164999999921","","","post_reveal_questions","survey-likert","250","965884","0.0-6.0-6.34","2723468","co38353","norming","","","{""aha"":1}","[0]","../img/tt/1156tt.jpg","",""
"null","<div style=""font-size:60px;""> </div>","null","fixation","html-keyboard-response","251","966085","0.0-6.0-0.35","2723468","co38353","norming","","","","","","",""
"null","../img/tt/318tt.jpg","null","mooney1","image-keyboard-response","252","969087","0.0-6.0-1.35","2723468","co38353","norming","","","","","","",""
"2724.5099999997765","","","post_mooney1_questions","survey-likert","253","971812","0.0-6.0-2.35","2723468","co38353","norming","","","{""curiosity"":0,""confidence"":0}","[0,1]","../img/tt/318tt.jpg","",""
"805.4099999999162","","","recognition","survey-text","254","972620","0.0-6.0-3.35","2723468","co38353","norming","","","{""guess"":""""}","","../img/tt/318tt.jpg","",""
"null","../img/gs/318gs.jpg","null","reveal","image-keyboard-response","255","974622","0.0-6.0-4.35","2723468","co38353","norming","","","","","","",""
"null","../img/tt/318tt.jpg","null","mooney2","image-keyboard-response","256","976623","0.0-6.0-5.35","2723468","co38353","norming","","","","","","",""
"2331.8199999998324","","","post_reveal_questions","survey-likert","257","978956","0.0-6.0-6.35","2723468","co38353","norming","","","{""aha"":0}","[0]","../img/tt/318tt.jpg","",""
"null","<div style=""font-size:60px;""> </div>","null","fixation","html-keyboard-response","258","979157","0.0-6.0-0.36","2723468","co38353","norming","","","","","","",""
"null","../img/tt/456tt.jpg","null","mooney1","image-keyboard-response","259","982158","0.0-6.0-1.36","2723468","co38353","norming","","","","","","",""
"6733.039999999804","","","post_mooney1_questions","survey-likert","260","988892","0.0-6.0-2.36","2723468","co38353","norming","","","{""curiosity"":3,""confidence"":1}","[0,1]","../img/tt/456tt.jpg","",""
"3222.065000000177","","","recognition","survey-text","261","992116","0.0-6.0-3.36","2723468","co38353","norming","","","{""guess"":""zeehond""}","","../img/tt/456tt.jpg","",""
"null","../img/gs/456gs.jpg","null","reveal","image-keyboard-response","262","994117","0.0-6.0-4.36","2723468","co38353","norming","","","","","","",""
"null","../img/tt/456tt.jpg","null","mooney2","image-keyboard-response","263","996119","0.0-6.0-5.36","2723468","co38353","norming","","","","","","",""
"2795.7050000000745","","","post_reveal_questions","survey-likert","264","998919","0.0-6.0-6.36","2723468","co38353","norming","","","{""aha"":1}","[0]","../img/tt/456tt.jpg","",""
"null","<div style=""font-size:60px;""> </div>","null","fixation","html-keyboard-response","265","999122","0.0-6.0-0.37","2723468","co38353","norming","","","","","","",""
"null","../img/tt/1227tt.jpg","null","mooney1","image-keyboard-response","266","1002124","0.0-6.0-1.37","2723468","co38353","norming","","","","","","",""
"2986.225000000093","","","post_mooney1_questions","survey-likert","267","1005111","0.0-6.0-2.37","2723468","co38353","norming","","","{""curiosity"":0,""confidence"":0}","[0,1]","../img/tt/1227tt.jpg","",""
"862.035000000149","","","recognition","survey-text","268","1005975","0.0-6.0-3.37","2723468","co38353","norming","","","{""guess"":""""}","","../img/tt/1227tt.jpg","",""
"null","../img/gs/1227gs.jpg","null","reveal","image-keyboard-response","269","1007977","0.0-6.0-4.37","2723468","co38353","norming","","","","","","",""
"null","../img/tt/1227tt.jpg","null","mooney2","image-keyboard-response","270","1009978","0.0-6.0-5.37","2723468","co38353","norming","","","","","","",""
"1988.390000000014","","","post_reveal_questions","survey-likert","271","1011967","0.0-6.0-6.37","2723468","co38353","norming","","","{""aha"":0}","[0]","../img/tt/1227tt.jpg","",""
"null","<div style=""font-size:60px;""> </div>","null","fixation","html-keyboard-response","272","1012168","0.0-6.0-0.38","2723468","co38353","norming","","","","","","",""
"null","../img/tt/567tt.jpg","null","mooney1","image-keyboard-response","273","1015169","0.0-6.0-1.38","2723468","co38353","norming","","","","","","",""
"5052.405000000144","","","post_mooney1_questions","survey-likert","274","1020223","0.0-6.0-2.38","2723468","co38353","norming","","","{""curiosity"":5,""confidence"":6}","[0,1]","../img/tt/567tt.jpg","",""
"3637.929999999935","","","recognition","survey-text","275","1023863","0.0-6.0-3.38","2723468","co38353","norming","","","{""guess"":""broodrooster""}","","../img/tt/567tt.jpg","",""
"null","../img/gs/567gs.jpg","null","reveal","image-keyboard-response","276","1025866","0.0-6.0-4.38","2723468","co38353","norming","","","","","","",""
"null","../img/tt/567tt.jpg","null","mooney2","image-keyboard-response","277","1027868","0.0-6.0-5.38","2723468","co38353","norming","","","","","","",""
"2650.7099999998463","","","post_reveal_questions","survey-likert","278","1030519","0.0-6.0-6.38","2723468","co38353","norming","","","{""aha"":6}","[0]","../img/tt/567tt.jpg","",""
"null","<div style=""font-size:60px;""> </div>","null","fixation","html-keyboard-response","279","1030720","0.0-6.0-0.39","2723468","co38353","norming","","","","","","",""
"null","../img/tt/1142tt.jpg","null","mooney1","image-keyboard-response","280","1033723","0.0-6.0-1.39","2723468","co38353","norming","","","","","","",""
"3811.445000000065","","","post_mooney1_questions","survey-likert","281","1037535","0.0-6.0-2.39","2723468","co38353","norming","","","{""curiosity"":6,""confidence"":4}","[0,1]","../img/tt/1142tt.jpg","",""
"3574.1849999999395","","","recognition","survey-text","282","1041111","0.0-6.0-3.39","2723468","co38353","norming","","","{""guess"":""athlete""}","","../img/tt/1142tt.jpg","",""
"null","../img/gs/1142gs.jpg","null","reveal","image-keyboard-response","283","1043113","0.0-6.0-4.39","2723468","co38353","norming","","","","","","",""
"null","../img/tt/1142tt.jpg","null","mooney2","image-keyboard-response","284","1045114","0.0-6.0-5.39","2723468","co38353","norming","","","","","","",""
"2779.994999999879","","","post_reveal_questions","survey-likert","285","1047895","0.0-6.0-6.39","2723468","co38353","norming","","","{""aha"":6}","[0]","../img/tt/1142tt.jpg","",""
"null","<div style=""font-size:60px;""> </div>","null","fixation","html-keyboard-response","286","1048098","0.0-6.0-0.40","2723468","co38353","norming","","","","","","",""
"null","../img/tt/1096tt.jpg","null","mooney1","image-keyboard-response","287","1051100","0.0-6.0-1.40","2723468","co38353","norming","","","","","","",""
"3330.344999999972","","","post_mooney1_questions","survey-likert","288","1054432","0.0-6.0-2.40","2723468","co38353","norming","","","{""curiosity"":4,""confidence"":2}","[0,1]","../img/tt/1096tt.jpg","",""
"4069.7400000002235","","","recognition","survey-text","289","1058509","0.0-6.0-3.40","2723468","co38353","norming","","","{""guess"":""sportbeoefenaar""}","","../img/tt/1096tt.jpg","",""
"null","../img/gs/1096gs.jpg","null","reveal","image-keyboard-response","290","1060510","0.0-6.0-4.40","2723468","co38353","norming","","","","","","",""
"null","../img/tt/1096tt.jpg","null","mooney2","image-keyboard-response","291","1062513","0.0-6.0-5.40","2723468","co38353","norming","","","","","","",""
"3354.8950000000186","","","post_reveal_questions","survey-likert","292","1065869","0.0-6.0-6.40","2723468","co38353","norming","","","{""aha"":0}","[0]","../img/tt/1096tt.jpg","",""
"null","<div style=""font-size:60px;""> </div>","null","fixation","html-keyboard-response","293","1066071","0.0-6.0-0.41","2723468","co38353","norming","","","","","","",""
"null","../img/tt/081tt.jpg","null","mooney1","image-keyboard-response","294","1069072","0.0-6.0-1.41","2723468","co38353","norming","","","","","","",""
"3171.344999999972","","","post_mooney1_questions","survey-likert","295","1072245","0.0-6.0-2.41","2723468","co38353","norming","","","{""curiosity"":0,""confidence"":0}","[0,1]","../img/tt/081tt.jpg","",""
"2397.850000000093","","","recognition","survey-text","296","1074645","0.0-6.0-3.41","2723468","co38353","norming","","","{""guess"":""vis""}","","../img/tt/081tt.jpg","",""
"null","../img/gs/081gs.jpg","null","reveal","image-keyboard-response","297","1076647","0.0-6.0-4.41","2723468","co38353","norming","","","","","","",""
"null","../img/tt/081tt.jpg","null","mooney2","image-keyboard-response","298","1078648","0.0-6.0-5.41","2723468","co38353","norming","","","","","","",""
"1740.029999999795","","","post_reveal_questions","survey-likert","299","1080389","0.0-6.0-6.41","2723468","co38353","norming","","","{""aha"":0}","[0]","../img/tt/081tt.jpg","",""
"null","<div style=""font-size:60px;""> </div>","null","fixation","html-keyboard-response","300","1080590","0.0-6.0-0.42","2723468","co38353","norming","","","","","","",""
"null","../img/tt/121tt.jpg","null","mooney1","image-keyboard-response","301","1083592","0.0-6.0-1.42","2723468","co38353","norming","","","","","","",""
"2787.2400000002235","","","post_mooney1_questions","survey-likert","302","1086381","0.0-6.0-2.42","2723468","co38353","norming","","","{""curiosity"":0,""confidence"":0}","[0,1]","../img/tt/121tt.jpg","",""
"3093.685000000056","","","recognition","survey-text","303","1089476","0.0-6.0-3.42","2723468","co38353","norming","","","{""guess"":""krokodil""}","","../img/tt/121tt.jpg","",""
"null","../img/gs/121gs.jpg","null","reveal","image-keyboard-response","304","1091478","0.0-6.0-4.42","2723468","co38353","norming","","","","","","",""
"null","../img/tt/121tt.jpg","null","mooney2","image-keyboard-response","305","1093481","0.0-6.0-5.42","2723468","co38353","norming","","","","","","",""
"2274.304999999935","","","post_reveal_questions","survey-likert","306","1095757","0.0-6.0-6.42","2723468","co38353","norming","","","{""aha"":0}","[0]","../img/tt/121tt.jpg","",""
"null","<div style=""font-size:60px;""> </div>","null","fixation","html-keyboard-response","307","1095959","0.0-6.0-0.43","2723468","co38353","norming","","","","","","",""
"null","../img/tt/329tt.jpg","null","mooney1","image-keyboard-response","308","1098961","0.0-6.0-1.43","2723468","co38353","norming","","","","","","",""
"3682.0749999999534","","","post_mooney1_questions","survey-likert","309","1102645","0.0-6.0-2.43","2723468","co38353","norming","","","{""curiosity"":0,""confidence"":0}","[0,1]","../img/tt/329tt.jpg","",""
"918.0550000001676","","","recognition","survey-text","310","1103564","0.0-6.0-3.43","2723468","co38353","norming","","","{""guess"":""""}","","../img/tt/329tt.jpg","",""
"null","../img/gs/329gs.jpg","null","reveal","image-keyboard-response","311","1105566","0.0-6.0-4.43","2723468","co38353","norming","","","","","","",""
"null","../img/tt/329tt.jpg","null","mooney2","image-keyboard-response","312","1107567","0.0-6.0-5.43","2723468","co38353","norming","","","","","","",""
"2988.9150000000373","","","post_reveal_questions","survey-likert","313","1110556","0.0-6.0-6.43","2723468","co38353","norming","","","{""aha"":0}","[0]","../img/tt/329tt.jpg","",""
"null","<div style=""font-size:60px;""> </div>","null","fixation","html-keyboard-response","314","1110758","0.0-6.0-0.44","2723468","co38353","norming","","","","","","",""
"null","../img/tt/1307tt.jpg","null","mooney1","image-keyboard-response","315","1113760","0.0-6.0-1.44","2723468","co38353","norming","","","","","","",""
"3178.7050000000745","","","post_mooney1_questions","survey-likert","316","1116941","0.0-6.0-2.44","2723468","co38353","norming","","","{""curiosity"":0,""confidence"":0}","[0,1]","../img/tt/1307tt.jpg","",""
"5814.120000000112","","","recognition","survey-text","317","1122760","0.0-6.0-3.44","2723468","co38353","norming","","","{""guess"":""paddenstoel""}","","../img/tt/1307tt.jpg","",""
"null","../img/gs/1307gs.jpg","null","reveal","image-keyboard-response","318","1124762","0.0-6.0-4.44","2723468","co38353","norming","","","","","","",""
"null","../img/tt/1307tt.jpg","null","mooney2","image-keyboard-response","319","1126763","0.0-6.0-5.44","2723468","co38353","norming","","","","","","",""
"2076.3549999999814","","","post_reveal_questions","survey-likert","320","1128841","0.0-6.0-6.44","2723468","co38353","norming","","","{""aha"":0}","[0]","../img/tt/1307tt.jpg","",""
"null","<div style=""font-size:60px;""> </div>","null","fixation","html-keyboard-response","321","1129042","0.0-6.0-0.45","2723468","co38353","norming","","","","","","",""
"null","../img/tt/1243tt.jpg","null","mooney1","image-keyboard-response","322","1132044","0.0-6.0-1.45","2723468","co38353","norming","","","","","","",""
"3387.465000000084","","","post_mooney1_questions","survey-likert","323","1135433","0.0-6.0-2.45","2723468","co38353","norming","","","{""curiosity"":3,""confidence"":3}","[0,1]","../img/tt/1243tt.jpg","",""
"3094.0100000000093","","","recognition","survey-text","324","1138529","0.0-6.0-3.45","2723468","co38353","norming","","","{""guess"":""gorilla""}","","../img/tt/1243tt.jpg","",""
"null","../img/gs/1243gs.jpg","null","reveal","image-keyboard-response","325","1140531","0.0-6.0-4.45","2723468","co38353","norming","","","","","","",""
"null","../img/tt/1243tt.jpg","null","mooney2","image-keyboard-response","326","1142534","0.0-6.0-5.45","2723468","co38353","norming","","","","","","",""
"2417.225000000093","","","post_reveal_questions","survey-likert","327","1144953","0.0-6.0-6.45","2723468","co38353","norming","","","{""aha"":0}","[0]","../img/tt/1243tt.jpg","",""
"null","<div style=""font-size:60px;""> </div>","null","fixation","html-keyboard-response","328","1145154","0.0-6.0-0.46","2723468","co38353","norming","","","","","","",""
"null","../img/tt/552tt.jpg","null","mooney1","image-keyboard-response","329","1148155","0.0-6.0-1.46","2723468","co38353","norming","","","","","","",""
"5523.970000000205","","","post_mooney1_questions","survey-likert","330","1153680","0.0-6.0-2.46","2723468","co38353","norming","","","{""curiosity"":4,""confidence"":4}","[0,1]","../img/tt/552tt.jpg","",""
"3486.2050000000745","","","recognition","survey-text","331","1157168","0.0-6.0-3.46","2723468","co38353","norming","","","{""guess"":""stinkdier""}","","../img/tt/552tt.jpg","",""
"null","../img/gs/552gs.jpg","null","reveal","image-keyboard-response","332","1159170","0.0-6.0-4.46","2723468","co38353","norming","","","","","","",""
"null","../img/tt/552tt.jpg","null","mooney2","image-keyboard-response","333","1161172","0.0-6.0-5.46","2723468","co38353","norming","","","","","","",""
"1683.0100000002421","","","post_reveal_questions","survey-likert","334","1162857","0.0-6.0-6.46","2723468","co38353","norming","","","{""aha"":6}","[0]","../img/tt/552tt.jpg","",""
"null","<div style=""font-size:60px;""> </div>","null","fixation","html-keyboard-response","335","1163059","0.0-6.0-0.47","2723468","co38353","norming","","","","","","",""
"null","../img/tt/1097tt.jpg","null","mooney1","image-keyboard-response","336","1166060","0.0-6.0-1.47","2723468","co38353","norming","","","","","","",""
"4035.410000000149","","","post_mooney1_questions","survey-likert","337","1170097","0.0-6.0-2.47","2723468","co38353","norming","","","{""curiosity"":3,""confidence"":3}","[0,1]","../img/tt/1097tt.jpg","",""
"1996.344999999972","","","recognition","survey-text","338","1172096","0.0-6.0-3.47","2723468","co38353","norming","","","{""guess"":""boer""}","","../img/tt/1097tt.jpg","",""
"null","../img/gs/1097gs.jpg","null","reveal","image-keyboard-response","339","1174098","0.0-6.0-4.47","2723468","co38353","norming","","","","","","",""
"null","../img/tt/1097tt.jpg","null","mooney2","image-keyboard-response","340","1176100","0.0-6.0-5.47","2723468","co38353","norming","","","","","","",""
"2547.0400000000373","","","post_reveal_questions","survey-likert","341","1178653","0.0-6.0-6.47","2723468","co38353","norming","","","{""aha"":1}","[0]","../img/tt/1097tt.jpg","",""
"null","<div style=""font-size:60px;""> </div>","null","fixation","html-keyboard-response","342","1178855","0.0-6.0-0.48","2723468","co38353","norming","","","","","","",""
"null","../img/tt/599tt.jpg","null","mooney1","image-keyboard-response","343","1181857","0.0-6.0-1.48","2723468","co38353","norming","","","","","","",""
"3035.2600000000093","","","post_mooney1_questions","survey-likert","344","1184893","0.0-6.0-2.48","2723468","co38353","norming","","","{""curiosity"":4,""confidence"":5}","[0,1]","../img/tt/599tt.jpg","",""
"2774.119999999646","","","recognition","survey-text","345","1187669","0.0-6.0-3.48","2723468","co38353","norming","","","{""guess"":""vlinder""}","","../img/tt/599tt.jpg","",""
"null","../img/gs/599gs.jpg","null","reveal","image-keyboard-response","346","1189672","0.0-6.0-4.48","2723468","co38353","norming","","","","","","",""
"null","../img/tt/599tt.jpg","null","mooney2","image-keyboard-response","347","1191673","0.0-6.0-5.48","2723468","co38353","norming","","","","","","",""
"1811.4199999999255","","","post_reveal_questions","survey-likert","348","1193485","0.0-6.0-6.48","2723468","co38353","norming","","","{""aha"":1}","[0]","../img/tt/599tt.jpg","",""
"null","<div style=""font-size:60px;""> </div>","null","fixation","html-keyboard-response","349","1193688","0.0-6.0-0.49","2723468","co38353","norming","","","","","","",""
"null","../img/tt/020tt.jpg","null","mooney1","image-keyboard-response","350","1196691","0.0-6.0-1.49","2723468","co38353","norming","","","","","","",""
"3625.0449999999255","","","post_mooney1_questions","survey-likert","351","1200317","0.0-6.0-2.49","2723468","co38353","norming","","","{""curiosity"":1,""confidence"":1}","[0,1]","../img/tt/020tt.jpg","",""
"2821.7650000001304","","","recognition","survey-text","352","1203141","0.0-6.0-3.49","2723468","co38353","norming","","","{""guess"":""kangeroe""}","","../img/tt/020tt.jpg","",""
"null","../img/gs/020gs.jpg","null","reveal","image-keyboard-response","353","1205143","0.0-6.0-4.49","2723468","co38353","norming","","","","","","",""
"null","../img/tt/020tt.jpg","null","mooney2","image-keyboard-response","354","1207145","0.0-6.0-5.49","2723468","co38353","norming","","","","","","",""
"1835.0649999999441","","","post_reveal_questions","survey-likert","355","1208981","0.0-6.0-6.49","2723468","co38353","norming","","","{""aha"":0}","[0]","../img/tt/020tt.jpg","",""
"null","<div style=""font-size:60px;""> </div>","null","fixation","html-keyboard-response","356","1209183","0.0-6.0-0.50","2723468","co38353","norming","","","","","","",""
"null","../img/tt/036tt.jpg","null","mooney1","image-keyboard-response","357","1212185","0.0-6.0-1.50","2723468","co38353","norming","","","","","","",""
"5098.520000000019","","","post_mooney1_questions","survey-likert","358","1217285","0.0-6.0-2.50","2723468","co38353","norming","","","{""curiosity"":0,""confidence"":0}","[0,1]","../img/tt/036tt.jpg","",""
"845.8450000002049","","","recognition","survey-text","359","1218133","0.0-6.0-3.50","2723468","co38353","norming","","","{""guess"":""""}","","../img/tt/036tt.jpg","",""
"null","../img/gs/036gs.jpg","null","reveal","image-keyboard-response","360","1220135","0.0-6.0-4.50","2723468","co38353","norming","","","","","","",""
"null","../img/tt/036tt.jpg","null","mooney2","image-keyboard-response","361","1222138","0.0-6.0-5.50","2723468","co38353","norming","","","","","","",""
"1537.9299999999348","","","post_reveal_questions","survey-likert","362","1223677","0.0-6.0-6.50","2723468","co38353","norming","","","{""aha"":0}","[0]","../img/tt/036tt.jpg","",""
"null","<div style=""font-size:60px;""> </div>","null","fixation","html-keyboard-response","363","1223879","0.0-6.0-0.51","2723468","co38353","norming","","","","","","",""
"null","../img/tt/053tt.jpg","null","mooney1","image-keyboard-response","364","1226880","0.0-6.0-1.51","2723468","co38353","norming","","","","","","",""
"2867.625","","","post_mooney1_questions","survey-likert","365","1229749","0.0-6.0-2.51","2723468","co38353","norming","","","{""curiosity"":1,""confidence"":2}","[0,1]","../img/tt/053tt.jpg","",""
"3182.024999999907","","","recognition","survey-text","366","1232933","0.0-6.0-3.51","2723468","co38353","norming","","","{""guess"":""golven""}","","../img/tt/053tt.jpg","",""
"null","../img/gs/053gs.jpg","null","reveal","image-keyboard-response","367","1234936","0.0-6.0-4.51","2723468","co38353","norming","","","","","","",""
"null","../img/tt/053tt.jpg","null","mooney2","image-keyboard-response","368","1236937","0.0-6.0-5.51","2723468","co38353","norming","","","","","","",""
"2002.8950000000186","","","post_reveal_questions","survey-likert","369","1238946","0.0-6.0-6.51","2723468","co38353","norming","","","{""aha"":5}","[0]","../img/tt/053tt.jpg","",""
"null","<div style=""font-size:60px;""> </div>","null","fixation","html-keyboard-response","370","1239147","0.0-6.0-0.52","2723468","co38353","norming","","","","","","",""
"null","../img/tt/078tt.jpg","null","mooney1","image-keyboard-response","371","1242148","0.0-6.0-1.52","2723468","co38353","norming","","","","","","",""
"2628.4550000000745","","","post_mooney1_questions","survey-likert","372","1244778","0.0-6.0-2.52","2723468","co38353","norming","","","{""curiosity"":1,""confidence"":1}","[0,1]","../img/tt/078tt.jpg","",""
"2366.1400000001304","","","recognition","survey-text","373","1247146","0.0-6.0-3.52","2723468","co38353","norming","","","{""guess"":""giraf""}","","../img/tt/078tt.jpg","",""
"null","../img/gs/078gs.jpg","null","reveal","image-keyboard-response","374","1249148","0.0-6.0-4.52","2723468","co38353","norming","","","","","","",""
"null","../img/tt/078tt.jpg","null","mooney2","image-keyboard-response","375","1251149","0.0-6.0-5.52","2723468","co38353","norming","","","","","","",""
"4019.5750000001863","","","post_reveal_questions","survey-likert","376","1255169","0.0-6.0-6.52","2723468","co38353","norming","","","{""aha"":0}","[0]","../img/tt/078tt.jpg","",""
"null","<div style=""font-size:60px;""> </div>","null","fixation","html-keyboard-response","377","1255372","0.0-6.0-0.53","2723468","co38353","norming","","","","","","",""
"null","../img/tt/1055tt.jpg","null","mooney1","image-keyboard-response","378","1258375","0.0-6.0-1.53","2723468","co38353","norming","","","","","","",""
"2737.5999999998603","","","post_mooney1_questions","survey-likert","379","1261113","0.0-6.0-2.53","2723468","co38353","norming","","","{""curiosity"":1,""confidence"":0}","[0,1]","../img/tt/1055tt.jpg","",""
"3013.934999999823","","","recognition","survey-text","380","1264129","0.0-6.0-3.53","2723468","co38353","norming","","","{""guess"":""olifant""}","","../img/tt/1055tt.jpg","",""
"null","../img/gs/1055gs.jpg","null","reveal","image-keyboard-response","381","1266131","0.0-6.0-4.53","2723468","co38353","norming","","","","","","",""
"null","../img/tt/1055tt.jpg","null","mooney2","image-keyboard-response","382","1268132","0.0-6.0-5.53","2723468","co38353","norming","","","","","","",""
"2491.8900000001304","","","post_reveal_questions","survey-likert","383","1270625","0.0-6.0-6.53","2723468","co38353","norming","","","{""aha"":0}","[0]","../img/tt/1055tt.jpg","",""
"null","<div style=""font-size:60px;""> </div>","null","fixation","html-keyboard-response","384","1270826","0.0-6.0-0.54","2723468","co38353","norming","","","","","","",""
"null","../img/tt/063tt.jpg","null","mooney1","image-keyboard-response","385","1273827","0.0-6.0-1.54","2723468","co38353","norming","","","","","","",""
"2221.3300000000745","","","post_mooney1_questions","survey-likert","386","1276050","0.0-6.0-2.54","2723468","co38353","norming","","","{""curiosity"":5,""confidence"":5}","[0,1]","../img/tt/063tt.jpg","",""
"4534.059999999823","","","recognition","survey-text","387","1280585","0.0-6.0-3.54","2723468","co38353","norming","","","{""guess"":""accordeon""}","","../img/tt/063tt.jpg","",""
"null","../img/gs/063gs.jpg","null","reveal","image-keyboard-response","388","1282587","0.0-6.0-4.54","2723468","co38353","norming","","","","","","",""
"null","../img/tt/063tt.jpg","null","mooney2","image-keyboard-response","389","1284589","0.0-6.0-5.54","2723468","co38353","norming","","","","","","",""
"1987.375","","","post_reveal_questions","survey-likert","390","1286577","0.0-6.0-6.54","2723468","co38353","norming","","","{""aha"":6}","[0]","../img/tt/063tt.jpg","",""
"null","<div style=""font-size:60px;""> </div>","null","fixation","html-keyboard-response","391","1286778","0.0-6.0-0.55","2723468","co38353","norming","","","","","","",""
"null","../img/tt/105tt.jpg","null","mooney1","image-keyboard-response","392","1289780","0.0-6.0-1.55","2723468","co38353","norming","","","","","","",""
"2667.9850000001024","","","post_mooney1_questions","survey-likert","393","1292449","0.0-6.0-2.55","2723468","co38353","norming","","","{""curiosity"":1,""confidence"":3}","[0,1]","../img/tt/105tt.jpg","",""
"2478.214999999851","","","recognition","survey-text","394","1294929","0.0-6.0-3.55","2723468","co38353","norming","","","{""guess"":""boom""}","","../img/tt/105tt.jpg","",""
"null","../img/gs/105gs.jpg","null","reveal","image-keyboard-response","395","1296930","0.0-6.0-4.55","2723468","co38353","norming","","","","","","",""
"null","../img/tt/105tt.jpg","null","mooney2","image-keyboard-response","396","1298933","0.0-6.0-5.55","2723468","co38353","norming","","","","","","",""
"2036.2749999999069","","","post_reveal_questions","survey-likert","397","1300970","0.0-6.0-6.55","2723468","co38353","norming","","","{""aha"":0}","[0]","../img/tt/105tt.jpg","",""
"null","<div style=""font-size:60px;""> </div>","null","fixation","html-keyboard-response","398","1301172","0.0-6.0-0.56","2723468","co38353","norming","","","","","","",""
"null","../img/tt/1189tt.jpg","null","mooney1","image-keyboard-response","399","1304173","0.0-6.0-1.56","2723468","co38353","norming","","","","","","",""
"3579.820000000298","","","post_mooney1_questions","survey-likert","400","1307754","0.0-6.0-2.56","2723468","co38353","norming","","","{""curiosity"":1,""confidence"":0}","[0,1]","../img/tt/1189tt.jpg","",""
"5366.160000000149","","","recognition","survey-text","401","1313122","0.0-6.0-3.56","2723468","co38353","norming","","","{""guess"":""vissen""}","","../img/tt/1189tt.jpg","",""
"null","../img/gs/1189gs.jpg","null","reveal","image-keyboard-response","402","1315125","0.0-6.0-4.56","2723468","co38353","norming","","","","","","",""
"null","../img/tt/1189tt.jpg","null","mooney2","image-keyboard-response","403","1317126","0.0-6.0-5.56","2723468","co38353","norming","","","","","","",""
"1746.8200000000652","","","post_reveal_questions","survey-likert","404","1318874","0.0-6.0-6.56","2723468","co38353","norming","","","{""aha"":0}","[0]","../img/tt/1189tt.jpg","",""
"null","<div style=""font-size:60px;""> </div>","null","fixation","html-keyboard-response","405","1319076","0.0-6.0-0.57","2723468","co38353","norming","","","","","","",""
"null","../img/tt/1251tt.jpg","null","mooney1","image-keyboard-response","406","1322078","0.0-6.0-1.57","2723468","co38353","norming","","","","","","",""
"3067.070000000065","","","post_mooney1_questions","survey-likert","407","1325146","0.0-6.0-2.57","2723468","co38353","norming","","","{""curiosity"":0,""confidence"":0}","[0,1]","../img/tt/1251tt.jpg","",""
"709.9949999998789","","","recognition","survey-text","408","1325858","0.0-6.0-3.57","2723468","co38353","norming","","","{""guess"":""""}","","../img/tt/1251tt.jpg","",""
"null","../img/gs/1251gs.jpg","null","reveal","image-keyboard-response","409","1327860","0.0-6.0-4.57","2723468","co38353","norming","","","","","","",""
"null","../img/tt/1251tt.jpg","null","mooney2","image-keyboard-response","410","1329862","0.0-6.0-5.57","2723468","co38353","norming","","","","","","",""
"2571.6350000000093","","","post_reveal_questions","survey-likert","411","1332434","0.0-6.0-6.57","2723468","co38353","norming","","","{""aha"":0}","[0]","../img/tt/1251tt.jpg","",""
"null","<div style=""font-size:60px;""> </div>","null","fixation","html-keyboard-response","412","1332635","0.0-6.0-0.58","2723468","co38353","norming","","","","","","",""
"null","../img/tt/1226tt.jpg","null","mooney1","image-keyboard-response","413","1335637","0.0-6.0-1.58","2723468","co38353","norming","","","","","","",""
"4988.699999999953","","","post_mooney1_questions","survey-likert","414","1340626","0.0-6.0-2.58","2723468","co38353","norming","","","{""curiosity"":1,""confidence"":2}","[0,1]","../img/tt/1226tt.jpg","",""
"3878.070000000298","","","recognition","survey-text","415","1344506","0.0-6.0-3.58","2723468","co38353","norming","","","{""guess"":""zwemster""}","","../img/tt/1226tt.jpg","",""
"null","../img/gs/1226gs.jpg","null","reveal","image-keyboard-response","416","1346509","0.0-6.0-4.58","2723468","co38353","norming","","","","","","",""
"null","../img/tt/1226tt.jpg","null","mooney2","image-keyboard-response","417","1348509","0.0-6.0-5.58","2723468","co38353","norming","","","","","","",""
"1947.910000000149","","","post_reveal_questions","survey-likert","418","1350458","0.0-6.0-6.58","2723468","co38353","norming","","","{""aha"":0}","[0]","../img/tt/1226tt.jpg","",""
"null","<div style=""font-size:60px;""> </div>","null","fixation","html-keyboard-response","419","1350660","0.0-6.0-0.59","2723468","co38353","norming","","","","","","",""
"null","../img/tt/1190tt.jpg","null","mooney1","image-keyboard-response","420","1353661","0.0-6.0-1.59","2723468","co38353","norming","","","","","","",""
"3468.340000000084","","","post_mooney1_questions","survey-likert","421","1357130","0.0-6.0-2.59","2723468","co38353","norming","","","{""curiosity"":1,""confidence"":0}","[0,1]","../img/tt/1190tt.jpg","",""
"2638.160000000149","","","recognition","survey-text","422","1359770","0.0-6.0-3.59","2723468","co38353","norming","","","{""guess"":""beer""}","","../img/tt/1190tt.jpg","",""
"null","../img/gs/1190gs.jpg","null","reveal","image-keyboard-response","423","1361773","0.0-6.0-4.59","2723468","co38353","norming","","","","","","",""
"null","../img/tt/1190tt.jpg","null","mooney2","image-keyboard-response","424","1363774","0.0-6.0-5.59","2723468","co38353","norming","","","","","","",""
"1635.505000000121","","","post_reveal_questions","survey-likert","425","1365410","0.0-6.0-6.59","2723468","co38353","norming","","","{""aha"":0}","[0]","../img/tt/1190tt.jpg","",""
"null","<div style=""font-size:60px;""> </div>","null","fixation","html-keyboard-response","426","1365612","0.0-6.0-0.60","2723468","co38353","norming","","","","","","",""
"null","../img/tt/1202tt.jpg","null","mooney1","image-keyboard-response","427","1368614","0.0-6.0-1.60","2723468","co38353","norming","","","","","","",""
"2723.0200000002515","","","post_mooney1_questions","survey-likert","428","1371338","0.0-6.0-2.60","2723468","co38353","norming","","","{""curiosity"":0,""confidence"":0}","[0,1]","../img/tt/1202tt.jpg","",""
"837.934999999823","","","recognition","survey-text","429","1372178","0.0-6.0-3.60","2723468","co38353","norming","","","{""guess"":""""}","","../img/tt/1202tt.jpg","",""
"null","../img/gs/1202gs.jpg","null","reveal","image-keyboard-response","430","1374181","0.0-6.0-4.60","2723468","co38353","norming","","","","","","",""
"null","../img/tt/1202tt.jpg","null","mooney2","image-keyboard-response","431","1376181","0.0-6.0-5.60","2723468","co38353","norming","","","","","","",""
"1371.9899999999907","","","post_reveal_questions","survey-likert","432","1377554","0.0-6.0-6.60","2723468","co38353","norming","","","{""aha"":0}","[0]","../img/tt/1202tt.jpg","",""
"null","<div style=""font-size:60px;""> </div>","null","fixation","html-keyboard-response","433","1377756","0.0-6.0-0.61","2723468","co38353","norming","","","","","","",""
"null","../img/tt/126tt.jpg","null","mooney1","image-keyboard-response","434","1380757","0.0-6.0-1.61","2723468","co38353","norming","","","","","","",""
"4787.679999999935","","","post_mooney1_questions","survey-likert","435","1385546","0.0-6.0-2.61","2723468","co38353","norming","","","{""curiosity"":0,""confidence"":0}","[0,1]","../img/tt/126tt.jpg","",""
"4038.2549999998882","","","recognition","survey-text","436","1389586","0.0-6.0-3.61","2723468","co38353","norming","","","{""guess"":""vis""}","","../img/tt/126tt.jpg","",""
"null","../img/gs/126gs.jpg","null","reveal","image-keyboard-response","437","1391587","0.0-6.0-4.61","2723468","co38353","norming","","","","","","",""
"null","../img/tt/126tt.jpg","null","mooney2","image-keyboard-response","438","1393588","0.0-6.0-5.61","2723468","co38353","norming","","","","","","",""
"2252.894999999786","","","post_reveal_questions","survey-likert","439","1395842","0.0-6.0-6.61","2723468","co38353","norming","","","{""aha"":0}","[0]","../img/tt/126tt.jpg","",""
"null","<div style=""font-size:60px;""> </div>","null","fixation","html-keyboard-response","440","1396045","0.0-6.0-0.62","2723468","co38353","norming","","","","","","",""
"null","../img/tt/1200tt.jpg","null","mooney1","image-keyboard-response","441","1399047","0.0-6.0-1.62","2723468","co38353","norming","","","","","","",""
"3762.2050000000745","","","post_mooney1_questions","survey-likert","442","1402810","0.0-6.0-2.62","2723468","co38353","norming","","","{""curiosity"":0,""confidence"":0}","[0,1]","../img/tt/1200tt.jpg","",""
"685.8300000000745","","","recognition","survey-text","443","1403498","0.0-6.0-3.62","2723468","co38353","norming","","","{""guess"":""""}","","../img/tt/1200tt.jpg","",""
"null","../img/gs/1200gs.jpg","null","reveal","image-keyboard-response","444","1405501","0.0-6.0-4.62","2723468","co38353","norming","","","","","","",""
"null","../img/tt/1200tt.jpg","null","mooney2","image-keyboard-response","445","1407502","0.0-6.0-5.62","2723468","co38353","norming","","","","","","",""
"1738.9999999997672","","","post_reveal_questions","survey-likert","446","1409242","0.0-6.0-6.62","2723468","co38353","norming","","","{""aha"":0}","[0]","../img/tt/1200tt.jpg","",""
"null","<div style=""font-size:60px;""> </div>","null","fixation","html-keyboard-response","447","1409443","0.0-6.0-0.63","2723468","co38353","norming","","","","","","",""
"null","../img/tt/1127tt.jpg","null","mooney1","image-keyboard-response","448","1412444","0.0-6.0-1.63","2723468","co38353","norming","","","","","","",""
"3660.935000000056","","","post_mooney1_questions","survey-likert","449","1416106","0.0-6.0-2.63","2723468","co38353","norming","","","{""curiosity"":0,""confidence"":0}","[0,1]","../img/tt/1127tt.jpg","",""
"790","","","recognition","survey-text","450","1416898","0.0-6.0-3.63","2723468","co38353","norming","","","{""guess"":""""}","","../img/tt/1127tt.jpg","",""
"null","../img/gs/1127gs.jpg","null","reveal","image-keyboard-response","451","1418901","0.0-6.0-4.63","2723468","co38353","norming","","","","","","",""
"null","../img/tt/1127tt.jpg","null","mooney2","image-keyboard-response","452","1420902","0.0-6.0-5.63","2723468","co38353","norming","","","","","","",""
"3779.5449999996927","","","post_reveal_questions","survey-likert","453","1424682","0.0-6.0-6.63","2723468","co38353","norming","","","{""aha"":0}","[0]","../img/tt/1127tt.jpg","",""
"null","<div style=""font-size:60px;""> </div>","null","fixation","html-keyboard-response","454","1424884","0.0-6.0-0.64","2723468","co38353","norming","","","","","","",""
"null","../img/tt/060tt.jpg","null","mooney1","image-keyboard-response","455","1427887","0.0-6.0-1.64","2723468","co38353","norming","","","","","","",""
"4506.500000000233","","","post_mooney1_questions","survey-likert","456","1432394","0.0-6.0-2.64","2723468","co38353","norming","","","{""curiosity"":0,""confidence"":1}","[0,1]","../img/tt/060tt.jpg","",""
"2157.939999999944","","","recognition","survey-text","457","1434554","0.0-6.0-3.64","2723468","co38353","norming","","","{""guess"":""pan""}","","../img/tt/060tt.jpg","",""
"null","../img/gs/060gs.jpg","null","reveal","image-keyboard-response","458","1436556","0.0-6.0-4.64","2723468","co38353","norming","","","","","","",""
"null","../img/tt/060tt.jpg","null","mooney2","image-keyboard-response","459","1438558","0.0-6.0-5.64","2723468","co38353","norming","","","","","","",""
"1619.2549999998882","","","post_reveal_questions","survey-likert","460","1440178","0.0-6.0-6.64","2723468","co38353","norming","","","{""aha"":1}","[0]","../img/tt/060tt.jpg","",""
"null","<div style=""font-size:60px;""> </div>","null","fixation","html-keyboard-response","461","1440380","0.0-6.0-0.65","2723468","co38353","norming","","","","","","",""
"null","../img/tt/412tt.jpg","null","mooney1","image-keyboard-response","462","1443383","0.0-6.0-1.65","2723468","co38353","norming","","","","","","",""
"3074.980000000214","","","post_mooney1_questions","survey-likert","463","1446459","0.0-6.0-2.65","2723468","co38353","norming","","","{""curiosity"":0,""confidence"":0}","[0,1]","../img/tt/412tt.jpg","",""
"1726.0999999998603","","","recognition","survey-text","464","1448186","0.0-6.0-3.65","2723468","co38353","norming","","","{""guess"":""""}","","../img/tt/412tt.jpg","",""
"null","../img/gs/412gs.jpg","null","reveal","image-keyboard-response","465","1450189","0.0-6.0-4.65","2723468","co38353","norming","","","","","","",""
"null","../img/tt/412tt.jpg","null","mooney2","image-keyboard-response","466","1452191","0.0-6.0-5.65","2723468","co38353","norming","","","","","","",""
"1881.0600000002887","","","post_reveal_questions","survey-likert","467","1454074","0.0-6.0-6.65","2723468","co38353","norming","","","{""aha"":0}","[0]","../img/tt/412tt.jpg","",""
"null","<div style=""font-size:60px;""> </div>","null","fixation","html-keyboard-response","468","1454276","0.0-6.0-0.66","2723468","co38353","norming","","","","","","",""
"null","../img/tt/1276tt.jpg","null","mooney1","image-keyboard-response","469","1457278","0.0-6.0-1.66","2723468","co38353","norming","","","","","","",""
"2819.2750000001397","","","post_mooney1_questions","survey-likert","470","1460099","0.0-6.0-2.66","2723468","co38353","norming","","","{""curiosity"":0,""confidence"":0}","[0,1]","../img/tt/1276tt.jpg","",""
"758.089999999851","","","recognition","survey-text","471","1460858","0.0-6.0-3.66","2723468","co38353","norming","","","{""guess"":""""}","","../img/tt/1276tt.jpg","",""
"null","../img/gs/1276gs.jpg","null","reveal","image-keyboard-response","472","1462860","0.0-6.0-4.66","2723468","co38353","norming","","","","","","",""
"null","../img/tt/1276tt.jpg","null","mooney2","image-keyboard-response","473","1464863","0.0-6.0-5.66","2723468","co38353","norming","","","","","","",""
"2138.5499999998137","","","post_reveal_questions","survey-likert","474","1467002","0.0-6.0-6.66","2723468","co38353","norming","","","{""aha"":0}","[0]","../img/tt/1276tt.jpg","",""
"null","<div style=""font-size:60px;""> </div>","null","fixation","html-keyboard-response","475","1467204","0.0-6.0-0.67","2723468","co38353","norming","","","","","","",""
"null","../img/tt/094tt.jpg","null","mooney1","image-keyboard-response","476","1470207","0.0-6.0-1.67","2723468","co38353","norming","","","","","","",""
"4234.760000000009","","","post_mooney1_questions","survey-likert","477","1474443","0.0-6.0-2.67","2723468","co38353","norming","","","{""curiosity"":3,""confidence"":5}","[0,1]","../img/tt/094tt.jpg","",""
"2669.9200000001583","","","recognition","survey-text","478","1477114","0.0-6.0-3.67","2723468","co38353","norming","","","{""guess"":""husky""}","","../img/tt/094tt.jpg","",""
"null","../img/gs/094gs.jpg","null","reveal","image-keyboard-response","479","1479117","0.0-6.0-4.67","2723468","co38353","norming","","","","","","",""
"null","../img/tt/094tt.jpg","null","mooney2","image-keyboard-response","480","1481119","0.0-6.0-5.67","2723468","co38353","norming","","","","","","",""
"1858.2700000000186","","","post_reveal_questions","survey-likert","481","1482978","0.0-6.0-6.67","2723468","co38353","norming","","","{""aha"":6}","[0]","../img/tt/094tt.jpg","",""
"null","<div style=""font-size:60px;""> </div>","null","fixation","html-keyboard-response","482","1483181","0.0-6.0-0.68","2723468","co38353","norming","","","","","","",""
"null","../img/tt/1242tt.jpg","null","mooney1","image-keyboard-response","483","1486182","0.0-6.0-1.68","2723468","co38353","norming","","","","","","",""
"2818.6949999998324","","","post_mooney1_questions","survey-likert","484","1489003","0.0-6.0-2.68","2723468","co38353","norming","","","{""curiosity"":5,""confidence"":5}","[0,1]","../img/tt/1242tt.jpg","",""
"2445.590000000084","","","recognition","survey-text","485","1491450","0.0-6.0-3.68","2723468","co38353","norming","","","{""guess"":""wolf""}","","../img/tt/1242tt.jpg","",""
"null","../img/gs/1242gs.jpg","null","reveal","image-keyboard-response","486","1493452","0.0-6.0-4.68","2723468","co38353","norming","","","","","","",""
"null","../img/tt/1242tt.jpg","null","mooney2","image-keyboard-response","487","1495454","0.0-6.0-5.68","2723468","co38353","norming","","","","","","",""
"3411.9150000000373","","","post_reveal_questions","survey-likert","488","1498867","0.0-6.0-6.68","2723468","co38353","norming","","","{""aha"":6}","[0]","../img/tt/1242tt.jpg","",""
"null","<div style=""font-size:60px;""> </div>","null","fixation","html-keyboard-response","489","1499068","0.0-6.0-0.69","2723468","co38353","norming","","","","","","",""
"null","../img/tt/496tt.jpg","null","mooney1","image-keyboard-response","490","1502070","0.0-6.0-1.69","2723468","co38353","norming","","","","","","",""
"5667.839999999851","","","post_mooney1_questions","survey-likert","491","1507739","0.0-6.0-2.69","2723468","co38353","norming","","","{""curiosity"":4,""confidence"":1}","[0,1]","../img/tt/496tt.jpg","",""
"3509.8899999998976","","","recognition","survey-text","492","1511251","0.0-6.0-3.69","2723468","co38353","norming","","","{""guess"":""varken""}","","../img/tt/496tt.jpg","",""
"null","../img/gs/496gs.jpg","null","reveal","image-keyboard-response","493","1513253","0.0-6.0-4.69","2723468","co38353","norming","","","","","","",""
"null","../img/tt/496tt.jpg","null","mooney2","image-keyboard-response","494","1515255","0.0-6.0-5.69","2723468","co38353","norming","","","","","","",""
"3282.2350000001024","","","post_reveal_questions","survey-likert","495","1518539","0.0-6.0-6.69","2723468","co38353","norming","","","{""aha"":1}","[0]","../img/tt/496tt.jpg","",""
"null","<div style=""font-size:60px;""> </div>","null","fixation","html-keyboard-response","496","1518740","0.0-6.0-0.70","2723468","co38353","norming","","","","","","",""
"null","../img/tt/438tt.jpg","null","mooney1","image-keyboard-response","497","1521743","0.0-6.0-1.70","2723468","co38353","norming","","","","","","",""
"3090.7750000001397","","","post_mooney1_questions","survey-likert","498","1524835","0.0-6.0-2.70","2723468","co38353","norming","","","{""curiosity"":0,""confidence"":0}","[0,1]","../img/tt/438tt.jpg","",""
"790.2199999997392","","","recognition","survey-text","499","1525627","0.0-6.0-3.70","2723468","co38353","norming","","","{""guess"":""""}","","../img/tt/438tt.jpg","",""
"null","../img/gs/438gs.jpg","null","reveal","image-keyboard-response","500","1527628","0.0-6.0-4.70","2723468","co38353","norming","","","","","","",""
"null","../img/tt/438tt.jpg","null","mooney2","image-keyboard-response","501","1529629","0.0-6.0-5.70","2723468","co38353","norming","","","","","","",""
"1547.79000000027","","","post_reveal_questions","survey-likert","502","1531179","0.0-6.0-6.70","2723468","co38353","norming","","","{""aha"":0}","[0]","../img/tt/438tt.jpg","",""
"null","<div style=""font-size:60px;""> </div>","null","fixation","html-keyboard-response","503","1531381","0.0-6.0-0.71","2723468","co38353","norming","","","","","","",""
"null","../img/tt/1148tt.jpg","null","mooney1","image-keyboard-response","504","1534384","0.0-6.0-1.71","2723468","co38353","norming","","","","","","",""
"4497.374999999767","","","post_mooney1_questions","survey-likert","505","1538883","0.0-6.0-2.71","2723468","co38353","norming","","","{""curiosity"":0,""confidence"":2}","[0,1]","../img/tt/1148tt.jpg","",""
"2637.935000000056","","","recognition","survey-text","506","1541523","0.0-6.0-3.71","2723468","co38353","norming","","","{""guess"":""cano""}","","../img/tt/1148tt.jpg","",""
"null","../img/gs/1148gs.jpg","null","reveal","image-keyboard-response","507","1543525","0.0-6.0-4.71","2723468","co38353","norming","","","","","","",""
"null","../img/tt/1148tt.jpg","null","mooney2","image-keyboard-response","508","1545527","0.0-6.0-5.71","2723468","co38353","norming","","","","","","",""
"2800.8600000001024","","","post_reveal_questions","survey-likert","509","1548331","0.0-6.0-6.71","2723468","co38353","norming","","","{""aha"":0}","[0]","../img/tt/1148tt.jpg","",""
"null","<div style=""font-size:60px;""> </div>","null","fixation","html-keyboard-response","510","1548532","0.0-6.0-0.72","2723468","co38353","norming","","","","","","",""
"null","../img/tt/1366tt.jpg","null","mooney1","image-keyboard-response","511","1551535","0.0-6.0-1.72","2723468","co38353","norming","","","","","","",""
"3024.2999999998137","","","post_mooney1_questions","survey-likert","512","1554563","0.0-6.0-2.72","2723468","co38353","norming","","","{""curiosity"":0,""confidence"":0}","[0,1]","../img/tt/1366tt.jpg","",""
"1133.8100000000559","","","recognition","survey-text","513","1555699","0.0-6.0-3.72","2723468","co38353","norming","","","{""guess"":""""}","","../img/tt/1366tt.jpg","",""
"null","../img/gs/1366gs.jpg","null","reveal","image-keyboard-response","514","1557701","0.0-6.0-4.72","2723468","co38353","norming","","","","","","",""
"null","../img/tt/1366tt.jpg","null","mooney2","image-keyboard-response","515","1559703","0.0-6.0-5.72","2723468","co38353","norming","","","","","","",""
"1907.2049999998417","","","post_reveal_questions","survey-likert","516","1561611","0.0-6.0-6.72","2723468","co38353","norming","","","{""aha"":0}","[0]","../img/tt/1366tt.jpg","",""
"null","<div style=""font-size:60px;""> </div>","null","fixation","html-keyboard-response","517","1561813","0.0-6.0-0.73","2723468","co38353","norming","","","","","","",""
"null","../img/tt/1061tt.jpg","null","mooney1","image-keyboard-response","518","1564815","0.0-6.0-1.73","2723468","co38353","norming","","","","","","",""
"3496.2099999999627","","","post_mooney1_questions","survey-likert","519","1568315","0.0-6.0-2.73","2723468","co38353","norming","","","{""curiosity"":0,""confidence"":1}","[0,1]","../img/tt/1061tt.jpg","",""
"2262.0749999999534","","","recognition","survey-text","520","1570579","0.0-6.0-3.73","2723468","co38353","norming","","","{""guess"":""golf""}","","../img/tt/1061tt.jpg","",""
"null","../img/gs/1061gs.jpg","null","reveal","image-keyboard-response","521","1572580","0.0-6.0-4.73","2723468","co38353","norming","","","","","","",""
"null","../img/tt/1061tt.jpg","null","mooney2","image-keyboard-response","522","1574582","0.0-6.0-5.73","2723468","co38353","norming","","","","","","",""
"2273.6999999999534","","","post_reveal_questions","survey-likert","523","1576859","0.0-6.0-6.73","2723468","co38353","norming","","","{""aha"":0}","[0]","../img/tt/1061tt.jpg","",""
"null","<div style=""font-size:60px;""> </div>","null","fixation","html-keyboard-response","524","1577061","0.0-6.0-0.74","2723468","co38353","norming","","","","","","",""
"null","../img/tt/1228tt.jpg","null","mooney1","image-keyboard-response","525","1580064","0.0-6.0-1.74","2723468","co38353","norming","","","","","","",""
"3127.570000000065","","","post_mooney1_questions","survey-likert","526","1583195","0.0-6.0-2.74","2723468","co38353","norming","","","{""curiosity"":0,""confidence"":0}","[0,1]","../img/tt/1228tt.jpg","",""
"3126.0800000000745","","","recognition","survey-text","527","1586323","0.0-6.0-3.74","2723468","co38353","norming","","","{""guess"":""waterpolo""}","","../img/tt/1228tt.jpg","",""
"null","../img/gs/1228gs.jpg","null","reveal","image-keyboard-response","528","1588324","0.0-6.0-4.74","2723468","co38353","norming","","","","","","",""
"null","../img/tt/1228tt.jpg","null","mooney2","image-keyboard-response","529","1590325","0.0-6.0-5.74","2723468","co38353","norming","","","","","","",""
"3402.9250000000466","","","post_reveal_questions","survey-likert","530","1593731","0.0-6.0-6.74","2723468","co38353","norming","","","{""aha"":0}","[0]","../img/tt/1228tt.jpg","",""
"null","<div style=""font-size:60px;""> </div>","null","fixation","html-keyboard-response","531","1593932","0.0-6.0-0.75","2723468","co38353","norming","","","","","","",""
"null","../img/tt/1254tt.jpg","null","mooney1","image-keyboard-response","532","1596936","0.0-6.0-1.75","2723468","co38353","norming","","","","","","",""
"3264.0100000000093","","","post_mooney1_questions","survey-likert","533","1600203","0.0-6.0-2.75","2723468","co38353","norming","","","{""curiosity"":0,""confidence"":0}","[0,1]","../img/tt/1254tt.jpg","",""
"965.9249999998137","","","recognition","survey-text","534","1601171","0.0-6.0-3.75","2723468","co38353","norming","","","{""guess"":""""}","","../img/tt/1254tt.jpg","",""
"null","../img/gs/1254gs.jpg","null","reveal","image-keyboard-response","535","1603172","0.0-6.0-4.75","2723468","co38353","norming","","","","","","",""
"null","../img/tt/1254tt.jpg","null","mooney2","image-keyboard-response","536","1605176","0.0-6.0-5.75","2723468","co38353","norming","","","","","","",""
"2248.374999999767","","","post_reveal_questions","survey-likert","537","1607427","0.0-6.0-6.75","2723468","co38353","norming","","","{""aha"":0}","[0]","../img/tt/1254tt.jpg","",""
"null","<div style=""font-size:60px;""> </div>","null","fixation","html-keyboard-response","538","1607628","0.0-6.0-0.76","2723468","co38353","norming","","","","","","",""
"null","../img/tt/049tt.jpg","null","mooney1","image-keyboard-response","539","1610631","0.0-6.0-1.76","2723468","co38353","norming","","","","","","",""
"3280.6800000001676","","","post_mooney1_questions","survey-likert","540","1613915","0.0-6.0-2.76","2723468","co38353","norming","","","{""curiosity"":0,""confidence"":1}","[0,1]","../img/tt/049tt.jpg","",""
"5901.420000000158","","","recognition","survey-text","541","1619819","0.0-6.0-3.76","2723468","co38353","norming","","","{""guess"":""zeehond""}","","../img/tt/049tt.jpg","",""
"null","../img/gs/049gs.jpg","null","reveal","image-keyboard-response","542","1621820","0.0-6.0-4.76","2723468","co38353","norming","","","","","","",""
"null","../img/tt/049tt.jpg","null","mooney2","image-keyboard-response","543","1623821","0.0-6.0-5.76","2723468","co38353","norming","","","","","","",""
"1676.9249999998137","","","post_reveal_questions","survey-likert","544","1625499","0.0-6.0-6.76","2723468","co38353","norming","","","{""aha"":0}","[0]","../img/tt/049tt.jpg","",""
"null","<div style=""font-size:60px;""> </div>","null","fixation","html-keyboard-response","545","1625701","0.0-6.0-0.77","2723468","co38353","norming","","","","","","",""
"null","../img/tt/279tt.jpg","null","mooney1","image-keyboard-response","546","1628703","0.0-6.0-1.77","2723468","co38353","norming","","","","","","",""
"2816.619999999879","","","post_mooney1_questions","survey-likert","547","1631523","0.0-6.0-2.77","2723468","co38353","norming","","","{""curiosity"":0,""confidence"":0}","[0,1]","../img/tt/279tt.jpg","",""
"790.0749999999534","","","recognition","survey-text","548","1632315","0.0-6.0-3.77","2723468","co38353","norming","","","{""guess"":""""}","","../img/tt/279tt.jpg","",""
"null","../img/gs/279gs.jpg","null","reveal","image-keyboard-response","549","1634316","0.0-6.0-4.77","2723468","co38353","norming","","","","","","",""
"null","../img/tt/279tt.jpg","null","mooney2","image-keyboard-response","550","1636318","0.0-6.0-5.77","2723468","co38353","norming","","","","","","",""
"1850.619999999879","","","post_reveal_questions","survey-likert","551","1638171","0.0-6.0-6.77","2723468","co38353","norming","","","{""aha"":0}","[0]","../img/tt/279tt.jpg","",""
"null","<div style=""font-size:60px;""> </div>","null","fixation","html-keyboard-response","552","1638372","0.0-6.0-0.78","2723468","co38353","norming","","","","","","",""
