"rt","stimulus","key_press","test_part","trial_type","trial_index","time_elapsed","internal_node_id","totalTime","subject","experiment_name","button_pressed","success","responses","question_order","currentStim","old","correct"
"7538.710000007995","Welcome to the experiment. This is an online experiment so please don't close the tab/window until we say goodbye.  Press any key to begin.","32","instructions","html-keyboard-response","0","7562","0.0-0.0","3307492","co38272","norming","","","","","","",""
"39358.50499999651","<div style='word-wrap: break-word; width: 900px'><h3>Please consider this information carefully before deciding whether to participate in this research</h3><ul style='text-align: left; font-size: .8em;'><li><b>Purpose of the research</b>: To examine how people process images.</li><li><b>What you will do in this research</b>:  Stimuli (images) will be presented on the computer and you will be asked different questions about them.</li><li><b>Time required</b>: Participation will take between 45 and 60 minutes to complete.</li><li><b>Risks</b>:  There are no anticipated risks associated with participating in this study. The effects of participating should be comparable to those you would experience from viewing a computer monitor for 30 minutes and using a mouse or keyboard.</li><li><b>Benefits</b>:  This study provides no benefits to you individually except for the credit. The study provides important information about the nature of perception and learning.</li><li><b>Confidentiality</b>:  Your participation in this study will remain confidential. No personally identifiable information will be associated with your data. Your de-identified data may be shared with other researchers and used in future projects.</li><li><b>Participation and withdrawal</b>:  Your participation in this study is completely voluntary and you may refuse to participate or you may choose to withdraw at any time without penalty.</li><li><b>How to contact the researchers</b>: If you have questions or concerns about your participation or payment, or want to request a summary of research findings, please contact Sander Van de Cruys (KU Leuven), at sander.vandecruys@kuleuven.be.</li></ul><p>The nature and purpose of this research have been sufficiently explained and I agree to participate in this study.  I understand that I am free to withdraw at any time without incurring any penalty.</p><p>Please consent by clicking the button below to continue. Otherwise, please exit the study at this time.</p></div>","","instructions","html-button-response","1","46909","0.0-1.0","3307492","co38272","norming","0","","","","","",""
"","","","instructions","fullscreen","2","53287","0.0-2.0","3307492","co38272","norming","","true","","","","",""
"49224.77999998955","","","sona","survey-html-form","3","102515","0.0-3.0","3307492","co38272","norming","","","[{""name"":""sonaid"",""value"":""38272""},{""name"":""debrief"",""value"":""no""},{""name"":""datajoin"",""value"":""yes""}]","","","",""
"109600.93000000052","<div style='word-wrap: break-word; width: 900px'><h3>Instructions</h3><p>This experiment will have 3 parts. In the first part you will see a series of distorted images like the one below on the left. As you can see in the righthand image, the distorted images are derived from actual photographs. In what follows, you will <strong>briefly</strong> be presented with <strong>only</strong> the distorted image.</p> <div style='float: left; margin-right: 20px;'><img src='../img/018tt.jpg' height='250' width='250'></img></div><div style='float: right; margin-left: 20px;'><img src='../img/018gs.jpg' height='250' width='250'></img></div><p>Subsequently you will be asked a few questions about the image: One question on how <strong>curious</strong> you are about the solution and one on how <strong>confident</strong> you are that you know the solution.</p>Next, we ask you to make a guess on what is in the image. Note that it is OK to name just the <strong>basic level category</strong>. For example when you see a parrot in the image, 'parrot' will obviously be a correct answer but also correct is 'bird'. However, 'animal' will <strong>not</strong> be counted as a correct response. For the example above, 'rose' would be correct or 'flower', but not 'plant'. When soccer players are depicted, 'soccer', 'football', 'soccer players' will be correct, but not 'humans', 'outdoors', or 'sports'. You do not need to describe the image in full, just name the main object in it <strong>in one or two words</strong>. All images depict objects from one of the following broad level categories: animals, inanimate objects, plants, sports, vehicles, and food. Recognizing means knowing <strong>more</strong> than these broad labels for a given image. But we always encourage you to <strong>make a guess</strong> if you can. Note that you are allowed to use <strong>Dutch and English</strong> in your answers, whatever comes easiest for you.</p><p>Press any key to continue.</p></div>","32","instructions","html-keyboard-response","4","212129","0.0-4.0","3307492","co38272","norming","","","","","","",""
"26052.204999999958","<div style='word-wrap: break-word; width: 900px'><h3>Instructions</h3> <p>Next, the solution image will be revealed to you and you'll be asked to indicate how strong your <strong>aha-experience</strong> was after seeing the solution. This describes the positive feeling of the 'click' you sometimes experience, when the pieces of the 'puzzle' fall together and you suddenly have 'insight' in the image.</p><img src='aha.jpg' height='188' width='250'></img><p>Note that there are no right or wrong answers. We are interested in what <strong>you</strong> see in the image and how <strong>you</strong> feel about it.</p><p>Press any key to start the experiment.</p></div>","32","instructions","html-keyboard-response","5","238183","0.0-5.0","3307492","co38272","norming","","","","","","",""
"null","<div style=""font-size:60px;""> </div>","null","fixation","html-keyboard-response","6","238398","0.0-6.0-0.0","3307492","co38272","norming","","","","","","",""
"null","../img/tt/1004tt.jpg","null","mooney1","image-keyboard-response","7","241413","0.0-6.0-1.0","3307492","co38272","norming","","","","","","",""
"16290.764999997918","","","post_mooney1_questions","survey-likert","8","257709","0.0-6.0-2.0","3307492","co38272","norming","","","{""curiosity"":4,""confidence"":0}","[0,1]","../img/tt/1004tt.jpg","",""
"8049.354999995558","","","recognition","survey-text","9","265761","0.0-6.0-3.0","3307492","co38272","norming","","","{""guess"":""""}","","../img/tt/1004tt.jpg","",""
"null","../img/gs/1004gs.jpg","null","reveal","image-keyboard-response","10","267771","0.0-6.0-4.0","3307492","co38272","norming","","","","","","",""
"null","../img/tt/1004tt.jpg","null","mooney2","image-keyboard-response","11","269784","0.0-6.0-5.0","3307492","co38272","norming","","","","","","",""
"7529.904999988503","","","post_reveal_questions","survey-likert","12","277320","0.0-6.0-6.0","3307492","co38272","norming","","","{""aha"":1}","[0]","../img/tt/1004tt.jpg","",""
"null","<div style=""font-size:60px;""> </div>","null","fixation","html-keyboard-response","13","277532","0.0-6.0-0.1","3307492","co38272","norming","","","","","","",""
"null","../img/tt/060tt.jpg","null","mooney1","image-keyboard-response","14","280548","0.0-6.0-1.1","3307492","co38272","norming","","","","","","",""
"13320.485000003828","","","post_mooney1_questions","survey-likert","15","293871","0.0-6.0-2.1","3307492","co38272","norming","","","{""curiosity"":4,""confidence"":0}","[0,1]","../img/tt/060tt.jpg","",""
"1616.2449999974342","","","recognition","survey-text","16","295490","0.0-6.0-3.1","3307492","co38272","norming","","","{""guess"":""""}","","../img/tt/060tt.jpg","",""
"null","../img/gs/060gs.jpg","null","reveal","image-keyboard-response","17","297499","0.0-6.0-4.1","3307492","co38272","norming","","","","","","",""
"null","../img/tt/060tt.jpg","null","mooney2","image-keyboard-response","18","299512","0.0-6.0-5.1","3307492","co38272","norming","","","","","","",""
"3667.280000008759","","","post_reveal_questions","survey-likert","19","303181","0.0-6.0-6.1","3307492","co38272","norming","","","{""aha"":4}","[0]","../img/tt/060tt.jpg","",""
"null","<div style=""font-size:60px;""> </div>","null","fixation","html-keyboard-response","20","303395","0.0-6.0-0.2","3307492","co38272","norming","","","","","","",""
"null","../img/tt/007tt.jpg","null","mooney1","image-keyboard-response","21","306409","0.0-6.0-1.2","3307492","co38272","norming","","","","","","",""
"6197.060000005877","","","post_mooney1_questions","survey-likert","22","312609","0.0-6.0-2.2","3307492","co38272","norming","","","{""curiosity"":4,""confidence"":0}","[0,1]","../img/tt/007tt.jpg","",""
"4590.414999998757","","","recognition","survey-text","23","317203","0.0-6.0-3.2","3307492","co38272","norming","","","{""guess"":""""}","","../img/tt/007tt.jpg","",""
"null","../img/gs/007gs.jpg","null","reveal","image-keyboard-response","24","319213","0.0-6.0-4.2","3307492","co38272","norming","","","","","","",""
"null","../img/tt/007tt.jpg","null","mooney2","image-keyboard-response","25","321227","0.0-6.0-5.2","3307492","co38272","norming","","","","","","",""
"3117.9249999986496","","","post_reveal_questions","survey-likert","26","324348","0.0-6.0-6.2","3307492","co38272","norming","","","{""aha"":4}","[0]","../img/tt/007tt.jpg","",""
"null","<div style=""font-size:60px;""> </div>","null","fixation","html-keyboard-response","27","324560","0.0-6.0-0.3","3307492","co38272","norming","","","","","","",""
"null","../img/tt/1254tt.jpg","null","mooney1","image-keyboard-response","28","327577","0.0-6.0-1.3","3307492","co38272","norming","","","","","","",""
"7059.554999999818","","","post_mooney1_questions","survey-likert","29","334640","0.0-6.0-2.3","3307492","co38272","norming","","","{""curiosity"":4,""confidence"":2}","[0,1]","../img/tt/1254tt.jpg","",""
"4588.115000005928","","","recognition","survey-text","30","339232","0.0-6.0-3.3","3307492","co38272","norming","","","{""guess"":""konijn""}","","../img/tt/1254tt.jpg","",""
"null","../img/gs/1254gs.jpg","null","reveal","image-keyboard-response","31","341242","0.0-6.0-4.3","3307492","co38272","norming","","","","","","",""
"null","../img/tt/1254tt.jpg","null","mooney2","image-keyboard-response","32","343258","0.0-6.0-5.3","3307492","co38272","norming","","","","","","",""
"6247.119999999995","","","post_reveal_questions","survey-likert","33","349507","0.0-6.0-6.3","3307492","co38272","norming","","","{""aha"":2}","[0]","../img/tt/1254tt.jpg","",""
"null","<div style=""font-size:60px;""> </div>","null","fixation","html-keyboard-response","34","349720","0.0-6.0-0.4","3307492","co38272","norming","","","","","","",""
"null","../img/tt/552tt.jpg","null","mooney1","image-keyboard-response","35","352734","0.0-6.0-1.4","3307492","co38272","norming","","","","","","",""
"5232.120000000577","","","post_mooney1_questions","survey-likert","36","357969","0.0-6.0-2.4","3307492","co38272","norming","","","{""curiosity"":4,""confidence"":0}","[0,1]","../img/tt/552tt.jpg","",""
"1276.319999989937","","","recognition","survey-text","37","359249","0.0-6.0-3.4","3307492","co38272","norming","","","{""guess"":""""}","","../img/tt/552tt.jpg","",""
"null","../img/gs/552gs.jpg","null","reveal","image-keyboard-response","38","361254","0.0-6.0-4.4","3307492","co38272","norming","","","","","","",""
"null","../img/tt/552tt.jpg","null","mooney2","image-keyboard-response","39","363257","0.0-6.0-5.4","3307492","co38272","norming","","","","","","",""
"2640.129999999772","","","post_reveal_questions","survey-likert","40","365899","0.0-6.0-6.4","3307492","co38272","norming","","","{""aha"":5}","[0]","../img/tt/552tt.jpg","",""
"null","<div style=""font-size:60px;""> </div>","null","fixation","html-keyboard-response","41","366107","0.0-6.0-0.5","3307492","co38272","norming","","","","","","",""
"null","../img/tt/1159tt.jpg","null","mooney1","image-keyboard-response","42","369122","0.0-6.0-1.5","3307492","co38272","norming","","","","","","",""
"6328.585000010207","","","post_mooney1_questions","survey-likert","43","375454","0.0-6.0-2.5","3307492","co38272","norming","","","{""curiosity"":4,""confidence"":1}","[0,1]","../img/tt/1159tt.jpg","",""
"3907.4800000089454","","","recognition","survey-text","44","379365","0.0-6.0-3.5","3307492","co38272","norming","","","{""guess"":""trein""}","","../img/tt/1159tt.jpg","",""
"null","../img/gs/1159gs.jpg","null","reveal","image-keyboard-response","45","381376","0.0-6.0-4.5","3307492","co38272","norming","","","","","","",""
"null","../img/tt/1159tt.jpg","null","mooney2","image-keyboard-response","46","383390","0.0-6.0-5.5","3307492","co38272","norming","","","","","","",""
"3481.744999997318","","","post_reveal_questions","survey-likert","47","386875","0.0-6.0-6.5","3307492","co38272","norming","","","{""aha"":4}","[0]","../img/tt/1159tt.jpg","",""
"null","<div style=""font-size:60px;""> </div>","null","fixation","html-keyboard-response","48","387088","0.0-6.0-0.6","3307492","co38272","norming","","","","","","",""
"null","../img/tt/118tt.jpg","null","mooney1","image-keyboard-response","49","390097","0.0-6.0-1.6","3307492","co38272","norming","","","","","","",""
"5984.930000005988","","","post_mooney1_questions","survey-likert","50","396085","0.0-6.0-2.6","3307492","co38272","norming","","","{""curiosity"":4,""confidence"":0}","[0,1]","../img/tt/118tt.jpg","",""
"1308.740000007674","","","recognition","survey-text","51","397398","0.0-6.0-3.6","3307492","co38272","norming","","","{""guess"":""""}","","../img/tt/118tt.jpg","",""
"null","../img/gs/118gs.jpg","null","reveal","image-keyboard-response","52","399411","0.0-6.0-4.6","3307492","co38272","norming","","","","","","",""
"null","../img/tt/118tt.jpg","null","mooney2","image-keyboard-response","53","401424","0.0-6.0-5.6","3307492","co38272","norming","","","","","","",""
"2935.1949999982025","","","post_reveal_questions","survey-likert","54","404362","0.0-6.0-6.6","3307492","co38272","norming","","","{""aha"":5}","[0]","../img/tt/118tt.jpg","",""
"null","<div style=""font-size:60px;""> </div>","null","fixation","html-keyboard-response","55","404574","0.0-6.0-0.7","3307492","co38272","norming","","","","","","",""
"null","../img/tt/046tt.jpg","null","mooney1","image-keyboard-response","56","407591","0.0-6.0-1.7","3307492","co38272","norming","","","","","","",""
"7008.329999996931","","","post_mooney1_questions","survey-likert","57","414602","0.0-6.0-2.7","3307492","co38272","norming","","","{""curiosity"":5,""confidence"":0}","[0,1]","../img/tt/046tt.jpg","",""
"1194.5450000057463","","","recognition","survey-text","58","415801","0.0-6.0-3.7","3307492","co38272","norming","","","{""guess"":""""}","","../img/tt/046tt.jpg","",""
"null","../img/gs/046gs.jpg","null","reveal","image-keyboard-response","59","417812","0.0-6.0-4.7","3307492","co38272","norming","","","","","","",""
"null","../img/tt/046tt.jpg","null","mooney2","image-keyboard-response","60","419819","0.0-6.0-5.7","3307492","co38272","norming","","","","","","",""
"5138.9950000011595","","","post_reveal_questions","survey-likert","61","424961","0.0-6.0-6.7","3307492","co38272","norming","","","{""aha"":3}","[0]","../img/tt/046tt.jpg","",""
"null","<div style=""font-size:60px;""> </div>","null","fixation","html-keyboard-response","62","425173","0.0-6.0-0.8","3307492","co38272","norming","","","","","","",""
"null","../img/tt/001tt.jpg","null","mooney1","image-keyboard-response","63","428187","0.0-6.0-1.8","3307492","co38272","norming","","","","","","",""
"8127.145000005839","","","post_mooney1_questions","survey-likert","64","436317","0.0-6.0-2.8","3307492","co38272","norming","","","{""curiosity"":4,""confidence"":2}","[0,1]","../img/tt/001tt.jpg","",""
"4211.670000004233","","","recognition","survey-text","65","440533","0.0-6.0-3.8","3307492","co38272","norming","","","{""guess"":""geit""}","","../img/tt/001tt.jpg","",""
"null","../img/gs/001gs.jpg","null","reveal","image-keyboard-response","66","442540","0.0-6.0-4.8","3307492","co38272","norming","","","","","","",""
"null","../img/tt/001tt.jpg","null","mooney2","image-keyboard-response","67","444553","0.0-6.0-5.8","3307492","co38272","norming","","","","","","",""
"3467.1849999867845","","","post_reveal_questions","survey-likert","68","448024","0.0-6.0-6.8","3307492","co38272","norming","","","{""aha"":5}","[0]","../img/tt/001tt.jpg","",""
"null","<div style=""font-size:60px;""> </div>","null","fixation","html-keyboard-response","69","448237","0.0-6.0-0.9","3307492","co38272","norming","","","","","","",""
"null","../img/tt/380tt.jpg","null","mooney1","image-keyboard-response","70","451243","0.0-6.0-1.9","3307492","co38272","norming","","","","","","",""
"8083.869999987655","","","post_mooney1_questions","survey-likert","71","459316","0.0-6.0-2.9","3307492","co38272","norming","","","{""curiosity"":4,""confidence"":2}","[0,1]","../img/tt/380tt.jpg","",""
"4706.274999989546","","","recognition","survey-text","72","464026","0.0-6.0-3.9","3307492","co38272","norming","","","{""guess"":""hamster""}","","../img/tt/380tt.jpg","",""
"null","../img/gs/380gs.jpg","null","reveal","image-keyboard-response","73","466035","0.0-6.0-4.9","3307492","co38272","norming","","","","","","",""
"null","../img/tt/380tt.jpg","null","mooney2","image-keyboard-response","74","468052","0.0-6.0-5.9","3307492","co38272","norming","","","","","","",""
"2931.624999997439","","","post_reveal_questions","survey-likert","75","470986","0.0-6.0-6.9","3307492","co38272","norming","","","{""aha"":2}","[0]","../img/tt/380tt.jpg","",""
"null","<div style=""font-size:60px;""> </div>","null","fixation","html-keyboard-response","76","471199","0.0-6.0-0.10","3307492","co38272","norming","","","","","","",""
"null","../img/tt/1173tt.jpg","null","mooney1","image-keyboard-response","77","474215","0.0-6.0-1.10","3307492","co38272","norming","","","","","","",""
"5630.170000004","","","post_mooney1_questions","survey-likert","78","479848","0.0-6.0-2.10","3307492","co38272","norming","","","{""curiosity"":3,""confidence"":2}","[0,1]","../img/tt/1173tt.jpg","",""
"8703.789999999572","","","recognition","survey-text","79","488556","0.0-6.0-3.10","3307492","co38272","norming","","","{""guess"":""voetbalspelers""}","","../img/tt/1173tt.jpg","",""
"null","../img/gs/1173gs.jpg","null","reveal","image-keyboard-response","80","490566","0.0-6.0-4.10","3307492","co38272","norming","","","","","","",""
"null","../img/tt/1173tt.jpg","null","mooney2","image-keyboard-response","81","492576","0.0-6.0-5.10","3307492","co38272","norming","","","","","","",""
"3970.175000009476","","","post_reveal_questions","survey-likert","82","496549","0.0-6.0-6.10","3307492","co38272","norming","","","{""aha"":3}","[0]","../img/tt/1173tt.jpg","",""
"null","<div style=""font-size:60px;""> </div>","null","fixation","html-keyboard-response","83","496761","0.0-6.0-0.11","3307492","co38272","norming","","","","","","",""
"null","../img/tt/1143tt.jpg","null","mooney1","image-keyboard-response","84","499774","0.0-6.0-1.11","3307492","co38272","norming","","","","","","",""
"5386.485000009998","","","post_mooney1_questions","survey-likert","85","505162","0.0-6.0-2.11","3307492","co38272","norming","","","{""curiosity"":4,""confidence"":2}","[0,1]","../img/tt/1143tt.jpg","",""
"7499.665000010282","","","recognition","survey-text","86","512666","0.0-6.0-3.11","3307492","co38272","norming","","","{""guess"":""fitness""}","","../img/tt/1143tt.jpg","",""
"null","../img/gs/1143gs.jpg","null","reveal","image-keyboard-response","87","514674","0.0-6.0-4.11","3307492","co38272","norming","","","","","","",""
"null","../img/tt/1143tt.jpg","null","mooney2","image-keyboard-response","88","516678","0.0-6.0-5.11","3307492","co38272","norming","","","","","","",""
"4764.6050000039395","","","post_reveal_questions","survey-likert","89","521460","0.0-6.0-6.11","3307492","co38272","norming","","","{""aha"":3}","[0]","../img/tt/1143tt.jpg","",""
"null","<div style=""font-size:60px;""> </div>","null","fixation","html-keyboard-response","90","521672","0.0-6.0-0.12","3307492","co38272","norming","","","","","","",""
"null","../img/tt/1283tt.jpg","null","mooney1","image-keyboard-response","91","524685","0.0-6.0-1.12","3307492","co38272","norming","","","","","","",""
"5279.065000009723","","","post_mooney1_questions","survey-likert","92","529967","0.0-6.0-2.12","3307492","co38272","norming","","","{""curiosity"":4,""confidence"":0}","[0,1]","../img/tt/1283tt.jpg","",""
"1328.4699999931036","","","recognition","survey-text","93","531299","0.0-6.0-3.12","3307492","co38272","norming","","","{""guess"":""""}","","../img/tt/1283tt.jpg","",""
"null","../img/gs/1283gs.jpg","null","reveal","image-keyboard-response","94","533311","0.0-6.0-4.12","3307492","co38272","norming","","","","","","",""
"null","../img/tt/1283tt.jpg","null","mooney2","image-keyboard-response","95","535323","0.0-6.0-5.12","3307492","co38272","norming","","","","","","",""
"4333.264999993844","","","post_reveal_questions","survey-likert","96","539659","0.0-6.0-6.12","3307492","co38272","norming","","","{""aha"":5}","[0]","../img/tt/1283tt.jpg","",""
"null","<div style=""font-size:60px;""> </div>","null","fixation","html-keyboard-response","97","539871","0.0-6.0-0.13","3307492","co38272","norming","","","","","","",""
"null","../img/tt/1247tt.jpg","null","mooney1","image-keyboard-response","98","542887","0.0-6.0-1.13","3307492","co38272","norming","","","","","","",""
"5145.160000000033","","","post_mooney1_questions","survey-likert","99","548036","0.0-6.0-2.13","3307492","co38272","norming","","","{""curiosity"":4,""confidence"":2}","[0,1]","../img/tt/1247tt.jpg","",""
"5157.664999991539","","","recognition","survey-text","100","553197","0.0-6.0-3.13","3307492","co38272","norming","","","{""guess"":""beer""}","","../img/tt/1247tt.jpg","",""
"null","../img/gs/1247gs.jpg","null","reveal","image-keyboard-response","101","555204","0.0-6.0-4.13","3307492","co38272","norming","","","","","","",""
"null","../img/tt/1247tt.jpg","null","mooney2","image-keyboard-response","102","557207","0.0-6.0-5.13","3307492","co38272","norming","","","","","","",""
"4362.489999999525","","","post_reveal_questions","survey-likert","103","561571","0.0-6.0-6.13","3307492","co38272","norming","","","{""aha"":4}","[0]","../img/tt/1247tt.jpg","",""
"null","<div style=""font-size:60px;""> </div>","null","fixation","html-keyboard-response","104","561785","0.0-6.0-0.14","3307492","co38272","norming","","","","","","",""
"null","../img/tt/1055tt.jpg","null","mooney1","image-keyboard-response","105","564798","0.0-6.0-1.14","3307492","co38272","norming","","","","","","",""
"6997.804999991786","","","post_mooney1_questions","survey-likert","106","571799","0.0-6.0-2.14","3307492","co38272","norming","","","{""curiosity"":5,""confidence"":1}","[0,1]","../img/tt/1055tt.jpg","",""
"5422.119999988354","","","recognition","survey-text","107","577225","0.0-6.0-3.14","3307492","co38272","norming","","","{""guess"":""grot""}","","../img/tt/1055tt.jpg","",""
"null","../img/gs/1055gs.jpg","null","reveal","image-keyboard-response","108","579236","0.0-6.0-4.14","3307492","co38272","norming","","","","","","",""
"null","../img/tt/1055tt.jpg","null","mooney2","image-keyboard-response","109","581249","0.0-6.0-5.14","3307492","co38272","norming","","","","","","",""
"4134.339999989606","","","post_reveal_questions","survey-likert","110","585386","0.0-6.0-6.14","3307492","co38272","norming","","","{""aha"":5}","[0]","../img/tt/1055tt.jpg","",""
"null","<div style=""font-size:60px;""> </div>","null","fixation","html-keyboard-response","111","585597","0.0-6.0-0.15","3307492","co38272","norming","","","","","","",""
"null","../img/tt/124tt.jpg","null","mooney1","image-keyboard-response","112","588613","0.0-6.0-1.15","3307492","co38272","norming","","","","","","",""
"7994.574999989709","","","post_mooney1_questions","survey-likert","113","596611","0.0-6.0-2.15","3307492","co38272","norming","","","{""curiosity"":5,""confidence"":1}","[0,1]","../img/tt/124tt.jpg","",""
"7072.440000003553","","","recognition","survey-text","114","603687","0.0-6.0-3.15","3307492","co38272","norming","","","{""guess"":""persoon""}","","../img/tt/124tt.jpg","",""
"null","../img/gs/124gs.jpg","null","reveal","image-keyboard-response","115","605697","0.0-6.0-4.15","3307492","co38272","norming","","","","","","",""
"null","../img/tt/124tt.jpg","null","mooney2","image-keyboard-response","116","607709","0.0-6.0-5.15","3307492","co38272","norming","","","","","","",""
"6930.449999999837","","","post_reveal_questions","survey-likert","117","614643","0.0-6.0-6.15","3307492","co38272","norming","","","{""aha"":0}","[0]","../img/tt/124tt.jpg","",""
"null","<div style=""font-size:60px;""> </div>","null","fixation","html-keyboard-response","118","614855","0.0-6.0-0.16","3307492","co38272","norming","","","","","","",""
"null","../img/tt/515tt.jpg","null","mooney1","image-keyboard-response","119","617869","0.0-6.0-1.16","3307492","co38272","norming","","","","","","",""
"9880.440000008093","","","post_mooney1_questions","survey-likert","120","627753","0.0-6.0-2.16","3307492","co38272","norming","","","{""curiosity"":4,""confidence"":2}","[0,1]","../img/tt/515tt.jpg","",""
"7335.980000003474","","","recognition","survey-text","121","635093","0.0-6.0-3.16","3307492","co38272","norming","","","{""guess"":""spook""}","","../img/tt/515tt.jpg","",""
"null","../img/gs/515gs.jpg","null","reveal","image-keyboard-response","122","637103","0.0-6.0-4.16","3307492","co38272","norming","","","","","","",""
"null","../img/tt/515tt.jpg","null","mooney2","image-keyboard-response","123","639118","0.0-6.0-5.16","3307492","co38272","norming","","","","","","",""
"4447.635000004084","","","post_reveal_questions","survey-likert","124","643558","0.0-6.0-6.16","3307492","co38272","norming","","","{""aha"":4}","[0]","../img/tt/515tt.jpg","",""
"null","<div style=""font-size:60px;""> </div>","null","fixation","html-keyboard-response","125","643770","0.0-6.0-0.17","3307492","co38272","norming","","","","","","",""
"null","../img/tt/1156tt.jpg","null","mooney1","image-keyboard-response","126","646787","0.0-6.0-1.17","3307492","co38272","norming","","","","","","",""
"6409.870000003139","","","post_mooney1_questions","survey-likert","127","653201","0.0-6.0-2.17","3307492","co38272","norming","","","{""curiosity"":4,""confidence"":0}","[0,1]","../img/tt/1156tt.jpg","",""
"1342.7249999949709","","","recognition","survey-text","128","654547","0.0-6.0-3.17","3307492","co38272","norming","","","{""guess"":""""}","","../img/tt/1156tt.jpg","",""
"null","../img/gs/1156gs.jpg","null","reveal","image-keyboard-response","129","656559","0.0-6.0-4.17","3307492","co38272","norming","","","","","","",""
"null","../img/tt/1156tt.jpg","null","mooney2","image-keyboard-response","130","658572","0.0-6.0-5.17","3307492","co38272","norming","","","","","","",""
"3301.630000001751","","","post_reveal_questions","survey-likert","131","661876","0.0-6.0-6.17","3307492","co38272","norming","","","{""aha"":4}","[0]","../img/tt/1156tt.jpg","",""
"null","<div style=""font-size:60px;""> </div>","null","fixation","html-keyboard-response","132","662087","0.0-6.0-0.18","3307492","co38272","norming","","","","","","",""
"null","../img/tt/353tt.jpg","null","mooney1","image-keyboard-response","133","665103","0.0-6.0-1.18","3307492","co38272","norming","","","","","","",""
"5677.544999998645","","","post_mooney1_questions","survey-likert","134","670783","0.0-6.0-2.18","3307492","co38272","norming","","","{""curiosity"":4,""confidence"":0}","[0,1]","../img/tt/353tt.jpg","",""
"1463.3400000020629","","","recognition","survey-text","135","672249","0.0-6.0-3.18","3307492","co38272","norming","","","{""guess"":""""}","","../img/tt/353tt.jpg","",""
"null","../img/gs/353gs.jpg","null","reveal","image-keyboard-response","136","674261","0.0-6.0-4.18","3307492","co38272","norming","","","","","","",""
"null","../img/tt/353tt.jpg","null","mooney2","image-keyboard-response","137","676263","0.0-6.0-5.18","3307492","co38272","norming","","","","","","",""
"4561.520000002929","","","post_reveal_questions","survey-likert","138","680827","0.0-6.0-6.18","3307492","co38272","norming","","","{""aha"":5}","[0]","../img/tt/353tt.jpg","",""
"null","<div style=""font-size:60px;""> </div>","null","fixation","html-keyboard-response","139","681040","0.0-6.0-0.19","3307492","co38272","norming","","","","","","",""
"null","../img/tt/1061tt.jpg","null","mooney1","image-keyboard-response","140","684052","0.0-6.0-1.19","3307492","co38272","norming","","","","","","",""
"6529.949999996461","","","post_mooney1_questions","survey-likert","141","690584","0.0-6.0-2.19","3307492","co38272","norming","","","{""curiosity"":4,""confidence"":2}","[0,1]","../img/tt/1061tt.jpg","",""
"5639.114999998128","","","recognition","survey-text","142","696227","0.0-6.0-3.19","3307492","co38272","norming","","","{""guess"":""speeltuin""}","","../img/tt/1061tt.jpg","",""
"null","../img/gs/1061gs.jpg","null","reveal","image-keyboard-response","143","698238","0.0-6.0-4.19","3307492","co38272","norming","","","","","","",""
"null","../img/tt/1061tt.jpg","null","mooney2","image-keyboard-response","144","700253","0.0-6.0-5.19","3307492","co38272","norming","","","","","","",""
"3385.0400000083027","","","post_reveal_questions","survey-likert","145","703637","0.0-6.0-6.19","3307492","co38272","norming","","","{""aha"":5}","[0]","../img/tt/1061tt.jpg","",""
"null","<div style=""font-size:60px;""> </div>","null","fixation","html-keyboard-response","146","703847","0.0-6.0-0.20","3307492","co38272","norming","","","","","","",""
"null","../img/tt/1040tt.jpg","null","mooney1","image-keyboard-response","147","706861","0.0-6.0-1.20","3307492","co38272","norming","","","","","","",""
"4983.850000004168","","","post_mooney1_questions","survey-likert","148","711849","0.0-6.0-2.20","3307492","co38272","norming","","","{""curiosity"":5,""confidence"":1}","[0,1]","../img/tt/1040tt.jpg","",""
"8152.384999993956","","","recognition","survey-text","149","720005","0.0-6.0-3.20","3307492","co38272","norming","","","{""guess"":""krokodil""}","","../img/tt/1040tt.jpg","",""
"null","../img/gs/1040gs.jpg","null","reveal","image-keyboard-response","150","722016","0.0-6.0-4.20","3307492","co38272","norming","","","","","","",""
"null","../img/tt/1040tt.jpg","null","mooney2","image-keyboard-response","151","724029","0.0-6.0-5.20","3307492","co38272","norming","","","","","","",""
"3282.4499999987893","","","post_reveal_questions","survey-likert","152","727315","0.0-6.0-6.20","3307492","co38272","norming","","","{""aha"":5}","[0]","../img/tt/1040tt.jpg","",""
"null","<div style=""font-size:60px;""> </div>","null","fixation","html-keyboard-response","153","727527","0.0-6.0-0.21","3307492","co38272","norming","","","","","","",""
"null","../img/tt/301tt.jpg","null","mooney1","image-keyboard-response","154","730539","0.0-6.0-1.21","3307492","co38272","norming","","","","","","",""
"6783.114999998361","","","post_mooney1_questions","survey-likert","155","737326","0.0-6.0-2.21","3307492","co38272","norming","","","{""curiosity"":4,""confidence"":1}","[0,1]","../img/tt/301tt.jpg","",""
"4086.6299999906914","","","recognition","survey-text","156","741416","0.0-6.0-3.21","3307492","co38272","norming","","","{""guess"":""bus""}","","../img/tt/301tt.jpg","",""
"null","../img/gs/301gs.jpg","null","reveal","image-keyboard-response","157","743430","0.0-6.0-4.21","3307492","co38272","norming","","","","","","",""
"null","../img/tt/301tt.jpg","null","mooney2","image-keyboard-response","158","745444","0.0-6.0-5.21","3307492","co38272","norming","","","","","","",""
"2867.9600000032224","","","post_reveal_questions","survey-likert","159","748315","0.0-6.0-6.21","3307492","co38272","norming","","","{""aha"":4}","[0]","../img/tt/301tt.jpg","",""
"null","<div style=""font-size:60px;""> </div>","null","fixation","html-keyboard-response","160","748526","0.0-6.0-0.22","3307492","co38272","norming","","","","","","",""
"null","../img/tt/1002tt.jpg","null","mooney1","image-keyboard-response","161","751540","0.0-6.0-1.22","3307492","co38272","norming","","","","","","",""
"6596.535000004224","","","post_mooney1_questions","survey-likert","162","758140","0.0-6.0-2.22","3307492","co38272","norming","","","{""curiosity"":4,""confidence"":4}","[0,1]","../img/tt/1002tt.jpg","",""
"9153.96999999939","","","recognition","survey-text","163","767310","0.0-6.0-3.22","3307492","co38272","norming","","","{""guess"":""beer""}","","../img/tt/1002tt.jpg","",""
"null","../img/gs/1002gs.jpg","null","reveal","image-keyboard-response","164","769321","0.0-6.0-4.22","3307492","co38272","norming","","","","","","",""
"null","../img/tt/1002tt.jpg","null","mooney2","image-keyboard-response","165","771323","0.0-6.0-5.22","3307492","co38272","norming","","","","","","",""
"3676.37499999546","","","post_reveal_questions","survey-likert","166","775003","0.0-6.0-6.22","3307492","co38272","norming","","","{""aha"":4}","[0]","../img/tt/1002tt.jpg","",""
"null","<div style=""font-size:60px;""> </div>","null","fixation","html-keyboard-response","167","775215","0.0-6.0-0.23","3307492","co38272","norming","","","","","","",""
"null","../img/tt/194tt.jpg","null","mooney1","image-keyboard-response","168","778229","0.0-6.0-1.23","3307492","co38272","norming","","","","","","",""
"4849.960000006831","","","post_mooney1_questions","survey-likert","169","783082","0.0-6.0-2.23","3307492","co38272","norming","","","{""curiosity"":4,""confidence"":1}","[0,1]","../img/tt/194tt.jpg","",""
"3156.5600000030827","","","recognition","survey-text","170","786242","0.0-6.0-3.23","3307492","co38272","norming","","","{""guess"":""bus""}","","../img/tt/194tt.jpg","",""
"null","../img/gs/194gs.jpg","null","reveal","image-keyboard-response","171","788253","0.0-6.0-4.23","3307492","co38272","norming","","","","","","",""
"null","../img/tt/194tt.jpg","null","mooney2","image-keyboard-response","172","790268","0.0-6.0-5.23","3307492","co38272","norming","","","","","","",""
"3218.2400000019697","","","post_reveal_questions","survey-likert","173","793488","0.0-6.0-6.23","3307492","co38272","norming","","","{""aha"":4}","[0]","../img/tt/194tt.jpg","",""
"null","<div style=""font-size:60px;""> </div>","null","fixation","html-keyboard-response","174","793699","0.0-6.0-0.24","3307492","co38272","norming","","","","","","",""
"null","../img/tt/1171tt.jpg","null","mooney1","image-keyboard-response","175","796712","0.0-6.0-1.24","3307492","co38272","norming","","","","","","",""
"5166.459999993094","","","post_mooney1_questions","survey-likert","176","801882","0.0-6.0-2.24","3307492","co38272","norming","","","{""curiosity"":5,""confidence"":0}","[0,1]","../img/tt/1171tt.jpg","",""
"1110.7650000049034","","","recognition","survey-text","177","802996","0.0-6.0-3.24","3307492","co38272","norming","","","{""guess"":""""}","","../img/tt/1171tt.jpg","",""
"null","../img/gs/1171gs.jpg","null","reveal","image-keyboard-response","178","805006","0.0-6.0-4.24","3307492","co38272","norming","","","","","","",""
"null","../img/tt/1171tt.jpg","null","mooney2","image-keyboard-response","179","807020","0.0-6.0-5.24","3307492","co38272","norming","","","","","","",""
"2782.9249999922467","","","post_reveal_questions","survey-likert","180","809804","0.0-6.0-6.24","3307492","co38272","norming","","","{""aha"":4}","[0]","../img/tt/1171tt.jpg","",""
"null","<div style=""font-size:60px;""> </div>","null","fixation","html-keyboard-response","181","810018","0.0-6.0-0.25","3307492","co38272","norming","","","","","","",""
"null","../img/tt/1063tt.jpg","null","mooney1","image-keyboard-response","182","813032","0.0-6.0-1.25","3307492","co38272","norming","","","","","","",""
"7794.569999998203","","","post_mooney1_questions","survey-likert","183","820830","0.0-6.0-2.25","3307492","co38272","norming","","","{""curiosity"":4,""confidence"":1}","[0,1]","../img/tt/1063tt.jpg","",""
"4242.825000008452","","","recognition","survey-text","184","825076","0.0-6.0-3.25","3307492","co38272","norming","","","{""guess"":""beer""}","","../img/tt/1063tt.jpg","",""
"null","../img/gs/1063gs.jpg","null","reveal","image-keyboard-response","185","827087","0.0-6.0-4.25","3307492","co38272","norming","","","","","","",""
"null","../img/tt/1063tt.jpg","null","mooney2","image-keyboard-response","186","829100","0.0-6.0-5.25","3307492","co38272","norming","","","","","","",""
"3983.8049999962095","","","post_reveal_questions","survey-likert","187","833087","0.0-6.0-6.25","3307492","co38272","norming","","","{""aha"":5}","[0]","../img/tt/1063tt.jpg","",""
"null","<div style=""font-size:60px;""> </div>","null","fixation","html-keyboard-response","188","833298","0.0-6.0-0.26","3307492","co38272","norming","","","","","","",""
"null","../img/tt/1116tt.jpg","null","mooney1","image-keyboard-response","189","836313","0.0-6.0-1.26","3307492","co38272","norming","","","","","","",""
"5331.594999996014","","","post_mooney1_questions","survey-likert","190","841648","0.0-6.0-2.26","3307492","co38272","norming","","","{""curiosity"":5,""confidence"":2}","[0,1]","../img/tt/1116tt.jpg","",""
"8662.574999994831","","","recognition","survey-text","191","850314","0.0-6.0-3.26","3307492","co38272","norming","","","{""guess"":""auto""}","","../img/tt/1116tt.jpg","",""
"null","../img/gs/1116gs.jpg","null","reveal","image-keyboard-response","192","852332","0.0-6.0-4.26","3307492","co38272","norming","","","","","","",""
"null","../img/tt/1116tt.jpg","null","mooney2","image-keyboard-response","193","854334","0.0-6.0-5.26","3307492","co38272","norming","","","","","","",""
"2496.709999992163","","","post_reveal_questions","survey-likert","194","856833","0.0-6.0-6.26","3307492","co38272","norming","","","{""aha"":4}","[0]","../img/tt/1116tt.jpg","",""
"null","<div style=""font-size:60px;""> </div>","null","fixation","html-keyboard-response","195","857046","0.0-6.0-0.27","3307492","co38272","norming","","","","","","",""
"null","../img/tt/1290tt.jpg","null","mooney1","image-keyboard-response","196","860060","0.0-6.0-1.27","3307492","co38272","norming","","","","","","",""
"15883.755000002566","","","post_mooney1_questions","survey-likert","197","875948","0.0-6.0-2.27","3307492","co38272","norming","","","{""curiosity"":4,""confidence"":1}","[0,1]","../img/tt/1290tt.jpg","",""
"6458.985000004759","","","recognition","survey-text","198","882411","0.0-6.0-3.27","3307492","co38272","norming","","","{""guess"":""skilift""}","","../img/tt/1290tt.jpg","",""
"null","../img/gs/1290gs.jpg","null","reveal","image-keyboard-response","199","884420","0.0-6.0-4.27","3307492","co38272","norming","","","","","","",""
"null","../img/tt/1290tt.jpg","null","mooney2","image-keyboard-response","200","886434","0.0-6.0-5.27","3307492","co38272","norming","","","","","","",""
"3019.8400000081165","","","post_reveal_questions","survey-likert","201","889448","0.0-6.0-6.27","3307492","co38272","norming","","","{""aha"":3}","[0]","../img/tt/1290tt.jpg","",""
"null","<div style=""font-size:60px;""> </div>","null","fixation","html-keyboard-response","202","889659","0.0-6.0-0.28","3307492","co38272","norming","","","","","","",""
"null","../img/tt/1024tt.jpg","null","mooney1","image-keyboard-response","203","892670","0.0-6.0-1.28","3307492","co38272","norming","","","","","","",""
"4732.489999994868","","","post_mooney1_questions","survey-likert","204","897406","0.0-6.0-2.28","3307492","co38272","norming","","","{""curiosity"":5,""confidence"":0}","[0,1]","../img/tt/1024tt.jpg","",""
"1559.77000000712","","","recognition","survey-text","205","898970","0.0-6.0-3.28","3307492","co38272","norming","","","{""guess"":""""}","","../img/tt/1024tt.jpg","",""
"null","../img/gs/1024gs.jpg","null","reveal","image-keyboard-response","206","900980","0.0-6.0-4.28","3307492","co38272","norming","","","","","","",""
"null","../img/tt/1024tt.jpg","null","mooney2","image-keyboard-response","207","902995","0.0-6.0-5.28","3307492","co38272","norming","","","","","","",""
"5466.8950000050245","","","post_reveal_questions","survey-likert","208","908464","0.0-6.0-6.28","3307492","co38272","norming","","","{""aha"":5}","[0]","../img/tt/1024tt.jpg","",""
"null","<div style=""font-size:60px;""> </div>","null","fixation","html-keyboard-response","209","908676","0.0-6.0-0.29","3307492","co38272","norming","","","","","","",""
"null","../img/tt/378tt.jpg","null","mooney1","image-keyboard-response","210","911688","0.0-6.0-1.29","3307492","co38272","norming","","","","","","",""
"7060.970000005909","","","post_mooney1_questions","survey-likert","211","918752","0.0-6.0-2.29","3307492","co38272","norming","","","{""curiosity"":4,""confidence"":0}","[0,1]","../img/tt/378tt.jpg","",""
"1225.9650000050897","","","recognition","survey-text","212","919984","0.0-6.0-3.29","3307492","co38272","norming","","","{""guess"":""""}","","../img/tt/378tt.jpg","",""
"null","../img/gs/378gs.jpg","null","reveal","image-keyboard-response","213","921993","0.0-6.0-4.29","3307492","co38272","norming","","","","","","",""
"null","../img/tt/378tt.jpg","null","mooney2","image-keyboard-response","214","924009","0.0-6.0-5.29","3307492","co38272","norming","","","","","","",""
"2783.6349999997765","","","post_reveal_questions","survey-likert","215","926796","0.0-6.0-6.29","3307492","co38272","norming","","","{""aha"":4}","[0]","../img/tt/378tt.jpg","",""
"null","<div style=""font-size:60px;""> </div>","null","fixation","html-keyboard-response","216","927008","0.0-6.0-0.30","3307492","co38272","norming","","","","","","",""
"null","../img/tt/1078tt.jpg","null","mooney1","image-keyboard-response","217","930023","0.0-6.0-1.30","3307492","co38272","norming","","","","","","",""
"5231.550000011339","","","post_mooney1_questions","survey-likert","218","935258","0.0-6.0-2.30","3307492","co38272","norming","","","{""curiosity"":5,""confidence"":4}","[0,1]","../img/tt/1078tt.jpg","",""
"5304.60000000312","","","recognition","survey-text","219","940567","0.0-6.0-3.30","3307492","co38272","norming","","","{""guess"":""voetballer""}","","../img/tt/1078tt.jpg","",""
"null","../img/gs/1078gs.jpg","null","reveal","image-keyboard-response","220","942577","0.0-6.0-4.30","3307492","co38272","norming","","","","","","",""
"null","../img/tt/1078tt.jpg","null","mooney2","image-keyboard-response","221","944583","0.0-6.0-5.30","3307492","co38272","norming","","","","","","",""
"3059.05999999959","","","post_reveal_questions","survey-likert","222","947645","0.0-6.0-6.30","3307492","co38272","norming","","","{""aha"":4}","[0]","../img/tt/1078tt.jpg","",""
"null","<div style=""font-size:60px;""> </div>","null","fixation","html-keyboard-response","223","947856","0.0-6.0-0.31","3307492","co38272","norming","","","","","","",""
"null","../img/tt/416tt.jpg","null","mooney1","image-keyboard-response","224","950878","0.0-6.0-1.31","3307492","co38272","norming","","","","","","",""
"4498.5149999993155","","","post_mooney1_questions","survey-likert","225","955381","0.0-6.0-2.31","3307492","co38272","norming","","","{""curiosity"":5,""confidence"":0}","[0,1]","../img/tt/416tt.jpg","",""
"1544.3499999964843","","","recognition","survey-text","226","956929","0.0-6.0-3.31","3307492","co38272","norming","","","{""guess"":""""}","","../img/tt/416tt.jpg","",""
"null","../img/gs/416gs.jpg","null","reveal","image-keyboard-response","227","958939","0.0-6.0-4.31","3307492","co38272","norming","","","","","","",""
"null","../img/tt/416tt.jpg","null","mooney2","image-keyboard-response","228","960942","0.0-6.0-5.31","3307492","co38272","norming","","","","","","",""
"2362.489999999525","","","post_reveal_questions","survey-likert","229","963307","0.0-6.0-6.31","3307492","co38272","norming","","","{""aha"":3}","[0]","../img/tt/416tt.jpg","",""
"null","<div style=""font-size:60px;""> </div>","null","fixation","html-keyboard-response","230","963520","0.0-6.0-0.32","3307492","co38272","norming","","","","","","",""
"null","../img/tt/1307tt.jpg","null","mooney1","image-keyboard-response","231","966532","0.0-6.0-1.32","3307492","co38272","norming","","","","","","",""
"6912.179999999353","","","post_mooney1_questions","survey-likert","232","973447","0.0-6.0-2.32","3307492","co38272","norming","","","{""curiosity"":5,""confidence"":2}","[0,1]","../img/tt/1307tt.jpg","",""
"5808.185000001686","","","recognition","survey-text","233","979260","0.0-6.0-3.32","3307492","co38272","norming","","","{""guess"":""reuzerad""}","","../img/tt/1307tt.jpg","",""
"null","../img/gs/1307gs.jpg","null","reveal","image-keyboard-response","234","981268","0.0-6.0-4.32","3307492","co38272","norming","","","","","","",""
"null","../img/tt/1307tt.jpg","null","mooney2","image-keyboard-response","235","983283","0.0-6.0-5.32","3307492","co38272","norming","","","","","","",""
"4032.905000000028","","","post_reveal_questions","survey-likert","236","987319","0.0-6.0-6.32","3307492","co38272","norming","","","{""aha"":2}","[0]","../img/tt/1307tt.jpg","",""
"null","<div style=""font-size:60px;""> </div>","null","fixation","html-keyboard-response","237","987530","0.0-6.0-0.33","3307492","co38272","norming","","","","","","",""
"null","../img/tt/126tt.jpg","null","mooney1","image-keyboard-response","238","990543","0.0-6.0-1.33","3307492","co38272","norming","","","","","","",""
"7961.830000000191","","","post_mooney1_questions","survey-likert","239","998508","0.0-6.0-2.33","3307492","co38272","norming","","","{""curiosity"":4,""confidence"":1}","[0,1]","../img/tt/126tt.jpg","",""
"3442.1949999959907","","","recognition","survey-text","240","1001954","0.0-6.0-3.33","3307492","co38272","norming","","","{""guess"":""koe""}","","../img/tt/126tt.jpg","",""
"null","../img/gs/126gs.jpg","null","reveal","image-keyboard-response","241","1003964","0.0-6.0-4.33","3307492","co38272","norming","","","","","","",""
"null","../img/tt/126tt.jpg","null","mooney2","image-keyboard-response","242","1005980","0.0-6.0-5.33","3307492","co38272","norming","","","","","","",""
"3933.4450000023935","","","post_reveal_questions","survey-likert","243","1009916","0.0-6.0-6.33","3307492","co38272","norming","","","{""aha"":4}","[0]","../img/tt/126tt.jpg","",""
"null","<div style=""font-size:60px;""> </div>","null","fixation","html-keyboard-response","244","1010129","0.0-6.0-0.34","3307492","co38272","norming","","","","","","",""
"null","../img/tt/315tt.jpg","null","mooney1","image-keyboard-response","245","1013143","0.0-6.0-1.34","3307492","co38272","norming","","","","","","",""
"7278.290000002016","","","post_mooney1_questions","survey-likert","246","1020425","0.0-6.0-2.34","3307492","co38272","norming","","","{""curiosity"":4,""confidence"":1}","[0,1]","../img/tt/315tt.jpg","",""
"3317.410000003292","","","recognition","survey-text","247","1023745","0.0-6.0-3.34","3307492","co38272","norming","","","{""guess"":""konijn""}","","../img/tt/315tt.jpg","",""
"null","../img/gs/315gs.jpg","null","reveal","image-keyboard-response","248","1025748","0.0-6.0-4.34","3307492","co38272","norming","","","","","","",""
"null","../img/tt/315tt.jpg","null","mooney2","image-keyboard-response","249","1027760","0.0-6.0-5.34","3307492","co38272","norming","","","","","","",""
"9414.18999999587","","","post_reveal_questions","survey-likert","250","1037176","0.0-6.0-6.34","3307492","co38272","norming","","","{""aha"":5}","[0]","../img/tt/315tt.jpg","",""
"null","<div style=""font-size:60px;""> </div>","null","fixation","html-keyboard-response","251","1037386","0.0-6.0-0.35","3307492","co38272","norming","","","","","","",""
"null","../img/tt/603tt.jpg","null","mooney1","image-keyboard-response","252","1040400","0.0-6.0-1.35","3307492","co38272","norming","","","","","","",""
"5264.389999996638","","","post_mooney1_questions","survey-likert","253","1045668","0.0-6.0-2.35","3307492","co38272","norming","","","{""curiosity"":5,""confidence"":1}","[0,1]","../img/tt/603tt.jpg","",""
"3471.4699999894947","","","recognition","survey-text","254","1049143","0.0-6.0-3.35","3307492","co38272","norming","","","{""guess"":""kat""}","","../img/tt/603tt.jpg","",""
"null","../img/gs/603gs.jpg","null","reveal","image-keyboard-response","255","1051158","0.0-6.0-4.35","3307492","co38272","norming","","","","","","",""
"null","../img/tt/603tt.jpg","null","mooney2","image-keyboard-response","256","1053172","0.0-6.0-5.35","3307492","co38272","norming","","","","","","",""
"5299.650000000838","","","post_reveal_questions","survey-likert","257","1058474","0.0-6.0-6.35","3307492","co38272","norming","","","{""aha"":4}","[0]","../img/tt/603tt.jpg","",""
"null","<div style=""font-size:60px;""> </div>","null","fixation","html-keyboard-response","258","1058687","0.0-6.0-0.36","3307492","co38272","norming","","","","","","",""
"null","../img/tt/052tt.jpg","null","mooney1","image-keyboard-response","259","1061690","0.0-6.0-1.36","3307492","co38272","norming","","","","","","",""
"5356.625000000233","","","post_mooney1_questions","survey-likert","260","1067050","0.0-6.0-2.36","3307492","co38272","norming","","","{""curiosity"":5,""confidence"":4}","[0,1]","../img/tt/052tt.jpg","",""
"4826.155000002589","","","recognition","survey-text","261","1071879","0.0-6.0-3.36","3307492","co38272","norming","","","{""guess"":""broodje""}","","../img/tt/052tt.jpg","",""
"null","../img/gs/052gs.jpg","null","reveal","image-keyboard-response","262","1073888","0.0-6.0-4.36","3307492","co38272","norming","","","","","","",""
"null","../img/tt/052tt.jpg","null","mooney2","image-keyboard-response","263","1075902","0.0-6.0-5.36","3307492","co38272","norming","","","","","","",""
"2984.555000002496","","","post_reveal_questions","survey-likert","264","1078889","0.0-6.0-6.36","3307492","co38272","norming","","","{""aha"":5}","[0]","../img/tt/052tt.jpg","",""
"null","<div style=""font-size:60px;""> </div>","null","fixation","html-keyboard-response","265","1079100","0.0-6.0-0.37","3307492","co38272","norming","","","","","","",""
"null","../img/tt/1130tt.jpg","null","mooney1","image-keyboard-response","266","1082113","0.0-6.0-1.37","3307492","co38272","norming","","","","","","",""
"8627.085000000196","","","post_mooney1_questions","survey-likert","267","1090744","0.0-6.0-2.37","3307492","co38272","norming","","","{""curiosity"":5,""confidence"":1}","[0,1]","../img/tt/1130tt.jpg","",""
"5281.640000001062","","","recognition","survey-text","268","1096029","0.0-6.0-3.37","3307492","co38272","norming","","","{""guess"":""voetballer""}","","../img/tt/1130tt.jpg","",""
"null","../img/gs/1130gs.jpg","null","reveal","image-keyboard-response","269","1098035","0.0-6.0-4.37","3307492","co38272","norming","","","","","","",""
"null","../img/tt/1130tt.jpg","null","mooney2","image-keyboard-response","270","1100037","0.0-6.0-5.37","3307492","co38272","norming","","","","","","",""
"3995.125000001164","","","post_reveal_questions","survey-likert","271","1104034","0.0-6.0-6.37","3307492","co38272","norming","","","{""aha"":5}","[0]","../img/tt/1130tt.jpg","",""
"null","<div style=""font-size:60px;""> </div>","null","fixation","html-keyboard-response","272","1104246","0.0-6.0-0.38","3307492","co38272","norming","","","","","","",""
"null","../img/tt/1235tt.jpg","null","mooney1","image-keyboard-response","273","1107254","0.0-6.0-1.38","3307492","co38272","norming","","","","","","",""
"6653.160000001779","","","post_mooney1_questions","survey-likert","274","1113910","0.0-6.0-2.38","3307492","co38272","norming","","","{""curiosity"":4,""confidence"":3}","[0,1]","../img/tt/1235tt.jpg","",""
"5504.954999996582","","","recognition","survey-text","275","1119419","0.0-6.0-3.38","3307492","co38272","norming","","","{""guess"":""paard""}","","../img/tt/1235tt.jpg","",""
"null","../img/gs/1235gs.jpg","null","reveal","image-keyboard-response","276","1121430","0.0-6.0-4.38","3307492","co38272","norming","","","","","","",""
"null","../img/tt/1235tt.jpg","null","mooney2","image-keyboard-response","277","1123440","0.0-6.0-5.38","3307492","co38272","norming","","","","","","",""
"2605.505000014091","","","post_reveal_questions","survey-likert","278","1126048","0.0-6.0-6.38","3307492","co38272","norming","","","{""aha"":4}","[0]","../img/tt/1235tt.jpg","",""
"null","<div style=""font-size:60px;""> </div>","null","fixation","html-keyboard-response","279","1126259","0.0-6.0-0.39","3307492","co38272","norming","","","","","","",""
"null","../img/tt/189tt.jpg","null","mooney1","image-keyboard-response","280","1129273","0.0-6.0-1.39","3307492","co38272","norming","","","","","","",""
"4482.159999999683","","","post_mooney1_questions","survey-likert","281","1133759","0.0-6.0-2.39","3307492","co38272","norming","","","{""curiosity"":4,""confidence"":2}","[0,1]","../img/tt/189tt.jpg","",""
"8160.364999988815","","","recognition","survey-text","282","1141909","0.0-6.0-3.39","3307492","co38272","norming","","","{""guess"":""skateboard""}","","../img/tt/189tt.jpg","",""
"null","../img/gs/189gs.jpg","null","reveal","image-keyboard-response","283","1143914","0.0-6.0-4.39","3307492","co38272","norming","","","","","","",""
"null","../img/tt/189tt.jpg","null","mooney2","image-keyboard-response","284","1145928","0.0-6.0-5.39","3307492","co38272","norming","","","","","","",""
"3566.099999996368","","","post_reveal_questions","survey-likert","285","1149497","0.0-6.0-6.39","3307492","co38272","norming","","","{""aha"":4}","[0]","../img/tt/189tt.jpg","",""
"null","<div style=""font-size:60px;""> </div>","null","fixation","html-keyboard-response","286","1149707","0.0-6.0-0.40","3307492","co38272","norming","","","","","","",""
"null","../img/tt/1102tt.jpg","null","mooney1","image-keyboard-response","287","1152722","0.0-6.0-1.40","3307492","co38272","norming","","","","","","",""
"5917.254999993136","","","post_mooney1_questions","survey-likert","288","1158641","0.0-6.0-2.40","3307492","co38272","norming","","","{""curiosity"":4,""confidence"":0}","[0,1]","../img/tt/1102tt.jpg","",""
"1391.5850000048522","","","recognition","survey-text","289","1160037","0.0-6.0-3.40","3307492","co38272","norming","","","{""guess"":""""}","","../img/tt/1102tt.jpg","",""
"null","../img/gs/1102gs.jpg","null","reveal","image-keyboard-response","290","1162047","0.0-6.0-4.40","3307492","co38272","norming","","","","","","",""
"null","../img/tt/1102tt.jpg","null","mooney2","image-keyboard-response","291","1164061","0.0-6.0-5.40","3307492","co38272","norming","","","","","","",""
"3433.764999994077","","","post_reveal_questions","survey-likert","292","1167497","0.0-6.0-6.40","3307492","co38272","norming","","","{""aha"":4}","[0]","../img/tt/1102tt.jpg","",""
"null","<div style=""font-size:60px;""> </div>","null","fixation","html-keyboard-response","293","1167709","0.0-6.0-0.41","3307492","co38272","norming","","","","","","",""
"null","../img/tt/056tt.jpg","null","mooney1","image-keyboard-response","294","1170722","0.0-6.0-1.41","3307492","co38272","norming","","","","","","",""
"5163.449999992736","","","post_mooney1_questions","survey-likert","295","1175889","0.0-6.0-2.41","3307492","co38272","norming","","","{""curiosity"":4,""confidence"":1}","[0,1]","../img/tt/056tt.jpg","",""
"4257.82500000787","","","recognition","survey-text","296","1180151","0.0-6.0-3.41","3307492","co38272","norming","","","{""guess"":""surfer""}","","../img/tt/056tt.jpg","",""
"null","../img/gs/056gs.jpg","null","reveal","image-keyboard-response","297","1182161","0.0-6.0-4.41","3307492","co38272","norming","","","","","","",""
"null","../img/tt/056tt.jpg","null","mooney2","image-keyboard-response","298","1184178","0.0-6.0-5.41","3307492","co38272","norming","","","","","","",""
"4498.955000002636","","","post_reveal_questions","survey-likert","299","1188680","0.0-6.0-6.41","3307492","co38272","norming","","","{""aha"":4}","[0]","../img/tt/056tt.jpg","",""
"null","<div style=""font-size:60px;""> </div>","null","fixation","html-keyboard-response","300","1188890","0.0-6.0-0.42","3307492","co38272","norming","","","","","","",""
"null","../img/tt/1125tt.jpg","null","mooney1","image-keyboard-response","301","1191903","0.0-6.0-1.42","3307492","co38272","norming","","","","","","",""
"4148.600000000326","","","post_mooney1_questions","survey-likert","302","1196067","0.0-6.0-2.42","3307492","co38272","norming","","","{""curiosity"":4,""confidence"":0}","[0,1]","../img/tt/1125tt.jpg","",""
"1092.619999995688","","","recognition","survey-text","303","1197164","0.0-6.0-3.42","3307492","co38272","norming","","","{""guess"":""""}","","../img/tt/1125tt.jpg","",""
"null","../img/gs/1125gs.jpg","null","reveal","image-keyboard-response","304","1199182","0.0-6.0-4.42","3307492","co38272","norming","","","","","","",""
"null","../img/tt/1125tt.jpg","null","mooney2","image-keyboard-response","305","1201192","0.0-6.0-5.42","3307492","co38272","norming","","","","","","",""
"4350.005000000354","","","post_reveal_questions","survey-likert","306","1205545","0.0-6.0-6.42","3307492","co38272","norming","","","{""aha"":4}","[0]","../img/tt/1125tt.jpg","",""
"null","<div style=""font-size:60px;""> </div>","null","fixation","html-keyboard-response","307","1205757","0.0-6.0-0.43","3307492","co38272","norming","","","","","","",""
"null","../img/tt/507tt.jpg","null","mooney1","image-keyboard-response","308","1208768","0.0-6.0-1.43","3307492","co38272","norming","","","","","","",""
"6081.919999996899","","","post_mooney1_questions","survey-likert","309","1214853","0.0-6.0-2.43","3307492","co38272","norming","","","{""curiosity"":5,""confidence"":1}","[0,1]","../img/tt/507tt.jpg","",""
"5285.0550000004005","","","recognition","survey-text","310","1220142","0.0-6.0-3.43","3307492","co38272","norming","","","{""guess"":""zangeres""}","","../img/tt/507tt.jpg","",""
"null","../img/gs/507gs.jpg","null","reveal","image-keyboard-response","311","1222156","0.0-6.0-4.43","3307492","co38272","norming","","","","","","",""
"null","../img/tt/507tt.jpg","null","mooney2","image-keyboard-response","312","1224171","0.0-6.0-5.43","3307492","co38272","norming","","","","","","",""
"3634.919999996666","","","post_reveal_questions","survey-likert","313","1227808","0.0-6.0-6.43","3307492","co38272","norming","","","{""aha"":4}","[0]","../img/tt/507tt.jpg","",""
"null","<div style=""font-size:60px;""> </div>","null","fixation","html-keyboard-response","314","1228018","0.0-6.0-0.44","3307492","co38272","norming","","","","","","",""
"null","../img/tt/1199tt.jpg","null","mooney1","image-keyboard-response","315","1231032","0.0-6.0-1.44","3307492","co38272","norming","","","","","","",""
"4832.519999996293","","","post_mooney1_questions","survey-likert","316","1235869","0.0-6.0-2.44","3307492","co38272","norming","","","{""curiosity"":4,""confidence"":0}","[0,1]","../img/tt/1199tt.jpg","",""
"1125.1499999926891","","","recognition","survey-text","317","1236998","0.0-6.0-3.44","3307492","co38272","norming","","","{""guess"":""""}","","../img/tt/1199tt.jpg","",""
"null","../img/gs/1199gs.jpg","null","reveal","image-keyboard-response","318","1239007","0.0-6.0-4.44","3307492","co38272","norming","","","","","","",""
"null","../img/tt/1199tt.jpg","null","mooney2","image-keyboard-response","319","1241024","0.0-6.0-5.44","3307492","co38272","norming","","","","","","",""
"3330.8249999973923","","","post_reveal_questions","survey-likert","320","1244357","0.0-6.0-6.44","3307492","co38272","norming","","","{""aha"":5}","[0]","../img/tt/1199tt.jpg","",""
"null","<div style=""font-size:60px;""> </div>","null","fixation","html-keyboard-response","321","1244572","0.0-6.0-0.45","3307492","co38272","norming","","","","","","",""
"null","../img/tt/405tt.jpg","null","mooney1","image-keyboard-response","322","1247587","0.0-6.0-1.45","3307492","co38272","norming","","","","","","",""
"5277.765000006184","","","post_mooney1_questions","survey-likert","323","1252869","0.0-6.0-2.45","3307492","co38272","norming","","","{""curiosity"":5,""confidence"":0}","[0,1]","../img/tt/405tt.jpg","",""
"1178.1349999946542","","","recognition","survey-text","324","1254051","0.0-6.0-3.45","3307492","co38272","norming","","","{""guess"":""""}","","../img/tt/405tt.jpg","",""
"null","../img/gs/405gs.jpg","null","reveal","image-keyboard-response","325","1256065","0.0-6.0-4.45","3307492","co38272","norming","","","","","","",""
"null","../img/tt/405tt.jpg","null","mooney2","image-keyboard-response","326","1258076","0.0-6.0-5.45","3307492","co38272","norming","","","","","","",""
"4168.374999993714","","","post_reveal_questions","survey-likert","327","1262248","0.0-6.0-6.45","3307492","co38272","norming","","","{""aha"":4}","[0]","../img/tt/405tt.jpg","",""
"null","<div style=""font-size:60px;""> </div>","null","fixation","html-keyboard-response","328","1262459","0.0-6.0-0.46","3307492","co38272","norming","","","","","","",""
"null","../img/tt/063tt.jpg","null","mooney1","image-keyboard-response","329","1265471","0.0-6.0-1.46","3307492","co38272","norming","","","","","","",""
"5351.20000000461","","","post_mooney1_questions","survey-likert","330","1270826","0.0-6.0-2.46","3307492","co38272","norming","","","{""curiosity"":5,""confidence"":1}","[0,1]","../img/tt/063tt.jpg","",""
"3557.6200000070967","","","recognition","survey-text","331","1274389","0.0-6.0-3.46","3307492","co38272","norming","","","{""guess"":""boek""}","","../img/tt/063tt.jpg","",""
"null","../img/gs/063gs.jpg","null","reveal","image-keyboard-response","332","1276395","0.0-6.0-4.46","3307492","co38272","norming","","","","","","",""
"null","../img/tt/063tt.jpg","null","mooney2","image-keyboard-response","333","1278409","0.0-6.0-5.46","3307492","co38272","norming","","","","","","",""
"3132.695000007516","","","post_reveal_questions","survey-likert","334","1281544","0.0-6.0-6.46","3307492","co38272","norming","","","{""aha"":4}","[0]","../img/tt/063tt.jpg","",""
"null","<div style=""font-size:60px;""> </div>","null","fixation","html-keyboard-response","335","1281758","0.0-6.0-0.47","3307492","co38272","norming","","","","","","",""
"null","../img/tt/1151tt.jpg","null","mooney1","image-keyboard-response","336","1284771","0.0-6.0-1.47","3307492","co38272","norming","","","","","","",""
"4631.88000000082","","","post_mooney1_questions","survey-likert","337","1289406","0.0-6.0-2.47","3307492","co38272","norming","","","{""curiosity"":5,""confidence"":0}","[0,1]","../img/tt/1151tt.jpg","",""
"1227.820000000298","","","recognition","survey-text","338","1290638","0.0-6.0-3.47","3307492","co38272","norming","","","{""guess"":""""}","","../img/tt/1151tt.jpg","",""
"null","../img/gs/1151gs.jpg","null","reveal","image-keyboard-response","339","1292649","0.0-6.0-4.47","3307492","co38272","norming","","","","","","",""
"null","../img/tt/1151tt.jpg","null","mooney2","image-keyboard-response","340","1294661","0.0-6.0-5.47","3307492","co38272","norming","","","","","","",""
"3300.9199999941047","","","post_reveal_questions","survey-likert","341","1297965","0.0-6.0-6.47","3307492","co38272","norming","","","{""aha"":4}","[0]","../img/tt/1151tt.jpg","",""
"null","<div style=""font-size:60px;""> </div>","null","fixation","html-keyboard-response","342","1298178","0.0-6.0-0.48","3307492","co38272","norming","","","","","","",""
"null","../img/tt/064tt.jpg","null","mooney1","image-keyboard-response","343","1301184","0.0-6.0-1.48","3307492","co38272","norming","","","","","","",""
"4054.2449999921955","","","post_mooney1_questions","survey-likert","344","1305242","0.0-6.0-2.48","3307492","co38272","norming","","","{""curiosity"":4,""confidence"":3}","[0,1]","../img/tt/064tt.jpg","",""
"2656.210000000894","","","recognition","survey-text","345","1307903","0.0-6.0-3.48","3307492","co38272","norming","","","{""guess"":""kikker""}","","../img/tt/064tt.jpg","",""
"null","../img/gs/064gs.jpg","null","reveal","image-keyboard-response","346","1309915","0.0-6.0-4.48","3307492","co38272","norming","","","","","","",""
"null","../img/tt/064tt.jpg","null","mooney2","image-keyboard-response","347","1311929","0.0-6.0-5.48","3307492","co38272","norming","","","","","","",""
"2501.205000007525","","","post_reveal_questions","survey-likert","348","1314434","0.0-6.0-6.48","3307492","co38272","norming","","","{""aha"":4}","[0]","../img/tt/064tt.jpg","",""
"null","<div style=""font-size:60px;""> </div>","null","fixation","html-keyboard-response","349","1314646","0.0-6.0-0.49","3307492","co38272","norming","","","","","","",""
"null","../img/tt/082tt.jpg","null","mooney1","image-keyboard-response","350","1317659","0.0-6.0-1.49","3307492","co38272","norming","","","","","","",""
"5145.439999992959","","","post_mooney1_questions","survey-likert","351","1322810","0.0-6.0-2.49","3307492","co38272","norming","","","{""curiosity"":4,""confidence"":1}","[0,1]","../img/tt/082tt.jpg","",""
"7568.715000001248","","","recognition","survey-text","352","1330383","0.0-6.0-3.49","3307492","co38272","norming","","","{""guess"":""gymnast""}","","../img/tt/082tt.jpg","",""
"null","../img/gs/082gs.jpg","null","reveal","image-keyboard-response","353","1332395","0.0-6.0-4.49","3307492","co38272","norming","","","","","","",""
"null","../img/tt/082tt.jpg","null","mooney2","image-keyboard-response","354","1334411","0.0-6.0-5.49","3307492","co38272","norming","","","","","","",""
"3231.8200000007637","","","post_reveal_questions","survey-likert","355","1337645","0.0-6.0-6.49","3307492","co38272","norming","","","{""aha"":4}","[0]","../img/tt/082tt.jpg","",""
"null","<div style=""font-size:60px;""> </div>","null","fixation","html-keyboard-response","356","1337859","0.0-6.0-0.50","3307492","co38272","norming","","","","","","",""
"null","../img/tt/279tt.jpg","null","mooney1","image-keyboard-response","357","1340872","0.0-6.0-1.50","3307492","co38272","norming","","","","","","",""
"6977.899999998044","","","post_mooney1_questions","survey-likert","358","1347853","0.0-6.0-2.50","3307492","co38272","norming","","","{""curiosity"":5,""confidence"":5}","[0,1]","../img/tt/279tt.jpg","",""
"3474.349999989383","","","recognition","survey-text","359","1351331","0.0-6.0-3.50","3307492","co38272","norming","","","{""guess"":""koala""}","","../img/tt/279tt.jpg","",""
"null","../img/gs/279gs.jpg","null","reveal","image-keyboard-response","360","1353344","0.0-6.0-4.50","3307492","co38272","norming","","","","","","",""
"null","../img/tt/279tt.jpg","null","mooney2","image-keyboard-response","361","1355358","0.0-6.0-5.50","3307492","co38272","norming","","","","","","",""
"3647.6899999980815","","","post_reveal_questions","survey-likert","362","1359008","0.0-6.0-6.50","3307492","co38272","norming","","","{""aha"":5}","[0]","../img/tt/279tt.jpg","",""
"null","<div style=""font-size:60px;""> </div>","null","fixation","html-keyboard-response","363","1359224","0.0-6.0-0.51","3307492","co38272","norming","","","","","","",""
"null","../img/tt/1084tt.jpg","null","mooney1","image-keyboard-response","364","1362238","0.0-6.0-1.51","3307492","co38272","norming","","","","","","",""
"5363.435000006575","","","post_mooney1_questions","survey-likert","365","1367605","0.0-6.0-2.51","3307492","co38272","norming","","","{""curiosity"":4,""confidence"":0}","[0,1]","../img/tt/1084tt.jpg","",""
"1257.8699999868404","","","recognition","survey-text","366","1368868","0.0-6.0-3.51","3307492","co38272","norming","","","{""guess"":""""}","","../img/tt/1084tt.jpg","",""
"null","../img/gs/1084gs.jpg","null","reveal","image-keyboard-response","367","1370878","0.0-6.0-4.51","3307492","co38272","norming","","","","","","",""
"null","../img/tt/1084tt.jpg","null","mooney2","image-keyboard-response","368","1372893","0.0-6.0-5.51","3307492","co38272","norming","","","","","","",""
"3333.7000000029802","","","post_reveal_questions","survey-likert","369","1376230","0.0-6.0-6.51","3307492","co38272","norming","","","{""aha"":4}","[0]","../img/tt/1084tt.jpg","",""
"null","<div style=""font-size:60px;""> </div>","null","fixation","html-keyboard-response","370","1376443","0.0-6.0-0.52","3307492","co38272","norming","","","","","","",""
"null","../img/tt/517tt.jpg","null","mooney1","image-keyboard-response","371","1379455","0.0-6.0-1.52","3307492","co38272","norming","","","","","","",""
"5748.614999989513","","","post_mooney1_questions","survey-likert","372","1385208","0.0-6.0-2.52","3307492","co38272","norming","","","{""curiosity"":4,""confidence"":0}","[0,1]","../img/tt/517tt.jpg","",""
"1457.9150000060908","","","recognition","survey-text","373","1386669","0.0-6.0-3.52","3307492","co38272","norming","","","{""guess"":""""}","","../img/tt/517tt.jpg","",""
"null","../img/gs/517gs.jpg","null","reveal","image-keyboard-response","374","1388680","0.0-6.0-4.52","3307492","co38272","norming","","","","","","",""
"null","../img/tt/517tt.jpg","null","mooney2","image-keyboard-response","375","1390694","0.0-6.0-5.52","3307492","co38272","norming","","","","","","",""
"5200.2900000079535","","","post_reveal_questions","survey-likert","376","1395897","0.0-6.0-6.52","3307492","co38272","norming","","","{""aha"":4}","[0]","../img/tt/517tt.jpg","",""
"null","<div style=""font-size:60px;""> </div>","null","fixation","html-keyboard-response","377","1396109","0.0-6.0-0.53","3307492","co38272","norming","","","","","","",""
"null","../img/tt/140tt.jpg","null","mooney1","image-keyboard-response","378","1399123","0.0-6.0-1.53","3307492","co38272","norming","","","","","","",""
"5229.319999998668","","","post_mooney1_questions","survey-likert","379","1404356","0.0-6.0-2.53","3307492","co38272","norming","","","{""curiosity"":5,""confidence"":2}","[0,1]","../img/tt/140tt.jpg","",""
"3352.8199999998324","","","recognition","survey-text","380","1407713","0.0-6.0-3.53","3307492","co38272","norming","","","{""guess"":""papegaai""}","","../img/tt/140tt.jpg","",""
"null","../img/gs/140gs.jpg","null","reveal","image-keyboard-response","381","1409726","0.0-6.0-4.53","3307492","co38272","norming","","","","","","",""
"null","../img/tt/140tt.jpg","null","mooney2","image-keyboard-response","382","1411743","0.0-6.0-5.53","3307492","co38272","norming","","","","","","",""
"2650.2600000093225","","","post_reveal_questions","survey-likert","383","1414396","0.0-6.0-6.53","3307492","co38272","norming","","","{""aha"":4}","[0]","../img/tt/140tt.jpg","",""
"null","<div style=""font-size:60px;""> </div>","null","fixation","html-keyboard-response","384","1414607","0.0-6.0-0.54","3307492","co38272","norming","","","","","","",""
"null","../img/tt/1087tt.jpg","null","mooney1","image-keyboard-response","385","1417621","0.0-6.0-1.54","3307492","co38272","norming","","","","","","",""
"4099.0250000031665","","","post_mooney1_questions","survey-likert","386","1421723","0.0-6.0-2.54","3307492","co38272","norming","","","{""curiosity"":5,""confidence"":0}","[0,1]","../img/tt/1087tt.jpg","",""
"1241.7799999965355","","","recognition","survey-text","387","1422969","0.0-6.0-3.54","3307492","co38272","norming","","","{""guess"":""""}","","../img/tt/1087tt.jpg","",""
"null","../img/gs/1087gs.jpg","null","reveal","image-keyboard-response","388","1424982","0.0-6.0-4.54","3307492","co38272","norming","","","","","","",""
"null","../img/tt/1087tt.jpg","null","mooney2","image-keyboard-response","389","1426997","0.0-6.0-5.54","3307492","co38272","norming","","","","","","",""
"2914.8200000054203","","","post_reveal_questions","survey-likert","390","1429914","0.0-6.0-6.54","3307492","co38272","norming","","","{""aha"":3}","[0]","../img/tt/1087tt.jpg","",""
"null","<div style=""font-size:60px;""> </div>","null","fixation","html-keyboard-response","391","1430129","0.0-6.0-0.55","3307492","co38272","norming","","","","","","",""
"null","../img/tt/300tt.jpg","null","mooney1","image-keyboard-response","392","1433143","0.0-6.0-1.55","3307492","co38272","norming","","","","","","",""
"4379.069999995409","","","post_mooney1_questions","survey-likert","393","1437525","0.0-6.0-2.55","3307492","co38272","norming","","","{""curiosity"":5,""confidence"":2}","[0,1]","../img/tt/300tt.jpg","",""
"2844.4100000052713","","","recognition","survey-text","394","1440368","0.0-6.0-3.55","3307492","co38272","norming","","","{""guess"":""aap""}","","../img/tt/300tt.jpg","",""
"null","../img/gs/300gs.jpg","null","reveal","image-keyboard-response","395","1442379","0.0-6.0-4.55","3307492","co38272","norming","","","","","","",""
"null","../img/tt/300tt.jpg","null","mooney2","image-keyboard-response","396","1444382","0.0-6.0-5.55","3307492","co38272","norming","","","","","","",""
"4126.2699999932665","","","post_reveal_questions","survey-likert","397","1448511","0.0-6.0-6.55","3307492","co38272","norming","","","{""aha"":4}","[0]","../img/tt/300tt.jpg","",""
"null","<div style=""font-size:60px;""> </div>","null","fixation","html-keyboard-response","398","1448724","0.0-6.0-0.56","3307492","co38272","norming","","","","","","",""
"null","../img/tt/1353tt.jpg","null","mooney1","image-keyboard-response","399","1451738","0.0-6.0-1.56","3307492","co38272","norming","","","","","","",""
"7745.274999993853","","","post_mooney1_questions","survey-likert","400","1459486","0.0-6.0-2.56","3307492","co38272","norming","","","{""curiosity"":4,""confidence"":0}","[0,1]","../img/tt/1353tt.jpg","",""
"1210.91999999783","","","recognition","survey-text","401","1460701","0.0-6.0-3.56","3307492","co38272","norming","","","{""guess"":""""}","","../img/tt/1353tt.jpg","",""
"null","../img/gs/1353gs.jpg","null","reveal","image-keyboard-response","402","1462711","0.0-6.0-4.56","3307492","co38272","norming","","","","","","",""
"null","../img/tt/1353tt.jpg","null","mooney2","image-keyboard-response","403","1464713","0.0-6.0-5.56","3307492","co38272","norming","","","","","","",""
"2362.829999998212","","","post_reveal_questions","survey-likert","404","1467079","0.0-6.0-6.56","3307492","co38272","norming","","","{""aha"":3}","[0]","../img/tt/1353tt.jpg","",""
"null","<div style=""font-size:60px;""> </div>","null","fixation","html-keyboard-response","405","1467290","0.0-6.0-0.57","3307492","co38272","norming","","","","","","",""
"null","../img/tt/1227tt.jpg","null","mooney1","image-keyboard-response","406","1470304","0.0-6.0-1.57","3307492","co38272","norming","","","","","","",""
"5448.380000001518","","","post_mooney1_questions","survey-likert","407","1475756","0.0-6.0-2.57","3307492","co38272","norming","","","{""curiosity"":5,""confidence"":3}","[0,1]","../img/tt/1227tt.jpg","",""
"2768.2800000037532","","","recognition","survey-text","408","1478529","0.0-6.0-3.57","3307492","co38272","norming","","","{""guess"":""kippen""}","","../img/tt/1227tt.jpg","",""
"null","../img/gs/1227gs.jpg","null","reveal","image-keyboard-response","409","1480543","0.0-6.0-4.57","3307492","co38272","norming","","","","","","",""
"null","../img/tt/1227tt.jpg","null","mooney2","image-keyboard-response","410","1482549","0.0-6.0-5.57","3307492","co38272","norming","","","","","","",""
"2245.709999988321","","","post_reveal_questions","survey-likert","411","1484798","0.0-6.0-6.57","3307492","co38272","norming","","","{""aha"":4}","[0]","../img/tt/1227tt.jpg","",""
"null","<div style=""font-size:60px;""> </div>","null","fixation","html-keyboard-response","412","1485011","0.0-6.0-0.58","3307492","co38272","norming","","","","","","",""
"null","../img/tt/1279tt.jpg","null","mooney1","image-keyboard-response","413","1488023","0.0-6.0-1.58","3307492","co38272","norming","","","","","","",""
"5999.585000012303","","","post_mooney1_questions","survey-likert","414","1494027","0.0-6.0-2.58","3307492","co38272","norming","","","{""curiosity"":4,""confidence"":2}","[0,1]","../img/tt/1279tt.jpg","",""
"3303.2050000038","","","recognition","survey-text","415","1497334","0.0-6.0-3.58","3307492","co38272","norming","","","{""guess"":""honden""}","","../img/tt/1279tt.jpg","",""
"null","../img/gs/1279gs.jpg","null","reveal","image-keyboard-response","416","1499345","0.0-6.0-4.58","3307492","co38272","norming","","","","","","",""
"null","../img/tt/1279tt.jpg","null","mooney2","image-keyboard-response","417","1501364","0.0-6.0-5.58","3307492","co38272","norming","","","","","","",""
"2718.3499999954365","","","post_reveal_questions","survey-likert","418","1504085","0.0-6.0-6.58","3307492","co38272","norming","","","{""aha"":4}","[0]","../img/tt/1279tt.jpg","",""
"null","<div style=""font-size:60px;""> </div>","null","fixation","html-keyboard-response","419","1504297","0.0-6.0-0.59","3307492","co38272","norming","","","","","","",""
"null","../img/tt/497tt.jpg","null","mooney1","image-keyboard-response","420","1507312","0.0-6.0-1.59","3307492","co38272","norming","","","","","","",""
"4895.999999993481","","","post_mooney1_questions","survey-likert","421","1512211","0.0-6.0-2.59","3307492","co38272","norming","","","{""curiosity"":5,""confidence"":1}","[0,1]","../img/tt/497tt.jpg","",""
"3183.1200000015087","","","recognition","survey-text","422","1515397","0.0-6.0-3.59","3307492","co38272","norming","","","{""guess"":""kompas""}","","../img/tt/497tt.jpg","",""
"null","../img/gs/497gs.jpg","null","reveal","image-keyboard-response","423","1517402","0.0-6.0-4.59","3307492","co38272","norming","","","","","","",""
"null","../img/tt/497tt.jpg","null","mooney2","image-keyboard-response","424","1519417","0.0-6.0-5.59","3307492","co38272","norming","","","","","","",""
"3449.3499999954365","","","post_reveal_questions","survey-likert","425","1522869","0.0-6.0-6.59","3307492","co38272","norming","","","{""aha"":5}","[0]","../img/tt/497tt.jpg","",""
"null","<div style=""font-size:60px;""> </div>","null","fixation","html-keyboard-response","426","1523083","0.0-6.0-0.60","3307492","co38272","norming","","","","","","",""
"null","../img/tt/1181tt.jpg","null","mooney1","image-keyboard-response","427","1526095","0.0-6.0-1.60","3307492","co38272","norming","","","","","","",""
"4312.145000003511","","","post_mooney1_questions","survey-likert","428","1530411","0.0-6.0-2.60","3307492","co38272","norming","","","{""curiosity"":4,""confidence"":2}","[0,1]","../img/tt/1181tt.jpg","",""
"5896.935000011465","","","recognition","survey-text","429","1536310","0.0-6.0-3.60","3307492","co38272","norming","","","{""guess"":""basketbalspeler""}","","../img/tt/1181tt.jpg","",""
"null","../img/gs/1181gs.jpg","null","reveal","image-keyboard-response","430","1538317","0.0-6.0-4.60","3307492","co38272","norming","","","","","","",""
"null","../img/tt/1181tt.jpg","null","mooney2","image-keyboard-response","431","1540320","0.0-6.0-5.60","3307492","co38272","norming","","","","","","",""
"3975.7850000022445","","","post_reveal_questions","survey-likert","432","1544299","0.0-6.0-6.60","3307492","co38272","norming","","","{""aha"":4}","[0]","../img/tt/1181tt.jpg","",""
"null","<div style=""font-size:60px;""> </div>","null","fixation","html-keyboard-response","433","1544512","0.0-6.0-0.61","3307492","co38272","norming","","","","","","",""
"null","../img/tt/078tt.jpg","null","mooney1","image-keyboard-response","434","1547525","0.0-6.0-1.61","3307492","co38272","norming","","","","","","",""
"4363.890000008047","","","post_mooney1_questions","survey-likert","435","1551893","0.0-6.0-2.61","3307492","co38272","norming","","","{""curiosity"":5,""confidence"":2}","[0,1]","../img/tt/078tt.jpg","",""
"3132.3499999998603","","","recognition","survey-text","436","1555029","0.0-6.0-3.61","3307492","co38272","norming","","","{""guess"":""druiven""}","","../img/tt/078tt.jpg","",""
"null","../img/gs/078gs.jpg","null","reveal","image-keyboard-response","437","1557036","0.0-6.0-4.61","3307492","co38272","norming","","","","","","",""
"null","../img/tt/078tt.jpg","null","mooney2","image-keyboard-response","438","1559047","0.0-6.0-5.61","3307492","co38272","norming","","","","","","",""
"3797.2399999999907","","","post_reveal_questions","survey-likert","439","1562843","0.0-6.0-6.61","3307492","co38272","norming","","","{""aha"":4}","[0]","../img/tt/078tt.jpg","",""
"null","<div style=""font-size:60px;""> </div>","null","fixation","html-keyboard-response","440","1563059","0.0-6.0-0.62","3307492","co38272","norming","","","","","","",""
"null","../img/tt/121tt.jpg","null","mooney1","image-keyboard-response","441","1566070","0.0-6.0-1.62","3307492","co38272","norming","","","","","","",""
"4266.870000006631","","","post_mooney1_questions","survey-likert","442","1570341","0.0-6.0-2.62","3307492","co38272","norming","","","{""curiosity"":4,""confidence"":2}","[0,1]","../img/tt/121tt.jpg","",""
"3979.0099999955855","","","recognition","survey-text","443","1574323","0.0-6.0-3.62","3307492","co38272","norming","","","{""guess"":""salamander""}","","../img/tt/121tt.jpg","",""
"null","../img/gs/121gs.jpg","null","reveal","image-keyboard-response","444","1576332","0.0-6.0-4.62","3307492","co38272","norming","","","","","","",""
"null","../img/tt/121tt.jpg","null","mooney2","image-keyboard-response","445","1578342","0.0-6.0-5.62","3307492","co38272","norming","","","","","","",""
"4284.404999998398","","","post_reveal_questions","survey-likert","446","1582629","0.0-6.0-6.62","3307492","co38272","norming","","","{""aha"":5}","[0]","../img/tt/121tt.jpg","",""
"null","<div style=""font-size:60px;""> </div>","null","fixation","html-keyboard-response","447","1582840","0.0-6.0-0.63","3307492","co38272","norming","","","","","","",""
"null","../img/tt/1118tt.jpg","null","mooney1","image-keyboard-response","448","1585855","0.0-6.0-1.63","3307492","co38272","norming","","","","","","",""
"4781.029999998398","","","post_mooney1_questions","survey-likert","449","1590640","0.0-6.0-2.63","3307492","co38272","norming","","","{""curiosity"":5,""confidence"":0}","[0,1]","../img/tt/1118tt.jpg","",""
"1444.3150000004098","","","recognition","survey-text","450","1592087","0.0-6.0-3.63","3307492","co38272","norming","","","{""guess"":""""}","","../img/tt/1118tt.jpg","",""
"null","../img/gs/1118gs.jpg","null","reveal","image-keyboard-response","451","1594097","0.0-6.0-4.63","3307492","co38272","norming","","","","","","",""
"null","../img/tt/1118tt.jpg","null","mooney2","image-keyboard-response","452","1596106","0.0-6.0-5.63","3307492","co38272","norming","","","","","","",""
"2323.155000005383","","","post_reveal_questions","survey-likert","453","1598432","0.0-6.0-6.63","3307492","co38272","norming","","","{""aha"":4}","[0]","../img/tt/1118tt.jpg","",""
"null","<div style=""font-size:60px;""> </div>","null","fixation","html-keyboard-response","454","1598644","0.0-6.0-0.64","3307492","co38272","norming","","","","","","",""
"null","../img/tt/123tt.jpg","null","mooney1","image-keyboard-response","455","1601657","0.0-6.0-1.64","3307492","co38272","norming","","","","","","",""
"4713.254999994999","","","post_mooney1_questions","survey-likert","456","1606374","0.0-6.0-2.64","3307492","co38272","norming","","","{""curiosity"":4,""confidence"":2}","[0,1]","../img/tt/123tt.jpg","",""
"3361.6449999972247","","","recognition","survey-text","457","1609740","0.0-6.0-3.64","3307492","co38272","norming","","","{""guess"":""boekentas""}","","../img/tt/123tt.jpg","",""
"null","../img/gs/123gs.jpg","null","reveal","image-keyboard-response","458","1611749","0.0-6.0-4.64","3307492","co38272","norming","","","","","","",""
"null","../img/tt/123tt.jpg","null","mooney2","image-keyboard-response","459","1613751","0.0-6.0-5.64","3307492","co38272","norming","","","","","","",""
"3109.5299999867566","","","post_reveal_questions","survey-likert","460","1616864","0.0-6.0-6.64","3307492","co38272","norming","","","{""aha"":5}","[0]","../img/tt/123tt.jpg","",""
"null","<div style=""font-size:60px;""> </div>","null","fixation","html-keyboard-response","461","1617076","0.0-6.0-0.65","3307492","co38272","norming","","","","","","",""
"null","../img/tt/1053tt.jpg","null","mooney1","image-keyboard-response","462","1620092","0.0-6.0-1.65","3307492","co38272","norming","","","","","","",""
"6394.27000000421","","","post_mooney1_questions","survey-likert","463","1626494","0.0-6.0-2.65","3307492","co38272","norming","","","{""curiosity"":4,""confidence"":2}","[0,1]","../img/tt/1053tt.jpg","",""
"2364.840000009397","","","recognition","survey-text","464","1628863","0.0-6.0-3.65","3307492","co38272","norming","","","{""guess"":""kameel""}","","../img/tt/1053tt.jpg","",""
"null","../img/gs/1053gs.jpg","null","reveal","image-keyboard-response","465","1630869","0.0-6.0-4.65","3307492","co38272","norming","","","","","","",""
"null","../img/tt/1053tt.jpg","null","mooney2","image-keyboard-response","466","1632881","0.0-6.0-5.65","3307492","co38272","norming","","","","","","",""
"4116.675000011921","","","post_reveal_questions","survey-likert","467","1637001","0.0-6.0-6.65","3307492","co38272","norming","","","{""aha"":4}","[0]","../img/tt/1053tt.jpg","",""
"null","<div style=""font-size:60px;""> </div>","null","fixation","html-keyboard-response","468","1637212","0.0-6.0-0.66","3307492","co38272","norming","","","","","","",""
"null","../img/tt/1091tt.jpg","null","mooney1","image-keyboard-response","469","1640226","0.0-6.0-1.66","3307492","co38272","norming","","","","","","",""
"5831.609999993816","","","post_mooney1_questions","survey-likert","470","1646060","0.0-6.0-2.66","3307492","co38272","norming","","","{""curiosity"":4,""confidence"":5}","[0,1]","../img/tt/1091tt.jpg","",""
"2798.215000002412","","","recognition","survey-text","471","1648862","0.0-6.0-3.66","3307492","co38272","norming","","","{""guess"":""paard""}","","../img/tt/1091tt.jpg","",""
"null","../img/gs/1091gs.jpg","null","reveal","image-keyboard-response","472","1650868","0.0-6.0-4.66","3307492","co38272","norming","","","","","","",""
"null","../img/tt/1091tt.jpg","null","mooney2","image-keyboard-response","473","1652880","0.0-6.0-5.66","3307492","co38272","norming","","","","","","",""
"4300.075000006473","","","post_reveal_questions","survey-likert","474","1657184","0.0-6.0-6.66","3307492","co38272","norming","","","{""aha"":5}","[0]","../img/tt/1091tt.jpg","",""
"null","<div style=""font-size:60px;""> </div>","null","fixation","html-keyboard-response","475","1657395","0.0-6.0-0.67","3307492","co38272","norming","","","","","","",""
"null","../img/tt/044tt.jpg","null","mooney1","image-keyboard-response","476","1660410","0.0-6.0-1.67","3307492","co38272","norming","","","","","","",""
"4711.360000001267","","","post_mooney1_questions","survey-likert","477","1665125","0.0-6.0-2.67","3307492","co38272","norming","","","{""curiosity"":5,""confidence"":0}","[0,1]","../img/tt/044tt.jpg","",""
"1398.2249999970663","","","recognition","survey-text","478","1666527","0.0-6.0-3.67","3307492","co38272","norming","","","{""guess"":""""}","","../img/tt/044tt.jpg","",""
"null","../img/gs/044gs.jpg","null","reveal","image-keyboard-response","479","1668531","0.0-6.0-4.67","3307492","co38272","norming","","","","","","",""
"null","../img/tt/044tt.jpg","null","mooney2","image-keyboard-response","480","1670533","0.0-6.0-5.67","3307492","co38272","norming","","","","","","",""
"2666.209999995772","","","post_reveal_questions","survey-likert","481","1673202","0.0-6.0-6.67","3307492","co38272","norming","","","{""aha"":4}","[0]","../img/tt/044tt.jpg","",""
"null","<div style=""font-size:60px;""> </div>","null","fixation","html-keyboard-response","482","1673414","0.0-6.0-0.68","3307492","co38272","norming","","","","","","",""
"null","../img/tt/1237tt.jpg","null","mooney1","image-keyboard-response","483","1676427","0.0-6.0-1.68","3307492","co38272","norming","","","","","","",""
"4648.824999996694","","","post_mooney1_questions","survey-likert","484","1681079","0.0-6.0-2.68","3307492","co38272","norming","","","{""curiosity"":4,""confidence"":5}","[0,1]","../img/tt/1237tt.jpg","",""
"1585.2949999971315","","","recognition","survey-text","485","1682663","0.0-6.0-3.68","3307492","co38272","norming","","","{""guess"":""eend""}","","../img/tt/1237tt.jpg","",""
"null","../img/gs/1237gs.jpg","null","reveal","image-keyboard-response","486","1684671","0.0-6.0-4.68","3307492","co38272","norming","","","","","","",""
"null","../img/tt/1237tt.jpg","null","mooney2","image-keyboard-response","487","1686675","0.0-6.0-5.68","3307492","co38272","norming","","","","","","",""
"2420.5900000089314","","","post_reveal_questions","survey-likert","488","1689099","0.0-6.0-6.68","3307492","co38272","norming","","","{""aha"":5}","[0]","../img/tt/1237tt.jpg","",""
"null","<div style=""font-size:60px;""> </div>","null","fixation","html-keyboard-response","489","1689310","0.0-6.0-0.69","3307492","co38272","norming","","","","","","",""
"null","../img/tt/1269tt.jpg","null","mooney1","image-keyboard-response","490","1692326","0.0-6.0-1.69","3307492","co38272","norming","","","","","","",""
"10722.53999998793","","","post_mooney1_questions","survey-likert","491","1703052","0.0-6.0-2.69","3307492","co38272","norming","","","{""curiosity"":5,""confidence"":4}","[0,1]","../img/tt/1269tt.jpg","",""
"5027.0800000000745","","","recognition","survey-text","492","1708082","0.0-6.0-3.69","3307492","co38272","norming","","","{""guess"":""stokstaartje""}","","../img/tt/1269tt.jpg","",""
"null","../img/gs/1269gs.jpg","null","reveal","image-keyboard-response","493","1710092","0.0-6.0-4.69","3307492","co38272","norming","","","","","","",""
"null","../img/tt/1269tt.jpg","null","mooney2","image-keyboard-response","494","1712094","0.0-6.0-5.69","3307492","co38272","norming","","","","","","",""
"7824.189999999246","","","post_reveal_questions","survey-likert","495","1719921","0.0-6.0-6.69","3307492","co38272","norming","","","{""aha"":5}","[0]","../img/tt/1269tt.jpg","",""
"null","<div style=""font-size:60px;""> </div>","null","fixation","html-keyboard-response","496","1720134","0.0-6.0-0.70","3307492","co38272","norming","","","","","","",""
"null","../img/tt/1232tt.jpg","null","mooney1","image-keyboard-response","497","1723148","0.0-6.0-1.70","3307492","co38272","norming","","","","","","",""
"4797.189999997616","","","post_mooney1_questions","survey-likert","498","1727949","0.0-6.0-2.70","3307492","co38272","norming","","","{""curiosity"":4,""confidence"":0}","[0,1]","../img/tt/1232tt.jpg","",""
"1510.0100000125822","","","recognition","survey-text","499","1729463","0.0-6.0-3.70","3307492","co38272","norming","","","{""guess"":""""}","","../img/tt/1232tt.jpg","",""
"null","../img/gs/1232gs.jpg","null","reveal","image-keyboard-response","500","1731474","0.0-6.0-4.70","3307492","co38272","norming","","","","","","",""
"null","../img/tt/1232tt.jpg","null","mooney2","image-keyboard-response","501","1733483","0.0-6.0-5.70","3307492","co38272","norming","","","","","","",""
"2770.485000000801","","","post_reveal_questions","survey-likert","502","1736257","0.0-6.0-6.70","3307492","co38272","norming","","","{""aha"":5}","[0]","../img/tt/1232tt.jpg","",""
"null","<div style=""font-size:60px;""> </div>","null","fixation","html-keyboard-response","503","1736470","0.0-6.0-0.71","3307492","co38272","norming","","","","","","",""
"null","../img/tt/019tt.jpg","null","mooney1","image-keyboard-response","504","1739474","0.0-6.0-1.71","3307492","co38272","norming","","","","","","",""
"5994.350000008242","","","post_mooney1_questions","survey-likert","505","1745473","0.0-6.0-2.71","3307492","co38272","norming","","","{""curiosity"":5,""confidence"":0}","[0,1]","../img/tt/019tt.jpg","",""
"1172.3700000001118","","","recognition","survey-text","506","1746650","0.0-6.0-3.71","3307492","co38272","norming","","","{""guess"":""""}","","../img/tt/019tt.jpg","",""
"null","../img/gs/019gs.jpg","null","reveal","image-keyboard-response","507","1748661","0.0-6.0-4.71","3307492","co38272","norming","","","","","","",""
"null","../img/tt/019tt.jpg","null","mooney2","image-keyboard-response","508","1750675","0.0-6.0-5.71","3307492","co38272","norming","","","","","","",""
"2533.905000003986","","","post_reveal_questions","survey-likert","509","1753213","0.0-6.0-6.71","3307492","co38272","norming","","","{""aha"":4}","[0]","../img/tt/019tt.jpg","",""
"null","<div style=""font-size:60px;""> </div>","null","fixation","html-keyboard-response","510","1753424","0.0-6.0-0.72","3307492","co38272","norming","","","","","","",""
"null","../img/tt/1262tt.jpg","null","mooney1","image-keyboard-response","511","1756436","0.0-6.0-1.72","3307492","co38272","norming","","","","","","",""
"5128.844999999274","","","post_mooney1_questions","survey-likert","512","1761568","0.0-6.0-2.72","3307492","co38272","norming","","","{""curiosity"":4,""confidence"":1}","[0,1]","../img/tt/1262tt.jpg","",""
"2504.5650000101887","","","recognition","survey-text","513","1764075","0.0-6.0-3.72","3307492","co38272","norming","","","{""guess"":""vogel""}","","../img/tt/1262tt.jpg","",""
"null","../img/gs/1262gs.jpg","null","reveal","image-keyboard-response","514","1766077","0.0-6.0-4.72","3307492","co38272","norming","","","","","","",""
"null","../img/tt/1262tt.jpg","null","mooney2","image-keyboard-response","515","1768085","0.0-6.0-5.72","3307492","co38272","norming","","","","","","",""
"2839.6650000067893","","","post_reveal_questions","survey-likert","516","1770928","0.0-6.0-6.72","3307492","co38272","norming","","","{""aha"":5}","[0]","../img/tt/1262tt.jpg","",""
"null","<div style=""font-size:60px;""> </div>","null","fixation","html-keyboard-response","517","1771141","0.0-6.0-0.73","3307492","co38272","norming","","","","","","",""
"null","../img/tt/1362tt.jpg","null","mooney1","image-keyboard-response","518","1774155","0.0-6.0-1.73","3307492","co38272","norming","","","","","","",""
"5282.860000006622","","","post_mooney1_questions","survey-likert","519","1779442","0.0-6.0-2.73","3307492","co38272","norming","","","{""curiosity"":4,""confidence"":1}","[0,1]","../img/tt/1362tt.jpg","",""
"3956.689999991795","","","recognition","survey-text","520","1783403","0.0-6.0-3.73","3307492","co38272","norming","","","{""guess"":""viool""}","","../img/tt/1362tt.jpg","",""
"null","../img/gs/1362gs.jpg","null","reveal","image-keyboard-response","521","1785413","0.0-6.0-4.73","3307492","co38272","norming","","","","","","",""
"null","../img/tt/1362tt.jpg","null","mooney2","image-keyboard-response","522","1787424","0.0-6.0-5.73","3307492","co38272","norming","","","","","","",""
"2851.594999999972","","","post_reveal_questions","survey-likert","523","1790280","0.0-6.0-6.73","3307492","co38272","norming","","","{""aha"":4}","[0]","../img/tt/1362tt.jpg","",""
"null","<div style=""font-size:60px;""> </div>","null","fixation","html-keyboard-response","524","1790492","0.0-6.0-0.74","3307492","co38272","norming","","","","","","",""
"null","../img/tt/1066tt.jpg","null","mooney1","image-keyboard-response","525","1793505","0.0-6.0-1.74","3307492","co38272","norming","","","","","","",""
"4081.0049999998882","","","post_mooney1_questions","survey-likert","526","1797590","0.0-6.0-2.74","3307492","co38272","norming","","","{""curiosity"":4,""confidence"":0}","[0,1]","../img/tt/1066tt.jpg","",""
"1479.1850000037812","","","recognition","survey-text","527","1799073","0.0-6.0-3.74","3307492","co38272","norming","","","{""guess"":""""}","","../img/tt/1066tt.jpg","",""
"null","../img/gs/1066gs.jpg","null","reveal","image-keyboard-response","528","1801081","0.0-6.0-4.74","3307492","co38272","norming","","","","","","",""
"null","../img/tt/1066tt.jpg","null","mooney2","image-keyboard-response","529","1803100","0.0-6.0-5.74","3307492","co38272","norming","","","","","","",""
"3834.0849999950733","","","post_reveal_questions","survey-likert","530","1806938","0.0-6.0-6.74","3307492","co38272","norming","","","{""aha"":5}","[0]","../img/tt/1066tt.jpg","",""
"null","<div style=""font-size:60px;""> </div>","null","fixation","html-keyboard-response","531","1807149","0.0-6.0-0.75","3307492","co38272","norming","","","","","","",""
"null","../img/tt/1275tt.jpg","null","mooney1","image-keyboard-response","532","1810152","0.0-6.0-1.75","3307492","co38272","norming","","","","","","",""
"4762.194999988424","","","post_mooney1_questions","survey-likert","533","1814917","0.0-6.0-2.75","3307492","co38272","norming","","","{""curiosity"":5,""confidence"":2}","[0,1]","../img/tt/1275tt.jpg","",""
"1938.4600000048522","","","recognition","survey-text","534","1816861","0.0-6.0-3.75","3307492","co38272","norming","","","{""guess"":""koe""}","","../img/tt/1275tt.jpg","",""
"null","../img/gs/1275gs.jpg","null","reveal","image-keyboard-response","535","1818874","0.0-6.0-4.75","3307492","co38272","norming","","","","","","",""
"null","../img/tt/1275tt.jpg","null","mooney2","image-keyboard-response","536","1820878","0.0-6.0-5.75","3307492","co38272","norming","","","","","","",""
"4592.2150000114925","","","post_reveal_questions","survey-likert","537","1825472","0.0-6.0-6.75","3307492","co38272","norming","","","{""aha"":4}","[0]","../img/tt/1275tt.jpg","",""
"null","<div style=""font-size:60px;""> </div>","null","fixation","html-keyboard-response","538","1825683","0.0-6.0-0.76","3307492","co38272","norming","","","","","","",""
"null","../img/tt/1188tt.jpg","null","mooney1","image-keyboard-response","539","1828690","0.0-6.0-1.76","3307492","co38272","norming","","","","","","",""
"5223.094999994151","","","post_mooney1_questions","survey-likert","540","1833915","0.0-6.0-2.76","3307492","co38272","norming","","","{""curiosity"":5,""confidence"":0}","[0,1]","../img/tt/1188tt.jpg","",""
"1128.7250000021886","","","recognition","survey-text","541","1835047","0.0-6.0-3.76","3307492","co38272","norming","","","{""guess"":""""}","","../img/tt/1188tt.jpg","",""
"null","../img/gs/1188gs.jpg","null","reveal","image-keyboard-response","542","1837056","0.0-6.0-4.76","3307492","co38272","norming","","","","","","",""
"null","../img/tt/1188tt.jpg","null","mooney2","image-keyboard-response","543","1839070","0.0-6.0-5.76","3307492","co38272","norming","","","","","","",""
"2801.5599999926053","","","post_reveal_questions","survey-likert","544","1841874","0.0-6.0-6.76","3307492","co38272","norming","","","{""aha"":4}","[0]","../img/tt/1188tt.jpg","",""
"null","<div style=""font-size:60px;""> </div>","null","fixation","html-keyboard-response","545","1842084","0.0-6.0-0.77","3307492","co38272","norming","","","","","","",""
"null","../img/tt/163tt.jpg","null","mooney1","image-keyboard-response","546","1845100","0.0-6.0-1.77","3307492","co38272","norming","","","","","","",""
"5214.830000011716","","","post_mooney1_questions","survey-likert","547","1850319","0.0-6.0-2.77","3307492","co38272","norming","","","{""curiosity"":4,""confidence"":1}","[0,1]","../img/tt/163tt.jpg","",""
"2544.570000012871","","","recognition","survey-text","548","1852867","0.0-6.0-3.77","3307492","co38272","norming","","","{""guess"":""panda""}","","../img/tt/163tt.jpg","",""
"null","../img/gs/163gs.jpg","null","reveal","image-keyboard-response","549","1854874","0.0-6.0-4.77","3307492","co38272","norming","","","","","","",""
"null","../img/tt/163tt.jpg","null","mooney2","image-keyboard-response","550","1856887","0.0-6.0-5.77","3307492","co38272","norming","","","","","","",""
"4749.074999999721","","","post_reveal_questions","survey-likert","551","1861639","0.0-6.0-6.77","3307492","co38272","norming","","","{""aha"":5}","[0]","../img/tt/163tt.jpg","",""
"null","<div style=""font-size:60px;""> </div>","null","fixation","html-keyboard-response","552","1861852","0.0-6.0-0.78","3307492","co38272","norming","","","","","","",""
