"rt","stimulus","key_press","test_part","trial_type","trial_index","time_elapsed","internal_node_id","totalTime","subject","experiment_name","button_pressed","success","responses","question_order","currentStim","old","correct"
"16028.644999999984","Welcome to the experiment. This is an online experiment so please don't close the tab/window until we say goodbye.  Press any key to begin.","32","instructions","html-keyboard-response","0","16069","0.0-0.0","2787217","co38281","norming","","","","","","",""
"4669.214999999953","<div style='word-wrap: break-word; width: 900px'><h3>Please consider this information carefully before deciding whether to participate in this research</h3><ul style='text-align: left; font-size: .8em;'><li><b>Purpose of the research</b>: To examine how people process images.</li><li><b>What you will do in this research</b>:  Stimuli (images) will be presented on the computer and you will be asked different questions about them.</li><li><b>Time required</b>: Participation will take between 45 and 60 minutes to complete.</li><li><b>Risks</b>:  There are no anticipated risks associated with participating in this study. The effects of participating should be comparable to those you would experience from viewing a computer monitor for 30 minutes and using a mouse or keyboard.</li><li><b>Benefits</b>:  This study provides no benefits to you individually except for the credit. The study provides important information about the nature of perception and learning.</li><li><b>Confidentiality</b>:  Your participation in this study will remain confidential. No personally identifiable information will be associated with your data. Your de-identified data may be shared with other researchers and used in future projects.</li><li><b>Participation and withdrawal</b>:  Your participation in this study is completely voluntary and you may refuse to participate or you may choose to withdraw at any time without penalty.</li><li><b>How to contact the researchers</b>: If you have questions or concerns about your participation or payment, or want to request a summary of research findings, please contact Sander Van de Cruys (KU Leuven), at sander.vandecruys@kuleuven.be.</li></ul><p>The nature and purpose of this research have been sufficiently explained and I agree to participate in this study.  I understand that I am free to withdraw at any time without incurring any penalty.</p><p>Please consent by clicking the button below to continue. Otherwise, please exit the study at this time.</p></div>","","instructions","html-button-response","1","20740","0.0-1.0","2787217","co38281","norming","0","","","","","",""
"","","","instructions","fullscreen","2","23772","0.0-2.0","2787217","co38281","norming","","true","","","","",""
"57044.879999999976","","","sona","survey-html-form","3","80816","0.0-3.0","2787217","co38281","norming","","","[{""name"":""sonaid"",""value"":""38281""},{""name"":""debrief"",""value"":""no""},{""name"":""datajoin"",""value"":""no""}]","","","",""
"68170.70000000007","<div style='word-wrap: break-word; width: 900px'><h3>Instructions</h3><p>This experiment will have 3 parts. In the first part you will see a series of distorted images like the one below on the left. As you can see in the righthand image, the distorted images are derived from actual photographs. In what follows, you will <strong>briefly</strong> be presented with <strong>only</strong> the distorted image.</p> <div style='float: left; margin-right: 20px;'><img src='../img/018tt.jpg' height='250' width='250'></img></div><div style='float: right; margin-left: 20px;'><img src='../img/018gs.jpg' height='250' width='250'></img></div><p>Subsequently you will be asked a few questions about the image: One question on how <strong>curious</strong> you are about the solution and one on how <strong>confident</strong> you are that you know the solution.</p>Next, we ask you to make a guess on what is in the image. Note that it is OK to name just the <strong>basic level category</strong>. For example when you see a parrot in the image, 'parrot' will obviously be a correct answer but also correct is 'bird'. However, 'animal' will <strong>not</strong> be counted as a correct response. For the example above, 'rose' would be correct or 'flower', but not 'plant'. When soccer players are depicted, 'soccer', 'football', 'soccer players' will be correct, but not 'humans', 'outdoors', or 'sports'. You do not need to describe the image in full, just name the main object in it <strong>in one or two words</strong>. All images depict objects from one of the following broad level categories: animals, inanimate objects, plants, sports, vehicles, and food. Recognizing means knowing <strong>more</strong> than these broad labels for a given image. But we always encourage you to <strong>make a guess</strong> if you can. Note that you are allowed to use <strong>Dutch and English</strong> in your answers, whatever comes easiest for you.</p><p>Press any key to continue.</p></div>","32","instructions","html-keyboard-response","4","148993","0.0-4.0","2787217","co38281","norming","","","","","","",""
"1167.7199999999139","<div style='word-wrap: break-word; width: 900px'><h3>Instructions</h3> <p>Next, the solution image will be revealed to you and you'll be asked to indicate how strong your <strong>aha-experience</strong> was after seeing the solution. This describes the positive feeling of the 'click' you sometimes experience, when the pieces of the 'puzzle' fall together and you suddenly have 'insight' in the image.</p><img src='aha.jpg' height='188' width='250'></img><p>Note that there are no right or wrong answers. We are interested in what <strong>you</strong> see in the image and how <strong>you</strong> feel about it.</p><p>Press any key to start the experiment.</p></div>","32","instructions","html-keyboard-response","5","150162","0.0-5.0","2787217","co38281","norming","","","","","","",""
"null","<div style=""font-size:60px;""> </div>","null","fixation","html-keyboard-response","6","150365","0.0-6.0-0.0","2787217","co38281","norming","","","","","","",""
"null","../img/tt/1309tt.jpg","null","mooney1","image-keyboard-response","7","153376","0.0-6.0-1.0","2787217","co38281","norming","","","","","","",""
"12518.01000000001","","","post_mooney1_questions","survey-likert","8","165898","0.0-6.0-2.0","2787217","co38281","norming","","","{""curiosity"":5,""confidence"":1}","[0,1]","../img/tt/1309tt.jpg","",""
"9133.715000000055","","","recognition","survey-text","9","175034","0.0-6.0-3.0","2787217","co38281","norming","","","{""guess"":""FLOWER""}","","../img/tt/1309tt.jpg","",""
"null","../img/gs/1309gs.jpg","null","reveal","image-keyboard-response","10","177036","0.0-6.0-4.0","2787217","co38281","norming","","","","","","",""
"null","../img/tt/1309tt.jpg","null","mooney2","image-keyboard-response","11","179046","0.0-6.0-5.0","2787217","co38281","norming","","","","","","",""
"5378.559999999998","","","post_reveal_questions","survey-likert","12","184426","0.0-6.0-6.0","2787217","co38281","norming","","","{""aha"":0}","[0]","../img/tt/1309tt.jpg","",""
"null","<div style=""font-size:60px;""> </div>","null","fixation","html-keyboard-response","13","184632","0.0-6.0-0.1","2787217","co38281","norming","","","","","","",""
"null","../img/tt/1048tt.jpg","null","mooney1","image-keyboard-response","14","187634","0.0-6.0-1.1","2787217","co38281","norming","","","","","","",""
"9477.635000000097","","","post_mooney1_questions","survey-likert","15","197113","0.0-6.0-2.1","2787217","co38281","norming","","","{""curiosity"":6,""confidence"":1}","[0,1]","../img/tt/1048tt.jpg","",""
"4358.200000000012","","","recognition","survey-text","16","201473","0.0-6.0-3.1","2787217","co38281","norming","","","{""guess"":""COW""}","","../img/tt/1048tt.jpg","",""
"null","../img/gs/1048gs.jpg","null","reveal","image-keyboard-response","17","203478","0.0-6.0-4.1","2787217","co38281","norming","","","","","","",""
"null","../img/tt/1048tt.jpg","null","mooney2","image-keyboard-response","18","205484","0.0-6.0-5.1","2787217","co38281","norming","","","","","","",""
"7884.464999999967","","","post_reveal_questions","survey-likert","19","213372","0.0-6.0-6.1","2787217","co38281","norming","","","{""aha"":4}","[0]","../img/tt/1048tt.jpg","",""
"null","<div style=""font-size:60px;""> </div>","null","fixation","html-keyboard-response","20","213579","0.0-6.0-0.2","2787217","co38281","norming","","","","","","",""
"null","../img/tt/1173tt.jpg","null","mooney1","image-keyboard-response","21","216589","0.0-6.0-1.2","2787217","co38281","norming","","","","","","",""
"5251.890000000014","","","post_mooney1_questions","survey-likert","22","221844","0.0-6.0-2.2","2787217","co38281","norming","","","{""curiosity"":5,""confidence"":3}","[0,1]","../img/tt/1173tt.jpg","",""
"7918.130000000034","","","recognition","survey-text","23","229764","0.0-6.0-3.2","2787217","co38281","norming","","","{""guess"":""GIRLS""}","","../img/tt/1173tt.jpg","",""
"null","../img/gs/1173gs.jpg","null","reveal","image-keyboard-response","24","231774","0.0-6.0-4.2","2787217","co38281","norming","","","","","","",""
"null","../img/tt/1173tt.jpg","null","mooney2","image-keyboard-response","25","233783","0.0-6.0-5.2","2787217","co38281","norming","","","","","","",""
"2842.445000000007","","","post_reveal_questions","survey-likert","26","236628","0.0-6.0-6.2","2787217","co38281","norming","","","{""aha"":4}","[0]","../img/tt/1173tt.jpg","",""
"null","<div style=""font-size:60px;""> </div>","null","fixation","html-keyboard-response","27","236829","0.0-6.0-0.3","2787217","co38281","norming","","","","","","",""
"null","../img/tt/1255tt.jpg","null","mooney1","image-keyboard-response","28","239840","0.0-6.0-1.3","2787217","co38281","norming","","","","","","",""
"5009.800000000047","","","post_mooney1_questions","survey-likert","29","244852","0.0-6.0-2.3","2787217","co38281","norming","","","{""curiosity"":4,""confidence"":1}","[0,1]","../img/tt/1255tt.jpg","",""
"7773.864999999991","","","recognition","survey-text","30","252627","0.0-6.0-3.3","2787217","co38281","norming","","","{""guess"":""PLANT""}","","../img/tt/1255tt.jpg","",""
"null","../img/gs/1255gs.jpg","null","reveal","image-keyboard-response","31","254629","0.0-6.0-4.3","2787217","co38281","norming","","","","","","",""
"null","../img/tt/1255tt.jpg","null","mooney2","image-keyboard-response","32","256634","0.0-6.0-5.3","2787217","co38281","norming","","","","","","",""
"2887.6050000000105","","","post_reveal_questions","survey-likert","33","259524","0.0-6.0-6.3","2787217","co38281","norming","","","{""aha"":4}","[0]","../img/tt/1255tt.jpg","",""
"null","<div style=""font-size:60px;""> </div>","null","fixation","html-keyboard-response","34","259725","0.0-6.0-0.4","2787217","co38281","norming","","","","","","",""
"null","../img/tt/552tt.jpg","null","mooney1","image-keyboard-response","35","262729","0.0-6.0-1.4","2787217","co38281","norming","","","","","","",""
"4512.814999999944","","","post_mooney1_questions","survey-likert","36","267244","0.0-6.0-2.4","2787217","co38281","norming","","","{""curiosity"":5,""confidence"":3}","[0,1]","../img/tt/552tt.jpg","",""
"4038.070000000065","","","recognition","survey-text","37","271284","0.0-6.0-3.4","2787217","co38281","norming","","","{""guess"":""BIRD""}","","../img/tt/552tt.jpg","",""
"null","../img/gs/552gs.jpg","null","reveal","image-keyboard-response","38","273286","0.0-6.0-4.4","2787217","co38281","norming","","","","","","",""
"null","../img/tt/552tt.jpg","null","mooney2","image-keyboard-response","39","275297","0.0-6.0-5.4","2787217","co38281","norming","","","","","","",""
"3041.0400000000373","","","post_reveal_questions","survey-likert","40","278340","0.0-6.0-6.4","2787217","co38281","norming","","","{""aha"":4}","[0]","../img/tt/552tt.jpg","",""
"null","<div style=""font-size:60px;""> </div>","null","fixation","html-keyboard-response","41","278546","0.0-6.0-0.5","2787217","co38281","norming","","","","","","",""
"null","../img/tt/064tt.jpg","null","mooney1","image-keyboard-response","42","281556","0.0-6.0-1.5","2787217","co38281","norming","","","","","","",""
"5933.440000000002","","","post_mooney1_questions","survey-likert","43","287492","0.0-6.0-2.5","2787217","co38281","norming","","","{""curiosity"":6,""confidence"":5}","[0,1]","../img/tt/064tt.jpg","",""
"14502.045000000042","","","recognition","survey-text","44","301996","0.0-6.0-3.5","2787217","co38281","norming","","","{""guess"":""TURTLE""}","","../img/tt/064tt.jpg","",""
"null","../img/gs/064gs.jpg","null","reveal","image-keyboard-response","45","304006","0.0-6.0-4.5","2787217","co38281","norming","","","","","","",""
"null","../img/tt/064tt.jpg","null","mooney2","image-keyboard-response","46","306014","0.0-6.0-5.5","2787217","co38281","norming","","","","","","",""
"3603.1699999999837","","","post_reveal_questions","survey-likert","47","309620","0.0-6.0-6.5","2787217","co38281","norming","","","{""aha"":1}","[0]","../img/tt/064tt.jpg","",""
"null","<div style=""font-size:60px;""> </div>","null","fixation","html-keyboard-response","48","309821","0.0-6.0-0.6","2787217","co38281","norming","","","","","","",""
"null","../img/tt/416tt.jpg","null","mooney1","image-keyboard-response","49","312831","0.0-6.0-1.6","2787217","co38281","norming","","","","","","",""
"4810.484999999928","","","post_mooney1_questions","survey-likert","50","317644","0.0-6.0-2.6","2787217","co38281","norming","","","{""curiosity"":5,""confidence"":2}","[0,1]","../img/tt/416tt.jpg","",""
"7974.140000000072","","","recognition","survey-text","51","325620","0.0-6.0-3.6","2787217","co38281","norming","","","{""guess"":""STRUISVOGEL""}","","../img/tt/416tt.jpg","",""
"null","../img/gs/416gs.jpg","null","reveal","image-keyboard-response","52","327627","0.0-6.0-4.6","2787217","co38281","norming","","","","","","",""
"null","../img/tt/416tt.jpg","null","mooney2","image-keyboard-response","53","329630","0.0-6.0-5.6","2787217","co38281","norming","","","","","","",""
"2595.7849999999744","","","post_reveal_questions","survey-likert","54","332228","0.0-6.0-6.6","2787217","co38281","norming","","","{""aha"":2}","[0]","../img/tt/416tt.jpg","",""
"null","<div style=""font-size:60px;""> </div>","null","fixation","html-keyboard-response","55","332429","0.0-6.0-0.7","2787217","co38281","norming","","","","","","",""
"null","../img/tt/1061tt.jpg","null","mooney1","image-keyboard-response","56","335433","0.0-6.0-1.7","2787217","co38281","norming","","","","","","",""
"4344.7900000000955","","","post_mooney1_questions","survey-likert","57","339780","0.0-6.0-2.7","2787217","co38281","norming","","","{""curiosity"":5,""confidence"":3}","[0,1]","../img/tt/1061tt.jpg","",""
"8614.17499999993","","","recognition","survey-text","58","348396","0.0-6.0-3.7","2787217","co38281","norming","","","{""guess"":""WORKING MAN""}","","../img/tt/1061tt.jpg","",""
"null","../img/gs/1061gs.jpg","null","reveal","image-keyboard-response","59","350397","0.0-6.0-4.7","2787217","co38281","norming","","","","","","",""
"null","../img/tt/1061tt.jpg","null","mooney2","image-keyboard-response","60","352402","0.0-6.0-5.7","2787217","co38281","norming","","","","","","",""
"3327.6200000000536","","","post_reveal_questions","survey-likert","61","355732","0.0-6.0-6.7","2787217","co38281","norming","","","{""aha"":4}","[0]","../img/tt/1061tt.jpg","",""
"null","<div style=""font-size:60px;""> </div>","null","fixation","html-keyboard-response","62","355933","0.0-6.0-0.8","2787217","co38281","norming","","","","","","",""
"null","../img/tt/1096tt.jpg","null","mooney1","image-keyboard-response","63","358944","0.0-6.0-1.8","2787217","co38281","norming","","","","","","",""
"4305.075000000128","","","post_mooney1_questions","survey-likert","64","363252","0.0-6.0-2.8","2787217","co38281","norming","","","{""curiosity"":6,""confidence"":5}","[0,1]","../img/tt/1096tt.jpg","",""
"3909.9099999999744","","","recognition","survey-text","65","367164","0.0-6.0-3.8","2787217","co38281","norming","","","{""guess"":""HORSE""}","","../img/tt/1096tt.jpg","",""
"null","../img/gs/1096gs.jpg","null","reveal","image-keyboard-response","66","369166","0.0-6.0-4.8","2787217","co38281","norming","","","","","","",""
"null","../img/tt/1096tt.jpg","null","mooney2","image-keyboard-response","67","371169","0.0-6.0-5.8","2787217","co38281","norming","","","","","","",""
"3128.570000000007","","","post_reveal_questions","survey-likert","68","374300","0.0-6.0-6.8","2787217","co38281","norming","","","{""aha"":1}","[0]","../img/tt/1096tt.jpg","",""
"null","<div style=""font-size:60px;""> </div>","null","fixation","html-keyboard-response","69","374502","0.0-6.0-0.9","2787217","co38281","norming","","","","","","",""
"null","../img/tt/044tt.jpg","null","mooney1","image-keyboard-response","70","377508","0.0-6.0-1.9","2787217","co38281","norming","","","","","","",""
"4981.92499999993","","","post_mooney1_questions","survey-likert","71","382492","0.0-6.0-2.9","2787217","co38281","norming","","","{""curiosity"":5,""confidence"":3}","[0,1]","../img/tt/044tt.jpg","",""
"3758.0999999999767","","","recognition","survey-text","72","386252","0.0-6.0-3.9","2787217","co38281","norming","","","{""guess"":""LAPTOP""}","","../img/tt/044tt.jpg","",""
"null","../img/gs/044gs.jpg","null","reveal","image-keyboard-response","73","388259","0.0-6.0-4.9","2787217","co38281","norming","","","","","","",""
"null","../img/tt/044tt.jpg","null","mooney2","image-keyboard-response","74","390269","0.0-6.0-5.9","2787217","co38281","norming","","","","","","",""
"3925.3399999999674","","","post_reveal_questions","survey-likert","75","394196","0.0-6.0-6.9","2787217","co38281","norming","","","{""aha"":5}","[0]","../img/tt/044tt.jpg","",""
"null","<div style=""font-size:60px;""> </div>","null","fixation","html-keyboard-response","76","394404","0.0-6.0-0.10","2787217","co38281","norming","","","","","","",""
"null","../img/tt/1159tt.jpg","null","mooney1","image-keyboard-response","77","397416","0.0-6.0-1.10","2787217","co38281","norming","","","","","","",""
"4554.094999999972","","","post_mooney1_questions","survey-likert","78","401972","0.0-6.0-2.10","2787217","co38281","norming","","","{""curiosity"":5,""confidence"":1}","[0,1]","../img/tt/1159tt.jpg","",""
"7190.169999999984","","","recognition","survey-text","79","409164","0.0-6.0-3.10","2787217","co38281","norming","","","{""guess"":""JONGEN""}","","../img/tt/1159tt.jpg","",""
"null","../img/gs/1159gs.jpg","null","reveal","image-keyboard-response","80","411170","0.0-6.0-4.10","2787217","co38281","norming","","","","","","",""
"null","../img/tt/1159tt.jpg","null","mooney2","image-keyboard-response","81","413181","0.0-6.0-5.10","2787217","co38281","norming","","","","","","",""
"2516.640000000072","","","post_reveal_questions","survey-likert","82","415700","0.0-6.0-6.10","2787217","co38281","norming","","","{""aha"":4}","[0]","../img/tt/1159tt.jpg","",""
"null","<div style=""font-size:60px;""> </div>","null","fixation","html-keyboard-response","83","415901","0.0-6.0-0.11","2787217","co38281","norming","","","","","","",""
"null","../img/tt/1283tt.jpg","null","mooney1","image-keyboard-response","84","418905","0.0-6.0-1.11","2787217","co38281","norming","","","","","","",""
"6520.6149999999325","","","post_mooney1_questions","survey-likert","85","425428","0.0-6.0-2.11","2787217","co38281","norming","","","{""curiosity"":6,""confidence"":2}","[0,1]","../img/tt/1283tt.jpg","",""
"7230.14499999996","","","recognition","survey-text","86","432660","0.0-6.0-3.11","2787217","co38281","norming","","","{""guess"":""ANIMAL""}","","../img/tt/1283tt.jpg","",""
"null","../img/gs/1283gs.jpg","null","reveal","image-keyboard-response","87","434664","0.0-6.0-4.11","2787217","co38281","norming","","","","","","",""
"null","../img/tt/1283tt.jpg","null","mooney2","image-keyboard-response","88","436666","0.0-6.0-5.11","2787217","co38281","norming","","","","","","",""
"4319.265000000014","","","post_reveal_questions","survey-likert","89","440988","0.0-6.0-6.11","2787217","co38281","norming","","","{""aha"":3}","[0]","../img/tt/1283tt.jpg","",""
"null","<div style=""font-size:60px;""> </div>","null","fixation","html-keyboard-response","90","441190","0.0-6.0-0.12","2787217","co38281","norming","","","","","","",""
"null","../img/tt/1236tt.jpg","null","mooney1","image-keyboard-response","91","444198","0.0-6.0-1.12","2787217","co38281","norming","","","","","","",""
"3612.0349999999744","","","post_mooney1_questions","survey-likert","92","447812","0.0-6.0-2.12","2787217","co38281","norming","","","{""curiosity"":6,""confidence"":1}","[0,1]","../img/tt/1236tt.jpg","",""
"6438.150000000023","","","recognition","survey-text","93","454249","0.0-6.0-3.12","2787217","co38281","norming","","","{""guess"":""OLD WOMAN""}","","../img/tt/1236tt.jpg","",""
"null","../img/gs/1236gs.jpg","null","reveal","image-keyboard-response","94","456258","0.0-6.0-4.12","2787217","co38281","norming","","","","","","",""
"null","../img/tt/1236tt.jpg","null","mooney2","image-keyboard-response","95","458266","0.0-6.0-5.12","2787217","co38281","norming","","","","","","",""
"2700.5599999999977","","","post_reveal_questions","survey-likert","96","460969","0.0-6.0-6.12","2787217","co38281","norming","","","{""aha"":6}","[0]","../img/tt/1236tt.jpg","",""
"null","<div style=""font-size:60px;""> </div>","null","fixation","html-keyboard-response","97","461172","0.0-6.0-0.13","2787217","co38281","norming","","","","","","",""
"null","../img/tt/008tt.jpg","null","mooney1","image-keyboard-response","98","464184","0.0-6.0-1.13","2787217","co38281","norming","","","","","","",""
"4798.719999999972","","","post_mooney1_questions","survey-likert","99","468985","0.0-6.0-2.13","2787217","co38281","norming","","","{""curiosity"":6,""confidence"":1}","[0,1]","../img/tt/008tt.jpg","",""
"6334.110000000044","","","recognition","survey-text","100","475321","0.0-6.0-3.13","2787217","co38281","norming","","","{""guess"":""""}","","../img/tt/008tt.jpg","",""
"null","../img/gs/008gs.jpg","null","reveal","image-keyboard-response","101","477324","0.0-6.0-4.13","2787217","co38281","norming","","","","","","",""
"null","../img/tt/008tt.jpg","null","mooney2","image-keyboard-response","102","479332","0.0-6.0-5.13","2787217","co38281","norming","","","","","","",""
"3683.9349999999977","","","post_reveal_questions","survey-likert","103","483017","0.0-6.0-6.13","2787217","co38281","norming","","","{""aha"":6}","[0]","../img/tt/008tt.jpg","",""
"null","<div style=""font-size:60px;""> </div>","null","fixation","html-keyboard-response","104","483218","0.0-6.0-0.14","2787217","co38281","norming","","","","","","",""
"null","../img/tt/1227tt.jpg","null","mooney1","image-keyboard-response","105","486224","0.0-6.0-1.14","2787217","co38281","norming","","","","","","",""
"4094.8450000000885","","","post_mooney1_questions","survey-likert","106","490321","0.0-6.0-2.14","2787217","co38281","norming","","","{""curiosity"":6,""confidence"":0}","[0,1]","../img/tt/1227tt.jpg","",""
"1150.1599999999162","","","recognition","survey-text","107","491473","0.0-6.0-3.14","2787217","co38281","norming","","","{""guess"":""""}","","../img/tt/1227tt.jpg","",""
"null","../img/gs/1227gs.jpg","null","reveal","image-keyboard-response","108","493482","0.0-6.0-4.14","2787217","co38281","norming","","","","","","",""
"null","../img/tt/1227tt.jpg","null","mooney2","image-keyboard-response","109","495487","0.0-6.0-5.14","2787217","co38281","norming","","","","","","",""
"2440.094999999972","","","post_reveal_questions","survey-likert","110","497929","0.0-6.0-6.14","2787217","co38281","norming","","","{""aha"":6}","[0]","../img/tt/1227tt.jpg","",""
"null","<div style=""font-size:60px;""> </div>","null","fixation","html-keyboard-response","111","498131","0.0-6.0-0.15","2787217","co38281","norming","","","","","","",""
"null","../img/tt/1084tt.jpg","null","mooney1","image-keyboard-response","112","501138","0.0-6.0-1.15","2787217","co38281","norming","","","","","","",""
"4669.159999999916","","","post_mooney1_questions","survey-likert","113","505809","0.0-6.0-2.15","2787217","co38281","norming","","","{""curiosity"":5,""confidence"":4}","[0,1]","../img/tt/1084tt.jpg","",""
"16254.285000000033","","","recognition","survey-text","114","522068","0.0-6.0-3.15","2787217","co38281","norming","","","{""guess"":""PLATEN SPELER""}","","../img/tt/1084tt.jpg","",""
"null","../img/gs/1084gs.jpg","null","reveal","image-keyboard-response","115","524069","0.0-6.0-4.15","2787217","co38281","norming","","","","","","",""
"null","../img/tt/1084tt.jpg","null","mooney2","image-keyboard-response","116","526072","0.0-6.0-5.15","2787217","co38281","norming","","","","","","",""
"3042.0250000000233","","","post_reveal_questions","survey-likert","117","529116","0.0-6.0-6.15","2787217","co38281","norming","","","{""aha"":6}","[0]","../img/tt/1084tt.jpg","",""
"null","<div style=""font-size:60px;""> </div>","null","fixation","html-keyboard-response","118","529320","0.0-6.0-0.16","2787217","co38281","norming","","","","","","",""
"null","../img/tt/1224tt.jpg","null","mooney1","image-keyboard-response","119","532332","0.0-6.0-1.16","2787217","co38281","norming","","","","","","",""
"5269.369999999995","","","post_mooney1_questions","survey-likert","120","537604","0.0-6.0-2.16","2787217","co38281","norming","","","{""curiosity"":6,""confidence"":1}","[0,1]","../img/tt/1224tt.jpg","",""
"3062.0500000000466","","","recognition","survey-text","121","540668","0.0-6.0-3.16","2787217","co38281","norming","","","{""guess"":""OMA""}","","../img/tt/1224tt.jpg","",""
"null","../img/gs/1224gs.jpg","null","reveal","image-keyboard-response","122","542677","0.0-6.0-4.16","2787217","co38281","norming","","","","","","",""
"null","../img/tt/1224tt.jpg","null","mooney2","image-keyboard-response","123","544686","0.0-6.0-5.16","2787217","co38281","norming","","","","","","",""
"3163.82500000007","","","post_reveal_questions","survey-likert","124","547852","0.0-6.0-6.16","2787217","co38281","norming","","","{""aha"":6}","[0]","../img/tt/1224tt.jpg","",""
"null","<div style=""font-size:60px;""> </div>","null","fixation","html-keyboard-response","125","548059","0.0-6.0-0.17","2787217","co38281","norming","","","","","","",""
"null","../img/tt/1024tt.jpg","null","mooney1","image-keyboard-response","126","551071","0.0-6.0-1.17","2787217","co38281","norming","","","","","","",""
"5019.939999999944","","","post_mooney1_questions","survey-likert","127","556092","0.0-6.0-2.17","2787217","co38281","norming","","","{""curiosity"":6,""confidence"":2}","[0,1]","../img/tt/1024tt.jpg","",""
"3318.134999999893","","","recognition","survey-text","128","559412","0.0-6.0-3.17","2787217","co38281","norming","","","{""guess"":""LADY""}","","../img/tt/1024tt.jpg","",""
"null","../img/gs/1024gs.jpg","null","reveal","image-keyboard-response","129","561416","0.0-6.0-4.17","2787217","co38281","norming","","","","","","",""
"null","../img/tt/1024tt.jpg","null","mooney2","image-keyboard-response","130","563427","0.0-6.0-5.17","2787217","co38281","norming","","","","","","",""
"2478.6750000000466","","","post_reveal_questions","survey-likert","131","565908","0.0-6.0-6.17","2787217","co38281","norming","","","{""aha"":5}","[0]","../img/tt/1024tt.jpg","",""
"null","<div style=""font-size:60px;""> </div>","null","fixation","html-keyboard-response","132","566109","0.0-6.0-0.18","2787217","co38281","norming","","","","","","",""
"null","../img/tt/1146tt.jpg","null","mooney1","image-keyboard-response","133","569116","0.0-6.0-1.18","2787217","co38281","norming","","","","","","",""
"5358.985000000102","","","post_mooney1_questions","survey-likert","134","574474","0.0-6.0-2.18","2787217","co38281","norming","","","{""curiosity"":6,""confidence"":1}","[0,1]","../img/tt/1146tt.jpg","",""
"3613.930000000051","","","recognition","survey-text","135","578089","0.0-6.0-3.18","2787217","co38281","norming","","","{""guess"":""AUTO""}","","../img/tt/1146tt.jpg","",""
"null","../img/gs/1146gs.jpg","null","reveal","image-keyboard-response","136","580090","0.0-6.0-4.18","2787217","co38281","norming","","","","","","",""
"null","../img/tt/1146tt.jpg","null","mooney2","image-keyboard-response","137","582097","0.0-6.0-5.18","2787217","co38281","norming","","","","","","",""
"2486.210000000079","","","post_reveal_questions","survey-likert","138","584586","0.0-6.0-6.18","2787217","co38281","norming","","","{""aha"":6}","[0]","../img/tt/1146tt.jpg","",""
"null","<div style=""font-size:60px;""> </div>","null","fixation","html-keyboard-response","139","584787","0.0-6.0-0.19","2787217","co38281","norming","","","","","","",""
"null","../img/tt/1217tt.jpg","null","mooney1","image-keyboard-response","140","587797","0.0-6.0-1.19","2787217","co38281","norming","","","","","","",""
"6020.15000000014","","","post_mooney1_questions","survey-likert","141","593818","0.0-6.0-2.19","2787217","co38281","norming","","","{""curiosity"":5,""confidence"":1}","[0,1]","../img/tt/1217tt.jpg","",""
"6230.145000000019","","","recognition","survey-text","142","600050","0.0-6.0-3.19","2787217","co38281","norming","","","{""guess"":""SPELENDE KINDEREN""}","","../img/tt/1217tt.jpg","",""
"null","../img/gs/1217gs.jpg","null","reveal","image-keyboard-response","143","602059","0.0-6.0-4.19","2787217","co38281","norming","","","","","","",""
"null","../img/tt/1217tt.jpg","null","mooney2","image-keyboard-response","144","604070","0.0-6.0-5.19","2787217","co38281","norming","","","","","","",""
"3049.3950000000186","","","post_reveal_questions","survey-likert","145","607122","0.0-6.0-6.19","2787217","co38281","norming","","","{""aha"":5}","[0]","../img/tt/1217tt.jpg","",""
"null","<div style=""font-size:60px;""> </div>","null","fixation","html-keyboard-response","146","607323","0.0-6.0-0.20","2787217","co38281","norming","","","","","","",""
"null","../img/tt/1066tt.jpg","null","mooney1","image-keyboard-response","147","610332","0.0-6.0-1.20","2787217","co38281","norming","","","","","","",""
"3859.4499999999534","","","post_mooney1_questions","survey-likert","148","614194","0.0-6.0-2.20","2787217","co38281","norming","","","{""curiosity"":6,""confidence"":1}","[0,1]","../img/tt/1066tt.jpg","",""
"5430.360000000102","","","recognition","survey-text","149","619626","0.0-6.0-3.20","2787217","co38281","norming","","","{""guess"":""CAMION""}","","../img/tt/1066tt.jpg","",""
"null","../img/gs/1066gs.jpg","null","reveal","image-keyboard-response","150","621634","0.0-6.0-4.20","2787217","co38281","norming","","","","","","",""
"null","../img/tt/1066tt.jpg","null","mooney2","image-keyboard-response","151","623635","0.0-6.0-5.20","2787217","co38281","norming","","","","","","",""
"2404.359999999986","","","post_reveal_questions","survey-likert","152","626042","0.0-6.0-6.20","2787217","co38281","norming","","","{""aha"":6}","[0]","../img/tt/1066tt.jpg","",""
"null","<div style=""font-size:60px;""> </div>","null","fixation","html-keyboard-response","153","626243","0.0-6.0-0.21","2787217","co38281","norming","","","","","","",""
"null","../img/tt/296tt.jpg","null","mooney1","image-keyboard-response","154","629250","0.0-6.0-1.21","2787217","co38281","norming","","","","","","",""
"4742.719999999972","","","post_mooney1_questions","survey-likert","155","633990","0.0-6.0-2.21","2787217","co38281","norming","","","{""curiosity"":6,""confidence"":2}","[0,1]","../img/tt/296tt.jpg","",""
"7150.145000000019","","","recognition","survey-text","156","641142","0.0-6.0-3.21","2787217","co38281","norming","","","{""guess"":""TAFEL""}","","../img/tt/296tt.jpg","",""
"null","../img/gs/296gs.jpg","null","reveal","image-keyboard-response","157","643151","0.0-6.0-4.21","2787217","co38281","norming","","","","","","",""
"null","../img/tt/296tt.jpg","null","mooney2","image-keyboard-response","158","645152","0.0-6.0-5.21","2787217","co38281","norming","","","","","","",""
"2323.464999999851","","","post_reveal_questions","survey-likert","159","647478","0.0-6.0-6.21","2787217","co38281","norming","","","{""aha"":6}","[0]","../img/tt/296tt.jpg","",""
"null","<div style=""font-size:60px;""> </div>","null","fixation","html-keyboard-response","160","647680","0.0-6.0-0.22","2787217","co38281","norming","","","","","","",""
"null","../img/tt/440tt.jpg","null","mooney1","image-keyboard-response","161","650685","0.0-6.0-1.22","2787217","co38281","norming","","","","","","",""
"5046.859999999986","","","post_mooney1_questions","survey-likert","162","655734","0.0-6.0-2.22","2787217","co38281","norming","","","{""curiosity"":6,""confidence"":0}","[0,1]","../img/tt/440tt.jpg","",""
"966.1949999999488","","","recognition","survey-text","163","656702","0.0-6.0-3.22","2787217","co38281","norming","","","{""guess"":""""}","","../img/tt/440tt.jpg","",""
"null","../img/gs/440gs.jpg","null","reveal","image-keyboard-response","164","658703","0.0-6.0-4.22","2787217","co38281","norming","","","","","","",""
"null","../img/tt/440tt.jpg","null","mooney2","image-keyboard-response","165","660705","0.0-6.0-5.22","2787217","co38281","norming","","","","","","",""
"2571.609999999986","","","post_reveal_questions","survey-likert","166","663278","0.0-6.0-6.22","2787217","co38281","norming","","","{""aha"":6}","[0]","../img/tt/440tt.jpg","",""
"null","<div style=""font-size:60px;""> </div>","null","fixation","html-keyboard-response","167","663479","0.0-6.0-0.23","2787217","co38281","norming","","","","","","",""
"null","../img/tt/1278tt.jpg","null","mooney1","image-keyboard-response","168","666484","0.0-6.0-1.23","2787217","co38281","norming","","","","","","",""
"4263.479999999865","","","post_mooney1_questions","survey-likert","169","670750","0.0-6.0-2.23","2787217","co38281","norming","","","{""curiosity"":6,""confidence"":0}","[0,1]","../img/tt/1278tt.jpg","",""
"1118.1099999998696","","","recognition","survey-text","170","671870","0.0-6.0-3.23","2787217","co38281","norming","","","{""guess"":""""}","","../img/tt/1278tt.jpg","",""
"null","../img/gs/1278gs.jpg","null","reveal","image-keyboard-response","171","673872","0.0-6.0-4.23","2787217","co38281","norming","","","","","","",""
"null","../img/tt/1278tt.jpg","null","mooney2","image-keyboard-response","172","675878","0.0-6.0-5.23","2787217","co38281","norming","","","","","","",""
"3804.8850000000093","","","post_reveal_questions","survey-likert","173","679686","0.0-6.0-6.23","2787217","co38281","norming","","","{""aha"":6}","[0]","../img/tt/1278tt.jpg","",""
"null","<div style=""font-size:60px;""> </div>","null","fixation","html-keyboard-response","174","679888","0.0-6.0-0.24","2787217","co38281","norming","","","","","","",""
"null","../img/tt/1272tt.jpg","null","mooney1","image-keyboard-response","175","682893","0.0-6.0-1.24","2787217","co38281","norming","","","","","","",""
"4422.40000000014","","","post_mooney1_questions","survey-likert","176","687318","0.0-6.0-2.24","2787217","co38281","norming","","","{""curiosity"":6,""confidence"":0}","[0,1]","../img/tt/1272tt.jpg","",""
"3429.9699999998556","","","recognition","survey-text","177","690750","0.0-6.0-3.24","2787217","co38281","norming","","","{""guess"":""FISH""}","","../img/tt/1272tt.jpg","",""
"null","../img/gs/1272gs.jpg","null","reveal","image-keyboard-response","178","692751","0.0-6.0-4.24","2787217","co38281","norming","","","","","","",""
"null","../img/tt/1272tt.jpg","null","mooney2","image-keyboard-response","179","694760","0.0-6.0-5.24","2787217","co38281","norming","","","","","","",""
"2178.515000000014","","","post_reveal_questions","survey-likert","180","696940","0.0-6.0-6.24","2787217","co38281","norming","","","{""aha"":6}","[0]","../img/tt/1272tt.jpg","",""
"null","<div style=""font-size:60px;""> </div>","null","fixation","html-keyboard-response","181","697147","0.0-6.0-0.25","2787217","co38281","norming","","","","","","",""
"null","../img/tt/1242tt.jpg","null","mooney1","image-keyboard-response","182","700158","0.0-6.0-1.25","2787217","co38281","norming","","","","","","",""
"4516.770000000019","","","post_mooney1_questions","survey-likert","183","704676","0.0-6.0-2.25","2787217","co38281","norming","","","{""curiosity"":6,""confidence"":3}","[0,1]","../img/tt/1242tt.jpg","",""
"3038.059999999823","","","recognition","survey-text","184","707716","0.0-6.0-3.25","2787217","co38281","norming","","","{""guess"":""CAT""}","","../img/tt/1242tt.jpg","",""
"null","../img/gs/1242gs.jpg","null","reveal","image-keyboard-response","185","709718","0.0-6.0-4.25","2787217","co38281","norming","","","","","","",""
"null","../img/tt/1242tt.jpg","null","mooney2","image-keyboard-response","186","711726","0.0-6.0-5.25","2787217","co38281","norming","","","","","","",""
"2938.9599999999627","","","post_reveal_questions","survey-likert","187","714668","0.0-6.0-6.25","2787217","co38281","norming","","","{""aha"":6}","[0]","../img/tt/1242tt.jpg","",""
"null","<div style=""font-size:60px;""> </div>","null","fixation","html-keyboard-response","188","714870","0.0-6.0-0.26","2787217","co38281","norming","","","","","","",""
"null","../img/tt/1199tt.jpg","null","mooney1","image-keyboard-response","189","717878","0.0-6.0-1.26","2787217","co38281","norming","","","","","","",""
"5429.410000000149","","","post_mooney1_questions","survey-likert","190","723308","0.0-6.0-2.26","2787217","co38281","norming","","","{""curiosity"":6,""confidence"":2}","[0,1]","../img/tt/1199tt.jpg","",""
"11758.019999999902","","","recognition","survey-text","191","735068","0.0-6.0-3.26","2787217","co38281","norming","","","{""guess"":""SLAPEND MEISJE""}","","../img/tt/1199tt.jpg","",""
"null","../img/gs/1199gs.jpg","null","reveal","image-keyboard-response","192","737075","0.0-6.0-4.26","2787217","co38281","norming","","","","","","",""
"null","../img/tt/1199tt.jpg","null","mooney2","image-keyboard-response","193","739085","0.0-6.0-5.26","2787217","co38281","norming","","","","","","",""
"2390.594999999972","","","post_reveal_questions","survey-likert","194","741476","0.0-6.0-6.26","2787217","co38281","norming","","","{""aha"":6}","[0]","../img/tt/1199tt.jpg","",""
"null","<div style=""font-size:60px;""> </div>","null","fixation","html-keyboard-response","195","741679","0.0-6.0-0.27","2787217","co38281","norming","","","","","","",""
"null","../img/tt/1087tt.jpg","null","mooney1","image-keyboard-response","196","744683","0.0-6.0-1.27","2787217","co38281","norming","","","","","","",""
"4806.285000000149","","","post_mooney1_questions","survey-likert","197","749492","0.0-6.0-2.27","2787217","co38281","norming","","","{""curiosity"":6,""confidence"":1}","[0,1]","../img/tt/1087tt.jpg","",""
"4774.244999999995","","","recognition","survey-text","198","754268","0.0-6.0-3.27","2787217","co38281","norming","","","{""guess"":""RABBIT""}","","../img/tt/1087tt.jpg","",""
"null","../img/gs/1087gs.jpg","null","reveal","image-keyboard-response","199","756270","0.0-6.0-4.27","2787217","co38281","norming","","","","","","",""
"null","../img/tt/1087tt.jpg","null","mooney2","image-keyboard-response","200","758272","0.0-6.0-5.27","2787217","co38281","norming","","","","","","",""
"2713.840000000084","","","post_reveal_questions","survey-likert","201","760988","0.0-6.0-6.27","2787217","co38281","norming","","","{""aha"":6}","[0]","../img/tt/1087tt.jpg","",""
"null","<div style=""font-size:60px;""> </div>","null","fixation","html-keyboard-response","202","761192","0.0-6.0-0.28","2787217","co38281","norming","","","","","","",""
"null","../img/tt/1247tt.jpg","null","mooney1","image-keyboard-response","203","764204","0.0-6.0-1.28","2787217","co38281","norming","","","","","","",""
"3246.0649999998277","","","post_mooney1_questions","survey-likert","204","767452","0.0-6.0-2.28","2787217","co38281","norming","","","{""curiosity"":6,""confidence"":0}","[0,1]","../img/tt/1247tt.jpg","",""
"1781.955000000191","","","recognition","survey-text","205","769236","0.0-6.0-3.28","2787217","co38281","norming","","","{""guess"":"" ""}","","../img/tt/1247tt.jpg","",""
"null","../img/gs/1247gs.jpg","null","reveal","image-keyboard-response","206","771245","0.0-6.0-4.28","2787217","co38281","norming","","","","","","",""
"null","../img/tt/1247tt.jpg","null","mooney2","image-keyboard-response","207","773253","0.0-6.0-5.28","2787217","co38281","norming","","","","","","",""
"2269.3750000001164","","","post_reveal_questions","survey-likert","208","775524","0.0-6.0-6.28","2787217","co38281","norming","","","{""aha"":6}","[0]","../img/tt/1247tt.jpg","",""
"null","<div style=""font-size:60px;""> </div>","null","fixation","html-keyboard-response","209","775725","0.0-6.0-0.29","2787217","co38281","norming","","","","","","",""
"null","../img/tt/598tt.jpg","null","mooney1","image-keyboard-response","210","778730","0.0-6.0-1.29","2787217","co38281","norming","","","","","","",""
"3575.0149999998976","","","post_mooney1_questions","survey-likert","211","782308","0.0-6.0-2.29","2787217","co38281","norming","","","{""curiosity"":6,""confidence"":1}","[0,1]","../img/tt/598tt.jpg","",""
"3109.9000000001397","","","recognition","survey-text","212","785420","0.0-6.0-3.29","2787217","co38281","norming","","","{""guess"":""SLAK""}","","../img/tt/598tt.jpg","",""
"null","../img/gs/598gs.jpg","null","reveal","image-keyboard-response","213","787423","0.0-6.0-4.29","2787217","co38281","norming","","","","","","",""
"null","../img/tt/598tt.jpg","null","mooney2","image-keyboard-response","214","789428","0.0-6.0-5.29","2787217","co38281","norming","","","","","","",""
"2830.740000000107","","","post_reveal_questions","survey-likert","215","792260","0.0-6.0-6.29","2787217","co38281","norming","","","{""aha"":4}","[0]","../img/tt/598tt.jpg","",""
"null","<div style=""font-size:60px;""> </div>","null","fixation","html-keyboard-response","216","792463","0.0-6.0-0.30","2787217","co38281","norming","","","","","","",""
"null","../img/tt/123tt.jpg","null","mooney1","image-keyboard-response","217","795469","0.0-6.0-1.30","2787217","co38281","norming","","","","","","",""
"3646.179999999935","","","post_mooney1_questions","survey-likert","218","799116","0.0-6.0-2.30","2787217","co38281","norming","","","{""curiosity"":6,""confidence"":1}","[0,1]","../img/tt/123tt.jpg","",""
"4253.709999999963","","","recognition","survey-text","219","803372","0.0-6.0-3.30","2787217","co38281","norming","","","{""guess"":""BOEKENTAS""}","","../img/tt/123tt.jpg","",""
"null","../img/gs/123gs.jpg","null","reveal","image-keyboard-response","220","805382","0.0-6.0-4.30","2787217","co38281","norming","","","","","","",""
"null","../img/tt/123tt.jpg","null","mooney2","image-keyboard-response","221","807388","0.0-6.0-5.30","2787217","co38281","norming","","","","","","",""
"2039.0849999999627","","","post_reveal_questions","survey-likert","222","809428","0.0-6.0-6.30","2787217","co38281","norming","","","{""aha"":4}","[0]","../img/tt/123tt.jpg","",""
"null","<div style=""font-size:60px;""> </div>","null","fixation","html-keyboard-response","223","809630","0.0-6.0-0.31","2787217","co38281","norming","","","","","","",""
"null","../img/tt/517tt.jpg","null","mooney1","image-keyboard-response","224","812631","0.0-6.0-1.31","2787217","co38281","norming","","","","","","",""
"5051.985000000102","","","post_mooney1_questions","survey-likert","225","817678","0.0-6.0-2.31","2787217","co38281","norming","","","{""curiosity"":6,""confidence"":1}","[0,1]","../img/tt/517tt.jpg","",""
"3653.8450000000885","","","recognition","survey-text","226","821334","0.0-6.0-3.31","2787217","co38281","norming","","","{""guess"":""BEER""}","","../img/tt/517tt.jpg","",""
"null","../img/gs/517gs.jpg","null","reveal","image-keyboard-response","227","823335","0.0-6.0-4.31","2787217","co38281","norming","","","","","","",""
"null","../img/tt/517tt.jpg","null","mooney2","image-keyboard-response","228","825345","0.0-6.0-5.31","2787217","co38281","norming","","","","","","",""
"3051.6400000001304","","","post_reveal_questions","survey-likert","229","828398","0.0-6.0-6.31","2787217","co38281","norming","","","{""aha"":4}","[0]","../img/tt/517tt.jpg","",""
"null","<div style=""font-size:60px;""> </div>","null","fixation","html-keyboard-response","230","828599","0.0-6.0-0.32","2787217","co38281","norming","","","","","","",""
"null","../img/tt/096tt.jpg","null","mooney1","image-keyboard-response","231","831607","0.0-6.0-1.32","2787217","co38281","norming","","","","","","",""
"3662.7350000001024","","","post_mooney1_questions","survey-likert","232","835270","0.0-6.0-2.32","2787217","co38281","norming","","","{""curiosity"":6,""confidence"":2}","[0,1]","../img/tt/096tt.jpg","",""
"3173.694999999949","","","recognition","survey-text","233","838446","0.0-6.0-3.32","2787217","co38281","norming","","","{""guess"":""PIANO""}","","../img/tt/096tt.jpg","",""
"null","../img/gs/096gs.jpg","null","reveal","image-keyboard-response","234","840453","0.0-6.0-4.32","2787217","co38281","norming","","","","","","",""
"null","../img/tt/096tt.jpg","null","mooney2","image-keyboard-response","235","842456","0.0-6.0-5.32","2787217","co38281","norming","","","","","","",""
"3324.8699999999953","","","post_reveal_questions","survey-likert","236","845782","0.0-6.0-6.32","2787217","co38281","norming","","","{""aha"":4}","[0]","../img/tt/096tt.jpg","",""
"null","<div style=""font-size:60px;""> </div>","null","fixation","html-keyboard-response","237","845983","0.0-6.0-0.33","2787217","co38281","norming","","","","","","",""
"null","../img/tt/329tt.jpg","null","mooney1","image-keyboard-response","238","848984","0.0-6.0-1.33","2787217","co38281","norming","","","","","","",""
"3972.059999999823","","","post_mooney1_questions","survey-likert","239","852958","0.0-6.0-2.33","2787217","co38281","norming","","","{""curiosity"":6,""confidence"":0}","[0,1]","../img/tt/329tt.jpg","",""
"2742.0250000000233","","","recognition","survey-text","240","855702","0.0-6.0-3.33","2787217","co38281","norming","","","{""guess"":"" ""}","","../img/tt/329tt.jpg","",""
"null","../img/gs/329gs.jpg","null","reveal","image-keyboard-response","241","857708","0.0-6.0-4.33","2787217","co38281","norming","","","","","","",""
"null","../img/tt/329tt.jpg","null","mooney2","image-keyboard-response","242","859712","0.0-6.0-5.33","2787217","co38281","norming","","","","","","",""
"2820.4099999997998","","","post_reveal_questions","survey-likert","243","862534","0.0-6.0-6.33","2787217","co38281","norming","","","{""aha"":6}","[0]","../img/tt/329tt.jpg","",""
"null","<div style=""font-size:60px;""> </div>","null","fixation","html-keyboard-response","244","862735","0.0-6.0-0.34","2787217","co38281","norming","","","","","","",""
"null","../img/tt/053tt.jpg","null","mooney1","image-keyboard-response","245","865739","0.0-6.0-1.34","2787217","co38281","norming","","","","","","",""
"3617.765000000014","","","post_mooney1_questions","survey-likert","246","869358","0.0-6.0-2.34","2787217","co38281","norming","","","{""curiosity"":6,""confidence"":0}","[0,1]","../img/tt/053tt.jpg","",""
"677.5999999999767","","","recognition","survey-text","247","870038","0.0-6.0-3.34","2787217","co38281","norming","","","{""guess"":""""}","","../img/tt/053tt.jpg","",""
"null","../img/gs/053gs.jpg","null","reveal","image-keyboard-response","248","872041","0.0-6.0-4.34","2787217","co38281","norming","","","","","","",""
"null","../img/tt/053tt.jpg","null","mooney2","image-keyboard-response","249","874049","0.0-6.0-5.34","2787217","co38281","norming","","","","","","",""
"2587.5100000000093","","","post_reveal_questions","survey-likert","250","876638","0.0-6.0-6.34","2787217","co38281","norming","","","{""aha"":6}","[0]","../img/tt/053tt.jpg","",""
"null","<div style=""font-size:60px;""> </div>","null","fixation","html-keyboard-response","251","876847","0.0-6.0-0.35","2787217","co38281","norming","","","","","","",""
"null","../img/tt/1116tt.jpg","null","mooney1","image-keyboard-response","252","879854","0.0-6.0-1.35","2787217","co38281","norming","","","","","","",""
"3626.5850000001956","","","post_mooney1_questions","survey-likert","253","883483","0.0-6.0-2.35","2787217","co38281","norming","","","{""curiosity"":6,""confidence"":2}","[0,1]","../img/tt/1116tt.jpg","",""
"7453.995000000112","","","recognition","survey-text","254","890938","0.0-6.0-3.35","2787217","co38281","norming","","","{""guess"":""PARKEERPLAATS""}","","../img/tt/1116tt.jpg","",""
"null","../img/gs/1116gs.jpg","null","reveal","image-keyboard-response","255","892940","0.0-6.0-4.35","2787217","co38281","norming","","","","","","",""
"null","../img/tt/1116tt.jpg","null","mooney2","image-keyboard-response","256","894943","0.0-6.0-5.35","2787217","co38281","norming","","","","","","",""
"2400.7850000000326","","","post_reveal_questions","survey-likert","257","897347","0.0-6.0-6.35","2787217","co38281","norming","","","{""aha"":6}","[0]","../img/tt/1116tt.jpg","",""
"null","<div style=""font-size:60px;""> </div>","null","fixation","html-keyboard-response","258","897548","0.0-6.0-0.36","2787217","co38281","norming","","","","","","",""
"null","../img/tt/599tt.jpg","null","mooney1","image-keyboard-response","259","900557","0.0-6.0-1.36","2787217","co38281","norming","","","","","","",""
"5299.179999999935","","","post_mooney1_questions","survey-likert","260","905859","0.0-6.0-2.36","2787217","co38281","norming","","","{""curiosity"":6,""confidence"":4}","[0,1]","../img/tt/599tt.jpg","",""
"5726.004999999888","","","recognition","survey-text","261","911587","0.0-6.0-3.36","2787217","co38281","norming","","","{""guess"":""UIL""}","","../img/tt/599tt.jpg","",""
"null","../img/gs/599gs.jpg","null","reveal","image-keyboard-response","262","913591","0.0-6.0-4.36","2787217","co38281","norming","","","","","","",""
"null","../img/tt/599tt.jpg","null","mooney2","image-keyboard-response","263","915595","0.0-6.0-5.36","2787217","co38281","norming","","","","","","",""
"2237.520000000135","","","post_reveal_questions","survey-likert","264","917835","0.0-6.0-6.36","2787217","co38281","norming","","","{""aha"":3}","[0]","../img/tt/599tt.jpg","",""
"null","<div style=""font-size:60px;""> </div>","null","fixation","html-keyboard-response","265","918036","0.0-6.0-0.37","2787217","co38281","norming","","","","","","",""
"null","../img/tt/007tt.jpg","null","mooney1","image-keyboard-response","266","921038","0.0-6.0-1.37","2787217","co38281","norming","","","","","","",""
"3579.425000000163","","","post_mooney1_questions","survey-likert","267","924619","0.0-6.0-2.37","2787217","co38281","norming","","","{""curiosity"":6,""confidence"":1}","[0,1]","../img/tt/007tt.jpg","",""
"3630.1650000000373","","","recognition","survey-text","268","928251","0.0-6.0-3.37","2787217","co38281","norming","","","{""guess"":""WALRUS""}","","../img/tt/007tt.jpg","",""
"null","../img/gs/007gs.jpg","null","reveal","image-keyboard-response","269","930253","0.0-6.0-4.37","2787217","co38281","norming","","","","","","",""
"null","../img/tt/007tt.jpg","null","mooney2","image-keyboard-response","270","932263","0.0-6.0-5.37","2787217","co38281","norming","","","","","","",""
"2328.9299999998184","","","post_reveal_questions","survey-likert","271","934595","0.0-6.0-6.37","2787217","co38281","norming","","","{""aha"":6}","[0]","../img/tt/007tt.jpg","",""
"null","<div style=""font-size:60px;""> </div>","null","fixation","html-keyboard-response","272","934796","0.0-6.0-0.38","2787217","co38281","norming","","","","","","",""
"null","../img/tt/1027tt.jpg","null","mooney1","image-keyboard-response","273","937805","0.0-6.0-1.38","2787217","co38281","norming","","","","","","",""
"4755.145000000019","","","post_mooney1_questions","survey-likert","274","942555","0.0-6.0-2.38","2787217","co38281","norming","","","{""curiosity"":6,""confidence"":6}","[0,1]","../img/tt/1027tt.jpg","",""
"2718.1299999998882","","","recognition","survey-text","275","945275","0.0-6.0-3.38","2787217","co38281","norming","","","{""guess"":""KOE""}","","../img/tt/1027tt.jpg","",""
"null","../img/gs/1027gs.jpg","null","reveal","image-keyboard-response","276","947285","0.0-6.0-4.38","2787217","co38281","norming","","","","","","",""
"null","../img/tt/1027tt.jpg","null","mooney2","image-keyboard-response","277","949289","0.0-6.0-5.38","2787217","co38281","norming","","","","","","",""
"2520.0749999999534","","","post_reveal_questions","survey-likert","278","951811","0.0-6.0-6.38","2787217","co38281","norming","","","{""aha"":1}","[0]","../img/tt/1027tt.jpg","",""
"null","<div style=""font-size:60px;""> </div>","null","fixation","html-keyboard-response","279","952013","0.0-6.0-0.39","2787217","co38281","norming","","","","","","",""
"null","../img/tt/1123tt.jpg","null","mooney1","image-keyboard-response","280","955017","0.0-6.0-1.39","2787217","co38281","norming","","","","","","",""
"4193.300000000163","","","post_mooney1_questions","survey-likert","281","959211","0.0-6.0-2.39","2787217","co38281","norming","","","{""curiosity"":6,""confidence"":3}","[0,1]","../img/tt/1123tt.jpg","",""
"7486.0349999998","","","recognition","survey-text","282","966699","0.0-6.0-3.39","2787217","co38281","norming","","","{""guess"":""BASKETBALLER""}","","../img/tt/1123tt.jpg","",""
"null","../img/gs/1123gs.jpg","null","reveal","image-keyboard-response","283","968709","0.0-6.0-4.39","2787217","co38281","norming","","","","","","",""
"null","../img/tt/1123tt.jpg","null","mooney2","image-keyboard-response","284","970712","0.0-6.0-5.39","2787217","co38281","norming","","","","","","",""
"2408.6450000000186","","","post_reveal_questions","survey-likert","285","973123","0.0-6.0-6.39","2787217","co38281","norming","","","{""aha"":5}","[0]","../img/tt/1123tt.jpg","",""
"null","<div style=""font-size:60px;""> </div>","null","fixation","html-keyboard-response","286","973325","0.0-6.0-0.40","2787217","co38281","norming","","","","","","",""
"null","../img/tt/1353tt.jpg","null","mooney1","image-keyboard-response","287","976327","0.0-6.0-1.40","2787217","co38281","norming","","","","","","",""
"4418.629999999888","","","post_mooney1_questions","survey-likert","288","980747","0.0-6.0-2.40","2787217","co38281","norming","","","{""curiosity"":6,""confidence"":2}","[0,1]","../img/tt/1353tt.jpg","",""
"5694.334999999846","","","recognition","survey-text","289","986443","0.0-6.0-3.40","2787217","co38281","norming","","","{""guess"":""JUWELENDOOSJE""}","","../img/tt/1353tt.jpg","",""
"null","../img/gs/1353gs.jpg","null","reveal","image-keyboard-response","290","988451","0.0-6.0-4.40","2787217","co38281","norming","","","","","","",""
"null","../img/tt/1353tt.jpg","null","mooney2","image-keyboard-response","291","990459","0.0-6.0-5.40","2787217","co38281","norming","","","","","","",""
"2773.6399999998976","","","post_reveal_questions","survey-likert","292","993235","0.0-6.0-6.40","2787217","co38281","norming","","","{""aha"":6}","[0]","../img/tt/1353tt.jpg","",""
"null","<div style=""font-size:60px;""> </div>","null","fixation","html-keyboard-response","293","993436","0.0-6.0-0.41","2787217","co38281","norming","","","","","","",""
"null","../img/tt/098tt.jpg","null","mooney1","image-keyboard-response","294","996443","0.0-6.0-1.41","2787217","co38281","norming","","","","","","",""
"3893.594999999972","","","post_mooney1_questions","survey-likert","295","1000418","0.0-6.0-2.41","2787217","co38281","norming","","","{""curiosity"":6,""confidence"":0}","[0,1]","../img/tt/098tt.jpg","",""
"854.1649999999208","","","recognition","survey-text","296","1001273","0.0-6.0-3.41","2787217","co38281","norming","","","{""guess"":""""}","","../img/tt/098tt.jpg","",""
"null","../img/gs/098gs.jpg","null","reveal","image-keyboard-response","297","1003280","0.0-6.0-4.41","2787217","co38281","norming","","","","","","",""
"null","../img/tt/098tt.jpg","null","mooney2","image-keyboard-response","298","1005282","0.0-6.0-5.41","2787217","co38281","norming","","","","","","",""
"2077.784999999916","","","post_reveal_questions","survey-likert","299","1007362","0.0-6.0-6.41","2787217","co38281","norming","","","{""aha"":6}","[0]","../img/tt/098tt.jpg","",""
"null","<div style=""font-size:60px;""> </div>","null","fixation","html-keyboard-response","300","1007563","0.0-6.0-0.42","2787217","co38281","norming","","","","","","",""
"null","../img/tt/036tt.jpg","null","mooney1","image-keyboard-response","301","1010568","0.0-6.0-1.42","2787217","co38281","norming","","","","","","",""
"4528.270000000019","","","post_mooney1_questions","survey-likert","302","1015098","0.0-6.0-2.42","2787217","co38281","norming","","","{""curiosity"":6,""confidence"":2}","[0,1]","../img/tt/036tt.jpg","",""
"3814.204999999958","","","recognition","survey-text","303","1018913","0.0-6.0-3.42","2787217","co38281","norming","","","{""guess"":""KORAAL""}","","../img/tt/036tt.jpg","",""
"null","../img/gs/036gs.jpg","null","reveal","image-keyboard-response","304","1020916","0.0-6.0-4.42","2787217","co38281","norming","","","","","","",""
"null","../img/tt/036tt.jpg","null","mooney2","image-keyboard-response","305","1022924","0.0-6.0-5.42","2787217","co38281","norming","","","","","","",""
"2432.345000000205","","","post_reveal_questions","survey-likert","306","1025362","0.0-6.0-6.42","2787217","co38281","norming","","","{""aha"":5}","[0]","../img/tt/036tt.jpg","",""
"null","<div style=""font-size:60px;""> </div>","null","fixation","html-keyboard-response","307","1025563","0.0-6.0-0.43","2787217","co38281","norming","","","","","","",""
"null","../img/tt/1002tt.jpg","null","mooney1","image-keyboard-response","308","1028574","0.0-6.0-1.43","2787217","co38281","norming","","","","","","",""
"3720.399999999907","","","post_mooney1_questions","survey-likert","309","1032298","0.0-6.0-2.43","2787217","co38281","norming","","","{""curiosity"":6,""confidence"":0}","[0,1]","../img/tt/1002tt.jpg","",""
"1126.0199999999022","","","recognition","survey-text","310","1033425","0.0-6.0-3.43","2787217","co38281","norming","","","{""guess"":""""}","","../img/tt/1002tt.jpg","",""
"null","../img/gs/1002gs.jpg","null","reveal","image-keyboard-response","311","1035429","0.0-6.0-4.43","2787217","co38281","norming","","","","","","",""
"null","../img/tt/1002tt.jpg","null","mooney2","image-keyboard-response","312","1037430","0.0-6.0-5.43","2787217","co38281","norming","","","","","","",""
"2952.530000000028","","","post_reveal_questions","survey-likert","313","1040386","0.0-6.0-6.43","2787217","co38281","norming","","","{""aha"":6}","[0]","../img/tt/1002tt.jpg","",""
"null","<div style=""font-size:60px;""> </div>","null","fixation","html-keyboard-response","314","1040587","0.0-6.0-0.44","2787217","co38281","norming","","","","","","",""
"null","../img/tt/438tt.jpg","null","mooney1","image-keyboard-response","315","1043595","0.0-6.0-1.44","2787217","co38281","norming","","","","","","",""
"4579.600000000093","","","post_mooney1_questions","survey-likert","316","1048178","0.0-6.0-2.44","2787217","co38281","norming","","","{""curiosity"":6,""confidence"":1}","[0,1]","../img/tt/438tt.jpg","",""
"3590.0149999998976","","","recognition","survey-text","317","1051769","0.0-6.0-3.44","2787217","co38281","norming","","","{""guess"":""SLAK""}","","../img/tt/438tt.jpg","",""
"null","../img/gs/438gs.jpg","null","reveal","image-keyboard-response","318","1053778","0.0-6.0-4.44","2787217","co38281","norming","","","","","","",""
"null","../img/tt/438tt.jpg","null","mooney2","image-keyboard-response","319","1055780","0.0-6.0-5.44","2787217","co38281","norming","","","","","","",""
"2291.750000000233","","","post_reveal_questions","survey-likert","320","1058074","0.0-6.0-6.44","2787217","co38281","norming","","","{""aha"":6}","[0]","../img/tt/438tt.jpg","",""
"null","<div style=""font-size:60px;""> </div>","null","fixation","html-keyboard-response","321","1058275","0.0-6.0-0.45","2787217","co38281","norming","","","","","","",""
"null","../img/tt/1275tt.jpg","null","mooney1","image-keyboard-response","322","1061349","0.0-6.0-1.45","2787217","co38281","norming","","","","","","",""
"3808.969999999972","","","post_mooney1_questions","survey-likert","323","1065161","0.0-6.0-2.45","2787217","co38281","norming","","","{""curiosity"":6,""confidence"":2}","[0,1]","../img/tt/1275tt.jpg","",""
"2886.285000000149","","","recognition","survey-text","324","1068049","0.0-6.0-3.45","2787217","co38281","norming","","","{""guess"":""BEER""}","","../img/tt/1275tt.jpg","",""
"null","../img/gs/1275gs.jpg","null","reveal","image-keyboard-response","325","1070053","0.0-6.0-4.45","2787217","co38281","norming","","","","","","",""
"null","../img/tt/1275tt.jpg","null","mooney2","image-keyboard-response","326","1072055","0.0-6.0-5.45","2787217","co38281","norming","","","","","","",""
"2647.3499999998603","","","post_reveal_questions","survey-likert","327","1074705","0.0-6.0-6.45","2787217","co38281","norming","","","{""aha"":6}","[0]","../img/tt/1275tt.jpg","",""
"null","<div style=""font-size:60px;""> </div>","null","fixation","html-keyboard-response","328","1074908","0.0-6.0-0.46","2787217","co38281","norming","","","","","","",""
"null","../img/tt/1033tt.jpg","null","mooney1","image-keyboard-response","329","1077913","0.0-6.0-1.46","2787217","co38281","norming","","","","","","",""
"3972.9300000001676","","","post_mooney1_questions","survey-likert","330","1081889","0.0-6.0-2.46","2787217","co38281","norming","","","{""curiosity"":6,""confidence"":1}","[0,1]","../img/tt/1033tt.jpg","",""
"7910.23499999987","","","recognition","survey-text","331","1089801","0.0-6.0-3.46","2787217","co38281","norming","","","{""guess"":""RUGBY SPELER""}","","../img/tt/1033tt.jpg","",""
"null","../img/gs/1033gs.jpg","null","reveal","image-keyboard-response","332","1091811","0.0-6.0-4.46","2787217","co38281","norming","","","","","","",""
"null","../img/tt/1033tt.jpg","null","mooney2","image-keyboard-response","333","1093813","0.0-6.0-5.46","2787217","co38281","norming","","","","","","",""
"1929.3650000002235","","","post_reveal_questions","survey-likert","334","1095745","0.0-6.0-6.46","2787217","co38281","norming","","","{""aha"":6}","[0]","../img/tt/1033tt.jpg","",""
"null","<div style=""font-size:60px;""> </div>","null","fixation","html-keyboard-response","335","1095953","0.0-6.0-0.47","2787217","co38281","norming","","","","","","",""
"null","../img/tt/126tt.jpg","null","mooney1","image-keyboard-response","336","1098957","0.0-6.0-1.47","2787217","co38281","norming","","","","","","",""
"4137.225000000093","","","post_mooney1_questions","survey-likert","337","1103097","0.0-6.0-2.47","2787217","co38281","norming","","","{""curiosity"":6,""confidence"":6}","[0,1]","../img/tt/126tt.jpg","",""
"9901.455000000307","","","recognition","survey-text","338","1113001","0.0-6.0-3.47","2787217","co38281","norming","","","{""guess"":""KOEIEN OP EEN  WEI""}","","../img/tt/126tt.jpg","",""
"null","../img/gs/126gs.jpg","null","reveal","image-keyboard-response","339","1115010","0.0-6.0-4.47","2787217","co38281","norming","","","","","","",""
"null","../img/tt/126tt.jpg","null","mooney2","image-keyboard-response","340","1117018","0.0-6.0-5.47","2787217","co38281","norming","","","","","","",""
"3179.090000000084","","","post_reveal_questions","survey-likert","341","1120201","0.0-6.0-6.47","2787217","co38281","norming","","","{""aha"":4}","[0]","../img/tt/126tt.jpg","",""
"null","<div style=""font-size:60px;""> </div>","null","fixation","html-keyboard-response","342","1120402","0.0-6.0-0.48","2787217","co38281","norming","","","","","","",""
"null","../img/tt/1226tt.jpg","null","mooney1","image-keyboard-response","343","1123485","0.0-6.0-1.48","2787217","co38281","norming","","","","","","",""
"5410.195000000065","","","post_mooney1_questions","survey-likert","344","1128898","0.0-6.0-2.48","2787217","co38281","norming","","","{""curiosity"":5,""confidence"":3}","[0,1]","../img/tt/1226tt.jpg","",""
"2837.8700000001118","","","recognition","survey-text","345","1131738","0.0-6.0-3.48","2787217","co38281","norming","","","{""guess"":""KIP""}","","../img/tt/1226tt.jpg","",""
"null","../img/gs/1226gs.jpg","null","reveal","image-keyboard-response","346","1133747","0.0-6.0-4.48","2787217","co38281","norming","","","","","","",""
"null","../img/tt/1226tt.jpg","null","mooney2","image-keyboard-response","347","1135754","0.0-6.0-5.48","2787217","co38281","norming","","","","","","",""
"3564.804999999935","","","post_reveal_questions","survey-likert","348","1139321","0.0-6.0-6.48","2787217","co38281","norming","","","{""aha"":5}","[0]","../img/tt/1226tt.jpg","",""
"null","<div style=""font-size:60px;""> </div>","null","fixation","html-keyboard-response","349","1139522","0.0-6.0-0.49","2787217","co38281","norming","","","","","","",""
"null","../img/tt/406tt.jpg","null","mooney1","image-keyboard-response","350","1142526","0.0-6.0-1.49","2787217","co38281","norming","","","","","","",""
"3616.659999999916","","","post_mooney1_questions","survey-likert","351","1146146","0.0-6.0-2.49","2787217","co38281","norming","","","{""curiosity"":6,""confidence"":0}","[0,1]","../img/tt/406tt.jpg","",""
"789.7649999998976","","","recognition","survey-text","352","1146938","0.0-6.0-3.49","2787217","co38281","norming","","","{""guess"":""""}","","../img/tt/406tt.jpg","",""
"null","../img/gs/406gs.jpg","null","reveal","image-keyboard-response","353","1148946","0.0-6.0-4.49","2787217","co38281","norming","","","","","","",""
"null","../img/tt/406tt.jpg","null","mooney2","image-keyboard-response","354","1150950","0.0-6.0-5.49","2787217","co38281","norming","","","","","","",""
"5097.09999999986","","","post_reveal_questions","survey-likert","355","1156049","0.0-6.0-6.49","2787217","co38281","norming","","","{""aha"":3}","[0]","../img/tt/406tt.jpg","",""
"null","<div style=""font-size:60px;""> </div>","null","fixation","html-keyboard-response","356","1156251","0.0-6.0-0.50","2787217","co38281","norming","","","","","","",""
"null","../img/tt/1069tt.jpg","null","mooney1","image-keyboard-response","357","1159254","0.0-6.0-1.50","2787217","co38281","norming","","","","","","",""
"3738.7099999999627","","","post_mooney1_questions","survey-likert","358","1162994","0.0-6.0-2.50","2787217","co38281","norming","","","{""curiosity"":6,""confidence"":2}","[0,1]","../img/tt/1069tt.jpg","",""
"4029.970000000205","","","recognition","survey-text","359","1167025","0.0-6.0-3.50","2787217","co38281","norming","","","{""guess"":""GOAT""}","","../img/tt/1069tt.jpg","",""
"null","../img/gs/1069gs.jpg","null","reveal","image-keyboard-response","360","1169029","0.0-6.0-4.50","2787217","co38281","norming","","","","","","",""
"null","../img/tt/1069tt.jpg","null","mooney2","image-keyboard-response","361","1171032","0.0-6.0-5.50","2787217","co38281","norming","","","","","","",""
"2743.225000000326","","","post_reveal_questions","survey-likert","362","1173778","0.0-6.0-6.50","2787217","co38281","norming","","","{""aha"":4}","[0]","../img/tt/1069tt.jpg","",""
"null","<div style=""font-size:60px;""> </div>","null","fixation","html-keyboard-response","363","1173979","0.0-6.0-0.51","2787217","co38281","norming","","","","","","",""
"null","../img/tt/020tt.jpg","null","mooney1","image-keyboard-response","364","1176990","0.0-6.0-1.51","2787217","co38281","norming","","","","","","",""
"3681.1650000000373","","","post_mooney1_questions","survey-likert","365","1180674","0.0-6.0-2.51","2787217","co38281","norming","","","{""curiosity"":6,""confidence"":0}","[0,1]","../img/tt/020tt.jpg","",""
"686.0600000000559","","","recognition","survey-text","366","1181362","0.0-6.0-3.51","2787217","co38281","norming","","","{""guess"":""""}","","../img/tt/020tt.jpg","",""
"null","../img/gs/020gs.jpg","null","reveal","image-keyboard-response","367","1183363","0.0-6.0-4.51","2787217","co38281","norming","","","","","","",""
"null","../img/tt/020tt.jpg","null","mooney2","image-keyboard-response","368","1185437","0.0-6.0-5.51","2787217","co38281","norming","","","","","","",""
"2883.1299999998882","","","post_reveal_questions","survey-likert","369","1188322","0.0-6.0-6.51","2787217","co38281","norming","","","{""aha"":3}","[0]","../img/tt/020tt.jpg","",""
"null","<div style=""font-size:60px;""> </div>","null","fixation","html-keyboard-response","370","1188523","0.0-6.0-0.52","2787217","co38281","norming","","","","","","",""
"null","../img/tt/435tt.jpg","null","mooney1","image-keyboard-response","371","1191529","0.0-6.0-1.52","2787217","co38281","norming","","","","","","",""
"3886.3950000000186","","","post_mooney1_questions","survey-likert","372","1195418","0.0-6.0-2.52","2787217","co38281","norming","","","{""curiosity"":6,""confidence"":2}","[0,1]","../img/tt/435tt.jpg","",""
"3230.0349999996834","","","recognition","survey-text","373","1198650","0.0-6.0-3.52","2787217","co38281","norming","","","{""guess"":""HUIS""}","","../img/tt/435tt.jpg","",""
"null","../img/gs/435gs.jpg","null","reveal","image-keyboard-response","374","1200652","0.0-6.0-4.52","2787217","co38281","norming","","","","","","",""
"null","../img/tt/435tt.jpg","null","mooney2","image-keyboard-response","375","1202654","0.0-6.0-5.52","2787217","co38281","norming","","","","","","",""
"2897.380000000121","","","post_reveal_questions","survey-likert","376","1205554","0.0-6.0-6.52","2787217","co38281","norming","","","{""aha"":5}","[0]","../img/tt/435tt.jpg","",""
"null","<div style=""font-size:60px;""> </div>","null","fixation","html-keyboard-response","377","1205757","0.0-6.0-0.53","2787217","co38281","norming","","","","","","",""
"null","../img/tt/1211tt.jpg","null","mooney1","image-keyboard-response","378","1208768","0.0-6.0-1.53","2787217","co38281","norming","","","","","","",""
"4463.199999999953","","","post_mooney1_questions","survey-likert","379","1213234","0.0-6.0-2.53","2787217","co38281","norming","","","{""curiosity"":6,""confidence"":1}","[0,1]","../img/tt/1211tt.jpg","",""
"974.2550000001211","","","recognition","survey-text","380","1214210","0.0-6.0-3.53","2787217","co38281","norming","","","{""guess"":""""}","","../img/tt/1211tt.jpg","",""
"null","../img/gs/1211gs.jpg","null","reveal","image-keyboard-response","381","1216214","0.0-6.0-4.53","2787217","co38281","norming","","","","","","",""
"null","../img/tt/1211tt.jpg","null","mooney2","image-keyboard-response","382","1218216","0.0-6.0-5.53","2787217","co38281","norming","","","","","","",""
"2367.3350000001956","","","post_reveal_questions","survey-likert","383","1220586","0.0-6.0-6.53","2787217","co38281","norming","","","{""aha"":5}","[0]","../img/tt/1211tt.jpg","",""
"null","<div style=""font-size:60px;""> </div>","null","fixation","html-keyboard-response","384","1220787","0.0-6.0-0.54","2787217","co38281","norming","","","","","","",""
"null","../img/tt/1055tt.jpg","null","mooney1","image-keyboard-response","385","1223790","0.0-6.0-1.54","2787217","co38281","norming","","","","","","",""
"4768.679999999935","","","post_mooney1_questions","survey-likert","386","1228562","0.0-6.0-2.54","2787217","co38281","norming","","","{""curiosity"":6,""confidence"":2}","[0,1]","../img/tt/1055tt.jpg","",""
"7133.925000000279","","","recognition","survey-text","387","1235698","0.0-6.0-3.54","2787217","co38281","norming","","","{""guess"":""SPRINKHAAN""}","","../img/tt/1055tt.jpg","",""
"null","../img/gs/1055gs.jpg","null","reveal","image-keyboard-response","388","1237701","0.0-6.0-4.54","2787217","co38281","norming","","","","","","",""
"null","../img/tt/1055tt.jpg","null","mooney2","image-keyboard-response","389","1239705","0.0-6.0-5.54","2787217","co38281","norming","","","","","","",""
"2301.969999999972","","","post_reveal_questions","survey-likert","390","1242010","0.0-6.0-6.54","2787217","co38281","norming","","","{""aha"":6}","[0]","../img/tt/1055tt.jpg","",""
"null","<div style=""font-size:60px;""> </div>","null","fixation","html-keyboard-response","391","1242212","0.0-6.0-0.55","2787217","co38281","norming","","","","","","",""
"null","../img/tt/1261tt.jpg","null","mooney1","image-keyboard-response","392","1245218","0.0-6.0-1.55","2787217","co38281","norming","","","","","","",""
"4196.750000000233","","","post_mooney1_questions","survey-likert","393","1249477","0.0-6.0-2.55","2787217","co38281","norming","","","{""curiosity"":6,""confidence"":5}","[0,1]","../img/tt/1261tt.jpg","",""
"7118.285000000149","","","recognition","survey-text","394","1256597","0.0-6.0-3.55","2787217","co38281","norming","","","{""guess"":""GEIT""}","","../img/tt/1261tt.jpg","",""
"null","../img/gs/1261gs.jpg","null","reveal","image-keyboard-response","395","1258598","0.0-6.0-4.55","2787217","co38281","norming","","","","","","",""
"null","../img/tt/1261tt.jpg","null","mooney2","image-keyboard-response","396","1260601","0.0-6.0-5.55","2787217","co38281","norming","","","","","","",""
"1960.6750000000466","","","post_reveal_questions","survey-likert","397","1262565","0.0-6.0-6.55","2787217","co38281","norming","","","{""aha"":6}","[0]","../img/tt/1261tt.jpg","",""
"null","<div style=""font-size:60px;""> </div>","null","fixation","html-keyboard-response","398","1262766","0.0-6.0-0.56","2787217","co38281","norming","","","","","","",""
"null","../img/tt/118tt.jpg","null","mooney1","image-keyboard-response","399","1265774","0.0-6.0-1.56","2787217","co38281","norming","","","","","","",""
"4075.125000000233","","","post_mooney1_questions","survey-likert","400","1269853","0.0-6.0-2.56","2787217","co38281","norming","","","{""curiosity"":6,""confidence"":1}","[0,1]","../img/tt/118tt.jpg","",""
"4198.040000000037","","","recognition","survey-text","401","1274052","0.0-6.0-3.56","2787217","co38281","norming","","","{""guess"":""STOEL""}","","../img/tt/118tt.jpg","",""
"null","../img/gs/118gs.jpg","null","reveal","image-keyboard-response","402","1276054","0.0-6.0-4.56","2787217","co38281","norming","","","","","","",""
"null","../img/tt/118tt.jpg","null","mooney2","image-keyboard-response","403","1278065","0.0-6.0-5.56","2787217","co38281","norming","","","","","","",""
"2544.7999999998137","","","post_reveal_questions","survey-likert","404","1280613","0.0-6.0-6.56","2787217","co38281","norming","","","{""aha"":4}","[0]","../img/tt/118tt.jpg","",""
"null","<div style=""font-size:60px;""> </div>","null","fixation","html-keyboard-response","405","1280814","0.0-6.0-0.57","2787217","co38281","norming","","","","","","",""
"null","../img/tt/358tt.jpg","null","mooney1","image-keyboard-response","406","1283818","0.0-6.0-1.57","2787217","co38281","norming","","","","","","",""
"4831.47499999986","","","post_mooney1_questions","survey-likert","407","1288653","0.0-6.0-2.57","2787217","co38281","norming","","","{""curiosity"":6,""confidence"":0}","[0,1]","../img/tt/358tt.jpg","",""
"837.8299999998417","","","recognition","survey-text","408","1289492","0.0-6.0-3.57","2787217","co38281","norming","","","{""guess"":""""}","","../img/tt/358tt.jpg","",""
"null","../img/gs/358gs.jpg","null","reveal","image-keyboard-response","409","1291493","0.0-6.0-4.57","2787217","co38281","norming","","","","","","",""
"null","../img/tt/358tt.jpg","null","mooney2","image-keyboard-response","410","1293500","0.0-6.0-5.57","2787217","co38281","norming","","","","","","",""
"2662.8300000000745","","","post_reveal_questions","survey-likert","411","1296164","0.0-6.0-6.57","2787217","co38281","norming","","","{""aha"":6}","[0]","../img/tt/358tt.jpg","",""
"null","<div style=""font-size:60px;""> </div>","null","fixation","html-keyboard-response","412","1296366","0.0-6.0-0.58","2787217","co38281","norming","","","","","","",""
"null","../img/tt/1118tt.jpg","null","mooney1","image-keyboard-response","413","1299368","0.0-6.0-1.58","2787217","co38281","norming","","","","","","",""
"3699.5900000003166","","","post_mooney1_questions","survey-likert","414","1303069","0.0-6.0-2.58","2787217","co38281","norming","","","{""curiosity"":6,""confidence"":0}","[0,1]","../img/tt/1118tt.jpg","",""
"758.1500000001397","","","recognition","survey-text","415","1303829","0.0-6.0-3.58","2787217","co38281","norming","","","{""guess"":""""}","","../img/tt/1118tt.jpg","",""
"null","../img/gs/1118gs.jpg","null","reveal","image-keyboard-response","416","1305835","0.0-6.0-4.58","2787217","co38281","norming","","","","","","",""
"null","../img/tt/1118tt.jpg","null","mooney2","image-keyboard-response","417","1307844","0.0-6.0-5.58","2787217","co38281","norming","","","","","","",""
"3084.489999999758","","","post_reveal_questions","survey-likert","418","1310931","0.0-6.0-6.58","2787217","co38281","norming","","","{""aha"":6}","[0]","../img/tt/1118tt.jpg","",""
"null","<div style=""font-size:60px;""> </div>","null","fixation","html-keyboard-response","419","1311132","0.0-6.0-0.59","2787217","co38281","norming","","","","","","",""
"null","../img/tt/567tt.jpg","null","mooney1","image-keyboard-response","420","1314135","0.0-6.0-1.59","2787217","co38281","norming","","","","","","",""
"5440.269999999786","","","post_mooney1_questions","survey-likert","421","1319579","0.0-6.0-2.59","2787217","co38281","norming","","","{""curiosity"":6,""confidence"":1}","[0,1]","../img/tt/567tt.jpg","",""
"7797.860000000335","","","recognition","survey-text","422","1327378","0.0-6.0-3.59","2787217","co38281","norming","","","{""guess"":""GEROOSTERD BROOD""}","","../img/tt/567tt.jpg","",""
"null","../img/gs/567gs.jpg","null","reveal","image-keyboard-response","423","1329380","0.0-6.0-4.59","2787217","co38281","norming","","","","","","",""
"null","../img/tt/567tt.jpg","null","mooney2","image-keyboard-response","424","1331389","0.0-6.0-5.59","2787217","co38281","norming","","","","","","",""
"2445.2750000001397","","","post_reveal_questions","survey-likert","425","1333835","0.0-6.0-6.59","2787217","co38281","norming","","","{""aha"":4}","[0]","../img/tt/567tt.jpg","",""
"null","<div style=""font-size:60px;""> </div>","null","fixation","html-keyboard-response","426","1334037","0.0-6.0-0.60","2787217","co38281","norming","","","","","","",""
"null","../img/tt/1243tt.jpg","null","mooney1","image-keyboard-response","427","1337046","0.0-6.0-1.60","2787217","co38281","norming","","","","","","",""
"4193.689999999944","","","post_mooney1_questions","survey-likert","428","1341243","0.0-6.0-2.60","2787217","co38281","norming","","","{""curiosity"":6,""confidence"":1}","[0,1]","../img/tt/1243tt.jpg","",""
"7238.160000000149","","","recognition","survey-text","429","1348483","0.0-6.0-3.60","2787217","co38281","norming","","","{""guess"":""DIER IN KOOI""}","","../img/tt/1243tt.jpg","",""
"null","../img/gs/1243gs.jpg","null","reveal","image-keyboard-response","430","1350488","0.0-6.0-4.60","2787217","co38281","norming","","","","","","",""
"null","../img/tt/1243tt.jpg","null","mooney2","image-keyboard-response","431","1352491","0.0-6.0-5.60","2787217","co38281","norming","","","","","","",""
"2509.1999999999534","","","post_reveal_questions","survey-likert","432","1355003","0.0-6.0-6.60","2787217","co38281","norming","","","{""aha"":5}","[0]","../img/tt/1243tt.jpg","",""
"null","<div style=""font-size:60px;""> </div>","null","fixation","html-keyboard-response","433","1355204","0.0-6.0-0.61","2787217","co38281","norming","","","","","","",""
"null","../img/tt/1250tt.jpg","null","mooney1","image-keyboard-response","434","1358209","0.0-6.0-1.61","2787217","co38281","norming","","","","","","",""
"5567.260000000009","","","post_mooney1_questions","survey-likert","435","1363779","0.0-6.0-2.61","2787217","co38281","norming","","","{""curiosity"":6,""confidence"":1}","[0,1]","../img/tt/1250tt.jpg","",""
"3117.7099999999627","","","recognition","survey-text","436","1366899","0.0-6.0-3.61","2787217","co38281","norming","","","{""guess"":""BEVER""}","","../img/tt/1250tt.jpg","",""
"null","../img/gs/1250gs.jpg","null","reveal","image-keyboard-response","437","1368900","0.0-6.0-4.61","2787217","co38281","norming","","","","","","",""
"null","../img/tt/1250tt.jpg","null","mooney2","image-keyboard-response","438","1370910","0.0-6.0-5.61","2787217","co38281","norming","","","","","","",""
"2801.6749999998137","","","post_reveal_questions","survey-likert","439","1373715","0.0-6.0-6.61","2787217","co38281","norming","","","{""aha"":5}","[0]","../img/tt/1250tt.jpg","",""
"null","<div style=""font-size:60px;""> </div>","null","fixation","html-keyboard-response","440","1373917","0.0-6.0-0.62","2787217","co38281","norming","","","","","","",""
"null","../img/tt/1237tt.jpg","null","mooney1","image-keyboard-response","441","1376921","0.0-6.0-1.62","2787217","co38281","norming","","","","","","",""
"4383.02500000014","","","post_mooney1_questions","survey-likert","442","1381307","0.0-6.0-2.62","2787217","co38281","norming","","","{""curiosity"":6,""confidence"":5}","[0,1]","../img/tt/1237tt.jpg","",""
"3093.4849999998696","","","recognition","survey-text","443","1384403","0.0-6.0-3.62","2787217","co38281","norming","","","{""guess"":""EEND""}","","../img/tt/1237tt.jpg","",""
"null","../img/gs/1237gs.jpg","null","reveal","image-keyboard-response","444","1386412","0.0-6.0-4.62","2787217","co38281","norming","","","","","","",""
"null","../img/tt/1237tt.jpg","null","mooney2","image-keyboard-response","445","1388415","0.0-6.0-5.62","2787217","co38281","norming","","","","","","",""
"2665.5749999999534","","","post_reveal_questions","survey-likert","446","1391083","0.0-6.0-6.62","2787217","co38281","norming","","","{""aha"":4}","[0]","../img/tt/1237tt.jpg","",""
"null","<div style=""font-size:60px;""> </div>","null","fixation","html-keyboard-response","447","1391288","0.0-6.0-0.63","2787217","co38281","norming","","","","","","",""
"null","../img/tt/1239tt.jpg","null","mooney1","image-keyboard-response","448","1394297","0.0-6.0-1.63","2787217","co38281","norming","","","","","","",""
"4087.030000000028","","","post_mooney1_questions","survey-likert","449","1398387","0.0-6.0-2.63","2787217","co38281","norming","","","{""curiosity"":6,""confidence"":6}","[0,1]","../img/tt/1239tt.jpg","",""
"6429.925000000279","","","recognition","survey-text","450","1404818","0.0-6.0-3.63","2787217","co38281","norming","","","{""guess"":""DUITSE HERDER""}","","../img/tt/1239tt.jpg","",""
"null","../img/gs/1239gs.jpg","null","reveal","image-keyboard-response","451","1406825","0.0-6.0-4.63","2787217","co38281","norming","","","","","","",""
"null","../img/tt/1239tt.jpg","null","mooney2","image-keyboard-response","452","1408830","0.0-6.0-5.63","2787217","co38281","norming","","","","","","",""
"4401.834999999963","","","post_reveal_questions","survey-likert","453","1413235","0.0-6.0-6.63","2787217","co38281","norming","","","{""aha"":0}","[0]","../img/tt/1239tt.jpg","",""
"null","<div style=""font-size:60px;""> </div>","null","fixation","html-keyboard-response","454","1413437","0.0-6.0-0.64","2787217","co38281","norming","","","","","","",""
"null","../img/tt/522tt.jpg","null","mooney1","image-keyboard-response","455","1416440","0.0-6.0-1.64","2787217","co38281","norming","","","","","","",""
"3688.2350000001024","","","post_mooney1_questions","survey-likert","456","1420131","0.0-6.0-2.64","2787217","co38281","norming","","","{""curiosity"":6,""confidence"":0}","[0,1]","../img/tt/522tt.jpg","",""
"1118.0100000000093","","","recognition","survey-text","457","1421251","0.0-6.0-3.64","2787217","co38281","norming","","","{""guess"":""""}","","../img/tt/522tt.jpg","",""
"null","../img/gs/522gs.jpg","null","reveal","image-keyboard-response","458","1423262","0.0-6.0-4.64","2787217","co38281","norming","","","","","","",""
"null","../img/tt/522tt.jpg","null","mooney2","image-keyboard-response","459","1425264","0.0-6.0-5.64","2787217","co38281","norming","","","","","","",""
"2520.2099999999627","","","post_reveal_questions","survey-likert","460","1427787","0.0-6.0-6.64","2787217","co38281","norming","","","{""aha"":6}","[0]","../img/tt/522tt.jpg","",""
"null","<div style=""font-size:60px;""> </div>","null","fixation","html-keyboard-response","461","1427988","0.0-6.0-0.65","2787217","co38281","norming","","","","","","",""
"null","../img/tt/1363tt.jpg","null","mooney1","image-keyboard-response","462","1430991","0.0-6.0-1.65","2787217","co38281","norming","","","","","","",""
"3584.2649999998976","","","post_mooney1_questions","survey-likert","463","1434579","0.0-6.0-2.65","2787217","co38281","norming","","","{""curiosity"":6,""confidence"":0}","[0,1]","../img/tt/1363tt.jpg","",""
"957.9650000000838","","","recognition","survey-text","464","1435538","0.0-6.0-3.65","2787217","co38281","norming","","","{""guess"":""""}","","../img/tt/1363tt.jpg","",""
"null","../img/gs/1363gs.jpg","null","reveal","image-keyboard-response","465","1437540","0.0-6.0-4.65","2787217","co38281","norming","","","","","","",""
"null","../img/tt/1363tt.jpg","null","mooney2","image-keyboard-response","466","1439542","0.0-6.0-5.65","2787217","co38281","norming","","","","","","",""
"2833.909999999916","","","post_reveal_questions","survey-likert","467","1442379","0.0-6.0-6.65","2787217","co38281","norming","","","{""aha"":6}","[0]","../img/tt/1363tt.jpg","",""
"null","<div style=""font-size:60px;""> </div>","null","fixation","html-keyboard-response","468","1442580","0.0-6.0-0.66","2787217","co38281","norming","","","","","","",""
"null","../img/tt/1200tt.jpg","null","mooney1","image-keyboard-response","469","1445584","0.0-6.0-1.66","2787217","co38281","norming","","","","","","",""
"4263.610000000335","","","post_mooney1_questions","survey-likert","470","1449851","0.0-6.0-2.66","2787217","co38281","norming","","","{""curiosity"":6,""confidence"":0}","[0,1]","../img/tt/1200tt.jpg","",""
"853.9850000001024","","","recognition","survey-text","471","1450707","0.0-6.0-3.66","2787217","co38281","norming","","","{""guess"":""""}","","../img/tt/1200tt.jpg","",""
"null","../img/gs/1200gs.jpg","null","reveal","image-keyboard-response","472","1452709","0.0-6.0-4.66","2787217","co38281","norming","","","","","","",""
"null","../img/tt/1200tt.jpg","null","mooney2","image-keyboard-response","473","1454711","0.0-6.0-5.66","2787217","co38281","norming","","","","","","",""
"2088.225000000093","","","post_reveal_questions","survey-likert","474","1456803","0.0-6.0-6.66","2787217","co38281","norming","","","{""aha"":6}","[0]","../img/tt/1200tt.jpg","",""
"null","<div style=""font-size:60px;""> </div>","null","fixation","html-keyboard-response","475","1457004","0.0-6.0-0.67","2787217","co38281","norming","","","","","","",""
"null","../img/tt/300tt.jpg","null","mooney1","image-keyboard-response","476","1460011","0.0-6.0-1.67","2787217","co38281","norming","","","","","","",""
"3052.2049999998417","","","post_mooney1_questions","survey-likert","477","1463067","0.0-6.0-2.67","2787217","co38281","norming","","","{""curiosity"":6,""confidence"":3}","[0,1]","../img/tt/300tt.jpg","",""
"8286.13500000001","","","recognition","survey-text","478","1471355","0.0-6.0-3.67","2787217","co38281","norming","","","{""guess"":""VROUW MET TASSEN""}","","../img/tt/300tt.jpg","",""
"null","../img/gs/300gs.jpg","null","reveal","image-keyboard-response","479","1473361","0.0-6.0-4.67","2787217","co38281","norming","","","","","","",""
"null","../img/tt/300tt.jpg","null","mooney2","image-keyboard-response","480","1475371","0.0-6.0-5.67","2787217","co38281","norming","","","","","","",""
"3638.679999999935","","","post_reveal_questions","survey-likert","481","1479011","0.0-6.0-6.67","2787217","co38281","norming","","","{""aha"":4}","[0]","../img/tt/300tt.jpg","",""
"null","<div style=""font-size:60px;""> </div>","null","fixation","html-keyboard-response","482","1479212","0.0-6.0-0.68","2787217","co38281","norming","","","","","","",""
"null","../img/tt/013tt.jpg","null","mooney1","image-keyboard-response","483","1482220","0.0-6.0-1.68","2787217","co38281","norming","","","","","","",""
"5355.27500000014","","","post_mooney1_questions","survey-likert","484","1487579","0.0-6.0-2.68","2787217","co38281","norming","","","{""curiosity"":6,""confidence"":0}","[0,1]","../img/tt/013tt.jpg","",""
"1325.9000000001397","","","recognition","survey-text","485","1488906","0.0-6.0-3.68","2787217","co38281","norming","","","{""guess"":""""}","","../img/tt/013tt.jpg","",""
"null","../img/gs/013gs.jpg","null","reveal","image-keyboard-response","486","1490909","0.0-6.0-4.68","2787217","co38281","norming","","","","","","",""
"null","../img/tt/013tt.jpg","null","mooney2","image-keyboard-response","487","1492920","0.0-6.0-5.68","2787217","co38281","norming","","","","","","",""
"2368.3349999999627","","","post_reveal_questions","survey-likert","488","1495291","0.0-6.0-6.68","2787217","co38281","norming","","","{""aha"":6}","[0]","../img/tt/013tt.jpg","",""
"null","<div style=""font-size:60px;""> </div>","null","fixation","html-keyboard-response","489","1495501","0.0-6.0-0.69","2787217","co38281","norming","","","","","","",""
"null","../img/tt/091tt.jpg","null","mooney1","image-keyboard-response","490","1498509","0.0-6.0-1.69","2787217","co38281","norming","","","","","","",""
"4954.005000000121","","","post_mooney1_questions","survey-likert","491","1503467","0.0-6.0-2.69","2787217","co38281","norming","","","{""curiosity"":6,""confidence"":0}","[0,1]","../img/tt/091tt.jpg","",""
"1030.0250000001397","","","recognition","survey-text","492","1504499","0.0-6.0-3.69","2787217","co38281","norming","","","{""guess"":""""}","","../img/tt/091tt.jpg","",""
"null","../img/gs/091gs.jpg","null","reveal","image-keyboard-response","493","1506505","0.0-6.0-4.69","2787217","co38281","norming","","","","","","",""
"null","../img/tt/091tt.jpg","null","mooney2","image-keyboard-response","494","1508507","0.0-6.0-5.69","2787217","co38281","norming","","","","","","",""
"2477.4799999999814","","","post_reveal_questions","survey-likert","495","1510987","0.0-6.0-6.69","2787217","co38281","norming","","","{""aha"":6}","[0]","../img/tt/091tt.jpg","",""
"null","<div style=""font-size:60px;""> </div>","null","fixation","html-keyboard-response","496","1511188","0.0-6.0-0.70","2787217","co38281","norming","","","","","","",""
"null","../img/tt/135tt.jpg","null","mooney1","image-keyboard-response","497","1514192","0.0-6.0-1.70","2787217","co38281","norming","","","","","","",""
"4799.600000000093","","","post_mooney1_questions","survey-likert","498","1518995","0.0-6.0-2.70","2787217","co38281","norming","","","{""curiosity"":5,""confidence"":6}","[0,1]","../img/tt/135tt.jpg","",""
"5565.965000000084","","","recognition","survey-text","499","1524563","0.0-6.0-3.70","2787217","co38281","norming","","","{""guess"":""TOILET""}","","../img/tt/135tt.jpg","",""
"null","../img/gs/135gs.jpg","null","reveal","image-keyboard-response","500","1526568","0.0-6.0-4.70","2787217","co38281","norming","","","","","","",""
"null","../img/tt/135tt.jpg","null","mooney2","image-keyboard-response","501","1528571","0.0-6.0-5.70","2787217","co38281","norming","","","","","","",""
"3260.5400000000373","","","post_reveal_questions","survey-likert","502","1531835","0.0-6.0-6.70","2787217","co38281","norming","","","{""aha"":0}","[0]","../img/tt/135tt.jpg","",""
"null","<div style=""font-size:60px;""> </div>","null","fixation","html-keyboard-response","503","1532037","0.0-6.0-0.71","2787217","co38281","norming","","","","","","",""
"null","../img/tt/307tt.jpg","null","mooney1","image-keyboard-response","504","1535040","0.0-6.0-1.71","2787217","co38281","norming","","","","","","",""
"3703.3799999998882","","","post_mooney1_questions","survey-likert","505","1538747","0.0-6.0-2.71","2787217","co38281","norming","","","{""curiosity"":6,""confidence"":0}","[0,1]","../img/tt/307tt.jpg","",""
"1582.2749999999069","","","recognition","survey-text","506","1540331","0.0-6.0-3.71","2787217","co38281","norming","","","{""guess"":""""}","","../img/tt/307tt.jpg","",""
"null","../img/gs/307gs.jpg","null","reveal","image-keyboard-response","507","1542340","0.0-6.0-4.71","2787217","co38281","norming","","","","","","",""
"null","../img/tt/307tt.jpg","null","mooney2","image-keyboard-response","508","1544350","0.0-6.0-5.71","2787217","co38281","norming","","","","","","",""
"2370.4600000001956","","","post_reveal_questions","survey-likert","509","1546723","0.0-6.0-6.71","2787217","co38281","norming","","","{""aha"":6}","[0]","../img/tt/307tt.jpg","",""
"null","<div style=""font-size:60px;""> </div>","null","fixation","html-keyboard-response","510","1546924","0.0-6.0-0.72","2787217","co38281","norming","","","","","","",""
"null","../img/tt/1260tt.jpg","null","mooney1","image-keyboard-response","511","1549934","0.0-6.0-1.72","2787217","co38281","norming","","","","","","",""
"3233.2399999999907","","","post_mooney1_questions","survey-likert","512","1553168","0.0-6.0-2.72","2787217","co38281","norming","","","{""curiosity"":6,""confidence"":2}","[0,1]","../img/tt/1260tt.jpg","",""
"4261.844999999972","","","recognition","survey-text","513","1557431","0.0-6.0-3.72","2787217","co38281","norming","","","{""guess"":""BERGEN""}","","../img/tt/1260tt.jpg","",""
"null","../img/gs/1260gs.jpg","null","reveal","image-keyboard-response","514","1559432","0.0-6.0-4.72","2787217","co38281","norming","","","","","","",""
"null","../img/tt/1260tt.jpg","null","mooney2","image-keyboard-response","515","1561434","0.0-6.0-5.72","2787217","co38281","norming","","","","","","",""
"2380.9250000002794","","","post_reveal_questions","survey-likert","516","1563816","0.0-6.0-6.72","2787217","co38281","norming","","","{""aha"":6}","[0]","../img/tt/1260tt.jpg","",""
"null","<div style=""font-size:60px;""> </div>","null","fixation","html-keyboard-response","517","1564017","0.0-6.0-0.73","2787217","co38281","norming","","","","","","",""
"null","../img/tt/1053tt.jpg","null","mooney1","image-keyboard-response","518","1567020","0.0-6.0-1.73","2787217","co38281","norming","","","","","","",""
"4600.310000000056","","","post_mooney1_questions","survey-likert","519","1571624","0.0-6.0-2.73","2787217","co38281","norming","","","{""curiosity"":6,""confidence"":6}","[0,1]","../img/tt/1053tt.jpg","",""
"4662.179999999935","","","recognition","survey-text","520","1576288","0.0-6.0-3.73","2787217","co38281","norming","","","{""guess"":""KOEIEN""}","","../img/tt/1053tt.jpg","",""
"null","../img/gs/1053gs.jpg","null","reveal","image-keyboard-response","521","1578289","0.0-6.0-4.73","2787217","co38281","norming","","","","","","",""
"null","../img/tt/1053tt.jpg","null","mooney2","image-keyboard-response","522","1580300","0.0-6.0-5.73","2787217","co38281","norming","","","","","","",""
"2936.9150000000373","","","post_reveal_questions","survey-likert","523","1583240","0.0-6.0-6.73","2787217","co38281","norming","","","{""aha"":0}","[0]","../img/tt/1053tt.jpg","",""
"null","<div style=""font-size:60px;""> </div>","null","fixation","html-keyboard-response","524","1583441","0.0-6.0-0.74","2787217","co38281","norming","","","","","","",""
"null","../img/tt/1126tt.jpg","null","mooney1","image-keyboard-response","525","1586443","0.0-6.0-1.74","2787217","co38281","norming","","","","","","",""
"4673.684999999823","","","post_mooney1_questions","survey-likert","526","1591120","0.0-6.0-2.74","2787217","co38281","norming","","","{""curiosity"":6,""confidence"":6}","[0,1]","../img/tt/1126tt.jpg","",""
"5821.824999999953","","","recognition","survey-text","527","1596944","0.0-6.0-3.74","2787217","co38281","norming","","","{""guess"":""BERGBEKLIMMER""}","","../img/tt/1126tt.jpg","",""
"null","../img/gs/1126gs.jpg","null","reveal","image-keyboard-response","528","1598948","0.0-6.0-4.74","2787217","co38281","norming","","","","","","",""
"null","../img/tt/1126tt.jpg","null","mooney2","image-keyboard-response","529","1600955","0.0-6.0-5.74","2787217","co38281","norming","","","","","","",""
"2457.5749999999534","","","post_reveal_questions","survey-likert","530","1603415","0.0-6.0-6.74","2787217","co38281","norming","","","{""aha"":0}","[0]","../img/tt/1126tt.jpg","",""
"null","<div style=""font-size:60px;""> </div>","null","fixation","html-keyboard-response","531","1603617","0.0-6.0-0.75","2787217","co38281","norming","","","","","","",""
"null","../img/tt/306tt.jpg","null","mooney1","image-keyboard-response","532","1606626","0.0-6.0-1.75","2787217","co38281","norming","","","","","","",""
"3522.9150000000373","","","post_mooney1_questions","survey-likert","533","1610152","0.0-6.0-2.75","2787217","co38281","norming","","","{""curiosity"":6,""confidence"":4}","[0,1]","../img/tt/306tt.jpg","",""
"3485.8349999999627","","","recognition","survey-text","534","1613643","0.0-6.0-3.75","2787217","co38281","norming","","","{""guess"":""KIKKER""}","","../img/tt/306tt.jpg","",""
"null","../img/gs/306gs.jpg","null","reveal","image-keyboard-response","535","1615648","0.0-6.0-4.75","2787217","co38281","norming","","","","","","",""
"null","../img/tt/306tt.jpg","null","mooney2","image-keyboard-response","536","1617649","0.0-6.0-5.75","2787217","co38281","norming","","","","","","",""
"4118.700000000186","","","post_reveal_questions","survey-likert","537","1621771","0.0-6.0-6.75","2787217","co38281","norming","","","{""aha"":0}","[0]","../img/tt/306tt.jpg","",""
"null","<div style=""font-size:60px;""> </div>","null","fixation","html-keyboard-response","538","1621972","0.0-6.0-0.76","2787217","co38281","norming","","","","","","",""
"null","../img/tt/1040tt.jpg","null","mooney1","image-keyboard-response","539","1624978","0.0-6.0-1.76","2787217","co38281","norming","","","","","","",""
"5109.925000000279","","","post_mooney1_questions","survey-likert","540","1630091","0.0-6.0-2.76","2787217","co38281","norming","","","{""curiosity"":6,""confidence"":0}","[0,1]","../img/tt/1040tt.jpg","",""
"1013.684999999823","","","recognition","survey-text","541","1631107","0.0-6.0-3.76","2787217","co38281","norming","","","{""guess"":""""}","","../img/tt/1040tt.jpg","",""
"null","../img/gs/1040gs.jpg","null","reveal","image-keyboard-response","542","1633109","0.0-6.0-4.76","2787217","co38281","norming","","","","","","",""
"null","../img/tt/1040tt.jpg","null","mooney2","image-keyboard-response","543","1635111","0.0-6.0-5.76","2787217","co38281","norming","","","","","","",""
"3433.4550000000745","","","post_reveal_questions","survey-likert","544","1638547","0.0-6.0-6.76","2787217","co38281","norming","","","{""aha"":6}","[0]","../img/tt/1040tt.jpg","",""
"null","<div style=""font-size:60px;""> </div>","null","fixation","html-keyboard-response","545","1638749","0.0-6.0-0.77","2787217","co38281","norming","","","","","","",""
"null","../img/tt/319tt.jpg","null","mooney1","image-keyboard-response","546","1641750","0.0-6.0-1.77","2787217","co38281","norming","","","","","","",""
"3449.2849999996834","","","post_mooney1_questions","survey-likert","547","1645203","0.0-6.0-2.77","2787217","co38281","norming","","","{""curiosity"":6,""confidence"":1}","[0,1]","../img/tt/319tt.jpg","",""
"733.9700000002049","","","recognition","survey-text","548","1645939","0.0-6.0-3.77","2787217","co38281","norming","","","{""guess"":""""}","","../img/tt/319tt.jpg","",""
"null","../img/gs/319gs.jpg","null","reveal","image-keyboard-response","549","1647942","0.0-6.0-4.77","2787217","co38281","norming","","","","","","",""
"null","../img/tt/319tt.jpg","null","mooney2","image-keyboard-response","550","1649944","0.0-6.0-5.77","2787217","co38281","norming","","","","","","",""
"1848.695000000298","","","post_reveal_questions","survey-likert","551","1651795","0.0-6.0-6.77","2787217","co38281","norming","","","{""aha"":6}","[0]","../img/tt/319tt.jpg","",""
