"rt","stimulus","key_press","test_part","trial_type","trial_index","time_elapsed","internal_node_id","totalTime","subject","experiment_name","button_pressed","success","responses","question_order","currentStim","old","correct"
"135246.79000000004","Welcome to the experiment. This is an online experiment so please don't close the tab/window until we say goodbye.  Press any key to begin.","32","instructions","html-keyboard-response","0","135309","0.0-0.0","3183621","co38743","norming","","","","","","",""
"63052.53000000006","<div style='word-wrap: break-word; width: 900px'><h3>Please consider this information carefully before deciding whether to participate in this research</h3><ul style='text-align: left; font-size: .8em;'><li><b>Purpose of the research</b>: To examine how people process images.</li><li><b>What you will do in this research</b>:  Stimuli (images) will be presented on the computer and you will be asked different questions about them.</li><li><b>Time required</b>: Participation will take between 45 and 60 minutes to complete.</li><li><b>Risks</b>:  There are no anticipated risks associated with participating in this study. The effects of participating should be comparable to those you would experience from viewing a computer monitor for 30 minutes and using a mouse or keyboard.</li><li><b>Benefits</b>:  This study provides no benefits to you individually except for the credit. The study provides important information about the nature of perception and learning.</li><li><b>Confidentiality</b>:  Your participation in this study will remain confidential. No personally identifiable information will be associated with your data. Your de-identified data may be shared with other researchers and used in future projects.</li><li><b>Participation and withdrawal</b>:  Your participation in this study is completely voluntary and you may refuse to participate or you may choose to withdraw at any time without penalty.</li><li><b>How to contact the researchers</b>: If you have questions or concerns about your participation or payment, or want to request a summary of research findings, please contact Sander Van de Cruys (KU Leuven), at sander.vandecruys@kuleuven.be.</li></ul><p>The nature and purpose of this research have been sufficiently explained and I agree to participate in this study.  I understand that I am free to withdraw at any time without incurring any penalty.</p><p>Please consent by clicking the button below to continue. Otherwise, please exit the study at this time.</p></div>","","instructions","html-button-response","1","198367","0.0-1.0","3183621","co38743","norming","0","","","","","",""
"","","","instructions","fullscreen","2","204330","0.0-2.0","3183621","co38743","norming","","true","","","","",""
"55753.08499999996","","","sona","survey-html-form","3","260091","0.0-3.0","3183621","co38743","norming","","","[{""name"":""sonaid"",""value"":""38743""},{""name"":""debrief"",""value"":""yes""},{""name"":""datajoin"",""value"":""yes""}]","","","",""
"122404.78500000003","<div style='word-wrap: break-word; width: 900px'><h3>Instructions</h3><p>This experiment will have 3 parts. In the first part you will see a series of distorted images like the one below on the left. As you can see in the righthand image, the distorted images are derived from actual photographs. In what follows, you will <strong>briefly</strong> be presented with <strong>only</strong> the distorted image.</p> <div style='float: left; margin-right: 20px;'><img src='../img/018tt.jpg' height='250' width='250'></img></div><div style='float: right; margin-left: 20px;'><img src='../img/018gs.jpg' height='250' width='250'></img></div><p>Subsequently you will be asked a few questions about the image: One question on how <strong>curious</strong> you are about the solution and one on how <strong>confident</strong> you are that you know the solution.</p>Next, we ask you to make a guess on what is in the image. Note that it is OK to name just the <strong>basic level category</strong>. For example when you see a parrot in the image, 'parrot' will obviously be a correct answer but also correct is 'bird'. However, 'animal' will <strong>not</strong> be counted as a correct response. For the example above, 'rose' would be correct or 'flower', but not 'plant'. When soccer players are depicted, 'soccer', 'football', 'soccer players' will be correct, but not 'humans', 'outdoors', or 'sports'. You do not need to describe the image in full, just name the main object in it <strong>in one or two words</strong>. All images depict objects from one of the following broad level categories: animals, inanimate objects, plants, sports, vehicles, and food. Recognizing means knowing <strong>more</strong> than these broad labels for a given image. But we always encourage you to <strong>make a guess</strong> if you can. Note that you are allowed to use <strong>Dutch and English</strong> in your answers, whatever comes easiest for you.</p><p>Press any key to continue.</p></div>","32","instructions","html-keyboard-response","4","382495","0.0-4.0","3183621","co38743","norming","","","","","","",""
"253355.1600000001","<div style='word-wrap: break-word; width: 900px'><h3>Instructions</h3> <p>Next, the solution image will be revealed to you and you'll be asked to indicate how strong your <strong>aha-experience</strong> was after seeing the solution. This describes the positive feeling of the 'click' you sometimes experience, when the pieces of the 'puzzle' fall together and you suddenly have 'insight' in the image.</p><img src='aha.jpg' height='188' width='250'></img><p>Note that there are no right or wrong answers. We are interested in what <strong>you</strong> see in the image and how <strong>you</strong> feel about it.</p><p>Press any key to start the experiment.</p></div>","32","instructions","html-keyboard-response","5","635848","0.0-5.0","3183621","co38743","norming","","","","","","",""
"null","<div style=""font-size:60px;""> </div>","null","fixation","html-keyboard-response","6","636050","0.0-6.0-0.0","3183621","co38743","norming","","","","","","",""
"null","../img/tt/036tt.jpg","null","mooney1","image-keyboard-response","7","639059","0.0-6.0-1.0","3183621","co38743","norming","","","","","","",""
"7020.850000000093","","","post_mooney1_questions","survey-likert","8","646081","0.0-6.0-2.0","3183621","co38743","norming","","","{""curiosity"":5,""confidence"":0}","[0,1]","../img/tt/036tt.jpg","",""
"4301.414999999921","","","recognition","survey-text","9","650385","0.0-6.0-3.0","3183621","co38743","norming","","","{""guess"":""""}","","../img/tt/036tt.jpg","",""
"null","../img/gs/036gs.jpg","null","reveal","image-keyboard-response","10","652395","0.0-6.0-4.0","3183621","co38743","norming","","","","","","",""
"null","../img/tt/036tt.jpg","null","mooney2","image-keyboard-response","11","654405","0.0-6.0-5.0","3183621","co38743","norming","","","","","","",""
"6498.089999999851","","","post_reveal_questions","survey-likert","12","660905","0.0-6.0-6.0","3183621","co38743","norming","","","{""aha"":5}","[0]","../img/tt/036tt.jpg","",""
"null","<div style=""font-size:60px;""> </div>","null","fixation","html-keyboard-response","13","661115","0.0-6.0-0.1","3183621","co38743","norming","","","","","","",""
"null","../img/tt/1363tt.jpg","null","mooney1","image-keyboard-response","14","664124","0.0-6.0-1.1","3183621","co38743","norming","","","","","","",""
"7603.889999999781","","","post_mooney1_questions","survey-likert","15","671729","0.0-6.0-2.1","3183621","co38743","norming","","","{""curiosity"":4,""confidence"":3}","[0,1]","../img/tt/1363tt.jpg","",""
"6709.775000000023","","","recognition","survey-text","16","678440","0.0-6.0-3.1","3183621","co38743","norming","","","{""guess"":""a tea kettle""}","","../img/tt/1363tt.jpg","",""
"null","../img/gs/1363gs.jpg","null","reveal","image-keyboard-response","17","680449","0.0-6.0-4.1","3183621","co38743","norming","","","","","","",""
"null","../img/tt/1363tt.jpg","null","mooney2","image-keyboard-response","18","682451","0.0-6.0-5.1","3183621","co38743","norming","","","","","","",""
"3036.574999999837","","","post_reveal_questions","survey-likert","19","685488","0.0-6.0-6.1","3183621","co38743","norming","","","{""aha"":4}","[0]","../img/tt/1363tt.jpg","",""
"null","<div style=""font-size:60px;""> </div>","null","fixation","html-keyboard-response","20","685691","0.0-6.0-0.2","3183621","co38743","norming","","","","","","",""
"null","../img/tt/020tt.jpg","null","mooney1","image-keyboard-response","21","688692","0.0-6.0-1.2","3183621","co38743","norming","","","","","","",""
"4211.7200000000885","","","post_mooney1_questions","survey-likert","22","692905","0.0-6.0-2.2","3183621","co38743","norming","","","{""curiosity"":4,""confidence"":4}","[0,1]","../img/tt/020tt.jpg","",""
"2925.9799999999814","","","recognition","survey-text","23","695832","0.0-6.0-3.2","3183621","co38743","norming","","","{""guess"":""a bulldog""}","","../img/tt/020tt.jpg","",""
"null","../img/gs/020gs.jpg","null","reveal","image-keyboard-response","24","697846","0.0-6.0-4.2","3183621","co38743","norming","","","","","","",""
"null","../img/tt/020tt.jpg","null","mooney2","image-keyboard-response","25","699848","0.0-6.0-5.2","3183621","co38743","norming","","","","","","",""
"2270.034999999916","","","post_reveal_questions","survey-likert","26","702119","0.0-6.0-6.2","3183621","co38743","norming","","","{""aha"":4}","[0]","../img/tt/020tt.jpg","",""
"null","<div style=""font-size:60px;""> </div>","null","fixation","html-keyboard-response","27","702330","0.0-6.0-0.3","3183621","co38743","norming","","","","","","",""
"null","../img/tt/085tt.jpg","null","mooney1","image-keyboard-response","28","705335","0.0-6.0-1.3","3183621","co38743","norming","","","","","","",""
"5255.22499999986","","","post_mooney1_questions","survey-likert","29","710591","0.0-6.0-2.3","3183621","co38743","norming","","","{""curiosity"":5,""confidence"":2}","[0,1]","../img/tt/085tt.jpg","",""
"6605.719999999972","","","recognition","survey-text","30","717199","0.0-6.0-3.3","3183621","co38743","norming","","","{""guess"":""a bycicle or vehicle""}","","../img/tt/085tt.jpg","",""
"null","../img/gs/085gs.jpg","null","reveal","image-keyboard-response","31","719202","0.0-6.0-4.3","3183621","co38743","norming","","","","","","",""
"null","../img/tt/085tt.jpg","null","mooney2","image-keyboard-response","32","721204","0.0-6.0-5.3","3183621","co38743","norming","","","","","","",""
"1754.6399999998976","","","post_reveal_questions","survey-likert","33","722959","0.0-6.0-6.3","3183621","co38743","norming","","","{""aha"":5}","[0]","../img/tt/085tt.jpg","",""
"null","<div style=""font-size:60px;""> </div>","null","fixation","html-keyboard-response","34","723162","0.0-6.0-0.4","3183621","co38743","norming","","","","","","",""
"null","../img/tt/1078tt.jpg","null","mooney1","image-keyboard-response","35","726168","0.0-6.0-1.4","3183621","co38743","norming","","","","","","",""
"6534.519999999902","","","post_mooney1_questions","survey-likert","36","732704","0.0-6.0-2.4","3183621","co38743","norming","","","{""curiosity"":4,""confidence"":5}","[0,1]","../img/tt/1078tt.jpg","",""
"2045.9700000000885","","","recognition","survey-text","37","734751","0.0-6.0-3.4","3183621","co38743","norming","","","{""guess"":""a surfer""}","","../img/tt/1078tt.jpg","",""
"null","../img/gs/1078gs.jpg","null","reveal","image-keyboard-response","38","736761","0.0-6.0-4.4","3183621","co38743","norming","","","","","","",""
"null","../img/tt/1078tt.jpg","null","mooney2","image-keyboard-response","39","738767","0.0-6.0-5.4","3183621","co38743","norming","","","","","","",""
"4759.819999999949","","","post_reveal_questions","survey-likert","40","743527","0.0-6.0-6.4","3183621","co38743","norming","","","{""aha"":5}","[0]","../img/tt/1078tt.jpg","",""
"null","<div style=""font-size:60px;""> </div>","null","fixation","html-keyboard-response","41","743729","0.0-6.0-0.5","3183621","co38743","norming","","","","","","",""
"null","../img/tt/1278tt.jpg","null","mooney1","image-keyboard-response","42","746738","0.0-6.0-1.5","3183621","co38743","norming","","","","","","",""
"2867.1350000000093","","","post_mooney1_questions","survey-likert","43","749607","0.0-6.0-2.5","3183621","co38743","norming","","","{""curiosity"":5,""confidence"":0}","[0,1]","../img/tt/1278tt.jpg","",""
"3558.475000000093","","","recognition","survey-text","44","753168","0.0-6.0-3.5","3183621","co38743","norming","","","{""guess"":""the woods""}","","../img/tt/1278tt.jpg","",""
"null","../img/gs/1278gs.jpg","null","reveal","image-keyboard-response","45","755172","0.0-6.0-4.5","3183621","co38743","norming","","","","","","",""
"null","../img/tt/1278tt.jpg","null","mooney2","image-keyboard-response","46","757178","0.0-6.0-5.5","3183621","co38743","norming","","","","","","",""
"1958.0050000000047","","","post_reveal_questions","survey-likert","47","759138","0.0-6.0-6.5","3183621","co38743","norming","","","{""aha"":4}","[0]","../img/tt/1278tt.jpg","",""
"null","<div style=""font-size:60px;""> </div>","null","fixation","html-keyboard-response","48","759340","0.0-6.0-0.6","3183621","co38743","norming","","","","","","",""
"null","../img/tt/1234tt.jpg","null","mooney1","image-keyboard-response","49","762346","0.0-6.0-1.6","3183621","co38743","norming","","","","","","",""
"3670.2550000000047","","","post_mooney1_questions","survey-likert","50","766019","0.0-6.0-2.6","3183621","co38743","norming","","","{""curiosity"":4,""confidence"":4}","[0,1]","../img/tt/1234tt.jpg","",""
"9789.839999999967","","","recognition","survey-text","51","775810","0.0-6.0-3.6","3183621","co38743","norming","","","{""guess"":""een kanovaarder""}","","../img/tt/1234tt.jpg","",""
"null","../img/gs/1234gs.jpg","null","reveal","image-keyboard-response","52","777821","0.0-6.0-4.6","3183621","co38743","norming","","","","","","",""
"null","../img/tt/1234tt.jpg","null","mooney2","image-keyboard-response","53","779827","0.0-6.0-5.6","3183621","co38743","norming","","","","","","",""
"5581.39999999979","","","post_reveal_questions","survey-likert","54","785410","0.0-6.0-6.6","3183621","co38743","norming","","","{""aha"":5}","[0]","../img/tt/1234tt.jpg","",""
"null","<div style=""font-size:60px;""> </div>","null","fixation","html-keyboard-response","55","785615","0.0-6.0-0.7","3183621","co38743","norming","","","","","","",""
"null","../img/tt/1250tt.jpg","null","mooney1","image-keyboard-response","56","788624","0.0-6.0-1.7","3183621","co38743","norming","","","","","","",""
"6232.050000000047","","","post_mooney1_questions","survey-likert","57","794859","0.0-6.0-2.7","3183621","co38743","norming","","","{""curiosity"":5,""confidence"":1}","[0,1]","../img/tt/1250tt.jpg","",""
"5173.9199999999255","","","recognition","survey-text","58","800034","0.0-6.0-3.7","3183621","co38743","norming","","","{""guess"":""a bird""}","","../img/tt/1250tt.jpg","",""
"null","../img/gs/1250gs.jpg","null","reveal","image-keyboard-response","59","802037","0.0-6.0-4.7","3183621","co38743","norming","","","","","","",""
"null","../img/tt/1250tt.jpg","null","mooney2","image-keyboard-response","60","804039","0.0-6.0-5.7","3183621","co38743","norming","","","","","","",""
"2625.214999999851","","","post_reveal_questions","survey-likert","61","806666","0.0-6.0-6.7","3183621","co38743","norming","","","{""aha"":5}","[0]","../img/tt/1250tt.jpg","",""
"null","<div style=""font-size:60px;""> </div>","null","fixation","html-keyboard-response","62","806870","0.0-6.0-0.8","3183621","co38743","norming","","","","","","",""
"null","../img/tt/046tt.jpg","null","mooney1","image-keyboard-response","63","809875","0.0-6.0-1.8","3183621","co38743","norming","","","","","","",""
"4773.185000000056","","","post_mooney1_questions","survey-likert","64","814651","0.0-6.0-2.8","3183621","co38743","norming","","","{""curiosity"":5,""confidence"":2}","[0,1]","../img/tt/046tt.jpg","",""
"2646.555000000051","","","recognition","survey-text","65","817294","0.0-6.0-3.8","3183621","co38743","norming","","","{""guess"":""a dog ""}","","../img/tt/046tt.jpg","",""
"null","../img/gs/046gs.jpg","null","reveal","image-keyboard-response","66","819300","0.0-6.0-4.8","3183621","co38743","norming","","","","","","",""
"null","../img/tt/046tt.jpg","null","mooney2","image-keyboard-response","67","821311","0.0-6.0-5.8","3183621","co38743","norming","","","","","","",""
"3148.195000000065","","","post_reveal_questions","survey-likert","68","824462","0.0-6.0-6.8","3183621","co38743","norming","","","{""aha"":4}","[0]","../img/tt/046tt.jpg","",""
"null","<div style=""font-size:60px;""> </div>","null","fixation","html-keyboard-response","69","824667","0.0-6.0-0.9","3183621","co38743","norming","","","","","","",""
"null","../img/tt/307tt.jpg","null","mooney1","image-keyboard-response","70","827678","0.0-6.0-1.9","3183621","co38743","norming","","","","","","",""
"4485.850000000093","","","post_mooney1_questions","survey-likert","71","832166","0.0-6.0-2.9","3183621","co38743","norming","","","{""curiosity"":5,""confidence"":3}","[0,1]","../img/tt/307tt.jpg","",""
"4790.155000000144","","","recognition","survey-text","72","836958","0.0-6.0-3.9","3183621","co38743","norming","","","{""guess"":""a turtle""}","","../img/tt/307tt.jpg","",""
"null","../img/gs/307gs.jpg","null","reveal","image-keyboard-response","73","838964","0.0-6.0-4.9","3183621","co38743","norming","","","","","","",""
"null","../img/tt/307tt.jpg","null","mooney2","image-keyboard-response","74","840966","0.0-6.0-5.9","3183621","co38743","norming","","","","","","",""
"3733.9749999998603","","","post_reveal_questions","survey-likert","75","844702","0.0-6.0-6.9","3183621","co38743","norming","","","{""aha"":3}","[0]","../img/tt/307tt.jpg","",""
"null","<div style=""font-size:60px;""> </div>","null","fixation","html-keyboard-response","76","844906","0.0-6.0-0.10","3183621","co38743","norming","","","","","","",""
"null","../img/tt/1211tt.jpg","null","mooney1","image-keyboard-response","77","847908","0.0-6.0-1.10","3183621","co38743","norming","","","","","","",""
"5734.784999999916","","","post_mooney1_questions","survey-likert","78","853646","0.0-6.0-2.10","3183621","co38743","norming","","","{""curiosity"":4,""confidence"":5}","[0,1]","../img/tt/1211tt.jpg","",""
"2318.300000000163","","","recognition","survey-text","79","855966","0.0-6.0-3.10","3183621","co38743","norming","","","{""guess"":""a pool""}","","../img/tt/1211tt.jpg","",""
"null","../img/gs/1211gs.jpg","null","reveal","image-keyboard-response","80","857968","0.0-6.0-4.10","3183621","co38743","norming","","","","","","",""
"null","../img/tt/1211tt.jpg","null","mooney2","image-keyboard-response","81","859978","0.0-6.0-5.10","3183621","co38743","norming","","","","","","",""
"2777.759999999893","","","post_reveal_questions","survey-likert","82","862758","0.0-6.0-6.10","3183621","co38743","norming","","","{""aha"":5}","[0]","../img/tt/1211tt.jpg","",""
"null","<div style=""font-size:60px;""> </div>","null","fixation","html-keyboard-response","83","862959","0.0-6.0-0.11","3183621","co38743","norming","","","","","","",""
"null","../img/tt/357tt.jpg","null","mooney1","image-keyboard-response","84","865965","0.0-6.0-1.11","3183621","co38743","norming","","","","","","",""
"3998.29999999993","","","post_mooney1_questions","survey-likert","85","869966","0.0-6.0-2.11","3183621","co38743","norming","","","{""curiosity"":3,""confidence"":5}","[0,1]","../img/tt/357tt.jpg","",""
"3486.134999999893","","","recognition","survey-text","86","873454","0.0-6.0-3.11","3183621","co38743","norming","","","{""guess"":""a hedgehog""}","","../img/tt/357tt.jpg","",""
"null","../img/gs/357gs.jpg","null","reveal","image-keyboard-response","87","875455","0.0-6.0-4.11","3183621","co38743","norming","","","","","","",""
"null","../img/tt/357tt.jpg","null","mooney2","image-keyboard-response","88","877471","0.0-6.0-5.11","3183621","co38743","norming","","","","","","",""
"4009.1549999999115","","","post_reveal_questions","survey-likert","89","881483","0.0-6.0-6.11","3183621","co38743","norming","","","{""aha"":3}","[0]","../img/tt/357tt.jpg","",""
"null","<div style=""font-size:60px;""> </div>","null","fixation","html-keyboard-response","90","881684","0.0-6.0-0.12","3183621","co38743","norming","","","","","","",""
"null","../img/tt/412tt.jpg","null","mooney1","image-keyboard-response","91","884694","0.0-6.0-1.12","3183621","co38743","norming","","","","","","",""
"4276.035000000149","","","post_mooney1_questions","survey-likert","92","888971","0.0-6.0-2.12","3183621","co38743","norming","","","{""curiosity"":4,""confidence"":4}","[0,1]","../img/tt/412tt.jpg","",""
"3621.929999999935","","","recognition","survey-text","93","892595","0.0-6.0-3.12","3183621","co38743","norming","","","{""guess"":""a telescope""}","","../img/tt/412tt.jpg","",""
"null","../img/gs/412gs.jpg","null","reveal","image-keyboard-response","94","894600","0.0-6.0-4.12","3183621","co38743","norming","","","","","","",""
"null","../img/tt/412tt.jpg","null","mooney2","image-keyboard-response","95","896607","0.0-6.0-5.12","3183621","co38743","norming","","","","","","",""
"3090.219999999972","","","post_reveal_questions","survey-likert","96","899699","0.0-6.0-6.12","3183621","co38743","norming","","","{""aha"":4}","[0]","../img/tt/412tt.jpg","",""
"null","<div style=""font-size:60px;""> </div>","null","fixation","html-keyboard-response","97","899901","0.0-6.0-0.13","3183621","co38743","norming","","","","","","",""
"null","../img/tt/418tt.jpg","null","mooney1","image-keyboard-response","98","902909","0.0-6.0-1.13","3183621","co38743","norming","","","","","","",""
"8173.1599999998","","","post_mooney1_questions","survey-likert","99","911083","0.0-6.0-2.13","3183621","co38743","norming","","","{""curiosity"":3,""confidence"":4}","[0,1]","../img/tt/418tt.jpg","",""
"2118.25","","","recognition","survey-text","100","913203","0.0-6.0-3.13","3183621","co38743","norming","","","{""guess"":""a truck""}","","../img/tt/418tt.jpg","",""
"null","../img/gs/418gs.jpg","null","reveal","image-keyboard-response","101","915211","0.0-6.0-4.13","3183621","co38743","norming","","","","","","",""
"null","../img/tt/418tt.jpg","null","mooney2","image-keyboard-response","102","917212","0.0-6.0-5.13","3183621","co38743","norming","","","","","","",""
"3037.6100000001024","","","post_reveal_questions","survey-likert","103","920251","0.0-6.0-6.13","3183621","co38743","norming","","","{""aha"":5}","[0]","../img/tt/418tt.jpg","",""
"null","<div style=""font-size:60px;""> </div>","null","fixation","html-keyboard-response","104","920452","0.0-6.0-0.14","3183621","co38743","norming","","","","","","",""
"null","../img/tt/1199tt.jpg","null","mooney1","image-keyboard-response","105","923461","0.0-6.0-1.14","3183621","co38743","norming","","","","","","",""
"6146.784999999916","","","post_mooney1_questions","survey-likert","106","929611","0.0-6.0-2.14","3183621","co38743","norming","","","{""curiosity"":4,""confidence"":4}","[0,1]","../img/tt/1199tt.jpg","",""
"3926.320000000065","","","recognition","survey-text","107","933539","0.0-6.0-3.14","3183621","co38743","norming","","","{""guess"":""a gymnast""}","","../img/tt/1199tt.jpg","",""
"null","../img/gs/1199gs.jpg","null","reveal","image-keyboard-response","108","935546","0.0-6.0-4.14","3183621","co38743","norming","","","","","","",""
"null","../img/tt/1199tt.jpg","null","mooney2","image-keyboard-response","109","937548","0.0-6.0-5.14","3183621","co38743","norming","","","","","","",""
"2708.860000000219","","","post_reveal_questions","survey-likert","110","940259","0.0-6.0-6.14","3183621","co38743","norming","","","{""aha"":3}","[0]","../img/tt/1199tt.jpg","",""
"null","<div style=""font-size:60px;""> </div>","null","fixation","html-keyboard-response","111","940460","0.0-6.0-0.15","3183621","co38743","norming","","","","","","",""
"null","../img/tt/055tt.jpg","null","mooney1","image-keyboard-response","112","943462","0.0-6.0-1.15","3183621","co38743","norming","","","","","","",""
"3762.7400000002235","","","post_mooney1_questions","survey-likert","113","947227","0.0-6.0-2.15","3183621","co38743","norming","","","{""curiosity"":4,""confidence"":4}","[0,1]","../img/tt/055tt.jpg","",""
"2198.1299999998882","","","recognition","survey-text","114","949427","0.0-6.0-3.15","3183621","co38743","norming","","","{""guess"":""a saddle""}","","../img/tt/055tt.jpg","",""
"null","../img/gs/055gs.jpg","null","reveal","image-keyboard-response","115","951429","0.0-6.0-4.15","3183621","co38743","norming","","","","","","",""
"null","../img/tt/055tt.jpg","null","mooney2","image-keyboard-response","116","953434","0.0-6.0-5.15","3183621","co38743","norming","","","","","","",""
"3824.305000000051","","","post_reveal_questions","survey-likert","117","957259","0.0-6.0-6.15","3183621","co38743","norming","","","{""aha"":2}","[0]","../img/tt/055tt.jpg","",""
"null","<div style=""font-size:60px;""> </div>","null","fixation","html-keyboard-response","118","957461","0.0-6.0-0.16","3183621","co38743","norming","","","","","","",""
"null","../img/tt/1175tt.jpg","null","mooney1","image-keyboard-response","119","960463","0.0-6.0-1.16","3183621","co38743","norming","","","","","","",""
"5209.395000000135","","","post_mooney1_questions","survey-likert","120","965675","0.0-6.0-2.16","3183621","co38743","norming","","","{""curiosity"":4,""confidence"":3}","[0,1]","../img/tt/1175tt.jpg","",""
"8198.180000000168","","","recognition","survey-text","121","973875","0.0-6.0-3.16","3183621","co38743","norming","","","{""guess"":""motorcyclists""}","","../img/tt/1175tt.jpg","",""
"null","../img/gs/1175gs.jpg","null","reveal","image-keyboard-response","122","975877","0.0-6.0-4.16","3183621","co38743","norming","","","","","","",""
"null","../img/tt/1175tt.jpg","null","mooney2","image-keyboard-response","123","977886","0.0-6.0-5.16","3183621","co38743","norming","","","","","","",""
"2370.8099999999395","","","post_reveal_questions","survey-likert","124","980259","0.0-6.0-6.16","3183621","co38743","norming","","","{""aha"":5}","[0]","../img/tt/1175tt.jpg","",""
"null","<div style=""font-size:60px;""> </div>","null","fixation","html-keyboard-response","125","980467","0.0-6.0-0.17","3183621","co38743","norming","","","","","","",""
"null","../img/tt/112tt.jpg","null","mooney1","image-keyboard-response","126","983477","0.0-6.0-1.17","3183621","co38743","norming","","","","","","",""
"7443.465000000084","","","post_mooney1_questions","survey-likert","127","990923","0.0-6.0-2.17","3183621","co38743","norming","","","{""curiosity"":3,""confidence"":6}","[0,1]","../img/tt/112tt.jpg","",""
"2710.184999999823","","","recognition","survey-text","128","993635","0.0-6.0-3.17","3183621","co38743","norming","","","{""guess"":""a whistle""}","","../img/tt/112tt.jpg","",""
"null","../img/gs/112gs.jpg","null","reveal","image-keyboard-response","129","995643","0.0-6.0-4.17","3183621","co38743","norming","","","","","","",""
"null","../img/tt/112tt.jpg","null","mooney2","image-keyboard-response","130","997644","0.0-6.0-5.17","3183621","co38743","norming","","","","","","",""
"3413.960000000079","","","post_reveal_questions","survey-likert","131","1001059","0.0-6.0-6.17","3183621","co38743","norming","","","{""aha"":1}","[0]","../img/tt/112tt.jpg","",""
"null","<div style=""font-size:60px;""> </div>","null","fixation","html-keyboard-response","132","1001260","0.0-6.0-0.18","3183621","co38743","norming","","","","","","",""
"null","../img/tt/1268tt.jpg","null","mooney1","image-keyboard-response","133","1004268","0.0-6.0-1.18","3183621","co38743","norming","","","","","","",""
"6020.164999999804","","","post_mooney1_questions","survey-likert","134","1010291","0.0-6.0-2.18","3183621","co38743","norming","","","{""curiosity"":4,""confidence"":6}","[0,1]","../img/tt/1268tt.jpg","",""
"3437.944999999949","","","recognition","survey-text","135","1013731","0.0-6.0-3.18","3183621","co38743","norming","","","{""guess"":""a squirrel""}","","../img/tt/1268tt.jpg","",""
"null","../img/gs/1268gs.jpg","null","reveal","image-keyboard-response","136","1015733","0.0-6.0-4.18","3183621","co38743","norming","","","","","","",""
"null","../img/tt/1268tt.jpg","null","mooney2","image-keyboard-response","137","1017735","0.0-6.0-5.18","3183621","co38743","norming","","","","","","",""
"3321.3749999998836","","","post_reveal_questions","survey-likert","138","1021059","0.0-6.0-6.18","3183621","co38743","norming","","","{""aha"":0}","[0]","../img/tt/1268tt.jpg","",""
"null","<div style=""font-size:60px;""> </div>","null","fixation","html-keyboard-response","139","1021260","0.0-6.0-0.19","3183621","co38743","norming","","","","","","",""
"null","../img/tt/1236tt.jpg","null","mooney1","image-keyboard-response","140","1024268","0.0-6.0-1.19","3183621","co38743","norming","","","","","","",""
"9780.170000000042","","","post_mooney1_questions","survey-likert","141","1034051","0.0-6.0-2.19","3183621","co38743","norming","","","{""curiosity"":4,""confidence"":1}","[0,1]","../img/tt/1236tt.jpg","",""
"2845.929999999935","","","recognition","survey-text","142","1036899","0.0-6.0-3.19","3183621","co38743","norming","","","{""guess"":""a goose""}","","../img/tt/1236tt.jpg","",""
"null","../img/gs/1236gs.jpg","null","reveal","image-keyboard-response","143","1038909","0.0-6.0-4.19","3183621","co38743","norming","","","","","","",""
"null","../img/tt/1236tt.jpg","null","mooney2","image-keyboard-response","144","1040918","0.0-6.0-5.19","3183621","co38743","norming","","","","","","",""
"4852.539999999804","","","post_reveal_questions","survey-likert","145","1045771","0.0-6.0-6.19","3183621","co38743","norming","","","{""aha"":4}","[0]","../img/tt/1236tt.jpg","",""
"null","<div style=""font-size:60px;""> </div>","null","fixation","html-keyboard-response","146","1045972","0.0-6.0-0.20","3183621","co38743","norming","","","","","","",""
"null","../img/tt/1012tt.jpg","null","mooney1","image-keyboard-response","147","1048985","0.0-6.0-1.20","3183621","co38743","norming","","","","","","",""
"3375.9000000001397","","","post_mooney1_questions","survey-likert","148","1052363","0.0-6.0-2.20","3183621","co38743","norming","","","{""curiosity"":4,""confidence"":4}","[0,1]","../img/tt/1012tt.jpg","",""
"2646.034999999916","","","recognition","survey-text","149","1055011","0.0-6.0-3.20","3183621","co38743","norming","","","{""guess"":""a rhino""}","","../img/tt/1012tt.jpg","",""
"null","../img/gs/1012gs.jpg","null","reveal","image-keyboard-response","150","1057016","0.0-6.0-4.20","3183621","co38743","norming","","","","","","",""
"null","../img/tt/1012tt.jpg","null","mooney2","image-keyboard-response","151","1059018","0.0-6.0-5.20","3183621","co38743","norming","","","","","","",""
"3055.114999999758","","","post_reveal_questions","survey-likert","152","1062075","0.0-6.0-6.20","3183621","co38743","norming","","","{""aha"":5}","[0]","../img/tt/1012tt.jpg","",""
"null","<div style=""font-size:60px;""> </div>","null","fixation","html-keyboard-response","153","1062276","0.0-6.0-0.21","3183621","co38743","norming","","","","","","",""
"null","../img/tt/1086tt.jpg","null","mooney1","image-keyboard-response","154","1065279","0.0-6.0-1.21","3183621","co38743","norming","","","","","","",""
"4849.034999999916","","","post_mooney1_questions","survey-likert","155","1070131","0.0-6.0-2.21","3183621","co38743","norming","","","{""curiosity"":5,""confidence"":3}","[0,1]","../img/tt/1086tt.jpg","",""
"4110.284999999916","","","recognition","survey-text","156","1074243","0.0-6.0-3.21","3183621","co38743","norming","","","{""guess"":""a bull or wolf""}","","../img/tt/1086tt.jpg","",""
"null","../img/gs/1086gs.jpg","null","reveal","image-keyboard-response","157","1076252","0.0-6.0-4.21","3183621","co38743","norming","","","","","","",""
"null","../img/tt/1086tt.jpg","null","mooney2","image-keyboard-response","158","1078261","0.0-6.0-5.21","3183621","co38743","norming","","","","","","",""
"15083.659999999916","","","post_reveal_questions","survey-likert","159","1093347","0.0-6.0-6.21","3183621","co38743","norming","","","{""aha"":3}","[0]","../img/tt/1086tt.jpg","",""
"null","<div style=""font-size:60px;""> </div>","null","fixation","html-keyboard-response","160","1093548","0.0-6.0-0.22","3183621","co38743","norming","","","","","","",""
"null","../img/tt/081tt.jpg","null","mooney1","image-keyboard-response","161","1096553","0.0-6.0-1.22","3183621","co38743","norming","","","","","","",""
"5031.354999999981","","","post_mooney1_questions","survey-likert","162","1101587","0.0-6.0-2.22","3183621","co38743","norming","","","{""curiosity"":4,""confidence"":3}","[0,1]","../img/tt/081tt.jpg","",""
"1982.0949999997392","","","recognition","survey-text","163","1103571","0.0-6.0-3.22","3183621","co38743","norming","","","{""guess"":""a giraffe""}","","../img/tt/081tt.jpg","",""
"null","../img/gs/081gs.jpg","null","reveal","image-keyboard-response","164","1105581","0.0-6.0-4.22","3183621","co38743","norming","","","","","","",""
"null","../img/tt/081tt.jpg","null","mooney2","image-keyboard-response","165","1107593","0.0-6.0-5.22","3183621","co38743","norming","","","","","","",""
"2871.8300000000745","","","post_reveal_questions","survey-likert","166","1110467","0.0-6.0-6.22","3183621","co38743","norming","","","{""aha"":5}","[0]","../img/tt/081tt.jpg","",""
"null","<div style=""font-size:60px;""> </div>","null","fixation","html-keyboard-response","167","1110668","0.0-6.0-0.23","3183621","co38743","norming","","","","","","",""
"null","../img/tt/1148tt.jpg","null","mooney1","image-keyboard-response","168","1113678","0.0-6.0-1.23","3183621","co38743","norming","","","","","","",""
"5177.610000000102","","","post_mooney1_questions","survey-likert","169","1118859","0.0-6.0-2.23","3183621","co38743","norming","","","{""curiosity"":4,""confidence"":5}","[0,1]","../img/tt/1148tt.jpg","",""
"2230.2600000000093","","","recognition","survey-text","170","1121086","0.0-6.0-3.23","3183621","co38743","norming","","","{""guess"":""a dancer""}","","../img/tt/1148tt.jpg","",""
"null","../img/gs/1148gs.jpg","null","reveal","image-keyboard-response","171","1123088","0.0-6.0-4.23","3183621","co38743","norming","","","","","","",""
"null","../img/tt/1148tt.jpg","null","mooney2","image-keyboard-response","172","1125096","0.0-6.0-5.23","3183621","co38743","norming","","","","","","",""
"3003.6999999999534","","","post_reveal_questions","survey-likert","173","1128102","0.0-6.0-6.23","3183621","co38743","norming","","","{""aha"":5}","[0]","../img/tt/1148tt.jpg","",""
"null","<div style=""font-size:60px;""> </div>","null","fixation","html-keyboard-response","174","1128312","0.0-6.0-0.24","3183621","co38743","norming","","","","","","",""
"null","../img/tt/1102tt.jpg","null","mooney1","image-keyboard-response","175","1131315","0.0-6.0-1.24","3183621","co38743","norming","","","","","","",""
"4704.295000000158","","","post_mooney1_questions","survey-likert","176","1136022","0.0-6.0-2.24","3183621","co38743","norming","","","{""curiosity"":4,""confidence"":5}","[0,1]","../img/tt/1102tt.jpg","",""
"1958.1949999998324","","","recognition","survey-text","177","1137982","0.0-6.0-3.24","3183621","co38743","norming","","","{""guess"":""a hammock""}","","../img/tt/1102tt.jpg","",""
"null","../img/gs/1102gs.jpg","null","reveal","image-keyboard-response","178","1139991","0.0-6.0-4.24","3183621","co38743","norming","","","","","","",""
"null","../img/tt/1102tt.jpg","null","mooney2","image-keyboard-response","179","1142002","0.0-6.0-5.24","3183621","co38743","norming","","","","","","",""
"2921.0149999998976","","","post_reveal_questions","survey-likert","180","1144926","0.0-6.0-6.24","3183621","co38743","norming","","","{""aha"":6}","[0]","../img/tt/1102tt.jpg","",""
"null","<div style=""font-size:60px;""> </div>","null","fixation","html-keyboard-response","181","1145132","0.0-6.0-0.25","3183621","co38743","norming","","","","","","",""
"null","../img/tt/1247tt.jpg","null","mooney1","image-keyboard-response","182","1148142","0.0-6.0-1.25","3183621","co38743","norming","","","","","","",""
"4253.545000000158","","","post_mooney1_questions","survey-likert","183","1152398","0.0-6.0-2.25","3183621","co38743","norming","","","{""curiosity"":5,""confidence"":3}","[0,1]","../img/tt/1247tt.jpg","",""
"2542.1299999998882","","","recognition","survey-text","184","1154942","0.0-6.0-3.25","3183621","co38743","norming","","","{""guess"":""a bunny""}","","../img/tt/1247tt.jpg","",""
"null","../img/gs/1247gs.jpg","null","reveal","image-keyboard-response","185","1156943","0.0-6.0-4.25","3183621","co38743","norming","","","","","","",""
"null","../img/tt/1247tt.jpg","null","mooney2","image-keyboard-response","186","1158945","0.0-6.0-5.25","3183621","co38743","norming","","","","","","",""
"2179.0849999999627","","","post_reveal_questions","survey-likert","187","1161126","0.0-6.0-6.25","3183621","co38743","norming","","","{""aha"":6}","[0]","../img/tt/1247tt.jpg","",""
"null","<div style=""font-size:60px;""> </div>","null","fixation","html-keyboard-response","188","1161331","0.0-6.0-0.26","3183621","co38743","norming","","","","","","",""
"null","../img/tt/1004tt.jpg","null","mooney1","image-keyboard-response","189","1164343","0.0-6.0-1.26","3183621","co38743","norming","","","","","","",""
"6003.984999999637","","","post_mooney1_questions","survey-likert","190","1170350","0.0-6.0-2.26","3183621","co38743","norming","","","{""curiosity"":6,""confidence"":0}","[0,1]","../img/tt/1004tt.jpg","",""
"950.184999999823","","","recognition","survey-text","191","1171302","0.0-6.0-3.26","3183621","co38743","norming","","","{""guess"":""""}","","../img/tt/1004tt.jpg","",""
"null","../img/gs/1004gs.jpg","null","reveal","image-keyboard-response","192","1173311","0.0-6.0-4.26","3183621","co38743","norming","","","","","","",""
"null","../img/tt/1004tt.jpg","null","mooney2","image-keyboard-response","193","1175315","0.0-6.0-5.26","3183621","co38743","norming","","","","","","",""
"1968.9549999998417","","","post_reveal_questions","survey-likert","194","1177286","0.0-6.0-6.26","3183621","co38743","norming","","","{""aha"":6}","[0]","../img/tt/1004tt.jpg","",""
"null","<div style=""font-size:60px;""> </div>","null","fixation","html-keyboard-response","195","1177487","0.0-6.0-0.27","3183621","co38743","norming","","","","","","",""
"null","../img/tt/1186tt.jpg","null","mooney1","image-keyboard-response","196","1180497","0.0-6.0-1.27","3183621","co38743","norming","","","","","","",""
"8799.745000000112","","","post_mooney1_questions","survey-likert","197","1189299","0.0-6.0-2.27","3183621","co38743","norming","","","{""curiosity"":3,""confidence"":4}","[0,1]","../img/tt/1186tt.jpg","",""
"6574.075000000186","","","recognition","survey-text","198","1195875","0.0-6.0-3.27","3183621","co38743","norming","","","{""guess"":""a rollerskating cowboy""}","","../img/tt/1186tt.jpg","",""
"null","../img/gs/1186gs.jpg","null","reveal","image-keyboard-response","199","1197879","0.0-6.0-4.27","3183621","co38743","norming","","","","","","",""
"null","../img/tt/1186tt.jpg","null","mooney2","image-keyboard-response","200","1199882","0.0-6.0-5.27","3183621","co38743","norming","","","","","","",""
"3038.6800000001676","","","post_reveal_questions","survey-likert","201","1202923","0.0-6.0-6.27","3183621","co38743","norming","","","{""aha"":2}","[0]","../img/tt/1186tt.jpg","",""
"null","<div style=""font-size:60px;""> </div>","null","fixation","html-keyboard-response","202","1203130","0.0-6.0-0.28","3183621","co38743","norming","","","","","","",""
"null","../img/tt/1122tt.jpg","null","mooney1","image-keyboard-response","203","1206132","0.0-6.0-1.28","3183621","co38743","norming","","","","","","",""
"4827.975000000093","","","post_mooney1_questions","survey-likert","204","1210963","0.0-6.0-2.28","3183621","co38743","norming","","","{""curiosity"":4,""confidence"":6}","[0,1]","../img/tt/1122tt.jpg","",""
"2478.125000000233","","","recognition","survey-text","205","1213443","0.0-6.0-3.28","3183621","co38743","norming","","","{""guess"":""jetski's""}","","../img/tt/1122tt.jpg","",""
"null","../img/gs/1122gs.jpg","null","reveal","image-keyboard-response","206","1215447","0.0-6.0-4.28","3183621","co38743","norming","","","","","","",""
"null","../img/tt/1122tt.jpg","null","mooney2","image-keyboard-response","207","1217458","0.0-6.0-5.28","3183621","co38743","norming","","","","","","",""
"3694.2750000001397","","","post_reveal_questions","survey-likert","208","1221155","0.0-6.0-6.28","3183621","co38743","norming","","","{""aha"":3}","[0]","../img/tt/1122tt.jpg","",""
"null","<div style=""font-size:60px;""> </div>","null","fixation","html-keyboard-response","209","1221365","0.0-6.0-0.29","3183621","co38743","norming","","","","","","",""
"null","../img/tt/440tt.jpg","null","mooney1","image-keyboard-response","210","1224369","0.0-6.0-1.29","3183621","co38743","norming","","","","","","",""
"4814.709999999963","","","post_mooney1_questions","survey-likert","211","1229187","0.0-6.0-2.29","3183621","co38743","norming","","","{""curiosity"":5,""confidence"":3}","[0,1]","../img/tt/440tt.jpg","",""
"1822.3000000000466","","","recognition","survey-text","212","1231011","0.0-6.0-3.29","3183621","co38743","norming","","","{""guess"":""stairs""}","","../img/tt/440tt.jpg","",""
"null","../img/gs/440gs.jpg","null","reveal","image-keyboard-response","213","1233012","0.0-6.0-4.29","3183621","co38743","norming","","","","","","",""
"null","../img/tt/440tt.jpg","null","mooney2","image-keyboard-response","214","1235016","0.0-6.0-5.29","3183621","co38743","norming","","","","","","",""
"3505.2099999999627","","","post_reveal_questions","survey-likert","215","1238523","0.0-6.0-6.29","3183621","co38743","norming","","","{""aha"":5}","[0]","../img/tt/440tt.jpg","",""
"null","<div style=""font-size:60px;""> </div>","null","fixation","html-keyboard-response","216","1238731","0.0-6.0-0.30","3183621","co38743","norming","","","","","","",""
"null","../img/tt/1072tt.jpg","null","mooney1","image-keyboard-response","217","1241739","0.0-6.0-1.30","3183621","co38743","norming","","","","","","",""
"5348.874999999767","","","post_mooney1_questions","survey-likert","218","1247091","0.0-6.0-2.30","3183621","co38743","norming","","","{""curiosity"":5,""confidence"":3}","[0,1]","../img/tt/1072tt.jpg","",""
"11198.229999999981","","","recognition","survey-text","219","1258291","0.0-6.0-3.30","3183621","co38743","norming","","","{""guess"":""een stadium ""}","","../img/tt/1072tt.jpg","",""
"null","../img/gs/1072gs.jpg","null","reveal","image-keyboard-response","220","1260292","0.0-6.0-4.30","3183621","co38743","norming","","","","","","",""
"null","../img/tt/1072tt.jpg","null","mooney2","image-keyboard-response","221","1262302","0.0-6.0-5.30","3183621","co38743","norming","","","","","","",""
"2850.0049999998882","","","post_reveal_questions","survey-likert","222","1265155","0.0-6.0-6.30","3183621","co38743","norming","","","{""aha"":5}","[0]","../img/tt/1072tt.jpg","",""
"null","<div style=""font-size:60px;""> </div>","null","fixation","html-keyboard-response","223","1265356","0.0-6.0-0.31","3183621","co38743","norming","","","","","","",""
"null","../img/tt/1255tt.jpg","null","mooney1","image-keyboard-response","224","1268359","0.0-6.0-1.31","3183621","co38743","norming","","","","","","",""
"7896.704999999842","","","post_mooney1_questions","survey-likert","225","1276259","0.0-6.0-2.31","3183621","co38743","norming","","","{""curiosity"":5,""confidence"":0}","[0,1]","../img/tt/1255tt.jpg","",""
"718.0900000000838","","","recognition","survey-text","226","1276979","0.0-6.0-3.31","3183621","co38743","norming","","","{""guess"":""""}","","../img/tt/1255tt.jpg","",""
"null","../img/gs/1255gs.jpg","null","reveal","image-keyboard-response","227","1278980","0.0-6.0-4.31","3183621","co38743","norming","","","","","","",""
"null","../img/tt/1255tt.jpg","null","mooney2","image-keyboard-response","228","1280989","0.0-6.0-5.31","3183621","co38743","norming","","","","","","",""
"3186.9900000002235","","","post_reveal_questions","survey-likert","229","1284179","0.0-6.0-6.31","3183621","co38743","norming","","","{""aha"":6}","[0]","../img/tt/1255tt.jpg","",""
"null","<div style=""font-size:60px;""> </div>","null","fixation","html-keyboard-response","230","1284383","0.0-6.0-0.32","3183621","co38743","norming","","","","","","",""
"null","../img/tt/599tt.jpg","null","mooney1","image-keyboard-response","231","1287393","0.0-6.0-1.32","3183621","co38743","norming","","","","","","",""
"3215.1800000001676","","","post_mooney1_questions","survey-likert","232","1290611","0.0-6.0-2.32","3183621","co38743","norming","","","{""curiosity"":5,""confidence"":3}","[0,1]","../img/tt/599tt.jpg","",""
"1566.0600000000559","","","recognition","survey-text","233","1292179","0.0-6.0-3.32","3183621","co38743","norming","","","{""guess"":""a duck""}","","../img/tt/599tt.jpg","",""
"null","../img/gs/599gs.jpg","null","reveal","image-keyboard-response","234","1294186","0.0-6.0-4.32","3183621","co38743","norming","","","","","","",""
"null","../img/tt/599tt.jpg","null","mooney2","image-keyboard-response","235","1296188","0.0-6.0-5.32","3183621","co38743","norming","","","","","","",""
"2748.814999999944","","","post_reveal_questions","survey-likert","236","1298939","0.0-6.0-6.32","3183621","co38743","norming","","","{""aha"":5}","[0]","../img/tt/599tt.jpg","",""
"null","<div style=""font-size:60px;""> </div>","null","fixation","html-keyboard-response","237","1299148","0.0-6.0-0.33","3183621","co38743","norming","","","","","","",""
"null","../img/tt/1063tt.jpg","null","mooney1","image-keyboard-response","238","1302160","0.0-6.0-1.33","3183621","co38743","norming","","","","","","",""
"3303.939999999944","","","post_mooney1_questions","survey-likert","239","1305467","0.0-6.0-2.33","3183621","co38743","norming","","","{""curiosity"":4,""confidence"":5}","[0,1]","../img/tt/1063tt.jpg","",""
"1750.0349999999162","","","recognition","survey-text","240","1307219","0.0-6.0-3.33","3183621","co38743","norming","","","{""guess"":""a horse""}","","../img/tt/1063tt.jpg","",""
"null","../img/gs/1063gs.jpg","null","reveal","image-keyboard-response","241","1309224","0.0-6.0-4.33","3183621","co38743","norming","","","","","","",""
"null","../img/tt/1063tt.jpg","null","mooney2","image-keyboard-response","242","1311225","0.0-6.0-5.33","3183621","co38743","norming","","","","","","",""
"3151.5250000001397","","","post_reveal_questions","survey-likert","243","1314379","0.0-6.0-6.33","3183621","co38743","norming","","","{""aha"":2}","[0]","../img/tt/1063tt.jpg","",""
"null","<div style=""font-size:60px;""> </div>","null","fixation","html-keyboard-response","244","1314584","0.0-6.0-0.34","3183621","co38743","norming","","","","","","",""
"null","../img/tt/1362tt.jpg","null","mooney1","image-keyboard-response","245","1317590","0.0-6.0-1.34","3183621","co38743","norming","","","","","","",""
"7082.079999999842","","","post_mooney1_questions","survey-likert","246","1324675","0.0-6.0-2.34","3183621","co38743","norming","","","{""curiosity"":4,""confidence"":3}","[0,1]","../img/tt/1362tt.jpg","",""
"3181.935000000056","","","recognition","survey-text","247","1327859","0.0-6.0-3.34","3183621","co38743","norming","","","{""guess"":""a vinylplayer""}","","../img/tt/1362tt.jpg","",""
"null","../img/gs/1362gs.jpg","null","reveal","image-keyboard-response","248","1329870","0.0-6.0-4.34","3183621","co38743","norming","","","","","","",""
"null","../img/tt/1362tt.jpg","null","mooney2","image-keyboard-response","249","1331879","0.0-6.0-5.34","3183621","co38743","norming","","","","","","",""
"4753.479999999981","","","post_reveal_questions","survey-likert","250","1336635","0.0-6.0-6.34","3183621","co38743","norming","","","{""aha"":5}","[0]","../img/tt/1362tt.jpg","",""
"null","<div style=""font-size:60px;""> </div>","null","fixation","html-keyboard-response","251","1336841","0.0-6.0-0.35","3183621","co38743","norming","","","","","","",""
"null","../img/tt/406tt.jpg","null","mooney1","image-keyboard-response","252","1339851","0.0-6.0-1.35","3183621","co38743","norming","","","","","","",""
"3972.590000000084","","","post_mooney1_questions","survey-likert","253","1343827","0.0-6.0-2.35","3183621","co38743","norming","","","{""curiosity"":4,""confidence"":4}","[0,1]","../img/tt/406tt.jpg","",""
"2302.2349999998696","","","recognition","survey-text","254","1346131","0.0-6.0-3.35","3183621","co38743","norming","","","{""guess"":""a bat""}","","../img/tt/406tt.jpg","",""
"null","../img/gs/406gs.jpg","null","reveal","image-keyboard-response","255","1348138","0.0-6.0-4.35","3183621","co38743","norming","","","","","","",""
"null","../img/tt/406tt.jpg","null","mooney2","image-keyboard-response","256","1350141","0.0-6.0-5.35","3183621","co38743","norming","","","","","","",""
"3036","","","post_reveal_questions","survey-likert","257","1353179","0.0-6.0-6.35","3183621","co38743","norming","","","{""aha"":2}","[0]","../img/tt/406tt.jpg","",""
"null","<div style=""font-size:60px;""> </div>","null","fixation","html-keyboard-response","258","1353381","0.0-6.0-0.36","3183621","co38743","norming","","","","","","",""
"null","../img/tt/1205tt.jpg","null","mooney1","image-keyboard-response","259","1356385","0.0-6.0-1.36","3183621","co38743","norming","","","","","","",""
"3599.3349999999627","","","post_mooney1_questions","survey-likert","260","1359987","0.0-6.0-2.36","3183621","co38743","norming","","","{""curiosity"":5,""confidence"":4}","[0,1]","../img/tt/1205tt.jpg","",""
"3966.2599999997765","","","recognition","survey-text","261","1363954","0.0-6.0-3.36","3183621","co38743","norming","","","{""guess"":""motorcyclists""}","","../img/tt/1205tt.jpg","",""
"null","../img/gs/1205gs.jpg","null","reveal","image-keyboard-response","262","1365959","0.0-6.0-4.36","3183621","co38743","norming","","","","","","",""
"null","../img/tt/1205tt.jpg","null","mooney2","image-keyboard-response","263","1367963","0.0-6.0-5.36","3183621","co38743","norming","","","","","","",""
"2452.25","","","post_reveal_questions","survey-likert","264","1370418","0.0-6.0-6.36","3183621","co38743","norming","","","{""aha"":5}","[0]","../img/tt/1205tt.jpg","",""
"null","<div style=""font-size:60px;""> </div>","null","fixation","html-keyboard-response","265","1370627","0.0-6.0-0.37","3183621","co38743","norming","","","","","","",""
"null","../img/tt/082tt.jpg","null","mooney1","image-keyboard-response","266","1373635","0.0-6.0-1.37","3183621","co38743","norming","","","","","","",""
"3756.124999999767","","","post_mooney1_questions","survey-likert","267","1377394","0.0-6.0-2.37","3183621","co38743","norming","","","{""curiosity"":5,""confidence"":4}","[0,1]","../img/tt/082tt.jpg","",""
"3806.0799999998417","","","recognition","survey-text","268","1381201","0.0-6.0-3.37","3183621","co38743","norming","","","{""guess"":""bikers""}","","../img/tt/082tt.jpg","",""
"null","../img/gs/082gs.jpg","null","reveal","image-keyboard-response","269","1383207","0.0-6.0-4.37","3183621","co38743","norming","","","","","","",""
"null","../img/tt/082tt.jpg","null","mooney2","image-keyboard-response","270","1385209","0.0-6.0-5.37","3183621","co38743","norming","","","","","","",""
"2269.010000000242","","","post_reveal_questions","survey-likert","271","1387481","0.0-6.0-6.37","3183621","co38743","norming","","","{""aha"":5}","[0]","../img/tt/082tt.jpg","",""
"null","<div style=""font-size:60px;""> </div>","null","fixation","html-keyboard-response","272","1387684","0.0-6.0-0.38","3183621","co38743","norming","","","","","","",""
"null","../img/tt/044tt.jpg","null","mooney1","image-keyboard-response","273","1390690","0.0-6.0-1.38","3183621","co38743","norming","","","","","","",""
"4661.159999999916","","","post_mooney1_questions","survey-likert","274","1395354","0.0-6.0-2.38","3183621","co38743","norming","","","{""curiosity"":5,""confidence"":3}","[0,1]","../img/tt/044tt.jpg","",""
"7046.135000000009","","","recognition","survey-text","275","1402401","0.0-6.0-3.38","3183621","co38743","norming","","","{""guess"":""a typewriter, the Godfather""}","","../img/tt/044tt.jpg","",""
"null","../img/gs/044gs.jpg","null","reveal","image-keyboard-response","276","1404403","0.0-6.0-4.38","3183621","co38743","norming","","","","","","",""
"null","../img/tt/044tt.jpg","null","mooney2","image-keyboard-response","277","1406405","0.0-6.0-5.38","3183621","co38743","norming","","","","","","",""
"3681.820000000065","","","post_reveal_questions","survey-likert","278","1410089","0.0-6.0-6.38","3183621","co38743","norming","","","{""aha"":5}","[0]","../img/tt/044tt.jpg","",""
"null","<div style=""font-size:60px;""> </div>","null","fixation","html-keyboard-response","279","1410291","0.0-6.0-0.39","3183621","co38743","norming","","","","","","",""
"null","../img/tt/1190tt.jpg","null","mooney1","image-keyboard-response","280","1413295","0.0-6.0-1.39","3183621","co38743","norming","","","","","","",""
"5344.364999999991","","","post_mooney1_questions","survey-likert","281","1418642","0.0-6.0-2.39","3183621","co38743","norming","","","{""curiosity"":5,""confidence"":2}","[0,1]","../img/tt/1190tt.jpg","",""
"1917.9899999999907","","","recognition","survey-text","282","1420561","0.0-6.0-3.39","3183621","co38743","norming","","","{""guess"":""the woods""}","","../img/tt/1190tt.jpg","",""
"null","../img/gs/1190gs.jpg","null","reveal","image-keyboard-response","283","1422569","0.0-6.0-4.39","3183621","co38743","norming","","","","","","",""
"null","../img/tt/1190tt.jpg","null","mooney2","image-keyboard-response","284","1424581","0.0-6.0-5.39","3183621","co38743","norming","","","","","","",""
"3284.030000000028","","","post_reveal_questions","survey-likert","285","1427868","0.0-6.0-6.39","3183621","co38743","norming","","","{""aha"":5}","[0]","../img/tt/1190tt.jpg","",""
"null","<div style=""font-size:60px;""> </div>","null","fixation","html-keyboard-response","286","1428069","0.0-6.0-0.40","3183621","co38743","norming","","","","","","",""
"null","../img/tt/296tt.jpg","null","mooney1","image-keyboard-response","287","1431072","0.0-6.0-1.40","3183621","co38743","norming","","","","","","",""
"4127.445000000065","","","post_mooney1_questions","survey-likert","288","1435203","0.0-6.0-2.40","3183621","co38743","norming","","","{""curiosity"":4,""confidence"":4}","[0,1]","../img/tt/296tt.jpg","",""
"2270.189999999944","","","recognition","survey-text","289","1437475","0.0-6.0-3.40","3183621","co38743","norming","","","{""guess"":""a coffin""}","","../img/tt/296tt.jpg","",""
"null","../img/gs/296gs.jpg","null","reveal","image-keyboard-response","290","1439481","0.0-6.0-4.40","3183621","co38743","norming","","","","","","",""
"null","../img/tt/296tt.jpg","null","mooney2","image-keyboard-response","291","1441483","0.0-6.0-5.40","3183621","co38743","norming","","","","","","",""
"4133.6699999999255","","","post_reveal_questions","survey-likert","292","1445619","0.0-6.0-6.40","3183621","co38743","norming","","","{""aha"":5}","[0]","../img/tt/296tt.jpg","",""
"null","<div style=""font-size:60px;""> </div>","null","fixation","html-keyboard-response","293","1445827","0.0-6.0-0.41","3183621","co38743","norming","","","","","","",""
"null","../img/tt/056tt.jpg","null","mooney1","image-keyboard-response","294","1448837","0.0-6.0-1.41","3183621","co38743","norming","","","","","","",""
"5093.074999999953","","","post_mooney1_questions","survey-likert","295","1453931","0.0-6.0-2.41","3183621","co38743","norming","","","{""curiosity"":5,""confidence"":4}","[0,1]","../img/tt/056tt.jpg","",""
"3414.195000000065","","","recognition","survey-text","296","1457347","0.0-6.0-3.41","3183621","co38743","norming","","","{""guess"":""een leeuwin""}","","../img/tt/056tt.jpg","",""
"null","../img/gs/056gs.jpg","null","reveal","image-keyboard-response","297","1459348","0.0-6.0-4.41","3183621","co38743","norming","","","","","","",""
"null","../img/tt/056tt.jpg","null","mooney2","image-keyboard-response","298","1461358","0.0-6.0-5.41","3183621","co38743","norming","","","","","","",""
"1890.160000000149","","","post_reveal_questions","survey-likert","299","1463251","0.0-6.0-6.41","3183621","co38743","norming","","","{""aha"":2}","[0]","../img/tt/056tt.jpg","",""
"null","<div style=""font-size:60px;""> </div>","null","fixation","html-keyboard-response","300","1463453","0.0-6.0-0.42","3183621","co38743","norming","","","","","","",""
"null","../img/tt/1053tt.jpg","null","mooney1","image-keyboard-response","301","1466457","0.0-6.0-1.42","3183621","co38743","norming","","","","","","",""
"5974.799999999814","","","post_mooney1_questions","survey-likert","302","1472435","0.0-6.0-2.42","3183621","co38743","norming","","","{""curiosity"":4,""confidence"":4}","[0,1]","../img/tt/1053tt.jpg","",""
"4750.005000000121","","","recognition","survey-text","303","1477187","0.0-6.0-3.42","3183621","co38743","norming","","","{""guess"":""horses or donkeys""}","","../img/tt/1053tt.jpg","",""
"null","../img/gs/1053gs.jpg","null","reveal","image-keyboard-response","304","1479191","0.0-6.0-4.42","3183621","co38743","norming","","","","","","",""
"null","../img/tt/1053tt.jpg","null","mooney2","image-keyboard-response","305","1481193","0.0-6.0-5.42","3183621","co38743","norming","","","","","","",""
"4668.814999999944","","","post_reveal_questions","survey-likert","306","1485866","0.0-6.0-6.42","3183621","co38743","norming","","","{""aha"":3}","[0]","../img/tt/1053tt.jpg","",""
"null","<div style=""font-size:60px;""> </div>","null","fixation","html-keyboard-response","307","1486075","0.0-6.0-0.43","3183621","co38743","norming","","","","","","",""
"null","../img/tt/477tt.jpg","null","mooney1","image-keyboard-response","308","1489079","0.0-6.0-1.43","3183621","co38743","norming","","","","","","",""
"4264.119999999879","","","post_mooney1_questions","survey-likert","309","1493346","0.0-6.0-2.43","3183621","co38743","norming","","","{""curiosity"":4,""confidence"":5}","[0,1]","../img/tt/477tt.jpg","",""
"4302.3950000002515","","","recognition","survey-text","310","1497650","0.0-6.0-3.43","3183621","co38743","norming","","","{""guess"":""an aquarium""}","","../img/tt/477tt.jpg","",""
"null","../img/gs/477gs.jpg","null","reveal","image-keyboard-response","311","1499651","0.0-6.0-4.43","3183621","co38743","norming","","","","","","",""
"null","../img/tt/477tt.jpg","null","mooney2","image-keyboard-response","312","1501659","0.0-6.0-5.43","3183621","co38743","norming","","","","","","",""
"2042.5900000000838","","","post_reveal_questions","survey-likert","313","1503706","0.0-6.0-6.43","3183621","co38743","norming","","","{""aha"":2}","[0]","../img/tt/477tt.jpg","",""
"null","<div style=""font-size:60px;""> </div>","null","fixation","html-keyboard-response","314","1503907","0.0-6.0-0.44","3183621","co38743","norming","","","","","","",""
"null","../img/tt/590tt.jpg","null","mooney1","image-keyboard-response","315","1506910","0.0-6.0-1.44","3183621","co38743","norming","","","","","","",""
"4306.70999999973","","","post_mooney1_questions","survey-likert","316","1511218","0.0-6.0-2.44","3183621","co38743","norming","","","{""curiosity"":5,""confidence"":3}","[0,1]","../img/tt/590tt.jpg","",""
"1310.0450000001583","","","recognition","survey-text","317","1512530","0.0-6.0-3.44","3183621","co38743","norming","","","{""guess"":""a tank""}","","../img/tt/590tt.jpg","",""
"null","../img/gs/590gs.jpg","null","reveal","image-keyboard-response","318","1514535","0.0-6.0-4.44","3183621","co38743","norming","","","","","","",""
"null","../img/tt/590tt.jpg","null","mooney2","image-keyboard-response","319","1516544","0.0-6.0-5.44","3183621","co38743","norming","","","","","","",""
"3846.9549999998417","","","post_reveal_questions","survey-likert","320","1520394","0.0-6.0-6.44","3183621","co38743","norming","","","{""aha"":4}","[0]","../img/tt/590tt.jpg","",""
"null","<div style=""font-size:60px;""> </div>","null","fixation","html-keyboard-response","321","1520595","0.0-6.0-0.45","3183621","co38743","norming","","","","","","",""
"null","../img/tt/063tt.jpg","null","mooney1","image-keyboard-response","322","1523606","0.0-6.0-1.45","3183621","co38743","norming","","","","","","",""
"2904.999999999767","","","post_mooney1_questions","survey-likert","323","1526514","0.0-6.0-2.45","3183621","co38743","norming","","","{""curiosity"":5,""confidence"":3}","[0,1]","../img/tt/063tt.jpg","",""
"5806.184999999823","","","recognition","survey-text","324","1532322","0.0-6.0-3.45","3183621","co38743","norming","","","{""guess"":""an old phone""}","","../img/tt/063tt.jpg","",""
"null","../img/gs/063gs.jpg","null","reveal","image-keyboard-response","325","1534324","0.0-6.0-4.45","3183621","co38743","norming","","","","","","",""
"null","../img/tt/063tt.jpg","null","mooney2","image-keyboard-response","326","1536333","0.0-6.0-5.45","3183621","co38743","norming","","","","","","",""
"2921.8000000000466","","","post_reveal_questions","survey-likert","327","1539258","0.0-6.0-6.45","3183621","co38743","norming","","","{""aha"":5}","[0]","../img/tt/063tt.jpg","",""
"null","<div style=""font-size:60px;""> </div>","null","fixation","html-keyboard-response","328","1539459","0.0-6.0-0.46","3183621","co38743","norming","","","","","","",""
"null","../img/tt/084tt.jpg","null","mooney1","image-keyboard-response","329","1542462","0.0-6.0-1.46","3183621","co38743","norming","","","","","","",""
"2600.410000000149","","","post_mooney1_questions","survey-likert","330","1545064","0.0-6.0-2.46","3183621","co38743","norming","","","{""curiosity"":5,""confidence"":3}","[0,1]","../img/tt/084tt.jpg","",""
"1382.494999999879","","","recognition","survey-text","331","1546448","0.0-6.0-3.46","3183621","co38743","norming","","","{""guess"":""a bird""}","","../img/tt/084tt.jpg","",""
"null","../img/gs/084gs.jpg","null","reveal","image-keyboard-response","332","1548449","0.0-6.0-4.46","3183621","co38743","norming","","","","","","",""
"null","../img/tt/084tt.jpg","null","mooney2","image-keyboard-response","333","1550461","0.0-6.0-5.46","3183621","co38743","norming","","","","","","",""
"2368.190000000177","","","post_reveal_questions","survey-likert","334","1552831","0.0-6.0-6.46","3183621","co38743","norming","","","{""aha"":2}","[0]","../img/tt/084tt.jpg","",""
"null","<div style=""font-size:60px;""> </div>","null","fixation","html-keyboard-response","335","1553033","0.0-6.0-0.47","3183621","co38743","norming","","","","","","",""
"null","../img/tt/1151tt.jpg","null","mooney1","image-keyboard-response","336","1556038","0.0-6.0-1.47","3183621","co38743","norming","","","","","","",""
"4534.885000000009","","","post_mooney1_questions","survey-likert","337","1560576","0.0-6.0-2.47","3183621","co38743","norming","","","{""curiosity"":5,""confidence"":0}","[0,1]","../img/tt/1151tt.jpg","",""
"629.5800000000745","","","recognition","survey-text","338","1561208","0.0-6.0-3.47","3183621","co38743","norming","","","{""guess"":""""}","","../img/tt/1151tt.jpg","",""
"null","../img/gs/1151gs.jpg","null","reveal","image-keyboard-response","339","1563212","0.0-6.0-4.47","3183621","co38743","norming","","","","","","",""
"null","../img/tt/1151tt.jpg","null","mooney2","image-keyboard-response","340","1565214","0.0-6.0-5.47","3183621","co38743","norming","","","","","","",""
"2831.244999999879","","","post_reveal_questions","survey-likert","341","1568048","0.0-6.0-6.47","3183621","co38743","norming","","","{""aha"":5}","[0]","../img/tt/1151tt.jpg","",""
"null","<div style=""font-size:60px;""> </div>","null","fixation","html-keyboard-response","342","1568250","0.0-6.0-0.48","3183621","co38743","norming","","","","","","",""
"null","../img/tt/1033tt.jpg","null","mooney1","image-keyboard-response","343","1571253","0.0-6.0-1.48","3183621","co38743","norming","","","","","","",""
"4935.665000000037","","","post_mooney1_questions","survey-likert","344","1576192","0.0-6.0-2.48","3183621","co38743","norming","","","{""curiosity"":5,""confidence"":3}","[0,1]","../img/tt/1033tt.jpg","",""
"4622.070000000065","","","recognition","survey-text","345","1580815","0.0-6.0-3.48","3183621","co38743","norming","","","{""guess"":""een indiaan""}","","../img/tt/1033tt.jpg","",""
"null","../img/gs/1033gs.jpg","null","reveal","image-keyboard-response","346","1582821","0.0-6.0-4.48","3183621","co38743","norming","","","","","","",""
"null","../img/tt/1033tt.jpg","null","mooney2","image-keyboard-response","347","1584823","0.0-6.0-5.48","3183621","co38743","norming","","","","","","",""
"1501.9250000000466","","","post_reveal_questions","survey-likert","348","1586328","0.0-6.0-6.48","3183621","co38743","norming","","","{""aha"":6}","[0]","../img/tt/1033tt.jpg","",""
"null","<div style=""font-size:60px;""> </div>","null","fixation","html-keyboard-response","349","1586530","0.0-6.0-0.49","3183621","co38743","norming","","","","","","",""
"null","../img/tt/140tt.jpg","null","mooney1","image-keyboard-response","350","1589534","0.0-6.0-1.49","3183621","co38743","norming","","","","","","",""
"5373.8849999997765","","","post_mooney1_questions","survey-likert","351","1594912","0.0-6.0-2.49","3183621","co38743","norming","","","{""curiosity"":4,""confidence"":3}","[0,1]","../img/tt/140tt.jpg","",""
"1933.6500000003725","","","recognition","survey-text","352","1596847","0.0-6.0-3.49","3183621","co38743","norming","","","{""guess"":""een harp""}","","../img/tt/140tt.jpg","",""
"null","../img/gs/140gs.jpg","null","reveal","image-keyboard-response","353","1598857","0.0-6.0-4.49","3183621","co38743","norming","","","","","","",""
"null","../img/tt/140tt.jpg","null","mooney2","image-keyboard-response","354","1600863","0.0-6.0-5.49","3183621","co38743","norming","","","","","","",""
"2167.9500000001863","","","post_reveal_questions","survey-likert","355","1603032","0.0-6.0-6.49","3183621","co38743","norming","","","{""aha"":5}","[0]","../img/tt/140tt.jpg","",""
"null","<div style=""font-size:60px;""> </div>","null","fixation","html-keyboard-response","356","1603233","0.0-6.0-0.50","3183621","co38743","norming","","","","","","",""
"null","../img/tt/1002tt.jpg","null","mooney1","image-keyboard-response","357","1606248","0.0-6.0-1.50","3183621","co38743","norming","","","","","","",""
"5337.684999999823","","","post_mooney1_questions","survey-likert","358","1611590","0.0-6.0-2.50","3183621","co38743","norming","","","{""curiosity"":4,""confidence"":2}","[0,1]","../img/tt/1002tt.jpg","",""
"2781.774999999907","","","recognition","survey-text","359","1614373","0.0-6.0-3.50","3183621","co38743","norming","","","{""guess"":""a bull""}","","../img/tt/1002tt.jpg","",""
"null","../img/gs/1002gs.jpg","null","reveal","image-keyboard-response","360","1616383","0.0-6.0-4.50","3183621","co38743","norming","","","","","","",""
"null","../img/tt/1002tt.jpg","null","mooney2","image-keyboard-response","361","1618387","0.0-6.0-5.50","3183621","co38743","norming","","","","","","",""
"3087.2899999998044","","","post_reveal_questions","survey-likert","362","1621477","0.0-6.0-6.50","3183621","co38743","norming","","","{""aha"":5}","[0]","../img/tt/1002tt.jpg","",""
"null","<div style=""font-size:60px;""> </div>","null","fixation","html-keyboard-response","363","1621686","0.0-6.0-0.51","3183621","co38743","norming","","","","","","",""
"null","../img/tt/1027tt.jpg","null","mooney1","image-keyboard-response","364","1624693","0.0-6.0-1.51","3183621","co38743","norming","","","","","","",""
"3476.9849999998696","","","post_mooney1_questions","survey-likert","365","1628173","0.0-6.0-2.51","3183621","co38743","norming","","","{""curiosity"":5,""confidence"":5}","[0,1]","../img/tt/1027tt.jpg","",""
"2982.125","","","recognition","survey-text","366","1631157","0.0-6.0-3.51","3183621","co38743","norming","","","{""guess"":""bull or cow""}","","../img/tt/1027tt.jpg","",""
"null","../img/gs/1027gs.jpg","null","reveal","image-keyboard-response","367","1633165","0.0-6.0-4.51","3183621","co38743","norming","","","","","","",""
"null","../img/tt/1027tt.jpg","null","mooney2","image-keyboard-response","368","1635175","0.0-6.0-5.51","3183621","co38743","norming","","","","","","",""
"2924.779999999795","","","post_reveal_questions","survey-likert","369","1638101","0.0-6.0-6.51","3183621","co38743","norming","","","{""aha"":1}","[0]","../img/tt/1027tt.jpg","",""
"null","<div style=""font-size:60px;""> </div>","null","fixation","html-keyboard-response","370","1638302","0.0-6.0-0.52","3183621","co38743","norming","","","","","","",""
"null","../img/tt/1066tt.jpg","null","mooney1","image-keyboard-response","371","1641305","0.0-6.0-1.52","3183621","co38743","norming","","","","","","",""
"4497.104999999981","","","post_mooney1_questions","survey-likert","372","1645806","0.0-6.0-2.52","3183621","co38743","norming","","","{""curiosity"":4,""confidence"":3}","[0,1]","../img/tt/1066tt.jpg","",""
"3782.1750000000466","","","recognition","survey-text","373","1649589","0.0-6.0-3.52","3183621","co38743","norming","","","{""guess"":""een locomotief""}","","../img/tt/1066tt.jpg","",""
"null","../img/gs/1066gs.jpg","null","reveal","image-keyboard-response","374","1651599","0.0-6.0-4.52","3183621","co38743","norming","","","","","","",""
"null","../img/tt/1066tt.jpg","null","mooney2","image-keyboard-response","375","1653602","0.0-6.0-5.52","3183621","co38743","norming","","","","","","",""
"3200.4550000000745","","","post_reveal_questions","survey-likert","376","1656806","0.0-6.0-6.52","3183621","co38743","norming","","","{""aha"":5}","[0]","../img/tt/1066tt.jpg","",""
"null","<div style=""font-size:60px;""> </div>","null","fixation","html-keyboard-response","377","1657016","0.0-6.0-0.53","3183621","co38743","norming","","","","","","",""
"null","../img/tt/1269tt.jpg","null","mooney1","image-keyboard-response","378","1660028","0.0-6.0-1.53","3183621","co38743","norming","","","","","","",""
"5590.305000000168","","","post_mooney1_questions","survey-likert","379","1665621","0.0-6.0-2.53","3183621","co38743","norming","","","{""curiosity"":4,""confidence"":4}","[0,1]","../img/tt/1269tt.jpg","",""
"1934.0000000002328","","","recognition","survey-text","380","1667558","0.0-6.0-3.53","3183621","co38743","norming","","","{""guess"":""een wezel""}","","../img/tt/1269tt.jpg","",""
"null","../img/gs/1269gs.jpg","null","reveal","image-keyboard-response","381","1669560","0.0-6.0-4.53","3183621","co38743","norming","","","","","","",""
"null","../img/tt/1269tt.jpg","null","mooney2","image-keyboard-response","382","1671562","0.0-6.0-5.53","3183621","co38743","norming","","","","","","",""
"2441.6049999999814","","","post_reveal_questions","survey-likert","383","1674006","0.0-6.0-6.53","3183621","co38743","norming","","","{""aha"":5}","[0]","../img/tt/1269tt.jpg","",""
"null","<div style=""font-size:60px;""> </div>","null","fixation","html-keyboard-response","384","1674216","0.0-6.0-0.54","3183621","co38743","norming","","","","","","",""
"null","../img/tt/040tt.jpg","null","mooney1","image-keyboard-response","385","1677223","0.0-6.0-1.54","3183621","co38743","norming","","","","","","",""
"4682.425000000047","","","post_mooney1_questions","survey-likert","386","1681911","0.0-6.0-2.54","3183621","co38743","norming","","","{""curiosity"":5,""confidence"":0}","[0,1]","../img/tt/040tt.jpg","",""
"557.8700000001118","","","recognition","survey-text","387","1682470","0.0-6.0-3.54","3183621","co38743","norming","","","{""guess"":""""}","","../img/tt/040tt.jpg","",""
"null","../img/gs/040gs.jpg","null","reveal","image-keyboard-response","388","1684472","0.0-6.0-4.54","3183621","co38743","norming","","","","","","",""
"null","../img/tt/040tt.jpg","null","mooney2","image-keyboard-response","389","1686475","0.0-6.0-5.54","3183621","co38743","norming","","","","","","",""
"2240.5449999996927","","","post_reveal_questions","survey-likert","390","1688718","0.0-6.0-6.54","3183621","co38743","norming","","","{""aha"":5}","[0]","../img/tt/040tt.jpg","",""
"null","<div style=""font-size:60px;""> </div>","null","fixation","html-keyboard-response","391","1688919","0.0-6.0-0.55","3183621","co38743","norming","","","","","","",""
"null","../img/tt/1276tt.jpg","null","mooney1","image-keyboard-response","392","1691921","0.0-6.0-1.55","3183621","co38743","norming","","","","","","",""
"4090.715000000084","","","post_mooney1_questions","survey-likert","393","1696015","0.0-6.0-2.55","3183621","co38743","norming","","","{""curiosity"":5,""confidence"":4}","[0,1]","../img/tt/1276tt.jpg","",""
"2374.2950000001583","","","recognition","survey-text","394","1698390","0.0-6.0-3.55","3183621","co38743","norming","","","{""guess"":""wolf or dog""}","","../img/tt/1276tt.jpg","",""
"null","../img/gs/1276gs.jpg","null","reveal","image-keyboard-response","395","1700395","0.0-6.0-4.55","3183621","co38743","norming","","","","","","",""
"null","../img/tt/1276tt.jpg","null","mooney2","image-keyboard-response","396","1702399","0.0-6.0-5.55","3183621","co38743","norming","","","","","","",""
"4196.449999999953","","","post_reveal_questions","survey-likert","397","1706598","0.0-6.0-6.55","3183621","co38743","norming","","","{""aha"":5}","[0]","../img/tt/1276tt.jpg","",""
"null","<div style=""font-size:60px;""> </div>","null","fixation","html-keyboard-response","398","1706805","0.0-6.0-0.56","3183621","co38743","norming","","","","","","",""
"null","../img/tt/1044tt.jpg","null","mooney1","image-keyboard-response","399","1709808","0.0-6.0-1.56","3183621","co38743","norming","","","","","","",""
"3003.4850000001024","","","post_mooney1_questions","survey-likert","400","1712815","0.0-6.0-2.56","3183621","co38743","norming","","","{""curiosity"":4,""confidence"":4}","[0,1]","../img/tt/1044tt.jpg","",""
"2982.1699999996927","","","recognition","survey-text","401","1715798","0.0-6.0-3.56","3183621","co38743","norming","","","{""guess"":""a butterfly""}","","../img/tt/1044tt.jpg","",""
"null","../img/gs/1044gs.jpg","null","reveal","image-keyboard-response","402","1717808","0.0-6.0-4.56","3183621","co38743","norming","","","","","","",""
"null","../img/tt/1044tt.jpg","null","mooney2","image-keyboard-response","403","1719818","0.0-6.0-5.56","3183621","co38743","norming","","","","","","",""
"5809.925000000047","","","post_reveal_questions","survey-likert","404","1725630","0.0-6.0-6.56","3183621","co38743","norming","","","{""aha"":5}","[0]","../img/tt/1044tt.jpg","",""
"null","<div style=""font-size:60px;""> </div>","null","fixation","html-keyboard-response","405","1725832","0.0-6.0-0.57","3183621","co38743","norming","","","","","","",""
"null","../img/tt/118tt.jpg","null","mooney1","image-keyboard-response","406","1728842","0.0-6.0-1.57","3183621","co38743","norming","","","","","","",""
"3365.9000000003725","","","post_mooney1_questions","survey-likert","407","1732209","0.0-6.0-2.57","3183621","co38743","norming","","","{""curiosity"":5,""confidence"":4}","[0,1]","../img/tt/118tt.jpg","",""
"2309.9250000000466","","","recognition","survey-text","408","1734521","0.0-6.0-3.57","3183621","co38743","norming","","","{""guess"":""a wheel""}","","../img/tt/118tt.jpg","",""
"null","../img/gs/118gs.jpg","null","reveal","image-keyboard-response","409","1736528","0.0-6.0-4.57","3183621","co38743","norming","","","","","","",""
"null","../img/tt/118tt.jpg","null","mooney2","image-keyboard-response","410","1738538","0.0-6.0-5.57","3183621","co38743","norming","","","","","","",""
"3540.090000000084","","","post_reveal_questions","survey-likert","411","1742081","0.0-6.0-6.57","3183621","co38743","norming","","","{""aha"":5}","[0]","../img/tt/118tt.jpg","",""
"null","<div style=""font-size:60px;""> </div>","null","fixation","html-keyboard-response","412","1742285","0.0-6.0-0.58","3183621","co38743","norming","","","","","","",""
"null","../img/tt/1107tt.jpg","null","mooney1","image-keyboard-response","413","1745289","0.0-6.0-1.58","3183621","co38743","norming","","","","","","",""
"3277.480000000214","","","post_mooney1_questions","survey-likert","414","1748569","0.0-6.0-2.58","3183621","co38743","norming","","","{""curiosity"":4,""confidence"":5}","[0,1]","../img/tt/1107tt.jpg","",""
"1245.7050000003073","","","recognition","survey-text","415","1749817","0.0-6.0-3.58","3183621","co38743","norming","","","{""guess"":""a cat""}","","../img/tt/1107tt.jpg","",""
"null","../img/gs/1107gs.jpg","null","reveal","image-keyboard-response","416","1751827","0.0-6.0-4.58","3183621","co38743","norming","","","","","","",""
"null","../img/tt/1107tt.jpg","null","mooney2","image-keyboard-response","417","1753830","0.0-6.0-5.58","3183621","co38743","norming","","","","","","",""
"2879.965000000084","","","post_reveal_questions","survey-likert","418","1756713","0.0-6.0-6.58","3183621","co38743","norming","","","{""aha"":2}","[0]","../img/tt/1107tt.jpg","",""
"null","<div style=""font-size:60px;""> </div>","null","fixation","html-keyboard-response","419","1756915","0.0-6.0-0.59","3183621","co38743","norming","","","","","","",""
"null","../img/tt/1128tt.jpg","null","mooney1","image-keyboard-response","420","1759918","0.0-6.0-1.59","3183621","co38743","norming","","","","","","",""
"4680.239999999758","","","post_mooney1_questions","survey-likert","421","1764601","0.0-6.0-2.59","3183621","co38743","norming","","","{""curiosity"":5,""confidence"":4}","[0,1]","../img/tt/1128tt.jpg","",""
"4925.940000000177","","","recognition","survey-text","422","1769529","0.0-6.0-3.59","3183621","co38743","norming","","","{""guess"":""a woman a nun""}","","../img/tt/1128tt.jpg","",""
"null","../img/gs/1128gs.jpg","null","reveal","image-keyboard-response","423","1771537","0.0-6.0-4.59","3183621","co38743","norming","","","","","","",""
"null","../img/tt/1128tt.jpg","null","mooney2","image-keyboard-response","424","1773542","0.0-6.0-5.59","3183621","co38743","norming","","","","","","",""
"3712.4499999999534","","","post_reveal_questions","survey-likert","425","1777257","0.0-6.0-6.59","3183621","co38743","norming","","","{""aha"":3}","[0]","../img/tt/1128tt.jpg","",""
"null","<div style=""font-size:60px;""> </div>","null","fixation","html-keyboard-response","426","1777458","0.0-6.0-0.60","3183621","co38743","norming","","","","","","",""
"null","../img/tt/1096tt.jpg","null","mooney1","image-keyboard-response","427","1780462","0.0-6.0-1.60","3183621","co38743","norming","","","","","","",""
"5687.995000000345","","","post_mooney1_questions","survey-likert","428","1786153","0.0-6.0-2.60","3183621","co38743","norming","","","{""curiosity"":5,""confidence"":3}","[0,1]","../img/tt/1096tt.jpg","",""
"4670.299999999814","","","recognition","survey-text","429","1790826","0.0-6.0-3.60","3183621","co38743","norming","","","{""guess"":""a piano, a bar""}","","../img/tt/1096tt.jpg","",""
"null","../img/gs/1096gs.jpg","null","reveal","image-keyboard-response","430","1792835","0.0-6.0-4.60","3183621","co38743","norming","","","","","","",""
"null","../img/tt/1096tt.jpg","null","mooney2","image-keyboard-response","431","1794838","0.0-6.0-5.60","3183621","co38743","norming","","","","","","",""
"2521.1750000000466","","","post_reveal_questions","survey-likert","432","1797362","0.0-6.0-6.60","3183621","co38743","norming","","","{""aha"":5}","[0]","../img/tt/1096tt.jpg","",""
"null","<div style=""font-size:60px;""> </div>","null","fixation","html-keyboard-response","433","1797568","0.0-6.0-0.61","3183621","co38743","norming","","","","","","",""
"null","../img/tt/1309tt.jpg","null","mooney1","image-keyboard-response","434","1800571","0.0-6.0-1.61","3183621","co38743","norming","","","","","","",""
"3691.7450000001118","","","post_mooney1_questions","survey-likert","435","1804266","0.0-6.0-2.61","3183621","co38743","norming","","","{""curiosity"":5,""confidence"":5}","[0,1]","../img/tt/1309tt.jpg","",""
"3278.454999999609","","","recognition","survey-text","436","1807546","0.0-6.0-3.61","3183621","co38743","norming","","","{""guess"":""a car in the woods""}","","../img/tt/1309tt.jpg","",""
"null","../img/gs/1309gs.jpg","null","reveal","image-keyboard-response","437","1809552","0.0-6.0-4.61","3183621","co38743","norming","","","","","","",""
"null","../img/tt/1309tt.jpg","null","mooney2","image-keyboard-response","438","1811561","0.0-6.0-5.61","3183621","co38743","norming","","","","","","",""
"2973.7800000002608","","","post_reveal_questions","survey-likert","439","1814538","0.0-6.0-6.61","3183621","co38743","norming","","","{""aha"":1}","[0]","../img/tt/1309tt.jpg","",""
"null","<div style=""font-size:60px;""> </div>","null","fixation","html-keyboard-response","440","1814740","0.0-6.0-0.62","3183621","co38743","norming","","","","","","",""
"null","../img/tt/279tt.jpg","null","mooney1","image-keyboard-response","441","1817741","0.0-6.0-1.62","3183621","co38743","norming","","","","","","",""
"3953.410000000149","","","post_mooney1_questions","survey-likert","442","1821698","0.0-6.0-2.62","3183621","co38743","norming","","","{""curiosity"":4,""confidence"":5}","[0,1]","../img/tt/279tt.jpg","",""
"1542.29000000027","","","recognition","survey-text","443","1823242","0.0-6.0-3.62","3183621","co38743","norming","","","{""guess"":""a koala""}","","../img/tt/279tt.jpg","",""
"null","../img/gs/279gs.jpg","null","reveal","image-keyboard-response","444","1825249","0.0-6.0-4.62","3183621","co38743","norming","","","","","","",""
"null","../img/tt/279tt.jpg","null","mooney2","image-keyboard-response","445","1827259","0.0-6.0-5.62","3183621","co38743","norming","","","","","","",""
"3035.9550000003073","","","post_reveal_questions","survey-likert","446","1830298","0.0-6.0-6.62","3183621","co38743","norming","","","{""aha"":2}","[0]","../img/tt/279tt.jpg","",""
"null","<div style=""font-size:60px;""> </div>","null","fixation","html-keyboard-response","447","1830500","0.0-6.0-0.63","3183621","co38743","norming","","","","","","",""
"null","../img/tt/1097tt.jpg","null","mooney1","image-keyboard-response","448","1833507","0.0-6.0-1.63","3183621","co38743","norming","","","","","","",""
"8162.895000000019","","","post_mooney1_questions","survey-likert","449","1841674","0.0-6.0-2.63","3183621","co38743","norming","","","{""curiosity"":5,""confidence"":4}","[0,1]","../img/tt/1097tt.jpg","",""
"5790.094999999739","","","recognition","survey-text","450","1847466","0.0-6.0-3.63","3183621","co38743","norming","","","{""guess"":""person on the beach""}","","../img/tt/1097tt.jpg","",""
"null","../img/gs/1097gs.jpg","null","reveal","image-keyboard-response","451","1849470","0.0-6.0-4.63","3183621","co38743","norming","","","","","","",""
"null","../img/tt/1097tt.jpg","null","mooney2","image-keyboard-response","452","1851472","0.0-6.0-5.63","3183621","co38743","norming","","","","","","",""
"2824.4600000001956","","","post_reveal_questions","survey-likert","453","1854299","0.0-6.0-6.63","3183621","co38743","norming","","","{""aha"":4}","[0]","../img/tt/1097tt.jpg","",""
"null","<div style=""font-size:60px;""> </div>","null","fixation","html-keyboard-response","454","1854501","0.0-6.0-0.64","3183621","co38743","norming","","","","","","",""
"null","../img/tt/416tt.jpg","null","mooney1","image-keyboard-response","455","1857504","0.0-6.0-1.64","3183621","co38743","norming","","","","","","",""
"3720.320000000531","","","post_mooney1_questions","survey-likert","456","1861227","0.0-6.0-2.64","3183621","co38743","norming","","","{""curiosity"":5,""confidence"":3}","[0,1]","../img/tt/416tt.jpg","",""
"1998.144999999553","","","recognition","survey-text","457","1863227","0.0-6.0-3.64","3183621","co38743","norming","","","{""guess"":""horses""}","","../img/tt/416tt.jpg","",""
"null","../img/gs/416gs.jpg","null","reveal","image-keyboard-response","458","1865232","0.0-6.0-4.64","3183621","co38743","norming","","","","","","",""
"null","../img/tt/416tt.jpg","null","mooney2","image-keyboard-response","459","1867234","0.0-6.0-5.64","3183621","co38743","norming","","","","","","",""
"4110.1049999997485","","","post_reveal_questions","survey-likert","460","1871347","0.0-6.0-6.64","3183621","co38743","norming","","","{""aha"":5}","[0]","../img/tt/416tt.jpg","",""
"null","<div style=""font-size:60px;""> </div>","null","fixation","html-keyboard-response","461","1871550","0.0-6.0-0.65","3183621","co38743","norming","","","","","","",""
"null","../img/tt/1171tt.jpg","null","mooney1","image-keyboard-response","462","1874553","0.0-6.0-1.65","3183621","co38743","norming","","","","","","",""
"4325.909999999916","","","post_mooney1_questions","survey-likert","463","1878883","0.0-6.0-2.65","3183621","co38743","norming","","","{""curiosity"":5,""confidence"":4}","[0,1]","../img/tt/1171tt.jpg","",""
"3062.3350000001956","","","recognition","survey-text","464","1881947","0.0-6.0-3.65","3183621","co38743","norming","","","{""guess"":""skeletons""}","","../img/tt/1171tt.jpg","",""
"null","../img/gs/1171gs.jpg","null","reveal","image-keyboard-response","465","1883951","0.0-6.0-4.65","3183621","co38743","norming","","","","","","",""
"null","../img/tt/1171tt.jpg","null","mooney2","image-keyboard-response","466","1885962","0.0-6.0-5.65","3183621","co38743","norming","","","","","","",""
"2973.9449999998324","","","post_reveal_questions","survey-likert","467","1888939","0.0-6.0-6.65","3183621","co38743","norming","","","{""aha"":6}","[0]","../img/tt/1171tt.jpg","",""
"null","<div style=""font-size:60px;""> </div>","null","fixation","html-keyboard-response","468","1889140","0.0-6.0-0.66","3183621","co38743","norming","","","","","","",""
"null","../img/tt/1224tt.jpg","null","mooney1","image-keyboard-response","469","1892143","0.0-6.0-1.66","3183621","co38743","norming","","","","","","",""
"5256.719999999739","","","post_mooney1_questions","survey-likert","470","1897403","0.0-6.0-2.66","3183621","co38743","norming","","","{""curiosity"":5,""confidence"":4}","[0,1]","../img/tt/1224tt.jpg","",""
"4670.050000000279","","","recognition","survey-text","471","1902075","0.0-6.0-3.66","3183621","co38743","norming","","","{""guess"":""an arabic woman""}","","../img/tt/1224tt.jpg","",""
"null","../img/gs/1224gs.jpg","null","reveal","image-keyboard-response","472","1904083","0.0-6.0-4.66","3183621","co38743","norming","","","","","","",""
"null","../img/tt/1224tt.jpg","null","mooney2","image-keyboard-response","473","1906092","0.0-6.0-5.66","3183621","co38743","norming","","","","","","",""
"4147.625","","","post_reveal_questions","survey-likert","474","1910243","0.0-6.0-6.66","3183621","co38743","norming","","","{""aha"":6}","[0]","../img/tt/1224tt.jpg","",""
"null","<div style=""font-size:60px;""> </div>","null","fixation","html-keyboard-response","475","1910444","0.0-6.0-0.67","3183621","co38743","norming","","","","","","",""
"null","../img/tt/515tt.jpg","null","mooney1","image-keyboard-response","476","1913447","0.0-6.0-1.67","3183621","co38743","norming","","","","","","",""
"3904.3449999997392","","","post_mooney1_questions","survey-likert","477","1917355","0.0-6.0-2.67","3183621","co38743","norming","","","{""curiosity"":5,""confidence"":4}","[0,1]","../img/tt/515tt.jpg","",""
"2142.470000000205","","","recognition","survey-text","478","1919499","0.0-6.0-3.67","3183621","co38743","norming","","","{""guess"":""a panda""}","","../img/tt/515tt.jpg","",""
"null","../img/gs/515gs.jpg","null","reveal","image-keyboard-response","479","1921504","0.0-6.0-4.67","3183621","co38743","norming","","","","","","",""
"null","../img/tt/515tt.jpg","null","mooney2","image-keyboard-response","480","1923516","0.0-6.0-5.67","3183621","co38743","norming","","","","","","",""
"3370.7249999996275","","","post_reveal_questions","survey-likert","481","1926890","0.0-6.0-6.67","3183621","co38743","norming","","","{""aha"":5}","[0]","../img/tt/515tt.jpg","",""
"null","<div style=""font-size:60px;""> </div>","null","fixation","html-keyboard-response","482","1927092","0.0-6.0-0.68","3183621","co38743","norming","","","","","","",""
"null","../img/tt/306tt.jpg","null","mooney1","image-keyboard-response","483","1930098","0.0-6.0-1.68","3183621","co38743","norming","","","","","","",""
"4925.329999999842","","","post_mooney1_questions","survey-likert","484","1935027","0.0-6.0-2.68","3183621","co38743","norming","","","{""curiosity"":5,""confidence"":3}","[0,1]","../img/tt/306tt.jpg","",""
"1702.1099999996368","","","recognition","survey-text","485","1936731","0.0-6.0-3.68","3183621","co38743","norming","","","{""guess"":""a crab""}","","../img/tt/306tt.jpg","",""
"null","../img/gs/306gs.jpg","null","reveal","image-keyboard-response","486","1938734","0.0-6.0-4.68","3183621","co38743","norming","","","","","","",""
"null","../img/tt/306tt.jpg","null","mooney2","image-keyboard-response","487","1940737","0.0-6.0-5.68","3183621","co38743","norming","","","","","","",""
"2527.3300000003073","","","post_reveal_questions","survey-likert","488","1943267","0.0-6.0-6.68","3183621","co38743","norming","","","{""aha"":5}","[0]","../img/tt/306tt.jpg","",""
"null","<div style=""font-size:60px;""> </div>","null","fixation","html-keyboard-response","489","1943474","0.0-6.0-0.69","3183621","co38743","norming","","","","","","",""
"null","../img/tt/270tt.jpg","null","mooney1","image-keyboard-response","490","1946477","0.0-6.0-1.69","3183621","co38743","norming","","","","","","",""
"2785.9850000001024","","","post_mooney1_questions","survey-likert","491","1949267","0.0-6.0-2.69","3183621","co38743","norming","","","{""curiosity"":5,""confidence"":4}","[0,1]","../img/tt/270tt.jpg","",""
"2678.405000000028","","","recognition","survey-text","492","1951947","0.0-6.0-3.69","3183621","co38743","norming","","","{""guess"":""een rendier""}","","../img/tt/270tt.jpg","",""
"null","../img/gs/270gs.jpg","null","reveal","image-keyboard-response","493","1953952","0.0-6.0-4.69","3183621","co38743","norming","","","","","","",""
"null","../img/tt/270tt.jpg","null","mooney2","image-keyboard-response","494","1955961","0.0-6.0-5.69","3183621","co38743","norming","","","","","","",""
"4158.245000000112","","","post_reveal_questions","survey-likert","495","1960123","0.0-6.0-6.69","3183621","co38743","norming","","","{""aha"":1}","[0]","../img/tt/270tt.jpg","",""
"null","<div style=""font-size:60px;""> </div>","null","fixation","html-keyboard-response","496","1960327","0.0-6.0-0.70","3183621","co38743","norming","","","","","","",""
"null","../img/tt/194tt.jpg","null","mooney1","image-keyboard-response","497","1963331","0.0-6.0-1.70","3183621","co38743","norming","","","","","","",""
"3076.7399999999907","","","post_mooney1_questions","survey-likert","498","1966411","0.0-6.0-2.70","3183621","co38743","norming","","","{""curiosity"":5,""confidence"":5}","[0,1]","../img/tt/194tt.jpg","",""
"7758.045000000158","","","recognition","survey-text","499","1974171","0.0-6.0-3.70","3183621","co38743","norming","","","{""guess"":""een harpspeler""}","","../img/tt/194tt.jpg","",""
"null","../img/gs/194gs.jpg","null","reveal","image-keyboard-response","500","1976177","0.0-6.0-4.70","3183621","co38743","norming","","","","","","",""
"null","../img/tt/194tt.jpg","null","mooney2","image-keyboard-response","501","1978179","0.0-6.0-5.70","3183621","co38743","norming","","","","","","",""
"2061.064999999944","","","post_reveal_questions","survey-likert","502","1980243","0.0-6.0-6.70","3183621","co38743","norming","","","{""aha"":1}","[0]","../img/tt/194tt.jpg","",""
"null","<div style=""font-size:60px;""> </div>","null","fixation","html-keyboard-response","503","1980445","0.0-6.0-0.71","3183621","co38743","norming","","","","","","",""
"null","../img/tt/301tt.jpg","null","mooney1","image-keyboard-response","504","1983454","0.0-6.0-1.71","3183621","co38743","norming","","","","","","",""
"3321.4599999999627","","","post_mooney1_questions","survey-likert","505","1986779","0.0-6.0-2.71","3183621","co38743","norming","","","{""curiosity"":5,""confidence"":4}","[0,1]","../img/tt/301tt.jpg","",""
"5406.054999999935","","","recognition","survey-text","506","1992187","0.0-6.0-3.71","3183621","co38743","norming","","","{""guess"":""a cinema theater""}","","../img/tt/301tt.jpg","",""
"null","../img/gs/301gs.jpg","null","reveal","image-keyboard-response","507","1994192","0.0-6.0-4.71","3183621","co38743","norming","","","","","","",""
"null","../img/tt/301tt.jpg","null","mooney2","image-keyboard-response","508","1996194","0.0-6.0-5.71","3183621","co38743","norming","","","","","","",""
"3445.6750000000466","","","post_reveal_questions","survey-likert","509","1999643","0.0-6.0-6.71","3183621","co38743","norming","","","{""aha"":5}","[0]","../img/tt/301tt.jpg","",""
"null","<div style=""font-size:60px;""> </div>","null","fixation","html-keyboard-response","510","1999845","0.0-6.0-0.72","3183621","co38743","norming","","","","","","",""
"null","../img/tt/300tt.jpg","null","mooney1","image-keyboard-response","511","2002848","0.0-6.0-1.72","3183621","co38743","norming","","","","","","",""
"5158.949999999953","","","post_mooney1_questions","survey-likert","512","2008011","0.0-6.0-2.72","3183621","co38743","norming","","","{""curiosity"":4,""confidence"":4}","[0,1]","../img/tt/300tt.jpg","",""
"7070.040000000037","","","recognition","survey-text","513","2015083","0.0-6.0-3.72","3183621","co38743","norming","","","{""guess"":""two people dancing the tango""}","","../img/tt/300tt.jpg","",""
"null","../img/gs/300gs.jpg","null","reveal","image-keyboard-response","514","2017091","0.0-6.0-4.72","3183621","co38743","norming","","","","","","",""
"null","../img/tt/300tt.jpg","null","mooney2","image-keyboard-response","515","2019094","0.0-6.0-5.72","3183621","co38743","norming","","","","","","",""
"2674.304999999935","","","post_reveal_questions","survey-likert","516","2021771","0.0-6.0-6.72","3183621","co38743","norming","","","{""aha"":5}","[0]","../img/tt/300tt.jpg","",""
"null","<div style=""font-size:60px;""> </div>","null","fixation","html-keyboard-response","517","2021980","0.0-6.0-0.73","3183621","co38743","norming","","","","","","",""
"null","../img/tt/567tt.jpg","null","mooney1","image-keyboard-response","518","2024983","0.0-6.0-1.73","3183621","co38743","norming","","","","","","",""
"2818.140000000363","","","post_mooney1_questions","survey-likert","519","2027803","0.0-6.0-2.73","3183621","co38743","norming","","","{""curiosity"":5,""confidence"":3}","[0,1]","../img/tt/567tt.jpg","",""
"6990.539999999804","","","recognition","survey-text","520","2034790","0.0-6.0-3.73","3183621","co38743","norming","","","{""guess"":""cardoor, mirror""}","","../img/tt/567tt.jpg","",""
"null","../img/gs/567gs.jpg","null","reveal","image-keyboard-response","521","2036796","0.0-6.0-4.73","3183621","co38743","norming","","","","","","",""
"null","../img/tt/567tt.jpg","null","mooney2","image-keyboard-response","522","2038798","0.0-6.0-5.73","3183621","co38743","norming","","","","","","",""
"2709.575000000419","","","post_reveal_questions","survey-likert","523","2041510","0.0-6.0-6.73","3183621","co38743","norming","","","{""aha"":6}","[0]","../img/tt/567tt.jpg","",""
"null","<div style=""font-size:60px;""> </div>","null","fixation","html-keyboard-response","524","2041712","0.0-6.0-0.74","3183621","co38743","norming","","","","","","",""
"null","../img/tt/184tt.jpg","null","mooney1","image-keyboard-response","525","2044715","0.0-6.0-1.74","3183621","co38743","norming","","","","","","",""
"3087.6500000001397","","","post_mooney1_questions","survey-likert","526","2047806","0.0-6.0-2.74","3183621","co38743","norming","","","{""curiosity"":6,""confidence"":0}","[0,1]","../img/tt/184tt.jpg","",""
"565.7749999999069","","","recognition","survey-text","527","2048374","0.0-6.0-3.74","3183621","co38743","norming","","","{""guess"":""""}","","../img/tt/184tt.jpg","",""
"null","../img/gs/184gs.jpg","null","reveal","image-keyboard-response","528","2050378","0.0-6.0-4.74","3183621","co38743","norming","","","","","","",""
"null","../img/tt/184tt.jpg","null","mooney2","image-keyboard-response","529","2052383","0.0-6.0-5.74","3183621","co38743","norming","","","","","","",""
"2003.4199999999255","","","post_reveal_questions","survey-likert","530","2054390","0.0-6.0-6.74","3183621","co38743","norming","","","{""aha"":5}","[0]","../img/tt/184tt.jpg","",""
"null","<div style=""font-size:60px;""> </div>","null","fixation","html-keyboard-response","531","2054591","0.0-6.0-0.75","3183621","co38743","norming","","","","","","",""
"null","../img/tt/126tt.jpg","null","mooney1","image-keyboard-response","532","2057594","0.0-6.0-1.75","3183621","co38743","norming","","","","","","",""
"3552.345000000205","","","post_mooney1_questions","survey-likert","533","2061150","0.0-6.0-2.75","3183621","co38743","norming","","","{""curiosity"":4,""confidence"":3}","[0,1]","../img/tt/126tt.jpg","",""
"5941.914999999339","","","recognition","survey-text","534","2067094","0.0-6.0-3.75","3183621","co38743","norming","","","{""guess"":""a field and mountains""}","","../img/tt/126tt.jpg","",""
"null","../img/gs/126gs.jpg","null","reveal","image-keyboard-response","535","2069103","0.0-6.0-4.75","3183621","co38743","norming","","","","","","",""
"null","../img/tt/126tt.jpg","null","mooney2","image-keyboard-response","536","2071105","0.0-6.0-5.75","3183621","co38743","norming","","","","","","",""
"2529.340000000084","","","post_reveal_questions","survey-likert","537","2073638","0.0-6.0-6.75","3183621","co38743","norming","","","{""aha"":5}","[0]","../img/tt/126tt.jpg","",""
"null","<div style=""font-size:60px;""> </div>","null","fixation","html-keyboard-response","538","2073839","0.0-6.0-0.76","3183621","co38743","norming","","","","","","",""
"null","../img/tt/111tt.jpg","null","mooney1","image-keyboard-response","539","2076845","0.0-6.0-1.76","3183621","co38743","norming","","","","","","",""
"4292.95999999973","","","post_mooney1_questions","survey-likert","540","2081142","0.0-6.0-2.76","3183621","co38743","norming","","","{""curiosity"":4,""confidence"":4}","[0,1]","../img/tt/111tt.jpg","",""
"2525.945000000298","","","recognition","survey-text","541","2083670","0.0-6.0-3.76","3183621","co38743","norming","","","{""guess"":""a vinyl""}","","../img/tt/111tt.jpg","",""
"null","../img/gs/111gs.jpg","null","reveal","image-keyboard-response","542","2085671","0.0-6.0-4.76","3183621","co38743","norming","","","","","","",""
"null","../img/tt/111tt.jpg","null","mooney2","image-keyboard-response","543","2087676","0.0-6.0-5.76","3183621","co38743","norming","","","","","","",""
"3432.084999999497","","","post_reveal_questions","survey-likert","544","2091114","0.0-6.0-6.76","3183621","co38743","norming","","","{""aha"":5}","[0]","../img/tt/111tt.jpg","",""
"null","<div style=""font-size:60px;""> </div>","null","fixation","html-keyboard-response","545","2091317","0.0-6.0-0.77","3183621","co38743","norming","","","","","","",""
"null","../img/tt/001tt.jpg","null","mooney1","image-keyboard-response","546","2094320","0.0-6.0-1.77","3183621","co38743","norming","","","","","","",""
"4766.724999999395","","","post_mooney1_questions","survey-likert","547","2099091","0.0-6.0-2.77","3183621","co38743","norming","","","{""curiosity"":5,""confidence"":5}","[0,1]","../img/tt/001tt.jpg","",""
"6470.204999999609","","","recognition","survey-text","548","2105562","0.0-6.0-3.77","3183621","co38743","norming","","","{""guess"":""an eagle, a bird""}","","../img/tt/001tt.jpg","",""
"null","../img/gs/001gs.jpg","null","reveal","image-keyboard-response","549","2107564","0.0-6.0-4.77","3183621","co38743","norming","","","","","","",""
