"rt","stimulus","key_press","test_part","trial_type","trial_index","time_elapsed","internal_node_id","totalTime","subject","experiment_name","button_pressed","success","responses","question_order","currentStim","old","correct"
"7439.085000000005","Welcome to the experiment. This is an online experiment so please don't close the tab/window until we say goodbye.  Press any key to begin.","32","instructions","html-keyboard-response","0","7454","0.0-0.0","2868108","co38608","norming","","","","","","",""
"43883.19","<div style='word-wrap: break-word; width: 900px'><h3>Please consider this information carefully before deciding whether to participate in this research</h3><ul style='text-align: left; font-size: .8em;'><li><b>Purpose of the research</b>: To examine how people process images.</li><li><b>What you will do in this research</b>:  Stimuli (images) will be presented on the computer and you will be asked different questions about them.</li><li><b>Time required</b>: Participation will take between 45 and 60 minutes to complete.</li><li><b>Risks</b>:  There are no anticipated risks associated with participating in this study. The effects of participating should be comparable to those you would experience from viewing a computer monitor for 30 minutes and using a mouse or keyboard.</li><li><b>Benefits</b>:  This study provides no benefits to you individually except for the credit. The study provides important information about the nature of perception and learning.</li><li><b>Confidentiality</b>:  Your participation in this study will remain confidential. No personally identifiable information will be associated with your data. Your de-identified data may be shared with other researchers and used in future projects.</li><li><b>Participation and withdrawal</b>:  Your participation in this study is completely voluntary and you may refuse to participate or you may choose to withdraw at any time without penalty.</li><li><b>How to contact the researchers</b>: If you have questions or concerns about your participation or payment, or want to request a summary of research findings, please contact Sander Van de Cruys (KU Leuven), at sander.vandecruys@kuleuven.be.</li></ul><p>The nature and purpose of this research have been sufficiently explained and I agree to participate in this study.  I understand that I am free to withdraw at any time without incurring any penalty.</p><p>Please consent by clicking the button below to continue. Otherwise, please exit the study at this time.</p></div>","","instructions","html-button-response","1","51332","0.0-1.0","2868108","co38608","norming","0","","","","","",""
"","","","instructions","fullscreen","2","56033","0.0-2.0","2868108","co38608","norming","","true","","","","",""
"34234.409999999996","","","sona","survey-html-form","3","90272","0.0-3.0","2868108","co38608","norming","","","[{""name"":""sonaid"",""value"":""38608""},{""name"":""debrief"",""value"":""no""},{""name"":""datajoin"",""value"":""yes""}]","","","",""
"87602.84","<div style='word-wrap: break-word; width: 900px'><h3>Instructions</h3><p>This experiment will have 3 parts. In the first part you will see a series of distorted images like the one below on the left. As you can see in the righthand image, the distorted images are derived from actual photographs. In what follows, you will <strong>briefly</strong> be presented with <strong>only</strong> the distorted image.</p> <div style='float: left; margin-right: 20px;'><img src='../img/018tt.jpg' height='250' width='250'></img></div><div style='float: right; margin-left: 20px;'><img src='../img/018gs.jpg' height='250' width='250'></img></div><p>Subsequently you will be asked a few questions about the image: One question on how <strong>curious</strong> you are about the solution and one on how <strong>confident</strong> you are that you know the solution.</p>Next, we ask you to make a guess on what is in the image. Note that it is OK to name just the <strong>basic level category</strong>. For example when you see a parrot in the image, 'parrot' will obviously be a correct answer but also correct is 'bird'. However, 'animal' will <strong>not</strong> be counted as a correct response. For the example above, 'rose' would be correct or 'flower', but not 'plant'. When soccer players are depicted, 'soccer', 'football', 'soccer players' will be correct, but not 'humans', 'outdoors', or 'sports'. You do not need to describe the image in full, just name the main object in it <strong>in one or two words</strong>. All images depict objects from one of the following broad level categories: animals, inanimate objects, plants, sports, vehicles, and food. Recognizing means knowing <strong>more</strong> than these broad labels for a given image. But we always encourage you to <strong>make a guess</strong> if you can. Note that you are allowed to use <strong>Dutch and English</strong> in your answers, whatever comes easiest for you.</p><p>Press any key to continue.</p></div>","32","instructions","html-keyboard-response","4","177881","0.0-4.0","2868108","co38608","norming","","","","","","",""
"53423.065","<div style='word-wrap: break-word; width: 900px'><h3>Instructions</h3> <p>Next, the solution image will be revealed to you and you'll be asked to indicate how strong your <strong>aha-experience</strong> was after seeing the solution. This describes the positive feeling of the 'click' you sometimes experience, when the pieces of the 'puzzle' fall together and you suddenly have 'insight' in the image.</p><img src='aha.jpg' height='188' width='250'></img><p>Note that there are no right or wrong answers. We are interested in what <strong>you</strong> see in the image and how <strong>you</strong> feel about it.</p><p>Press any key to start the experiment.</p></div>","32","instructions","html-keyboard-response","5","231304","0.0-5.0","2868108","co38608","norming","","","","","","",""
"null","<div style=""font-size:60px;""> </div>","null","fixation","html-keyboard-response","6","231507","0.0-6.0-0.0","2868108","co38608","norming","","","","","","",""
"null","../img/tt/1072tt.jpg","null","mooney1","image-keyboard-response","7","234518","0.0-6.0-1.0","2868108","co38608","norming","","","","","","",""
"14794.344999999972","","","post_mooney1_questions","survey-likert","8","249309","0.0-6.0-2.0","2868108","co38608","norming","","","{""curiosity"":6,""confidence"":0}","[0,1]","../img/tt/1072tt.jpg","",""
"6037.419999999984","","","recognition","survey-text","9","255348","0.0-6.0-3.0","2868108","co38608","norming","","","{""guess"":""""}","","../img/tt/1072tt.jpg","",""
"null","../img/gs/1072gs.jpg","null","reveal","image-keyboard-response","10","257358","0.0-6.0-4.0","2868108","co38608","norming","","","","","","",""
"null","../img/tt/1072tt.jpg","null","mooney2","image-keyboard-response","11","259366","0.0-6.0-5.0","2868108","co38608","norming","","","","","","",""
"3708.4400000000023","","","post_reveal_questions","survey-likert","12","263076","0.0-6.0-6.0","2868108","co38608","norming","","","{""aha"":6}","[0]","../img/tt/1072tt.jpg","",""
"null","<div style=""font-size:60px;""> </div>","null","fixation","html-keyboard-response","13","263278","0.0-6.0-0.1","2868108","co38608","norming","","","","","","",""
"null","../img/tt/456tt.jpg","null","mooney1","image-keyboard-response","14","266288","0.0-6.0-1.1","2868108","co38608","norming","","","","","","",""
"8035.169999999984","","","post_mooney1_questions","survey-likert","15","274324","0.0-6.0-2.1","2868108","co38608","norming","","","{""curiosity"":6,""confidence"":3}","[0,1]","../img/tt/456tt.jpg","",""
"8749.919999999925","","","recognition","survey-text","16","283076","0.0-6.0-3.1","2868108","co38608","norming","","","{""guess"":""voetbalschoen""}","","../img/tt/456tt.jpg","",""
"null","../img/gs/456gs.jpg","null","reveal","image-keyboard-response","17","285078","0.0-6.0-4.1","2868108","co38608","norming","","","","","","",""
"null","../img/tt/456tt.jpg","null","mooney2","image-keyboard-response","18","287087","0.0-6.0-5.1","2868108","co38608","norming","","","","","","",""
"3651.7449999999953","","","post_reveal_questions","survey-likert","19","290740","0.0-6.0-6.1","2868108","co38608","norming","","","{""aha"":6}","[0]","../img/tt/456tt.jpg","",""
"null","<div style=""font-size:60px;""> </div>","null","fixation","html-keyboard-response","20","290943","0.0-6.0-0.2","2868108","co38608","norming","","","","","","",""
"null","../img/tt/1232tt.jpg","null","mooney1","image-keyboard-response","21","293951","0.0-6.0-1.2","2868108","co38608","norming","","","","","","",""
"4275.869999999995","","","post_mooney1_questions","survey-likert","22","298213","0.0-6.0-2.2","2868108","co38608","norming","","","{""curiosity"":6,""confidence"":0}","[0,1]","../img/tt/1232tt.jpg","",""
"1718.329999999958","","","recognition","survey-text","23","299933","0.0-6.0-3.2","2868108","co38608","norming","","","{""guess"":""""}","","../img/tt/1232tt.jpg","",""
"null","../img/gs/1232gs.jpg","null","reveal","image-keyboard-response","24","301935","0.0-6.0-4.2","2868108","co38608","norming","","","","","","",""
"null","../img/tt/1232tt.jpg","null","mooney2","image-keyboard-response","25","303945","0.0-6.0-5.2","2868108","co38608","norming","","","","","","",""
"2450.210000000021","","","post_reveal_questions","survey-likert","26","306397","0.0-6.0-6.2","2868108","co38608","norming","","","{""aha"":6}","[0]","../img/tt/1232tt.jpg","",""
"null","<div style=""font-size:60px;""> </div>","null","fixation","html-keyboard-response","27","306606","0.0-6.0-0.3","2868108","co38608","norming","","","","","","",""
"null","../img/tt/412tt.jpg","null","mooney1","image-keyboard-response","28","309613","0.0-6.0-1.3","2868108","co38608","norming","","","","","","",""
"8262.859999999986","","","post_mooney1_questions","survey-likert","29","317877","0.0-6.0-2.3","2868108","co38608","norming","","","{""curiosity"":6,""confidence"":2}","[0,1]","../img/tt/412tt.jpg","",""
"4981.9700000000885","","","recognition","survey-text","30","322861","0.0-6.0-3.3","2868108","co38608","norming","","","{""guess"":""thermos""}","","../img/tt/412tt.jpg","",""
"null","../img/gs/412gs.jpg","null","reveal","image-keyboard-response","31","324866","0.0-6.0-4.3","2868108","co38608","norming","","","","","","",""
"null","../img/tt/412tt.jpg","null","mooney2","image-keyboard-response","32","326875","0.0-6.0-5.3","2868108","co38608","norming","","","","","","",""
"4632.625000000058","","","post_reveal_questions","survey-likert","33","331509","0.0-6.0-6.3","2868108","co38608","norming","","","{""aha"":5}","[0]","../img/tt/412tt.jpg","",""
"null","<div style=""font-size:60px;""> </div>","null","fixation","html-keyboard-response","34","331712","0.0-6.0-0.4","2868108","co38608","norming","","","","","","",""
"null","../img/tt/1102tt.jpg","null","mooney1","image-keyboard-response","35","334720","0.0-6.0-1.4","2868108","co38608","norming","","","","","","",""
"6930.90499999997","","","post_mooney1_questions","survey-likert","36","341653","0.0-6.0-2.4","2868108","co38608","norming","","","{""curiosity"":4,""confidence"":4}","[0,1]","../img/tt/1102tt.jpg","",""
"3142.3949999999604","","","recognition","survey-text","37","344797","0.0-6.0-3.4","2868108","co38608","norming","","","{""guess"":""boot""}","","../img/tt/1102tt.jpg","",""
"null","../img/gs/1102gs.jpg","null","reveal","image-keyboard-response","38","346801","0.0-6.0-4.4","2868108","co38608","norming","","","","","","",""
"null","../img/tt/1102tt.jpg","null","mooney2","image-keyboard-response","39","348804","0.0-6.0-5.4","2868108","co38608","norming","","","","","","",""
"3863.1049999999814","","","post_reveal_questions","survey-likert","40","352669","0.0-6.0-6.4","2868108","co38608","norming","","","{""aha"":6}","[0]","../img/tt/1102tt.jpg","",""
"null","<div style=""font-size:60px;""> </div>","null","fixation","html-keyboard-response","41","352879","0.0-6.0-0.5","2868108","co38608","norming","","","","","","",""
"null","../img/tt/112tt.jpg","null","mooney1","image-keyboard-response","42","355882","0.0-6.0-1.5","2868108","co38608","norming","","","","","","",""
"5065.510000000009","","","post_mooney1_questions","survey-likert","43","360932","0.0-6.0-2.5","2868108","co38608","norming","","","{""curiosity"":6,""confidence"":0}","[0,1]","../img/tt/112tt.jpg","",""
"9462.050000000047","","","recognition","survey-text","44","370395","0.0-6.0-3.5","2868108","co38608","norming","","","{""guess"":""zaklamp""}","","../img/tt/112tt.jpg","",""
"null","../img/gs/112gs.jpg","null","reveal","image-keyboard-response","45","372402","0.0-6.0-4.5","2868108","co38608","norming","","","","","","",""
"null","../img/tt/112tt.jpg","null","mooney2","image-keyboard-response","46","374412","0.0-6.0-5.5","2868108","co38608","norming","","","","","","",""
"2965.5650000000023","","","post_reveal_questions","survey-likert","47","377379","0.0-6.0-6.5","2868108","co38608","norming","","","{""aha"":6}","[0]","../img/tt/112tt.jpg","",""
"null","<div style=""font-size:60px;""> </div>","null","fixation","html-keyboard-response","48","377584","0.0-6.0-0.6","2868108","co38608","norming","","","","","","",""
"null","../img/tt/1363tt.jpg","null","mooney1","image-keyboard-response","49","380592","0.0-6.0-1.6","2868108","co38608","norming","","","","","","",""
"4905.044999999984","","","post_mooney1_questions","survey-likert","50","385499","0.0-6.0-2.6","2868108","co38608","norming","","","{""curiosity"":6,""confidence"":0}","[0,1]","../img/tt/1363tt.jpg","",""
"4814.030000000028","","","recognition","survey-text","51","390315","0.0-6.0-3.6","2868108","co38608","norming","","","{""guess"":""zwembad""}","","../img/tt/1363tt.jpg","",""
"null","../img/gs/1363gs.jpg","null","reveal","image-keyboard-response","52","392326","0.0-6.0-4.6","2868108","co38608","norming","","","","","","",""
"null","../img/tt/1363tt.jpg","null","mooney2","image-keyboard-response","53","394328","0.0-6.0-5.6","2868108","co38608","norming","","","","","","",""
"1721.9950000000536","","","post_reveal_questions","survey-likert","54","396051","0.0-6.0-6.6","2868108","co38608","norming","","","{""aha"":6}","[0]","../img/tt/1363tt.jpg","",""
"null","<div style=""font-size:60px;""> </div>","null","fixation","html-keyboard-response","55","396254","0.0-6.0-0.7","2868108","co38608","norming","","","","","","",""
"null","../img/tt/1175tt.jpg","null","mooney1","image-keyboard-response","56","399261","0.0-6.0-1.7","2868108","co38608","norming","","","","","","",""
"5548.97000000003","","","post_mooney1_questions","survey-likert","57","404811","0.0-6.0-2.7","2868108","co38608","norming","","","{""curiosity"":6,""confidence"":3}","[0,1]","../img/tt/1175tt.jpg","",""
"13590.109999999986","","","recognition","survey-text","58","418403","0.0-6.0-3.7","2868108","co38608","norming","","","{""guess"":""publiek""}","","../img/tt/1175tt.jpg","",""
"null","../img/gs/1175gs.jpg","null","reveal","image-keyboard-response","59","420389","0.0-6.0-4.7","2868108","co38608","norming","","","","","","",""
"null","../img/tt/1175tt.jpg","null","mooney2","image-keyboard-response","60","422399","0.0-6.0-5.7","2868108","co38608","norming","","","","","","",""
"2555.6699999999837","","","post_reveal_questions","survey-likert","61","424956","0.0-6.0-6.7","2868108","co38608","norming","","","{""aha"":6}","[0]","../img/tt/1175tt.jpg","",""
"null","<div style=""font-size:60px;""> </div>","null","fixation","html-keyboard-response","62","425166","0.0-6.0-0.8","2868108","co38608","norming","","","","","","",""
"null","../img/tt/1190tt.jpg","null","mooney1","image-keyboard-response","63","428169","0.0-6.0-1.8","2868108","co38608","norming","","","","","","",""
"5034.455000000016","","","post_mooney1_questions","survey-likert","64","433204","0.0-6.0-2.8","2868108","co38608","norming","","","{""curiosity"":6,""confidence"":0}","[0,1]","../img/tt/1190tt.jpg","",""
"1101.8000000000466","","","recognition","survey-text","65","434308","0.0-6.0-3.8","2868108","co38608","norming","","","{""guess"":""""}","","../img/tt/1190tt.jpg","",""
"null","../img/gs/1190gs.jpg","null","reveal","image-keyboard-response","66","436310","0.0-6.0-4.8","2868108","co38608","norming","","","","","","",""
"null","../img/tt/1190tt.jpg","null","mooney2","image-keyboard-response","67","438315","0.0-6.0-5.8","2868108","co38608","norming","","","","","","",""
"2422.8150000000023","","","post_reveal_questions","survey-likert","68","440740","0.0-6.0-6.8","2868108","co38608","norming","","","{""aha"":6}","[0]","../img/tt/1190tt.jpg","",""
"null","<div style=""font-size:60px;""> </div>","null","fixation","html-keyboard-response","69","440942","0.0-6.0-0.9","2868108","co38608","norming","","","","","","",""
"null","../img/tt/1061tt.jpg","null","mooney1","image-keyboard-response","70","443953","0.0-6.0-1.9","2868108","co38608","norming","","","","","","",""
"4905.030000000028","","","post_mooney1_questions","survey-likert","71","448860","0.0-6.0-2.9","2868108","co38608","norming","","","{""curiosity"":6,""confidence"":2}","[0,1]","../img/tt/1061tt.jpg","",""
"8534.229999999981","","","recognition","survey-text","72","457396","0.0-6.0-3.9","2868108","co38608","norming","","","{""guess"":""skateboarden""}","","../img/tt/1061tt.jpg","",""
"null","../img/gs/1061gs.jpg","null","reveal","image-keyboard-response","73","459406","0.0-6.0-4.9","2868108","co38608","norming","","","","","","",""
"null","../img/tt/1061tt.jpg","null","mooney2","image-keyboard-response","74","461416","0.0-6.0-5.9","2868108","co38608","norming","","","","","","",""
"1850.719999999972","","","post_reveal_questions","survey-likert","75","463268","0.0-6.0-6.9","2868108","co38608","norming","","","{""aha"":5}","[0]","../img/tt/1061tt.jpg","",""
"null","<div style=""font-size:60px;""> </div>","null","fixation","html-keyboard-response","76","463475","0.0-6.0-0.10","2868108","co38608","norming","","","","","","",""
"null","../img/tt/1159tt.jpg","null","mooney1","image-keyboard-response","77","466478","0.0-6.0-1.10","2868108","co38608","norming","","","","","","",""
"4603.565000000002","","","post_mooney1_questions","survey-likert","78","471084","0.0-6.0-2.10","2868108","co38608","norming","","","{""curiosity"":6,""confidence"":1}","[0,1]","../img/tt/1159tt.jpg","",""
"4774.035000000033","","","recognition","survey-text","79","475859","0.0-6.0-3.10","2868108","co38608","norming","","","{""guess"":""piano""}","","../img/tt/1159tt.jpg","",""
"null","../img/gs/1159gs.jpg","null","reveal","image-keyboard-response","80","477862","0.0-6.0-4.10","2868108","co38608","norming","","","","","","",""
"null","../img/tt/1159tt.jpg","null","mooney2","image-keyboard-response","81","479866","0.0-6.0-5.10","2868108","co38608","norming","","","","","","",""
"2247.8749999998836","","","post_reveal_questions","survey-likert","82","482097","0.0-6.0-6.10","2868108","co38608","norming","","","{""aha"":6}","[0]","../img/tt/1159tt.jpg","",""
"null","<div style=""font-size:60px;""> </div>","null","fixation","html-keyboard-response","83","482299","0.0-6.0-0.11","2868108","co38608","norming","","","","","","",""
"null","../img/tt/515tt.jpg","null","mooney1","image-keyboard-response","84","485305","0.0-6.0-1.11","2868108","co38608","norming","","","","","","",""
"3958.2900000000373","","","post_mooney1_questions","survey-likert","85","489265","0.0-6.0-2.11","2868108","co38608","norming","","","{""curiosity"":6,""confidence"":1}","[0,1]","../img/tt/515tt.jpg","",""
"4126.02999999997","","","recognition","survey-text","86","493393","0.0-6.0-3.11","2868108","co38608","norming","","","{""guess"":""pigeon""}","","../img/tt/515tt.jpg","",""
"null","../img/gs/515gs.jpg","null","reveal","image-keyboard-response","87","495399","0.0-6.0-4.11","2868108","co38608","norming","","","","","","",""
"null","../img/tt/515tt.jpg","null","mooney2","image-keyboard-response","88","497408","0.0-6.0-5.11","2868108","co38608","norming","","","","","","",""
"3311.480000000098","","","post_reveal_questions","survey-likert","89","500721","0.0-6.0-6.11","2868108","co38608","norming","","","{""aha"":4}","[0]","../img/tt/515tt.jpg","",""
"null","<div style=""font-size:60px;""> </div>","null","fixation","html-keyboard-response","90","500931","0.0-6.0-0.12","2868108","co38608","norming","","","","","","",""
"null","../img/tt/096tt.jpg","null","mooney1","image-keyboard-response","91","503942","0.0-6.0-1.12","2868108","co38608","norming","","","","","","",""
"9537.344999999914","","","post_mooney1_questions","survey-likert","92","513481","0.0-6.0-2.12","2868108","co38608","norming","","","{""curiosity"":1,""confidence"":5}","[0,1]","../img/tt/096tt.jpg","",""
"4325.960000000137","","","recognition","survey-text","93","517809","0.0-6.0-3.12","2868108","co38608","norming","","","{""guess"":""piano""}","","../img/tt/096tt.jpg","",""
"null","../img/gs/096gs.jpg","null","reveal","image-keyboard-response","94","519815","0.0-6.0-4.12","2868108","co38608","norming","","","","","","",""
"null","../img/tt/096tt.jpg","null","mooney2","image-keyboard-response","95","521821","0.0-6.0-5.12","2868108","co38608","norming","","","","","","",""
"4587.010000000009","","","post_reveal_questions","survey-likert","96","526409","0.0-6.0-6.12","2868108","co38608","norming","","","{""aha"":2}","[0]","../img/tt/096tt.jpg","",""
"null","<div style=""font-size:60px;""> </div>","null","fixation","html-keyboard-response","97","526613","0.0-6.0-0.13","2868108","co38608","norming","","","","","","",""
"null","../img/tt/081tt.jpg","null","mooney1","image-keyboard-response","98","529621","0.0-6.0-1.13","2868108","co38608","norming","","","","","","",""
"2986.505000000121","","","post_mooney1_questions","survey-likert","99","532609","0.0-6.0-2.13","2868108","co38608","norming","","","{""curiosity"":6,""confidence"":1}","[0,1]","../img/tt/081tt.jpg","",""
"2838.3499999999767","","","recognition","survey-text","100","535449","0.0-6.0-3.13","2868108","co38608","norming","","","{""guess"":""dog""}","","../img/tt/081tt.jpg","",""
"null","../img/gs/081gs.jpg","null","reveal","image-keyboard-response","101","537454","0.0-6.0-4.13","2868108","co38608","norming","","","","","","",""
"null","../img/tt/081tt.jpg","null","mooney2","image-keyboard-response","102","539465","0.0-6.0-5.13","2868108","co38608","norming","","","","","","",""
"4558.914999999804","","","post_reveal_questions","survey-likert","103","544009","0.0-6.0-6.13","2868108","co38608","norming","","","{""aha"":5}","[0]","../img/tt/081tt.jpg","",""
"null","<div style=""font-size:60px;""> </div>","null","fixation","html-keyboard-response","104","544217","0.0-6.0-0.14","2868108","co38608","norming","","","","","","",""
"null","../img/tt/1063tt.jpg","null","mooney1","image-keyboard-response","105","547227","0.0-6.0-1.14","2868108","co38608","norming","","","","","","",""
"4884.615000000107","","","post_mooney1_questions","survey-likert","106","552113","0.0-6.0-2.14","2868108","co38608","norming","","","{""curiosity"":4,""confidence"":3}","[0,1]","../img/tt/1063tt.jpg","",""
"7230.035000000033","","","recognition","survey-text","107","559345","0.0-6.0-3.14","2868108","co38608","norming","","","{""guess"":""giraf""}","","../img/tt/1063tt.jpg","",""
"null","../img/gs/1063gs.jpg","null","reveal","image-keyboard-response","108","561350","0.0-6.0-4.14","2868108","co38608","norming","","","","","","",""
"null","../img/tt/1063tt.jpg","null","mooney2","image-keyboard-response","109","563358","0.0-6.0-5.14","2868108","co38608","norming","","","","","","",""
"2792.9949999999953","","","post_reveal_questions","survey-likert","110","566153","0.0-6.0-6.14","2868108","co38608","norming","","","{""aha"":5}","[0]","../img/tt/1063tt.jpg","",""
"null","<div style=""font-size:60px;""> </div>","null","fixation","html-keyboard-response","111","566362","0.0-6.0-0.15","2868108","co38608","norming","","","","","","",""
"null","../img/tt/1024tt.jpg","null","mooney1","image-keyboard-response","112","569367","0.0-6.0-1.15","2868108","co38608","norming","","","","","","",""
"6207.649999999907","","","post_mooney1_questions","survey-likert","113","575577","0.0-6.0-2.15","2868108","co38608","norming","","","{""curiosity"":0,""confidence"":6}","[0,1]","../img/tt/1024tt.jpg","",""
"3974.1149999999907","","","recognition","survey-text","114","579553","0.0-6.0-3.15","2868108","co38608","norming","","","{""guess"":""tennister""}","","../img/tt/1024tt.jpg","",""
"null","../img/gs/1024gs.jpg","null","reveal","image-keyboard-response","115","581562","0.0-6.0-4.15","2868108","co38608","norming","","","","","","",""
"null","../img/tt/1024tt.jpg","null","mooney2","image-keyboard-response","116","583571","0.0-6.0-5.15","2868108","co38608","norming","","","","","","",""
"3572.3099999999395","","","post_reveal_questions","survey-likert","117","587145","0.0-6.0-6.15","2868108","co38608","norming","","","{""aha"":0}","[0]","../img/tt/1024tt.jpg","",""
"null","<div style=""font-size:60px;""> </div>","null","fixation","html-keyboard-response","118","587350","0.0-6.0-0.16","2868108","co38608","norming","","","","","","",""
"null","../img/tt/416tt.jpg","null","mooney1","image-keyboard-response","119","590352","0.0-6.0-1.16","2868108","co38608","norming","","","","","","",""
"4639.489999999991","","","post_mooney1_questions","survey-likert","120","594993","0.0-6.0-2.16","2868108","co38608","norming","","","{""curiosity"":6,""confidence"":0}","[0,1]","../img/tt/416tt.jpg","",""
"4670.039999999921","","","recognition","survey-text","121","599665","0.0-6.0-3.16","2868108","co38608","norming","","","{""guess"":""""}","","../img/tt/416tt.jpg","",""
"null","../img/gs/416gs.jpg","null","reveal","image-keyboard-response","122","601677","0.0-6.0-4.16","2868108","co38608","norming","","","","","","",""
"null","../img/tt/416tt.jpg","null","mooney2","image-keyboard-response","123","603688","0.0-6.0-5.16","2868108","co38608","norming","","","","","","",""
"2827.2399999998743","","","post_reveal_questions","survey-likert","124","606516","0.0-6.0-6.16","2868108","co38608","norming","","","{""aha"":6}","[0]","../img/tt/416tt.jpg","",""
"null","<div style=""font-size:60px;""> </div>","null","fixation","html-keyboard-response","125","606725","0.0-6.0-0.17","2868108","co38608","norming","","","","","","",""
"null","../img/tt/438tt.jpg","null","mooney1","image-keyboard-response","126","609731","0.0-6.0-1.17","2868108","co38608","norming","","","","","","",""
"5208.719999999856","","","post_mooney1_questions","survey-likert","127","614941","0.0-6.0-2.17","2868108","co38608","norming","","","{""curiosity"":6,""confidence"":1}","[0,1]","../img/tt/438tt.jpg","",""
"3237.910000000149","","","recognition","survey-text","128","618180","0.0-6.0-3.17","2868108","co38608","norming","","","{""guess"":""vlinder""}","","../img/tt/438tt.jpg","",""
"null","../img/gs/438gs.jpg","null","reveal","image-keyboard-response","129","620185","0.0-6.0-4.17","2868108","co38608","norming","","","","","","",""
"null","../img/tt/438tt.jpg","null","mooney2","image-keyboard-response","130","622191","0.0-6.0-5.17","2868108","co38608","norming","","","","","","",""
"3196.484999999986","","","post_reveal_questions","survey-likert","131","625389","0.0-6.0-6.17","2868108","co38608","norming","","","{""aha"":6}","[0]","../img/tt/438tt.jpg","",""
"null","<div style=""font-size:60px;""> </div>","null","fixation","html-keyboard-response","132","625592","0.0-6.0-0.18","2868108","co38608","norming","","","","","","",""
"null","../img/tt/559tt.jpg","null","mooney1","image-keyboard-response","133","628602","0.0-6.0-1.18","2868108","co38608","norming","","","","","","",""
"6856.875","","","post_mooney1_questions","survey-likert","134","635461","0.0-6.0-2.18","2868108","co38608","norming","","","{""curiosity"":3,""confidence"":3}","[0,1]","../img/tt/559tt.jpg","",""
"5518.035000000033","","","recognition","survey-text","135","640981","0.0-6.0-3.18","2868108","co38608","norming","","","{""guess"":""naaimachine""}","","../img/tt/559tt.jpg","",""
"null","../img/gs/559gs.jpg","null","reveal","image-keyboard-response","136","642990","0.0-6.0-4.18","2868108","co38608","norming","","","","","","",""
"null","../img/tt/559tt.jpg","null","mooney2","image-keyboard-response","137","644994","0.0-6.0-5.18","2868108","co38608","norming","","","","","","",""
"2977.270000000135","","","post_reveal_questions","survey-likert","138","647973","0.0-6.0-6.18","2868108","co38608","norming","","","{""aha"":0}","[0]","../img/tt/559tt.jpg","",""
"null","<div style=""font-size:60px;""> </div>","null","fixation","html-keyboard-response","139","648176","0.0-6.0-0.19","2868108","co38608","norming","","","","","","",""
"null","../img/tt/007tt.jpg","null","mooney1","image-keyboard-response","140","651180","0.0-6.0-1.19","2868108","co38608","norming","","","","","","",""
"5110.755000000005","","","post_mooney1_questions","survey-likert","141","656293","0.0-6.0-2.19","2868108","co38608","norming","","","{""curiosity"":4,""confidence"":3}","[0,1]","../img/tt/007tt.jpg","",""
"11381.944999999832","","","recognition","survey-text","142","667676","0.0-6.0-3.19","2868108","co38608","norming","","","{""guess"":""abt""}","","../img/tt/007tt.jpg","",""
"null","../img/gs/007gs.jpg","null","reveal","image-keyboard-response","143","669678","0.0-6.0-4.19","2868108","co38608","norming","","","","","","",""
"null","../img/tt/007tt.jpg","null","mooney2","image-keyboard-response","144","671681","0.0-6.0-5.19","2868108","co38608","norming","","","","","","",""
"2810.3900000001304","","","post_reveal_questions","survey-likert","145","674492","0.0-6.0-6.19","2868108","co38608","norming","","","{""aha"":6}","[0]","../img/tt/007tt.jpg","",""
"null","<div style=""font-size:60px;""> </div>","null","fixation","html-keyboard-response","146","674703","0.0-6.0-0.20","2868108","co38608","norming","","","","","","",""
"null","../img/tt/353tt.jpg","null","mooney1","image-keyboard-response","147","677705","0.0-6.0-1.20","2868108","co38608","norming","","","","","","",""
"4017.5999999998603","","","post_mooney1_questions","survey-likert","148","681725","0.0-6.0-2.20","2868108","co38608","norming","","","{""curiosity"":1,""confidence"":6}","[0,1]","../img/tt/353tt.jpg","",""
"14622.119999999995","","","recognition","survey-text","149","696348","0.0-6.0-3.20","2868108","co38608","norming","","","{""guess"":""pinguin""}","","../img/tt/353tt.jpg","",""
"null","../img/gs/353gs.jpg","null","reveal","image-keyboard-response","150","698349","0.0-6.0-4.20","2868108","co38608","norming","","","","","","",""
"null","../img/tt/353tt.jpg","null","mooney2","image-keyboard-response","151","700353","0.0-6.0-5.20","2868108","co38608","norming","","","","","","",""
"3961.5650000000605","","","post_reveal_questions","survey-likert","152","704316","0.0-6.0-6.20","2868108","co38608","norming","","","{""aha"":0}","[0]","../img/tt/353tt.jpg","",""
"null","<div style=""font-size:60px;""> </div>","null","fixation","html-keyboard-response","153","704522","0.0-6.0-0.21","2868108","co38608","norming","","","","","","",""
"null","../img/tt/019tt.jpg","null","mooney1","image-keyboard-response","154","707527","0.0-6.0-1.21","2868108","co38608","norming","","","","","","",""
"5363.5950000000885","","","post_mooney1_questions","survey-likert","155","712893","0.0-6.0-2.21","2868108","co38608","norming","","","{""curiosity"":6,""confidence"":1}","[0,1]","../img/tt/019tt.jpg","",""
"4205.965000000084","","","recognition","survey-text","156","717100","0.0-6.0-3.21","2868108","co38608","norming","","","{""guess"":""blokfluit""}","","../img/tt/019tt.jpg","",""
"null","../img/gs/019gs.jpg","null","reveal","image-keyboard-response","157","719102","0.0-6.0-4.21","2868108","co38608","norming","","","","","","",""
"null","../img/tt/019tt.jpg","null","mooney2","image-keyboard-response","158","721110","0.0-6.0-5.21","2868108","co38608","norming","","","","","","",""
"3643.594999999972","","","post_reveal_questions","survey-likert","159","724753","0.0-6.0-6.21","2868108","co38608","norming","","","{""aha"":6}","[0]","../img/tt/019tt.jpg","",""
"null","<div style=""font-size:60px;""> </div>","null","fixation","html-keyboard-response","160","724962","0.0-6.0-0.22","2868108","co38608","norming","","","","","","",""
"null","../img/tt/1270tt.jpg","null","mooney1","image-keyboard-response","161","727964","0.0-6.0-1.22","2868108","co38608","norming","","","","","","",""
"3523.069999999949","","","post_mooney1_questions","survey-likert","162","731489","0.0-6.0-2.22","2868108","co38608","norming","","","{""curiosity"":6,""confidence"":0}","[0,1]","../img/tt/1270tt.jpg","",""
"990.1799999999348","","","recognition","survey-text","163","732481","0.0-6.0-3.22","2868108","co38608","norming","","","{""guess"":""""}","","../img/tt/1270tt.jpg","",""
"null","../img/gs/1270gs.jpg","null","reveal","image-keyboard-response","164","734489","0.0-6.0-4.22","2868108","co38608","norming","","","","","","",""
"null","../img/tt/1270tt.jpg","null","mooney2","image-keyboard-response","165","736497","0.0-6.0-5.22","2868108","co38608","norming","","","","","","",""
"2998.9600000001956","","","post_reveal_questions","survey-likert","166","739497","0.0-6.0-6.22","2868108","co38608","norming","","","{""aha"":6}","[0]","../img/tt/1270tt.jpg","",""
"null","<div style=""font-size:60px;""> </div>","null","fixation","html-keyboard-response","167","739701","0.0-6.0-0.23","2868108","co38608","norming","","","","","","",""
"null","../img/tt/552tt.jpg","null","mooney1","image-keyboard-response","168","742711","0.0-6.0-1.23","2868108","co38608","norming","","","","","","",""
"4584.165000000037","","","post_mooney1_questions","survey-likert","169","747297","0.0-6.0-2.23","2868108","co38608","norming","","","{""curiosity"":3,""confidence"":5}","[0,1]","../img/tt/552tt.jpg","",""
"5294.084999999963","","","recognition","survey-text","170","752593","0.0-6.0-3.23","2868108","co38608","norming","","","{""guess"":""stinkdier""}","","../img/tt/552tt.jpg","",""
"null","../img/gs/552gs.jpg","null","reveal","image-keyboard-response","171","754603","0.0-6.0-4.23","2868108","co38608","norming","","","","","","",""
"null","../img/tt/552tt.jpg","null","mooney2","image-keyboard-response","172","756605","0.0-6.0-5.23","2868108","co38608","norming","","","","","","",""
"3410.0000000001164","","","post_reveal_questions","survey-likert","173","760017","0.0-6.0-6.23","2868108","co38608","norming","","","{""aha"":0}","[0]","../img/tt/552tt.jpg","",""
"null","<div style=""font-size:60px;""> </div>","null","fixation","html-keyboard-response","174","760220","0.0-6.0-0.24","2868108","co38608","norming","","","","","","",""
"null","../img/tt/1171tt.jpg","null","mooney1","image-keyboard-response","175","763225","0.0-6.0-1.24","2868108","co38608","norming","","","","","","",""
"8086.665000000037","","","post_mooney1_questions","survey-likert","176","771313","0.0-6.0-2.24","2868108","co38608","norming","","","{""curiosity"":3,""confidence"":2}","[0,1]","../img/tt/1171tt.jpg","",""
"5822.060000000172","","","recognition","survey-text","177","777137","0.0-6.0-3.24","2868108","co38608","norming","","","{""guess"":""gezin""}","","../img/tt/1171tt.jpg","",""
"null","../img/gs/1171gs.jpg","null","reveal","image-keyboard-response","178","779142","0.0-6.0-4.24","2868108","co38608","norming","","","","","","",""
"null","../img/tt/1171tt.jpg","null","mooney2","image-keyboard-response","179","781149","0.0-6.0-5.24","2868108","co38608","norming","","","","","","",""
"3074.5550000001676","","","post_reveal_questions","survey-likert","180","784226","0.0-6.0-6.24","2868108","co38608","norming","","","{""aha"":6}","[0]","../img/tt/1171tt.jpg","",""
"null","<div style=""font-size:60px;""> </div>","null","fixation","html-keyboard-response","181","784435","0.0-6.0-0.25","2868108","co38608","norming","","","","","","",""
"null","../img/tt/1279tt.jpg","null","mooney1","image-keyboard-response","182","787447","0.0-6.0-1.25","2868108","co38608","norming","","","","","","",""
"5265.319999999949","","","post_mooney1_questions","survey-likert","183","792714","0.0-6.0-2.25","2868108","co38608","norming","","","{""curiosity"":6,""confidence"":1}","[0,1]","../img/tt/1279tt.jpg","",""
"3926.1149999999907","","","recognition","survey-text","184","796642","0.0-6.0-3.25","2868108","co38608","norming","","","{""guess"":""eland""}","","../img/tt/1279tt.jpg","",""
"null","../img/gs/1279gs.jpg","null","reveal","image-keyboard-response","185","798652","0.0-6.0-4.25","2868108","co38608","norming","","","","","","",""
"null","../img/tt/1279tt.jpg","null","mooney2","image-keyboard-response","186","800661","0.0-6.0-5.25","2868108","co38608","norming","","","","","","",""
"5051.790000000037","","","post_reveal_questions","survey-likert","187","805714","0.0-6.0-6.25","2868108","co38608","norming","","","{""aha"":1}","[0]","../img/tt/1279tt.jpg","",""
"null","<div style=""font-size:60px;""> </div>","null","fixation","html-keyboard-response","188","805916","0.0-6.0-0.26","2868108","co38608","norming","","","","","","",""
"null","../img/tt/1283tt.jpg","null","mooney1","image-keyboard-response","189","808922","0.0-6.0-1.26","2868108","co38608","norming","","","","","","",""
"4622.409999999916","","","post_mooney1_questions","survey-likert","190","813547","0.0-6.0-2.26","2868108","co38608","norming","","","{""curiosity"":6,""confidence"":0}","[0,1]","../img/tt/1283tt.jpg","",""
"845.9449999999488","","","recognition","survey-text","191","814394","0.0-6.0-3.26","2868108","co38608","norming","","","{""guess"":""""}","","../img/tt/1283tt.jpg","",""
"null","../img/gs/1283gs.jpg","null","reveal","image-keyboard-response","192","816397","0.0-6.0-4.26","2868108","co38608","norming","","","","","","",""
"null","../img/tt/1283tt.jpg","null","mooney2","image-keyboard-response","193","818405","0.0-6.0-5.26","2868108","co38608","norming","","","","","","",""
"1980.005000000121","","","post_reveal_questions","survey-likert","194","820386","0.0-6.0-6.26","2868108","co38608","norming","","","{""aha"":6}","[0]","../img/tt/1283tt.jpg","",""
"null","<div style=""font-size:60px;""> </div>","null","fixation","html-keyboard-response","195","820595","0.0-6.0-0.27","2868108","co38608","norming","","","","","","",""
"null","../img/tt/1173tt.jpg","null","mooney1","image-keyboard-response","196","823600","0.0-6.0-1.27","2868108","co38608","norming","","","","","","",""
"5608.3300000000745","","","post_mooney1_questions","survey-likert","197","829210","0.0-6.0-2.27","2868108","co38608","norming","","","{""curiosity"":0,""confidence"":6}","[0,1]","../img/tt/1173tt.jpg","",""
"4230.0349999998","","","recognition","survey-text","198","833442","0.0-6.0-3.27","2868108","co38608","norming","","","{""guess"":""hockey""}","","../img/tt/1173tt.jpg","",""
"null","../img/gs/1173gs.jpg","null","reveal","image-keyboard-response","199","835447","0.0-6.0-4.27","2868108","co38608","norming","","","","","","",""
"null","../img/tt/1173tt.jpg","null","mooney2","image-keyboard-response","200","837457","0.0-6.0-5.27","2868108","co38608","norming","","","","","","",""
"3463.759999999893","","","post_reveal_questions","survey-likert","201","840922","0.0-6.0-6.27","2868108","co38608","norming","","","{""aha"":0}","[0]","../img/tt/1173tt.jpg","",""
"null","<div style=""font-size:60px;""> </div>","null","fixation","html-keyboard-response","202","841125","0.0-6.0-0.28","2868108","co38608","norming","","","","","","",""
"null","../img/tt/1161tt.jpg","null","mooney1","image-keyboard-response","203","844134","0.0-6.0-1.28","2868108","co38608","norming","","","","","","",""
"4356.1549999999115","","","post_mooney1_questions","survey-likert","204","848493","0.0-6.0-2.28","2868108","co38608","norming","","","{""curiosity"":0,""confidence"":6}","[0,1]","../img/tt/1161tt.jpg","",""
"4438.040000000037","","","recognition","survey-text","205","852933","0.0-6.0-3.28","2868108","co38608","norming","","","{""guess"":""bergbeklimmer""}","","../img/tt/1161tt.jpg","",""
"null","../img/gs/1161gs.jpg","null","reveal","image-keyboard-response","206","854939","0.0-6.0-4.28","2868108","co38608","norming","","","","","","",""
"null","../img/tt/1161tt.jpg","null","mooney2","image-keyboard-response","207","856941","0.0-6.0-5.28","2868108","co38608","norming","","","","","","",""
"2525.685000000056","","","post_reveal_questions","survey-likert","208","859469","0.0-6.0-6.28","2868108","co38608","norming","","","{""aha"":0}","[0]","../img/tt/1161tt.jpg","",""
"null","<div style=""font-size:60px;""> </div>","null","fixation","html-keyboard-response","209","859672","0.0-6.0-0.29","2868108","co38608","norming","","","","","","",""
"null","../img/tt/1239tt.jpg","null","mooney1","image-keyboard-response","210","862677","0.0-6.0-1.29","2868108","co38608","norming","","","","","","",""
"5629.589999999967","","","post_mooney1_questions","survey-likert","211","868309","0.0-6.0-2.29","2868108","co38608","norming","","","{""curiosity"":6,""confidence"":1}","[0,1]","../img/tt/1239tt.jpg","",""
"2246.0999999998603","","","recognition","survey-text","212","870557","0.0-6.0-3.29","2868108","co38608","norming","","","{""guess"":""koe""}","","../img/tt/1239tt.jpg","",""
"null","../img/gs/1239gs.jpg","null","reveal","image-keyboard-response","213","872567","0.0-6.0-4.29","2868108","co38608","norming","","","","","","",""
"null","../img/tt/1239tt.jpg","null","mooney2","image-keyboard-response","214","874571","0.0-6.0-5.29","2868108","co38608","norming","","","","","","",""
"2431.594999999972","","","post_reveal_questions","survey-likert","215","877004","0.0-6.0-6.29","2868108","co38608","norming","","","{""aha"":6}","[0]","../img/tt/1239tt.jpg","",""
"null","<div style=""font-size:60px;""> </div>","null","fixation","html-keyboard-response","216","877207","0.0-6.0-0.30","2868108","co38608","norming","","","","","","",""
"null","../img/tt/315tt.jpg","null","mooney1","image-keyboard-response","217","880214","0.0-6.0-1.30","2868108","co38608","norming","","","","","","",""
"5629.90000000014","","","post_mooney1_questions","survey-likert","218","885845","0.0-6.0-2.30","2868108","co38608","norming","","","{""curiosity"":6,""confidence"":1}","[0,1]","../img/tt/315tt.jpg","",""
"3654.109999999986","","","recognition","survey-text","219","889501","0.0-6.0-3.30","2868108","co38608","norming","","","{""guess"":""roofvogel""}","","../img/tt/315tt.jpg","",""
"null","../img/gs/315gs.jpg","null","reveal","image-keyboard-response","220","891503","0.0-6.0-4.30","2868108","co38608","norming","","","","","","",""
"null","../img/tt/315tt.jpg","null","mooney2","image-keyboard-response","221","893505","0.0-6.0-5.30","2868108","co38608","norming","","","","","","",""
"3306.6650000000373","","","post_reveal_questions","survey-likert","222","896813","0.0-6.0-6.30","2868108","co38608","norming","","","{""aha"":6}","[0]","../img/tt/315tt.jpg","",""
"null","<div style=""font-size:60px;""> </div>","null","fixation","html-keyboard-response","223","897017","0.0-6.0-0.31","2868108","co38608","norming","","","","","","",""
"null","../img/tt/1107tt.jpg","null","mooney1","image-keyboard-response","224","900025","0.0-6.0-1.31","2868108","co38608","norming","","","","","","",""
"3793.8950000000186","","","post_mooney1_questions","survey-likert","225","903821","0.0-6.0-2.31","2868108","co38608","norming","","","{""curiosity"":6,""confidence"":0}","[0,1]","../img/tt/1107tt.jpg","",""
"6133.7949999999255","","","recognition","survey-text","226","909956","0.0-6.0-3.31","2868108","co38608","norming","","","{""guess"":""shirt""}","","../img/tt/1107tt.jpg","",""
"null","../img/gs/1107gs.jpg","null","reveal","image-keyboard-response","227","911962","0.0-6.0-4.31","2868108","co38608","norming","","","","","","",""
"null","../img/tt/1107tt.jpg","null","mooney2","image-keyboard-response","228","913969","0.0-6.0-5.31","2868108","co38608","norming","","","","","","",""
"1650.1000000000931","","","post_reveal_questions","survey-likert","229","915620","0.0-6.0-6.31","2868108","co38608","norming","","","{""aha"":6}","[0]","../img/tt/1107tt.jpg","",""
"null","<div style=""font-size:60px;""> </div>","null","fixation","html-keyboard-response","230","915824","0.0-6.0-0.32","2868108","co38608","norming","","","","","","",""
"null","../img/tt/603tt.jpg","null","mooney1","image-keyboard-response","231","918825","0.0-6.0-1.32","2868108","co38608","norming","","","","","","",""
"5338.365000000107","","","post_mooney1_questions","survey-likert","232","924164","0.0-6.0-2.32","2868108","co38608","norming","","","{""curiosity"":1,""confidence"":5}","[0,1]","../img/tt/603tt.jpg","",""
"1566.2650000001304","","","recognition","survey-text","233","925732","0.0-6.0-3.32","2868108","co38608","norming","","","{""guess"":""kat""}","","../img/tt/603tt.jpg","",""
"null","../img/gs/603gs.jpg","null","reveal","image-keyboard-response","234","927742","0.0-6.0-4.32","2868108","co38608","norming","","","","","","",""
"null","../img/tt/603tt.jpg","null","mooney2","image-keyboard-response","235","929745","0.0-6.0-5.32","2868108","co38608","norming","","","","","","",""
"2578.4000000001397","","","post_reveal_questions","survey-likert","236","932324","0.0-6.0-6.32","2868108","co38608","norming","","","{""aha"":1}","[0]","../img/tt/603tt.jpg","",""
"null","<div style=""font-size:60px;""> </div>","null","fixation","html-keyboard-response","237","932527","0.0-6.0-0.33","2868108","co38608","norming","","","","","","",""
"null","../img/tt/442tt.jpg","null","mooney1","image-keyboard-response","238","935528","0.0-6.0-1.33","2868108","co38608","norming","","","","","","",""
"6715.32500000007","","","post_mooney1_questions","survey-likert","239","942244","0.0-6.0-2.33","2868108","co38608","norming","","","{""curiosity"":5,""confidence"":1}","[0,1]","../img/tt/442tt.jpg","",""
"2582.225000000093","","","recognition","survey-text","240","944828","0.0-6.0-3.33","2868108","co38608","norming","","","{""guess"":""ananas""}","","../img/tt/442tt.jpg","",""
"null","../img/gs/442gs.jpg","null","reveal","image-keyboard-response","241","946836","0.0-6.0-4.33","2868108","co38608","norming","","","","","","",""
"null","../img/tt/442tt.jpg","null","mooney2","image-keyboard-response","242","948840","0.0-6.0-5.33","2868108","co38608","norming","","","","","","",""
"2531.8150000000605","","","post_reveal_questions","survey-likert","243","951373","0.0-6.0-6.33","2868108","co38608","norming","","","{""aha"":5}","[0]","../img/tt/442tt.jpg","",""
"null","<div style=""font-size:60px;""> </div>","null","fixation","html-keyboard-response","244","951576","0.0-6.0-0.34","2868108","co38608","norming","","","","","","",""
"null","../img/tt/1269tt.jpg","null","mooney1","image-keyboard-response","245","954582","0.0-6.0-1.34","2868108","co38608","norming","","","","","","",""
"6213.854999999981","","","post_mooney1_questions","survey-likert","246","960797","0.0-6.0-2.34","2868108","co38608","norming","","","{""curiosity"":4,""confidence"":3}","[0,1]","../img/tt/1269tt.jpg","",""
"1813.520000000135","","","recognition","survey-text","247","962612","0.0-6.0-3.34","2868108","co38608","norming","","","{""guess"":""hond""}","","../img/tt/1269tt.jpg","",""
"null","../img/gs/1269gs.jpg","null","reveal","image-keyboard-response","248","964623","0.0-6.0-4.34","2868108","co38608","norming","","","","","","",""
"null","../img/tt/1269tt.jpg","null","mooney2","image-keyboard-response","249","966627","0.0-6.0-5.34","2868108","co38608","norming","","","","","","",""
"2815.985000000219","","","post_reveal_questions","survey-likert","250","969438","0.0-6.0-6.34","2868108","co38608","norming","","","{""aha"":5}","[0]","../img/tt/1269tt.jpg","",""
"null","<div style=""font-size:60px;""> </div>","null","fixation","html-keyboard-response","251","969648","0.0-6.0-0.35","2868108","co38608","norming","","","","","","",""
"null","../img/tt/1033tt.jpg","null","mooney1","image-keyboard-response","252","972650","0.0-6.0-1.35","2868108","co38608","norming","","","","","","",""
"5802.660000000033","","","post_mooney1_questions","survey-likert","253","978454","0.0-6.0-2.35","2868108","co38608","norming","","","{""curiosity"":1,""confidence"":5}","[0,1]","../img/tt/1033tt.jpg","",""
"3341.8249999999534","","","recognition","survey-text","254","981798","0.0-6.0-3.35","2868108","co38608","norming","","","{""guess"":""ijshockey""}","","../img/tt/1033tt.jpg","",""
"null","../img/gs/1033gs.jpg","null","reveal","image-keyboard-response","255","983804","0.0-6.0-4.35","2868108","co38608","norming","","","","","","",""
"null","../img/tt/1033tt.jpg","null","mooney2","image-keyboard-response","256","985805","0.0-6.0-5.35","2868108","co38608","norming","","","","","","",""
"3151.305000000051","","","post_reveal_questions","survey-likert","257","988958","0.0-6.0-6.35","2868108","co38608","norming","","","{""aha"":6}","[0]","../img/tt/1033tt.jpg","",""
"null","<div style=""font-size:60px;""> </div>","null","fixation","html-keyboard-response","258","989164","0.0-6.0-0.36","2868108","co38608","norming","","","","","","",""
"null","../img/tt/010tt.jpg","null","mooney1","image-keyboard-response","259","992168","0.0-6.0-1.36","2868108","co38608","norming","","","","","","",""
"5269.099999999977","","","post_mooney1_questions","survey-likert","260","997438","0.0-6.0-2.36","2868108","co38608","norming","","","{""curiosity"":5,""confidence"":2}","[0,1]","../img/tt/010tt.jpg","",""
"3470.1300000000047","","","recognition","survey-text","261","1000910","0.0-6.0-3.36","2868108","co38608","norming","","","{""guess"":""grammofoon""}","","../img/tt/010tt.jpg","",""
"null","../img/gs/010gs.jpg","null","reveal","image-keyboard-response","262","1002917","0.0-6.0-4.36","2868108","co38608","norming","","","","","","",""
"null","../img/tt/010tt.jpg","null","mooney2","image-keyboard-response","263","1004920","0.0-6.0-5.36","2868108","co38608","norming","","","","","","",""
"2132.205000000191","","","post_reveal_questions","survey-likert","264","1007054","0.0-6.0-6.36","2868108","co38608","norming","","","{""aha"":6}","[0]","../img/tt/010tt.jpg","",""
"null","<div style=""font-size:60px;""> </div>","null","fixation","html-keyboard-response","265","1007262","0.0-6.0-0.37","2868108","co38608","norming","","","","","","",""
"null","../img/tt/296tt.jpg","null","mooney1","image-keyboard-response","266","1010270","0.0-6.0-1.37","2868108","co38608","norming","","","","","","",""
"8799.125","","","post_mooney1_questions","survey-likert","267","1019070","0.0-6.0-2.37","2868108","co38608","norming","","","{""curiosity"":2,""confidence"":5}","[0,1]","../img/tt/296tt.jpg","",""
"2622.0800000000745","","","recognition","survey-text","268","1021694","0.0-6.0-3.37","2868108","co38608","norming","","","{""guess"":""zetel""}","","../img/tt/296tt.jpg","",""
"null","../img/gs/296gs.jpg","null","reveal","image-keyboard-response","269","1023701","0.0-6.0-4.37","2868108","co38608","norming","","","","","","",""
"null","../img/tt/296tt.jpg","null","mooney2","image-keyboard-response","270","1025704","0.0-6.0-5.37","2868108","co38608","norming","","","","","","",""
"2372.6049999999814","","","post_reveal_questions","survey-likert","271","1028078","0.0-6.0-6.37","2868108","co38608","norming","","","{""aha"":5}","[0]","../img/tt/296tt.jpg","",""
"null","<div style=""font-size:60px;""> </div>","null","fixation","html-keyboard-response","272","1028279","0.0-6.0-0.38","2868108","co38608","norming","","","","","","",""
"null","../img/tt/1143tt.jpg","null","mooney1","image-keyboard-response","273","1031295","0.0-6.0-1.38","2868108","co38608","norming","","","","","","",""
"5750.765000000014","","","post_mooney1_questions","survey-likert","274","1037048","0.0-6.0-2.38","2868108","co38608","norming","","","{""curiosity"":1,""confidence"":5}","[0,1]","../img/tt/1143tt.jpg","",""
"2430.1300000000047","","","recognition","survey-text","275","1039480","0.0-6.0-3.38","2868108","co38608","norming","","","{""guess"":""fitness""}","","../img/tt/1143tt.jpg","",""
"null","../img/gs/1143gs.jpg","null","reveal","image-keyboard-response","276","1041487","0.0-6.0-4.38","2868108","co38608","norming","","","","","","",""
"null","../img/tt/1143tt.jpg","null","mooney2","image-keyboard-response","277","1043490","0.0-6.0-5.38","2868108","co38608","norming","","","","","","",""
"4259.820000000182","","","post_reveal_questions","survey-likert","278","1047752","0.0-6.0-6.38","2868108","co38608","norming","","","{""aha"":1}","[0]","../img/tt/1143tt.jpg","",""
"null","<div style=""font-size:60px;""> </div>","null","fixation","html-keyboard-response","279","1047953","0.0-6.0-0.39","2868108","co38608","norming","","","","","","",""
"null","../img/tt/279tt.jpg","null","mooney1","image-keyboard-response","280","1050966","0.0-6.0-1.39","2868108","co38608","norming","","","","","","",""
"5544.675000000047","","","post_mooney1_questions","survey-likert","281","1056512","0.0-6.0-2.39","2868108","co38608","norming","","","{""curiosity"":0,""confidence"":6}","[0,1]","../img/tt/279tt.jpg","",""
"1798.1650000000373","","","recognition","survey-text","282","1058312","0.0-6.0-3.39","2868108","co38608","norming","","","{""guess"":""koala""}","","../img/tt/279tt.jpg","",""
"null","../img/gs/279gs.jpg","null","reveal","image-keyboard-response","283","1060315","0.0-6.0-4.39","2868108","co38608","norming","","","","","","",""
"null","../img/tt/279tt.jpg","null","mooney2","image-keyboard-response","284","1062325","0.0-6.0-5.39","2868108","co38608","norming","","","","","","",""
"3112.804999999935","","","post_reveal_questions","survey-likert","285","1065440","0.0-6.0-6.39","2868108","co38608","norming","","","{""aha"":0}","[0]","../img/tt/279tt.jpg","",""
"null","<div style=""font-size:60px;""> </div>","null","fixation","html-keyboard-response","286","1065643","0.0-6.0-0.40","2868108","co38608","norming","","","","","","",""
"null","../img/tt/1188tt.jpg","null","mooney1","image-keyboard-response","287","1068653","0.0-6.0-1.40","2868108","co38608","norming","","","","","","",""
"5569.069999999832","","","post_mooney1_questions","survey-likert","288","1074224","0.0-6.0-2.40","2868108","co38608","norming","","","{""curiosity"":4,""confidence"":2}","[0,1]","../img/tt/1188tt.jpg","",""
"2102.345000000205","","","recognition","survey-text","289","1076328","0.0-6.0-3.40","2868108","co38608","norming","","","{""guess"":""wielrenner""}","","../img/tt/1188tt.jpg","",""
"null","../img/gs/1188gs.jpg","null","reveal","image-keyboard-response","290","1078336","0.0-6.0-4.40","2868108","co38608","norming","","","","","","",""
"null","../img/tt/1188tt.jpg","null","mooney2","image-keyboard-response","291","1080337","0.0-6.0-5.40","2868108","co38608","norming","","","","","","",""
"2030.339999999851","","","post_reveal_questions","survey-likert","292","1082368","0.0-6.0-6.40","2868108","co38608","norming","","","{""aha"":1}","[0]","../img/tt/1188tt.jpg","",""
"null","<div style=""font-size:60px;""> </div>","null","fixation","html-keyboard-response","293","1082570","0.0-6.0-0.41","2868108","co38608","norming","","","","","","",""
"null","../img/tt/307tt.jpg","null","mooney1","image-keyboard-response","294","1085578","0.0-6.0-1.41","2868108","co38608","norming","","","","","","",""
"3867.8899999998976","","","post_mooney1_questions","survey-likert","295","1089448","0.0-6.0-2.41","2868108","co38608","norming","","","{""curiosity"":6,""confidence"":1}","[0,1]","../img/tt/307tt.jpg","",""
"3990.375","","","recognition","survey-text","296","1093443","0.0-6.0-3.41","2868108","co38608","norming","","","{""guess"":""blender""}","","../img/tt/307tt.jpg","",""
"null","../img/gs/307gs.jpg","null","reveal","image-keyboard-response","297","1095449","0.0-6.0-4.41","2868108","co38608","norming","","","","","","",""
"null","../img/tt/307tt.jpg","null","mooney2","image-keyboard-response","298","1097457","0.0-6.0-5.41","2868108","co38608","norming","","","","","","",""
"2896.0800000000745","","","post_reveal_questions","survey-likert","299","1100355","0.0-6.0-6.41","2868108","co38608","norming","","","{""aha"":6}","[0]","../img/tt/307tt.jpg","",""
"null","<div style=""font-size:60px;""> </div>","null","fixation","html-keyboard-response","300","1100561","0.0-6.0-0.42","2868108","co38608","norming","","","","","","",""
"null","../img/tt/1087tt.jpg","null","mooney1","image-keyboard-response","301","1103568","0.0-6.0-1.42","2868108","co38608","norming","","","","","","",""
"4168.399999999907","","","post_mooney1_questions","survey-likert","302","1107739","0.0-6.0-2.42","2868108","co38608","norming","","","{""curiosity"":1,""confidence"":5}","[0,1]","../img/tt/1087tt.jpg","",""
"3501.9300000001676","","","recognition","survey-text","303","1111243","0.0-6.0-3.42","2868108","co38608","norming","","","{""guess"":""koeien""}","","../img/tt/1087tt.jpg","",""
"null","../img/gs/1087gs.jpg","null","reveal","image-keyboard-response","304","1113250","0.0-6.0-4.42","2868108","co38608","norming","","","","","","",""
"null","../img/tt/1087tt.jpg","null","mooney2","image-keyboard-response","305","1115251","0.0-6.0-5.42","2868108","co38608","norming","","","","","","",""
"3421.124999999767","","","post_reveal_questions","survey-likert","306","1118675","0.0-6.0-6.42","2868108","co38608","norming","","","{""aha"":5}","[0]","../img/tt/1087tt.jpg","",""
"null","<div style=""font-size:60px;""> </div>","null","fixation","html-keyboard-response","307","1118885","0.0-6.0-0.43","2868108","co38608","norming","","","","","","",""
"null","../img/tt/406tt.jpg","null","mooney1","image-keyboard-response","308","1121896","0.0-6.0-1.43","2868108","co38608","norming","","","","","","",""
"4816.219999999972","","","post_mooney1_questions","survey-likert","309","1126715","0.0-6.0-2.43","2868108","co38608","norming","","","{""curiosity"":6,""confidence"":0}","[0,1]","../img/tt/406tt.jpg","",""
"862.0100000002421","","","recognition","survey-text","310","1127579","0.0-6.0-3.43","2868108","co38608","norming","","","{""guess"":""""}","","../img/tt/406tt.jpg","",""
"null","../img/gs/406gs.jpg","null","reveal","image-keyboard-response","311","1129585","0.0-6.0-4.43","2868108","co38608","norming","","","","","","",""
"null","../img/tt/406tt.jpg","null","mooney2","image-keyboard-response","312","1131587","0.0-6.0-5.43","2868108","co38608","norming","","","","","","",""
"2269.2649999998976","","","post_reveal_questions","survey-likert","313","1133859","0.0-6.0-6.43","2868108","co38608","norming","","","{""aha"":6}","[0]","../img/tt/406tt.jpg","",""
"null","<div style=""font-size:60px;""> </div>","null","fixation","html-keyboard-response","314","1134064","0.0-6.0-0.44","2868108","co38608","norming","","","","","","",""
"null","../img/tt/079tt.jpg","null","mooney1","image-keyboard-response","315","1137067","0.0-6.0-1.44","2868108","co38608","norming","","","","","","",""
"4741.350000000093","","","post_mooney1_questions","survey-likert","316","1141811","0.0-6.0-2.44","2868108","co38608","norming","","","{""curiosity"":6,""confidence"":0}","[0,1]","../img/tt/079tt.jpg","",""
"805.6100000001024","","","recognition","survey-text","317","1142619","0.0-6.0-3.44","2868108","co38608","norming","","","{""guess"":""""}","","../img/tt/079tt.jpg","",""
"null","../img/gs/079gs.jpg","null","reveal","image-keyboard-response","318","1144624","0.0-6.0-4.44","2868108","co38608","norming","","","","","","",""
"null","../img/tt/079tt.jpg","null","mooney2","image-keyboard-response","319","1146626","0.0-6.0-5.44","2868108","co38608","norming","","","","","","",""
"2478.945000000065","","","post_reveal_questions","survey-likert","320","1149107","0.0-6.0-6.44","2868108","co38608","norming","","","{""aha"":6}","[0]","../img/tt/079tt.jpg","",""
"null","<div style=""font-size:60px;""> </div>","null","fixation","html-keyboard-response","321","1149315","0.0-6.0-0.45","2868108","co38608","norming","","","","","","",""
"null","../img/tt/1040tt.jpg","null","mooney1","image-keyboard-response","322","1152319","0.0-6.0-1.45","2868108","co38608","norming","","","","","","",""
"7124.770000000019","","","post_mooney1_questions","survey-likert","323","1159445","0.0-6.0-2.45","2868108","co38608","norming","","","{""curiosity"":6,""confidence"":1}","[0,1]","../img/tt/1040tt.jpg","",""
"3166.0400000000373","","","recognition","survey-text","324","1162613","0.0-6.0-3.45","2868108","co38608","norming","","","{""guess"":""buffel""}","","../img/tt/1040tt.jpg","",""
"null","../img/gs/1040gs.jpg","null","reveal","image-keyboard-response","325","1164622","0.0-6.0-4.45","2868108","co38608","norming","","","","","","",""
"null","../img/tt/1040tt.jpg","null","mooney2","image-keyboard-response","326","1166625","0.0-6.0-5.45","2868108","co38608","norming","","","","","","",""
"1610.0999999998603","","","post_reveal_questions","survey-likert","327","1168237","0.0-6.0-6.45","2868108","co38608","norming","","","{""aha"":6}","[0]","../img/tt/1040tt.jpg","",""
"null","<div style=""font-size:60px;""> </div>","null","fixation","html-keyboard-response","328","1168439","0.0-6.0-0.46","2868108","co38608","norming","","","","","","",""
"null","../img/tt/032tt.jpg","null","mooney1","image-keyboard-response","329","1171446","0.0-6.0-1.46","2868108","co38608","norming","","","","","","",""
"4549.075000000186","","","post_mooney1_questions","survey-likert","330","1175997","0.0-6.0-2.46","2868108","co38608","norming","","","{""curiosity"":5,""confidence"":1}","[0,1]","../img/tt/032tt.jpg","",""
"1918.1399999998976","","","recognition","survey-text","331","1177917","0.0-6.0-3.46","2868108","co38608","norming","","","{""guess"":""rodeo""}","","../img/tt/032tt.jpg","",""
"null","../img/gs/032gs.jpg","null","reveal","image-keyboard-response","332","1179920","0.0-6.0-4.46","2868108","co38608","norming","","","","","","",""
"null","../img/tt/032tt.jpg","null","mooney2","image-keyboard-response","333","1181921","0.0-6.0-5.46","2868108","co38608","norming","","","","","","",""
"1490.3749999997672","","","post_reveal_questions","survey-likert","334","1183413","0.0-6.0-6.46","2868108","co38608","norming","","","{""aha"":6}","[0]","../img/tt/032tt.jpg","",""
"null","<div style=""font-size:60px;""> </div>","null","fixation","html-keyboard-response","335","1183617","0.0-6.0-0.47","2868108","co38608","norming","","","","","","",""
"null","../img/tt/1235tt.jpg","null","mooney1","image-keyboard-response","336","1186624","0.0-6.0-1.47","2868108","co38608","norming","","","","","","",""
"4330.764999999898","","","post_mooney1_questions","survey-likert","337","1190957","0.0-6.0-2.47","2868108","co38608","norming","","","{""curiosity"":6,""confidence"":1}","[0,1]","../img/tt/1235tt.jpg","",""
"6525.40000000014","","","recognition","survey-text","338","1197485","0.0-6.0-3.47","2868108","co38608","norming","","","{""guess"":""""}","","../img/tt/1235tt.jpg","",""
"null","../img/gs/1235gs.jpg","null","reveal","image-keyboard-response","339","1199492","0.0-6.0-4.47","2868108","co38608","norming","","","","","","",""
"null","../img/tt/1235tt.jpg","null","mooney2","image-keyboard-response","340","1201502","0.0-6.0-5.47","2868108","co38608","norming","","","","","","",""
"2253.284999999916","","","post_reveal_questions","survey-likert","341","1203757","0.0-6.0-6.47","2868108","co38608","norming","","","{""aha"":6}","[0]","../img/tt/1235tt.jpg","",""
"null","<div style=""font-size:60px;""> </div>","null","fixation","html-keyboard-response","342","1203958","0.0-6.0-0.48","2868108","co38608","norming","","","","","","",""
"null","../img/tt/1366tt.jpg","null","mooney1","image-keyboard-response","343","1206966","0.0-6.0-1.48","2868108","co38608","norming","","","","","","",""
"4468.6699999999255","","","post_mooney1_questions","survey-likert","344","1211437","0.0-6.0-2.48","2868108","co38608","norming","","","{""curiosity"":6,""confidence"":0}","[0,1]","../img/tt/1366tt.jpg","",""
"3661.9550000000745","","","recognition","survey-text","345","1215096","0.0-6.0-3.48","2868108","co38608","norming","","","{""guess"":""meer""}","","../img/tt/1366tt.jpg","",""
"null","../img/gs/1366gs.jpg","null","reveal","image-keyboard-response","346","1217097","0.0-6.0-4.48","2868108","co38608","norming","","","","","","",""
"null","../img/tt/1366tt.jpg","null","mooney2","image-keyboard-response","347","1219102","0.0-6.0-5.48","2868108","co38608","norming","","","","","","",""
"1832.3400000000838","","","post_reveal_questions","survey-likert","348","1220936","0.0-6.0-6.48","2868108","co38608","norming","","","{""aha"":6}","[0]","../img/tt/1366tt.jpg","",""
"null","<div style=""font-size:60px;""> </div>","null","fixation","html-keyboard-response","349","1221147","0.0-6.0-0.49","2868108","co38608","norming","","","","","","",""
"null","../img/tt/1055tt.jpg","null","mooney1","image-keyboard-response","350","1224156","0.0-6.0-1.49","2868108","co38608","norming","","","","","","",""
"4449.64000000013","","","post_mooney1_questions","survey-likert","351","1228609","0.0-6.0-2.49","2868108","co38608","norming","","","{""curiosity"":6,""confidence"":1}","[0,1]","../img/tt/1055tt.jpg","",""
"2069.975000000093","","","recognition","survey-text","352","1230680","0.0-6.0-3.49","2868108","co38608","norming","","","{""guess"":""grot""}","","../img/tt/1055tt.jpg","",""
"null","../img/gs/1055gs.jpg","null","reveal","image-keyboard-response","353","1232683","0.0-6.0-4.49","2868108","co38608","norming","","","","","","",""
"null","../img/tt/1055tt.jpg","null","mooney2","image-keyboard-response","354","1234684","0.0-6.0-5.49","2868108","co38608","norming","","","","","","",""
"1843.1299999998882","","","post_reveal_questions","survey-likert","355","1236528","0.0-6.0-6.49","2868108","co38608","norming","","","{""aha"":6}","[0]","../img/tt/1055tt.jpg","",""
"null","<div style=""font-size:60px;""> </div>","null","fixation","html-keyboard-response","356","1236739","0.0-6.0-0.50","2868108","co38608","norming","","","","","","",""
"null","../img/tt/1278tt.jpg","null","mooney1","image-keyboard-response","357","1239742","0.0-6.0-1.50","2868108","co38608","norming","","","","","","",""
"3753.2649999998976","","","post_mooney1_questions","survey-likert","358","1243496","0.0-6.0-2.50","2868108","co38608","norming","","","{""curiosity"":6,""confidence"":1}","[0,1]","../img/tt/1278tt.jpg","",""
"7254.445000000065","","","recognition","survey-text","359","1250753","0.0-6.0-3.50","2868108","co38608","norming","","","{""guess"":""wandelaar""}","","../img/tt/1278tt.jpg","",""
"null","../img/gs/1278gs.jpg","null","reveal","image-keyboard-response","360","1252754","0.0-6.0-4.50","2868108","co38608","norming","","","","","","",""
"null","../img/tt/1278tt.jpg","null","mooney2","image-keyboard-response","361","1254756","0.0-6.0-5.50","2868108","co38608","norming","","","","","","",""
"3619.4250000000466","","","post_reveal_questions","survey-likert","362","1258376","0.0-6.0-6.50","2868108","co38608","norming","","","{""aha"":6}","[0]","../img/tt/1278tt.jpg","",""
"null","<div style=""font-size:60px;""> </div>","null","fixation","html-keyboard-response","363","1258582","0.0-6.0-0.51","2868108","co38608","norming","","","","","","",""
"null","../img/tt/358tt.jpg","null","mooney1","image-keyboard-response","364","1261587","0.0-6.0-1.51","2868108","co38608","norming","","","","","","",""
"4451.76500000013","","","post_mooney1_questions","survey-likert","365","1266041","0.0-6.0-2.51","2868108","co38608","norming","","","{""curiosity"":6,""confidence"":1}","[0,1]","../img/tt/358tt.jpg","",""
"2614.1350000000093","","","recognition","survey-text","366","1268656","0.0-6.0-3.51","2868108","co38608","norming","","","{""guess"":""bulldog""}","","../img/tt/358tt.jpg","",""
"null","../img/gs/358gs.jpg","null","reveal","image-keyboard-response","367","1270666","0.0-6.0-4.51","2868108","co38608","norming","","","","","","",""
"null","../img/tt/358tt.jpg","null","mooney2","image-keyboard-response","368","1272671","0.0-6.0-5.51","2868108","co38608","norming","","","","","","",""
"2807.119999999879","","","post_reveal_questions","survey-likert","369","1275486","0.0-6.0-6.51","2868108","co38608","norming","","","{""aha"":6}","[0]","../img/tt/358tt.jpg","",""
"null","<div style=""font-size:60px;""> </div>","null","fixation","html-keyboard-response","370","1275690","0.0-6.0-0.52","2868108","co38608","norming","","","","","","",""
"null","../img/tt/1247tt.jpg","null","mooney1","image-keyboard-response","371","1278697","0.0-6.0-1.52","2868108","co38608","norming","","","","","","",""
"3754.6650000000373","","","post_mooney1_questions","survey-likert","372","1282454","0.0-6.0-2.52","2868108","co38608","norming","","","{""curiosity"":6,""confidence"":1}","[0,1]","../img/tt/1247tt.jpg","",""
"1726.1149999997579","","","recognition","survey-text","373","1284182","0.0-6.0-3.52","2868108","co38608","norming","","","{""guess"":""tijger""}","","../img/tt/1247tt.jpg","",""
"null","../img/gs/1247gs.jpg","null","reveal","image-keyboard-response","374","1286185","0.0-6.0-4.52","2868108","co38608","norming","","","","","","",""
"null","../img/tt/1247tt.jpg","null","mooney2","image-keyboard-response","375","1288187","0.0-6.0-5.52","2868108","co38608","norming","","","","","","",""
"4792.799999999814","","","post_reveal_questions","survey-likert","376","1292982","0.0-6.0-6.52","2868108","co38608","norming","","","{""aha"":3}","[0]","../img/tt/1247tt.jpg","",""
"null","<div style=""font-size:60px;""> </div>","null","fixation","html-keyboard-response","377","1293188","0.0-6.0-0.53","2868108","co38608","norming","","","","","","",""
"null","../img/tt/189tt.jpg","null","mooney1","image-keyboard-response","378","1296193","0.0-6.0-1.53","2868108","co38608","norming","","","","","","",""
"5075.774999999674","","","post_mooney1_questions","survey-likert","379","1301270","0.0-6.0-2.53","2868108","co38608","norming","","","{""curiosity"":6,""confidence"":1}","[0,1]","../img/tt/189tt.jpg","",""
"3094.2350000001024","","","recognition","survey-text","380","1304366","0.0-6.0-3.53","2868108","co38608","norming","","","{""guess"":""hangmat""}","","../img/tt/189tt.jpg","",""
"null","../img/gs/189gs.jpg","null","reveal","image-keyboard-response","381","1306376","0.0-6.0-4.53","2868108","co38608","norming","","","","","","",""
"null","../img/tt/189tt.jpg","null","mooney2","image-keyboard-response","382","1308385","0.0-6.0-5.53","2868108","co38608","norming","","","","","","",""
"2499.7800000002608","","","post_reveal_questions","survey-likert","383","1310886","0.0-6.0-6.53","2868108","co38608","norming","","","{""aha"":4}","[0]","../img/tt/189tt.jpg","",""
"null","<div style=""font-size:60px;""> </div>","null","fixation","html-keyboard-response","384","1311095","0.0-6.0-0.54","2868108","co38608","norming","","","","","","",""
"null","../img/tt/273tt.jpg","null","mooney1","image-keyboard-response","385","1314107","0.0-6.0-1.54","2868108","co38608","norming","","","","","","",""
"5160.97499999986","","","post_mooney1_questions","survey-likert","386","1319270","0.0-6.0-2.54","2868108","co38608","norming","","","{""curiosity"":2,""confidence"":4}","[0,1]","../img/tt/273tt.jpg","",""
"5421.645000000019","","","recognition","survey-text","387","1324694","0.0-6.0-3.54","2868108","co38608","norming","","","{""guess"":""blokjes""}","","../img/tt/273tt.jpg","",""
"null","../img/gs/273gs.jpg","null","reveal","image-keyboard-response","388","1326700","0.0-6.0-4.54","2868108","co38608","norming","","","","","","",""
"null","../img/tt/273tt.jpg","null","mooney2","image-keyboard-response","389","1328702","0.0-6.0-5.54","2868108","co38608","norming","","","","","","",""
"3061.5450000001583","","","post_reveal_questions","survey-likert","390","1331766","0.0-6.0-6.54","2868108","co38608","norming","","","{""aha"":1}","[0]","../img/tt/273tt.jpg","",""
"null","<div style=""font-size:60px;""> </div>","null","fixation","html-keyboard-response","391","1331967","0.0-6.0-0.55","2868108","co38608","norming","","","","","","",""
"null","../img/tt/481tt.jpg","null","mooney1","image-keyboard-response","392","1334978","0.0-6.0-1.55","2868108","co38608","norming","","","","","","",""
"5156.7949999999255","","","post_mooney1_questions","survey-likert","393","1340137","0.0-6.0-2.55","2868108","co38608","norming","","","{""curiosity"":1,""confidence"":5}","[0,1]","../img/tt/481tt.jpg","",""
"1790.3249999999534","","","recognition","survey-text","394","1341929","0.0-6.0-3.55","2868108","co38608","norming","","","{""guess"":""hond""}","","../img/tt/481tt.jpg","",""
"null","../img/gs/481gs.jpg","null","reveal","image-keyboard-response","395","1343936","0.0-6.0-4.55","2868108","co38608","norming","","","","","","",""
"null","../img/tt/481tt.jpg","null","mooney2","image-keyboard-response","396","1345947","0.0-6.0-5.55","2868108","co38608","norming","","","","","","",""
"3012.309999999823","","","post_reveal_questions","survey-likert","397","1348961","0.0-6.0-6.55","2868108","co38608","norming","","","{""aha"":1}","[0]","../img/tt/481tt.jpg","",""
"null","<div style=""font-size:60px;""> </div>","null","fixation","html-keyboard-response","398","1349163","0.0-6.0-0.56","2868108","co38608","norming","","","","","","",""
"null","../img/tt/1309tt.jpg","null","mooney1","image-keyboard-response","399","1352173","0.0-6.0-1.56","2868108","co38608","norming","","","","","","",""
"3873.929999999935","","","post_mooney1_questions","survey-likert","400","1356049","0.0-6.0-2.56","2868108","co38608","norming","","","{""curiosity"":1,""confidence"":5}","[0,1]","../img/tt/1309tt.jpg","",""
"2022.225000000326","","","recognition","survey-text","401","1358073","0.0-6.0-3.56","2868108","co38608","norming","","","{""guess"":""jeep""}","","../img/tt/1309tt.jpg","",""
"null","../img/gs/1309gs.jpg","null","reveal","image-keyboard-response","402","1360077","0.0-6.0-4.56","2868108","co38608","norming","","","","","","",""
"null","../img/tt/1309tt.jpg","null","mooney2","image-keyboard-response","403","1362085","0.0-6.0-5.56","2868108","co38608","norming","","","","","","",""
"3850.179999999935","","","post_reveal_questions","survey-likert","404","1365937","0.0-6.0-6.56","2868108","co38608","norming","","","{""aha"":0}","[0]","../img/tt/1309tt.jpg","",""
"null","<div style=""font-size:60px;""> </div>","null","fixation","html-keyboard-response","405","1366144","0.0-6.0-0.57","2868108","co38608","norming","","","","","","",""
"null","../img/tt/1043tt.jpg","null","mooney1","image-keyboard-response","406","1369156","0.0-6.0-1.57","2868108","co38608","norming","","","","","","",""
"3675.159999999916","","","post_mooney1_questions","survey-likert","407","1372833","0.0-6.0-2.57","2868108","co38608","norming","","","{""curiosity"":6,""confidence"":1}","[0,1]","../img/tt/1043tt.jpg","",""
"2598.1450000002515","","","recognition","survey-text","408","1375433","0.0-6.0-3.57","2868108","co38608","norming","","","{""guess"":""toast""}","","../img/tt/1043tt.jpg","",""
"null","../img/gs/1043gs.jpg","null","reveal","image-keyboard-response","409","1377436","0.0-6.0-4.57","2868108","co38608","norming","","","","","","",""
"null","../img/tt/1043tt.jpg","null","mooney2","image-keyboard-response","410","1379439","0.0-6.0-5.57","2868108","co38608","norming","","","","","","",""
"2584.5400000000373","","","post_reveal_questions","survey-likert","411","1382025","0.0-6.0-6.57","2868108","co38608","norming","","","{""aha"":6}","[0]","../img/tt/1043tt.jpg","",""
"null","<div style=""font-size:60px;""> </div>","null","fixation","html-keyboard-response","412","1382236","0.0-6.0-0.58","2868108","co38608","norming","","","","","","",""
"null","../img/tt/270tt.jpg","null","mooney1","image-keyboard-response","413","1385244","0.0-6.0-1.58","2868108","co38608","norming","","","","","","",""
"5778.549999999814","","","post_mooney1_questions","survey-likert","414","1391025","0.0-6.0-2.58","2868108","co38608","norming","","","{""curiosity"":6,""confidence"":1}","[0,1]","../img/tt/270tt.jpg","",""
"1606.1049999997485","","","recognition","survey-text","415","1392633","0.0-6.0-3.58","2868108","co38608","norming","","","{""guess"":""bos""}","","../img/tt/270tt.jpg","",""
"null","../img/gs/270gs.jpg","null","reveal","image-keyboard-response","416","1394638","0.0-6.0-4.58","2868108","co38608","norming","","","","","","",""
"null","../img/tt/270tt.jpg","null","mooney2","image-keyboard-response","417","1396647","0.0-6.0-5.58","2868108","co38608","norming","","","","","","",""
"5104.29000000027","","","post_reveal_questions","survey-likert","418","1401753","0.0-6.0-6.58","2868108","co38608","norming","","","{""aha"":6}","[0]","../img/tt/270tt.jpg","",""
"null","<div style=""font-size:60px;""> </div>","null","fixation","html-keyboard-response","419","1401955","0.0-6.0-0.59","2868108","co38608","norming","","","","","","",""
"null","../img/tt/194tt.jpg","null","mooney1","image-keyboard-response","420","1404965","0.0-6.0-1.59","2868108","co38608","norming","","","","","","",""
"7344.814999999944","","","post_mooney1_questions","survey-likert","421","1412313","0.0-6.0-2.59","2868108","co38608","norming","","","{""curiosity"":6,""confidence"":1}","[0,1]","../img/tt/194tt.jpg","",""
"1974.3549999997485","","","recognition","survey-text","422","1414289","0.0-6.0-3.59","2868108","co38608","norming","","","{""guess"":""vrouw""}","","../img/tt/194tt.jpg","",""
"null","../img/gs/194gs.jpg","null","reveal","image-keyboard-response","423","1416299","0.0-6.0-4.59","2868108","co38608","norming","","","","","","",""
"null","../img/tt/194tt.jpg","null","mooney2","image-keyboard-response","424","1418303","0.0-6.0-5.59","2868108","co38608","norming","","","","","","",""
"2305.1450000000186","","","post_reveal_questions","survey-likert","425","1420609","0.0-6.0-6.59","2868108","co38608","norming","","","{""aha"":5}","[0]","../img/tt/194tt.jpg","",""
"null","<div style=""font-size:60px;""> </div>","null","fixation","html-keyboard-response","426","1420812","0.0-6.0-0.60","2868108","co38608","norming","","","","","","",""
"null","../img/tt/1236tt.jpg","null","mooney1","image-keyboard-response","427","1423817","0.0-6.0-1.60","2868108","co38608","norming","","","","","","",""
"5070.195000000065","","","post_mooney1_questions","survey-likert","428","1428889","0.0-6.0-2.60","2868108","co38608","norming","","","{""curiosity"":6,""confidence"":1}","[0,1]","../img/tt/1236tt.jpg","",""
"3750.159999999916","","","recognition","survey-text","429","1432642","0.0-6.0-3.60","2868108","co38608","norming","","","{""guess"":""paddenstoel""}","","../img/tt/1236tt.jpg","",""
"null","../img/gs/1236gs.jpg","null","reveal","image-keyboard-response","430","1434643","0.0-6.0-4.60","2868108","co38608","norming","","","","","","",""
"null","../img/tt/1236tt.jpg","null","mooney2","image-keyboard-response","431","1436649","0.0-6.0-5.60","2868108","co38608","norming","","","","","","",""
"2566.7949999999255","","","post_reveal_questions","survey-likert","432","1439217","0.0-6.0-6.60","2868108","co38608","norming","","","{""aha"":6}","[0]","../img/tt/1236tt.jpg","",""
"null","<div style=""font-size:60px;""> </div>","null","fixation","html-keyboard-response","433","1439426","0.0-6.0-0.61","2868108","co38608","norming","","","","","","",""
"null","../img/tt/1243tt.jpg","null","mooney1","image-keyboard-response","434","1442430","0.0-6.0-1.61","2868108","co38608","norming","","","","","","",""
"5033.710000000196","","","post_mooney1_questions","survey-likert","435","1447465","0.0-6.0-2.61","2868108","co38608","norming","","","{""curiosity"":4,""confidence"":4}","[0,1]","../img/tt/1243tt.jpg","",""
"1726.065000000177","","","recognition","survey-text","436","1449193","0.0-6.0-3.61","2868108","co38608","norming","","","{""guess"":""aap""}","","../img/tt/1243tt.jpg","",""
"null","../img/gs/1243gs.jpg","null","reveal","image-keyboard-response","437","1451202","0.0-6.0-4.61","2868108","co38608","norming","","","","","","",""
"null","../img/tt/1243tt.jpg","null","mooney2","image-keyboard-response","438","1453210","0.0-6.0-5.61","2868108","co38608","norming","","","","","","",""
"2213.1099999998696","","","post_reveal_questions","survey-likert","439","1455425","0.0-6.0-6.61","2868108","co38608","norming","","","{""aha"":6}","[0]","../img/tt/1243tt.jpg","",""
"null","<div style=""font-size:60px;""> </div>","null","fixation","html-keyboard-response","440","1455632","0.0-6.0-0.62","2868108","co38608","norming","","","","","","",""
"null","../img/tt/1070tt.jpg","null","mooney1","image-keyboard-response","441","1458641","0.0-6.0-1.62","2868108","co38608","norming","","","","","","",""
"6261.995000000112","","","post_mooney1_questions","survey-likert","442","1464906","0.0-6.0-2.62","2868108","co38608","norming","","","{""curiosity"":6,""confidence"":4}","[0,1]","../img/tt/1070tt.jpg","",""
"7109.8300000000745","","","recognition","survey-text","443","1472017","0.0-6.0-3.62","2868108","co38608","norming","","","{""guess"":""sanwish""}","","../img/tt/1070tt.jpg","",""
"null","../img/gs/1070gs.jpg","null","reveal","image-keyboard-response","444","1474024","0.0-6.0-4.62","2868108","co38608","norming","","","","","","",""
"null","../img/tt/1070tt.jpg","null","mooney2","image-keyboard-response","445","1476028","0.0-6.0-5.62","2868108","co38608","norming","","","","","","",""
"3227.435000000056","","","post_reveal_questions","survey-likert","446","1479257","0.0-6.0-6.62","2868108","co38608","norming","","","{""aha"":6}","[0]","../img/tt/1070tt.jpg","",""
"null","<div style=""font-size:60px;""> </div>","null","fixation","html-keyboard-response","447","1479465","0.0-6.0-0.63","2868108","co38608","norming","","","","","","",""
"null","../img/tt/1362tt.jpg","null","mooney1","image-keyboard-response","448","1482471","0.0-6.0-1.63","2868108","co38608","norming","","","","","","",""
"6343.935000000056","","","post_mooney1_questions","survey-likert","449","1488817","0.0-6.0-2.63","2868108","co38608","norming","","","{""curiosity"":4,""confidence"":2}","[0,1]","../img/tt/1362tt.jpg","",""
"6654.014999999898","","","recognition","survey-text","450","1495473","0.0-6.0-3.63","2868108","co38608","norming","","","{""guess"":""kookpotten""}","","../img/tt/1362tt.jpg","",""
"null","../img/gs/1362gs.jpg","null","reveal","image-keyboard-response","451","1497481","0.0-6.0-4.63","2868108","co38608","norming","","","","","","",""
"null","../img/tt/1362tt.jpg","null","mooney2","image-keyboard-response","452","1499492","0.0-6.0-5.63","2868108","co38608","norming","","","","","","",""
"5483.620000000112","","","post_reveal_questions","survey-likert","453","1504978","0.0-6.0-6.63","2868108","co38608","norming","","","{""aha"":2}","[0]","../img/tt/1362tt.jpg","",""
"null","<div style=""font-size:60px;""> </div>","null","fixation","html-keyboard-response","454","1505188","0.0-6.0-0.64","2868108","co38608","norming","","","","","","",""
"null","../img/tt/1307tt.jpg","null","mooney1","image-keyboard-response","455","1508199","0.0-6.0-1.64","2868108","co38608","norming","","","","","","",""
"4136.090000000084","","","post_mooney1_questions","survey-likert","456","1512337","0.0-6.0-2.64","2868108","co38608","norming","","","{""curiosity"":5,""confidence"":1}","[0,1]","../img/tt/1307tt.jpg","",""
"6238.129999999888","","","recognition","survey-text","457","1518577","0.0-6.0-3.64","2868108","co38608","norming","","","{""guess"":""citroenpers""}","","../img/tt/1307tt.jpg","",""
"null","../img/gs/1307gs.jpg","null","reveal","image-keyboard-response","458","1520580","0.0-6.0-4.64","2868108","co38608","norming","","","","","","",""
"null","../img/tt/1307tt.jpg","null","mooney2","image-keyboard-response","459","1522582","0.0-6.0-5.64","2868108","co38608","norming","","","","","","",""
"2146.320000000065","","","post_reveal_questions","survey-likert","460","1524730","0.0-6.0-6.64","2868108","co38608","norming","","","{""aha"":6}","[0]","../img/tt/1307tt.jpg","",""
"null","<div style=""font-size:60px;""> </div>","null","fixation","html-keyboard-response","461","1524936","0.0-6.0-0.65","2868108","co38608","norming","","","","","","",""
"null","../img/tt/1154tt.jpg","null","mooney1","image-keyboard-response","462","1527944","0.0-6.0-1.65","2868108","co38608","norming","","","","","","",""
"4616.439999999944","","","post_mooney1_questions","survey-likert","463","1532562","0.0-6.0-2.65","2868108","co38608","norming","","","{""curiosity"":6,""confidence"":1}","[0,1]","../img/tt/1154tt.jpg","",""
"2901.7350000003353","","","recognition","survey-text","464","1535466","0.0-6.0-3.65","2868108","co38608","norming","","","{""guess"":""helicopter""}","","../img/tt/1154tt.jpg","",""
"null","../img/gs/1154gs.jpg","null","reveal","image-keyboard-response","465","1537467","0.0-6.0-4.65","2868108","co38608","norming","","","","","","",""
"null","../img/tt/1154tt.jpg","null","mooney2","image-keyboard-response","466","1539469","0.0-6.0-5.65","2868108","co38608","norming","","","","","","",""
"2075.2000000001863","","","post_reveal_questions","survey-likert","467","1541546","0.0-6.0-6.65","2868108","co38608","norming","","","{""aha"":6}","[0]","../img/tt/1154tt.jpg","",""
"null","<div style=""font-size:60px;""> </div>","null","fixation","html-keyboard-response","468","1541753","0.0-6.0-0.66","2868108","co38608","norming","","","","","","",""
"null","../img/tt/123tt.jpg","null","mooney1","image-keyboard-response","469","1544764","0.0-6.0-1.66","2868108","co38608","norming","","","","","","",""
"9931.61499999999","","","post_mooney1_questions","survey-likert","470","1554698","0.0-6.0-2.66","2868108","co38608","norming","","","{""curiosity"":5,""confidence"":1}","[0,1]","../img/tt/123tt.jpg","",""
"6646.190000000177","","","recognition","survey-text","471","1561346","0.0-6.0-3.66","2868108","co38608","norming","","","{""guess"":""wafelbakmachine""}","","../img/tt/123tt.jpg","",""
"null","../img/gs/123gs.jpg","null","reveal","image-keyboard-response","472","1563357","0.0-6.0-4.66","2868108","co38608","norming","","","","","","",""
"null","../img/tt/123tt.jpg","null","mooney2","image-keyboard-response","473","1565366","0.0-6.0-5.66","2868108","co38608","norming","","","","","","",""
"2498.3549999999814","","","post_reveal_questions","survey-likert","474","1567866","0.0-6.0-6.66","2868108","co38608","norming","","","{""aha"":6}","[0]","../img/tt/123tt.jpg","",""
"null","<div style=""font-size:60px;""> </div>","null","fixation","html-keyboard-response","475","1568069","0.0-6.0-0.67","2868108","co38608","norming","","","","","","",""
"null","../img/tt/1353tt.jpg","null","mooney1","image-keyboard-response","476","1571074","0.0-6.0-1.67","2868108","co38608","norming","","","","","","",""
"5325.449999999953","","","post_mooney1_questions","survey-likert","477","1576402","0.0-6.0-2.67","2868108","co38608","norming","","","{""curiosity"":5,""confidence"":2}","[0,1]","../img/tt/1353tt.jpg","",""
"4933.97499999986","","","recognition","survey-text","478","1581340","0.0-6.0-3.67","2868108","co38608","norming","","","{""guess"":""hamburger""}","","../img/tt/1353tt.jpg","",""
"null","../img/gs/1353gs.jpg","null","reveal","image-keyboard-response","479","1583345","0.0-6.0-4.67","2868108","co38608","norming","","","","","","",""
"null","../img/tt/1353tt.jpg","null","mooney2","image-keyboard-response","480","1585350","0.0-6.0-5.67","2868108","co38608","norming","","","","","","",""
"3779.7150000003166","","","post_reveal_questions","survey-likert","481","1589132","0.0-6.0-6.67","2868108","co38608","norming","","","{""aha"":5}","[0]","../img/tt/1353tt.jpg","",""
"null","<div style=""font-size:60px;""> </div>","null","fixation","html-keyboard-response","482","1589343","0.0-6.0-0.68","2868108","co38608","norming","","","","","","",""
"null","../img/tt/584tt.jpg","null","mooney1","image-keyboard-response","483","1592346","0.0-6.0-1.68","2868108","co38608","norming","","","","","","",""
"7048.52500000014","","","post_mooney1_questions","survey-likert","484","1599396","0.0-6.0-2.68","2868108","co38608","norming","","","{""curiosity"":1,""confidence"":5}","[0,1]","../img/tt/584tt.jpg","",""
"3382.195000000065","","","recognition","survey-text","485","1602780","0.0-6.0-3.68","2868108","co38608","norming","","","{""guess"":""sinaasappel""}","","../img/tt/584tt.jpg","",""
"null","../img/gs/584gs.jpg","null","reveal","image-keyboard-response","486","1604788","0.0-6.0-4.68","2868108","co38608","norming","","","","","","",""
"null","../img/tt/584tt.jpg","null","mooney2","image-keyboard-response","487","1606791","0.0-6.0-5.68","2868108","co38608","norming","","","","","","",""
"2955.350000000093","","","post_reveal_questions","survey-likert","488","1609748","0.0-6.0-6.68","2868108","co38608","norming","","","{""aha"":6}","[0]","../img/tt/584tt.jpg","",""
"null","<div style=""font-size:60px;""> </div>","null","fixation","html-keyboard-response","489","1609957","0.0-6.0-0.69","2868108","co38608","norming","","","","","","",""
"null","../img/tt/126tt.jpg","null","mooney1","image-keyboard-response","490","1612968","0.0-6.0-1.69","2868108","co38608","norming","","","","","","",""
"4289.655000000028","","","post_mooney1_questions","survey-likert","491","1617260","0.0-6.0-2.69","2868108","co38608","norming","","","{""curiosity"":0,""confidence"":6}","[0,1]","../img/tt/126tt.jpg","",""
"1494.0700000000652","","","recognition","survey-text","492","1618756","0.0-6.0-3.69","2868108","co38608","norming","","","{""guess"":""koe""}","","../img/tt/126tt.jpg","",""
"null","../img/gs/126gs.jpg","null","reveal","image-keyboard-response","493","1620759","0.0-6.0-4.69","2868108","co38608","norming","","","","","","",""
"null","../img/tt/126tt.jpg","null","mooney2","image-keyboard-response","494","1622761","0.0-6.0-5.69","2868108","co38608","norming","","","","","","",""
"3977.7000000001863","","","post_reveal_questions","survey-likert","495","1626740","0.0-6.0-6.69","2868108","co38608","norming","","","{""aha"":0}","[0]","../img/tt/126tt.jpg","",""
"null","<div style=""font-size:60px;""> </div>","null","fixation","html-keyboard-response","496","1626949","0.0-6.0-0.70","2868108","co38608","norming","","","","","","",""
"null","../img/tt/140tt.jpg","null","mooney1","image-keyboard-response","497","1629951","0.0-6.0-1.70","2868108","co38608","norming","","","","","","",""
"3634.7549999998882","","","post_mooney1_questions","survey-likert","498","1633588","0.0-6.0-2.70","2868108","co38608","norming","","","{""curiosity"":0,""confidence"":6}","[0,1]","../img/tt/140tt.jpg","",""
"2526.4300000001676","","","recognition","survey-text","499","1636116","0.0-6.0-3.70","2868108","co38608","norming","","","{""guess"":""vorken""}","","../img/tt/140tt.jpg","",""
"null","../img/gs/140gs.jpg","null","reveal","image-keyboard-response","500","1638122","0.0-6.0-4.70","2868108","co38608","norming","","","","","","",""
"null","../img/tt/140tt.jpg","null","mooney2","image-keyboard-response","501","1640130","0.0-6.0-5.70","2868108","co38608","norming","","","","","","",""
"3293.7299999997485","","","post_reveal_questions","survey-likert","502","1643425","0.0-6.0-6.70","2868108","co38608","norming","","","{""aha"":0}","[0]","../img/tt/140tt.jpg","",""
"null","<div style=""font-size:60px;""> </div>","null","fixation","html-keyboard-response","503","1643628","0.0-6.0-0.71","2868108","co38608","norming","","","","","","",""
"null","../img/tt/497tt.jpg","null","mooney1","image-keyboard-response","504","1646635","0.0-6.0-1.71","2868108","co38608","norming","","","","","","",""
"6627.459999999963","","","post_mooney1_questions","survey-likert","505","1653266","0.0-6.0-2.71","2868108","co38608","norming","","","{""curiosity"":5,""confidence"":2}","[0,1]","../img/tt/497tt.jpg","",""
"3542.0400000000373","","","recognition","survey-text","506","1656809","0.0-6.0-3.71","2868108","co38608","norming","","","{""guess"":""kaasbol""}","","../img/tt/497tt.jpg","",""
"null","../img/gs/497gs.jpg","null","reveal","image-keyboard-response","507","1658816","0.0-6.0-4.71","2868108","co38608","norming","","","","","","",""
"null","../img/tt/497tt.jpg","null","mooney2","image-keyboard-response","508","1660817","0.0-6.0-5.71","2868108","co38608","norming","","","","","","",""
"1607.3599999998696","","","post_reveal_questions","survey-likert","509","1662425","0.0-6.0-6.71","2868108","co38608","norming","","","{""aha"":6}","[0]","../img/tt/497tt.jpg","",""
"null","<div style=""font-size:60px;""> </div>","null","fixation","html-keyboard-response","510","1662632","0.0-6.0-0.72","2868108","co38608","norming","","","","","","",""
"null","../img/tt/084tt.jpg","null","mooney1","image-keyboard-response","511","1665635","0.0-6.0-1.72","2868108","co38608","norming","","","","","","",""
"3340.2950000001583","","","post_mooney1_questions","survey-likert","512","1668978","0.0-6.0-2.72","2868108","co38608","norming","","","{""curiosity"":0,""confidence"":6}","[0,1]","../img/tt/084tt.jpg","",""
"1846.2299999999814","","","recognition","survey-text","513","1670825","0.0-6.0-3.72","2868108","co38608","norming","","","{""guess"":""eend""}","","../img/tt/084tt.jpg","",""
"null","../img/gs/084gs.jpg","null","reveal","image-keyboard-response","514","1672832","0.0-6.0-4.72","2868108","co38608","norming","","","","","","",""
"null","../img/tt/084tt.jpg","null","mooney2","image-keyboard-response","515","1674835","0.0-6.0-5.72","2868108","co38608","norming","","","","","","",""
"2236.7800000002608","","","post_reveal_questions","survey-likert","516","1677073","0.0-6.0-6.72","2868108","co38608","norming","","","{""aha"":3}","[0]","../img/tt/084tt.jpg","",""
"null","<div style=""font-size:60px;""> </div>","null","fixation","html-keyboard-response","517","1677278","0.0-6.0-0.73","2868108","co38608","norming","","","","","","",""
"null","../img/tt/319tt.jpg","null","mooney1","image-keyboard-response","518","1680282","0.0-6.0-1.73","2868108","co38608","norming","","","","","","",""
"4870.504999999888","","","post_mooney1_questions","survey-likert","519","1685154","0.0-6.0-2.73","2868108","co38608","norming","","","{""curiosity"":1,""confidence"":5}","[0,1]","../img/tt/319tt.jpg","",""
"2061.9799999999814","","","recognition","survey-text","520","1687217","0.0-6.0-3.73","2868108","co38608","norming","","","{""guess"":""ezel""}","","../img/tt/319tt.jpg","",""
"null","../img/gs/319gs.jpg","null","reveal","image-keyboard-response","521","1689227","0.0-6.0-4.73","2868108","co38608","norming","","","","","","",""
"null","../img/tt/319tt.jpg","null","mooney2","image-keyboard-response","522","1691229","0.0-6.0-5.73","2868108","co38608","norming","","","","","","",""
"2378.034999999916","","","post_reveal_questions","survey-likert","523","1693609","0.0-6.0-6.73","2868108","co38608","norming","","","{""aha"":1}","[0]","../img/tt/319tt.jpg","",""
"null","<div style=""font-size:60px;""> </div>","null","fixation","html-keyboard-response","524","1693811","0.0-6.0-0.74","2868108","co38608","norming","","","","","","",""
"null","../img/tt/044tt.jpg","null","mooney1","image-keyboard-response","525","1696817","0.0-6.0-1.74","2868108","co38608","norming","","","","","","",""
"4278.39000000013","","","post_mooney1_questions","survey-likert","526","1701090","0.0-6.0-2.74","2868108","co38608","norming","","","{""curiosity"":4,""confidence"":4}","[0,1]","../img/tt/044tt.jpg","",""
"3118.3950000002515","","","recognition","survey-text","527","1704210","0.0-6.0-3.74","2868108","co38608","norming","","","{""guess"":""laptop""}","","../img/tt/044tt.jpg","",""
"null","../img/gs/044gs.jpg","null","reveal","image-keyboard-response","528","1706212","0.0-6.0-4.74","2868108","co38608","norming","","","","","","",""
"null","../img/tt/044tt.jpg","null","mooney2","image-keyboard-response","529","1708214","0.0-6.0-5.74","2868108","co38608","norming","","","","","","",""
"2498.565000000177","","","post_reveal_questions","survey-likert","530","1710714","0.0-6.0-6.74","2868108","co38608","norming","","","{""aha"":6}","[0]","../img/tt/044tt.jpg","",""
"null","<div style=""font-size:60px;""> </div>","null","fixation","html-keyboard-response","531","1710921","0.0-6.0-0.75","2868108","co38608","norming","","","","","","",""
"null","../img/tt/1255tt.jpg","null","mooney1","image-keyboard-response","532","1713927","0.0-6.0-1.75","2868108","co38608","norming","","","","","","",""
"3744.5500000000466","","","post_mooney1_questions","survey-likert","533","1717674","0.0-6.0-2.75","2868108","co38608","norming","","","{""curiosity"":6,""confidence"":1}","[0,1]","../img/tt/1255tt.jpg","",""
"3086.179999999935","","","recognition","survey-text","534","1720762","0.0-6.0-3.75","2868108","co38608","norming","","","{""guess"":""eend""}","","../img/tt/1255tt.jpg","",""
"null","../img/gs/1255gs.jpg","null","reveal","image-keyboard-response","535","1722763","0.0-6.0-4.75","2868108","co38608","norming","","","","","","",""
"null","../img/tt/1255tt.jpg","null","mooney2","image-keyboard-response","536","1724765","0.0-6.0-5.75","2868108","co38608","norming","","","","","","",""
"1819.4150000000373","","","post_reveal_questions","survey-likert","537","1726586","0.0-6.0-6.75","2868108","co38608","norming","","","{""aha"":6}","[0]","../img/tt/1255tt.jpg","",""
"null","<div style=""font-size:60px;""> </div>","null","fixation","html-keyboard-response","538","1726796","0.0-6.0-0.76","2868108","co38608","norming","","","","","","",""
"null","../img/tt/1272tt.jpg","null","mooney1","image-keyboard-response","539","1729801","0.0-6.0-1.76","2868108","co38608","norming","","","","","","",""
"4847.72499999986","","","post_mooney1_questions","survey-likert","540","1734650","0.0-6.0-2.76","2868108","co38608","norming","","","{""curiosity"":1,""confidence"":5}","[0,1]","../img/tt/1272tt.jpg","",""
"2309.7700000000186","","","recognition","survey-text","541","1736962","0.0-6.0-3.76","2868108","co38608","norming","","","{""guess"":""varken""}","","../img/tt/1272tt.jpg","",""
"null","../img/gs/1272gs.jpg","null","reveal","image-keyboard-response","542","1738964","0.0-6.0-4.76","2868108","co38608","norming","","","","","","",""
"null","../img/tt/1272tt.jpg","null","mooney2","image-keyboard-response","543","1740969","0.0-6.0-5.76","2868108","co38608","norming","","","","","","",""
"3726.565000000177","","","post_reveal_questions","survey-likert","544","1744698","0.0-6.0-6.76","2868108","co38608","norming","","","{""aha"":1}","[0]","../img/tt/1272tt.jpg","",""
"null","<div style=""font-size:60px;""> </div>","null","fixation","html-keyboard-response","545","1744905","0.0-6.0-0.77","2868108","co38608","norming","","","","","","",""
"null","../img/tt/049tt.jpg","null","mooney1","image-keyboard-response","546","1747916","0.0-6.0-1.77","2868108","co38608","norming","","","","","","",""
"5596.540000000037","","","post_mooney1_questions","survey-likert","547","1753514","0.0-6.0-2.77","2868108","co38608","norming","","","{""curiosity"":1,""confidence"":3}","[0,1]","../img/tt/049tt.jpg","",""
"12646.104999999981","","","recognition","survey-text","548","1766162","0.0-6.0-3.77","2868108","co38608","norming","","","{""guess"":""miereneter""}","","../img/tt/049tt.jpg","",""
"null","../img/gs/049gs.jpg","null","reveal","image-keyboard-response","549","1768165","0.0-6.0-4.77","2868108","co38608","norming","","","","","","",""
"null","../img/tt/049tt.jpg","null","mooney2","image-keyboard-response","550","1770170","0.0-6.0-5.77","2868108","co38608","norming","","","","","","",""
"2494.29000000027","","","post_reveal_questions","survey-likert","551","1772666","0.0-6.0-6.77","2868108","co38608","norming","","","{""aha"":5}","[0]","../img/tt/049tt.jpg","",""
