"rt","stimulus","key_press","test_part","trial_type","trial_index","time_elapsed","internal_node_id","totalTime","subject","experiment_name","button_pressed","success","responses","question_order","currentStim","old","correct"
"27676.735000000917","Welcome to the experiment. This is an online experiment so please don't close the tab/window until we say goodbye.  Press any key to begin.","75","instructions","html-keyboard-response","0","27691","0.0-0.0","2924939","co38755","norming","","","","","","",""
"126376.47500000094","<div style='word-wrap: break-word; width: 900px'><h3>Please consider this information carefully before deciding whether to participate in this research</h3><ul style='text-align: left; font-size: .8em;'><li><b>Purpose of the research</b>: To examine how people process images.</li><li><b>What you will do in this research</b>:  Stimuli (images) will be presented on the computer and you will be asked different questions about them.</li><li><b>Time required</b>: Participation will take between 45 and 60 minutes to complete.</li><li><b>Risks</b>:  There are no anticipated risks associated with participating in this study. The effects of participating should be comparable to those you would experience from viewing a computer monitor for 30 minutes and using a mouse or keyboard.</li><li><b>Benefits</b>:  This study provides no benefits to you individually except for the credit. The study provides important information about the nature of perception and learning.</li><li><b>Confidentiality</b>:  Your participation in this study will remain confidential. No personally identifiable information will be associated with your data. Your de-identified data may be shared with other researchers and used in future projects.</li><li><b>Participation and withdrawal</b>:  Your participation in this study is completely voluntary and you may refuse to participate or you may choose to withdraw at any time without penalty.</li><li><b>How to contact the researchers</b>: If you have questions or concerns about your participation or payment, or want to request a summary of research findings, please contact Sander Van de Cruys (KU Leuven), at sander.vandecruys@kuleuven.be.</li></ul><p>The nature and purpose of this research have been sufficiently explained and I agree to participate in this study.  I understand that I am free to withdraw at any time without incurring any penalty.</p><p>Please consent by clicking the button below to continue. Otherwise, please exit the study at this time.</p></div>","","instructions","html-button-response","1","154066","0.0-1.0","2924939","co38755","norming","0","","","","","",""
"","","","instructions","fullscreen","2","159135","0.0-2.0","2924939","co38755","norming","","true","","","","",""
"57167.09500000073","","","sona","survey-html-form","3","216311","0.0-3.0","2924939","co38755","norming","","","[{""name"":""sonaid"",""value"":""38755""},{""name"":""debrief"",""value"":""yes""},{""name"":""datajoin"",""value"":""yes""}]","","","",""
"106796.83999999904","<div style='word-wrap: break-word; width: 900px'><h3>Instructions</h3><p>This experiment will have 3 parts. In the first part you will see a series of distorted images like the one below on the left. As you can see in the righthand image, the distorted images are derived from actual photographs. In what follows, you will <strong>briefly</strong> be presented with <strong>only</strong> the distorted image.</p> <div style='float: left; margin-right: 20px;'><img src='../img/018tt.jpg' height='250' width='250'></img></div><div style='float: right; margin-left: 20px;'><img src='../img/018gs.jpg' height='250' width='250'></img></div><p>Subsequently you will be asked a few questions about the image: One question on how <strong>curious</strong> you are about the solution and one on how <strong>confident</strong> you are that you know the solution.</p>Next, we ask you to make a guess on what is in the image. Note that it is OK to name just the <strong>basic level category</strong>. For example when you see a parrot in the image, 'parrot' will obviously be a correct answer but also correct is 'bird'. However, 'animal' will <strong>not</strong> be counted as a correct response. For the example above, 'rose' would be correct or 'flower', but not 'plant'. When soccer players are depicted, 'soccer', 'football', 'soccer players' will be correct, but not 'humans', 'outdoors', or 'sports'. You do not need to describe the image in full, just name the main object in it <strong>in one or two words</strong>. All images depict objects from one of the following broad level categories: animals, inanimate objects, plants, sports, vehicles, and food. Recognizing means knowing <strong>more</strong> than these broad labels for a given image. But we always encourage you to <strong>make a guess</strong> if you can. Note that you are allowed to use <strong>Dutch and English</strong> in your answers, whatever comes easiest for you.</p><p>Press any key to continue.</p></div>","74","instructions","html-keyboard-response","4","323112","0.0-4.0","2924939","co38755","norming","","","","","","",""
"15644.704999998794","<div style='word-wrap: break-word; width: 900px'><h3>Instructions</h3> <p>Next, the solution image will be revealed to you and you'll be asked to indicate how strong your <strong>aha-experience</strong> was after seeing the solution. This describes the positive feeling of the 'click' you sometimes experience, when the pieces of the 'puzzle' fall together and you suddenly have 'insight' in the image.</p><img src='aha.jpg' height='188' width='250'></img><p>Note that there are no right or wrong answers. We are interested in what <strong>you</strong> see in the image and how <strong>you</strong> feel about it.</p><p>Press any key to start the experiment.</p></div>","77","instructions","html-keyboard-response","5","338759","0.0-5.0","2924939","co38755","norming","","","","","","",""
"null","<div style=""font-size:60px;""> </div>","null","fixation","html-keyboard-response","6","338961","0.0-6.0-0.0","2924939","co38755","norming","","","","","","",""
"null","../img/tt/1116tt.jpg","null","mooney1","image-keyboard-response","7","341972","0.0-6.0-1.0","2924939","co38755","norming","","","","","","",""
"8081.140000000247","","","post_mooney1_questions","survey-likert","8","350054","0.0-6.0-2.0","2924939","co38755","norming","","","{""curiosity"":5,""confidence"":4}","[0,1]","../img/tt/1116tt.jpg","",""
"5965.409999998868","","","recognition","survey-text","9","356022","0.0-6.0-3.0","2924939","co38755","norming","","","{""guess"":""car""}","","../img/tt/1116tt.jpg","",""
"null","../img/gs/1116gs.jpg","null","reveal","image-keyboard-response","10","358024","0.0-6.0-4.0","2924939","co38755","norming","","","","","","",""
"null","../img/tt/1116tt.jpg","null","mooney2","image-keyboard-response","11","360032","0.0-6.0-5.0","2924939","co38755","norming","","","","","","",""
"4900.520000001066","","","post_reveal_questions","survey-likert","12","364934","0.0-6.0-6.0","2924939","co38755","norming","","","{""aha"":3}","[0]","../img/tt/1116tt.jpg","",""
"null","<div style=""font-size:60px;""> </div>","null","fixation","html-keyboard-response","13","365136","0.0-6.0-0.1","2924939","co38755","norming","","","","","","",""
"null","../img/tt/036tt.jpg","null","mooney1","image-keyboard-response","14","368143","0.0-6.0-1.1","2924939","co38755","norming","","","","","","",""
"5588.3949999988545","","","post_mooney1_questions","survey-likert","15","373734","0.0-6.0-2.1","2924939","co38755","norming","","","{""curiosity"":5,""confidence"":1}","[0,1]","../img/tt/036tt.jpg","",""
"4045.959999999439","","","recognition","survey-text","16","377782","0.0-6.0-3.1","2924939","co38755","norming","","","{""guess"":""tree""}","","../img/tt/036tt.jpg","",""
"null","../img/gs/036gs.jpg","null","reveal","image-keyboard-response","17","379788","0.0-6.0-4.1","2924939","co38755","norming","","","","","","",""
"null","../img/tt/036tt.jpg","null","mooney2","image-keyboard-response","18","381797","0.0-6.0-5.1","2924939","co38755","norming","","","","","","",""
"4494.609999999753","","","post_reveal_questions","survey-likert","19","386294","0.0-6.0-6.1","2924939","co38755","norming","","","{""aha"":4}","[0]","../img/tt/036tt.jpg","",""
"null","<div style=""font-size:60px;""> </div>","null","fixation","html-keyboard-response","20","386505","0.0-6.0-0.2","2924939","co38755","norming","","","","","","",""
"null","../img/tt/584tt.jpg","null","mooney1","image-keyboard-response","21","389513","0.0-6.0-1.2","2924939","co38755","norming","","","","","","",""
"13290.104999999981","","","post_mooney1_questions","survey-likert","22","402806","0.0-6.0-2.2","2924939","co38755","norming","","","{""curiosity"":4,""confidence"":2}","[0,1]","../img/tt/584tt.jpg","",""
"7558.264999999665","","","recognition","survey-text","23","410366","0.0-6.0-3.2","2924939","co38755","norming","","","{""guess"":""""}","","../img/tt/584tt.jpg","",""
"null","../img/gs/584gs.jpg","null","reveal","image-keyboard-response","24","412370","0.0-6.0-4.2","2924939","co38755","norming","","","","","","",""
"null","../img/tt/584tt.jpg","null","mooney2","image-keyboard-response","25","414373","0.0-6.0-5.2","2924939","co38755","norming","","","","","","",""
"3342.9300000006915","","","post_reveal_questions","survey-likert","26","417718","0.0-6.0-6.2","2924939","co38755","norming","","","{""aha"":2}","[0]","../img/tt/584tt.jpg","",""
"null","<div style=""font-size:60px;""> </div>","null","fixation","html-keyboard-response","27","417921","0.0-6.0-0.3","2924939","co38755","norming","","","","","","",""
"null","../img/tt/1242tt.jpg","null","mooney1","image-keyboard-response","28","420923","0.0-6.0-1.3","2924939","co38755","norming","","","","","","",""
"10784.849999999977","","","post_mooney1_questions","survey-likert","29","431710","0.0-6.0-2.3","2924939","co38755","norming","","","{""curiosity"":4,""confidence"":1}","[0,1]","../img/tt/1242tt.jpg","",""
"3182.024999998277","","","recognition","survey-text","30","434894","0.0-6.0-3.3","2924939","co38755","norming","","","{""guess"":""dog""}","","../img/tt/1242tt.jpg","",""
"null","../img/gs/1242gs.jpg","null","reveal","image-keyboard-response","31","436897","0.0-6.0-4.3","2924939","co38755","norming","","","","","","",""
"null","../img/tt/1242tt.jpg","null","mooney2","image-keyboard-response","32","438900","0.0-6.0-5.3","2924939","co38755","norming","","","","","","",""
"2304.6399999985006","","","post_reveal_questions","survey-likert","33","441206","0.0-6.0-6.3","2924939","co38755","norming","","","{""aha"":5}","[0]","../img/tt/1242tt.jpg","",""
"null","<div style=""font-size:60px;""> </div>","null","fixation","html-keyboard-response","34","441407","0.0-6.0-0.4","2924939","co38755","norming","","","","","","",""
"null","../img/tt/296tt.jpg","null","mooney1","image-keyboard-response","35","444415","0.0-6.0-1.4","2924939","co38755","norming","","","","","","",""
"3885.1549999999115","","","post_mooney1_questions","survey-likert","36","448297","0.0-6.0-2.4","2924939","co38755","norming","","","{""curiosity"":3,""confidence"":1}","[0,1]","../img/tt/296tt.jpg","",""
"4205.959999999264","","","recognition","survey-text","37","452504","0.0-6.0-3.4","2924939","co38755","norming","","","{""guess"":""computer""}","","../img/tt/296tt.jpg","",""
"null","../img/gs/296gs.jpg","null","reveal","image-keyboard-response","38","454506","0.0-6.0-4.4","2924939","co38755","norming","","","","","","",""
"null","../img/tt/296tt.jpg","null","mooney2","image-keyboard-response","39","456513","0.0-6.0-5.4","2924939","co38755","norming","","","","","","",""
"3917.4450000009383","","","post_reveal_questions","survey-likert","40","460433","0.0-6.0-6.4","2924939","co38755","norming","","","{""aha"":1}","[0]","../img/tt/296tt.jpg","",""
"null","<div style=""font-size:60px;""> </div>","null","fixation","html-keyboard-response","41","460637","0.0-6.0-0.5","2924939","co38755","norming","","","","","","",""
"null","../img/tt/1262tt.jpg","null","mooney1","image-keyboard-response","42","463649","0.0-6.0-1.5","2924939","co38755","norming","","","","","","",""
"5061.28999999963","","","post_mooney1_questions","survey-likert","43","468713","0.0-6.0-2.5","2924939","co38755","norming","","","{""curiosity"":4,""confidence"":3}","[0,1]","../img/tt/1262tt.jpg","",""
"3038.0799999984447","","","recognition","survey-text","44","471753","0.0-6.0-3.5","2924939","co38755","norming","","","{""guess"":""bird""}","","../img/tt/1262tt.jpg","",""
"null","../img/gs/1262gs.jpg","null","reveal","image-keyboard-response","45","473758","0.0-6.0-4.5","2924939","co38755","norming","","","","","","",""
"null","../img/tt/1262tt.jpg","null","mooney2","image-keyboard-response","46","475766","0.0-6.0-5.5","2924939","co38755","norming","","","","","","",""
"4136.140000000538","","","post_reveal_questions","survey-likert","47","479904","0.0-6.0-6.5","2924939","co38755","norming","","","{""aha"":1}","[0]","../img/tt/1262tt.jpg","",""
"null","<div style=""font-size:60px;""> </div>","null","fixation","html-keyboard-response","48","480114","0.0-6.0-0.6","2924939","co38755","norming","","","","","","",""
"null","../img/tt/598tt.jpg","null","mooney1","image-keyboard-response","49","483122","0.0-6.0-1.6","2924939","co38755","norming","","","","","","",""
"8868.255000001227","","","post_mooney1_questions","survey-likert","50","491993","0.0-6.0-2.6","2924939","co38755","norming","","","{""curiosity"":2,""confidence"":1}","[0,1]","../img/tt/598tt.jpg","",""
"726.3400000010733","","","recognition","survey-text","51","492721","0.0-6.0-3.6","2924939","co38755","norming","","","{""guess"":""""}","","../img/tt/598tt.jpg","",""
"null","../img/gs/598gs.jpg","null","reveal","image-keyboard-response","52","494731","0.0-6.0-4.6","2924939","co38755","norming","","","","","","",""
"null","../img/tt/598tt.jpg","null","mooney2","image-keyboard-response","53","496732","0.0-6.0-5.6","2924939","co38755","norming","","","","","","",""
"1914.6599999985192","","","post_reveal_questions","survey-likert","54","498649","0.0-6.0-6.6","2924939","co38755","norming","","","{""aha"":5}","[0]","../img/tt/598tt.jpg","",""
"null","<div style=""font-size:60px;""> </div>","null","fixation","html-keyboard-response","55","498850","0.0-6.0-0.7","2924939","co38755","norming","","","","","","",""
"null","../img/tt/184tt.jpg","null","mooney1","image-keyboard-response","56","501853","0.0-6.0-1.7","2924939","co38755","norming","","","","","","",""
"5112.984999999753","","","post_mooney1_questions","survey-likert","57","506974","0.0-6.0-2.7","2924939","co38755","norming","","","{""curiosity"":4,""confidence"":2}","[0,1]","../img/tt/184tt.jpg","",""
"933.870000000752","","","recognition","survey-text","58","507909","0.0-6.0-3.7","2924939","co38755","norming","","","{""guess"":""""}","","../img/tt/184tt.jpg","",""
"null","../img/gs/184gs.jpg","null","reveal","image-keyboard-response","59","509919","0.0-6.0-4.7","2924939","co38755","norming","","","","","","",""
"null","../img/tt/184tt.jpg","null","mooney2","image-keyboard-response","60","511926","0.0-6.0-5.7","2924939","co38755","norming","","","","","","",""
"4887.290000000561","","","post_reveal_questions","survey-likert","61","516814","0.0-6.0-6.7","2924939","co38755","norming","","","{""aha"":3}","[0]","../img/tt/184tt.jpg","",""
"null","<div style=""font-size:60px;""> </div>","null","fixation","html-keyboard-response","62","517015","0.0-6.0-0.8","2924939","co38755","norming","","","","","","",""
"null","../img/tt/112tt.jpg","null","mooney1","image-keyboard-response","63","520020","0.0-6.0-1.8","2924939","co38755","norming","","","","","","",""
"4201.010000000708","","","post_mooney1_questions","survey-likert","64","524222","0.0-6.0-2.8","2924939","co38755","norming","","","{""curiosity"":4,""confidence"":2}","[0,1]","../img/tt/112tt.jpg","",""
"2502.1749999996973","","","recognition","survey-text","65","526726","0.0-6.0-3.8","2924939","co38755","norming","","","{""guess"":""beer""}","","../img/tt/112tt.jpg","",""
"null","../img/gs/112gs.jpg","null","reveal","image-keyboard-response","66","528732","0.0-6.0-4.8","2924939","co38755","norming","","","","","","",""
"null","../img/tt/112tt.jpg","null","mooney2","image-keyboard-response","67","530734","0.0-6.0-5.8","2924939","co38755","norming","","","","","","",""
"4533.185000000172","","","post_reveal_questions","survey-likert","68","535270","0.0-6.0-6.8","2924939","co38755","norming","","","{""aha"":3}","[0]","../img/tt/112tt.jpg","",""
"null","<div style=""font-size:60px;""> </div>","null","fixation","html-keyboard-response","69","535473","0.0-6.0-0.9","2924939","co38755","norming","","","","","","",""
"null","../img/tt/1084tt.jpg","null","mooney1","image-keyboard-response","70","538482","0.0-6.0-1.9","2924939","co38755","norming","","","","","","",""
"4937.605000001029","","","post_mooney1_questions","survey-likert","71","543422","0.0-6.0-2.9","2924939","co38755","norming","","","{""curiosity"":3,""confidence"":1}","[0,1]","../img/tt/1084tt.jpg","",""
"2917.9600000006612","","","recognition","survey-text","72","546341","0.0-6.0-3.9","2924939","co38755","norming","","","{""guess"":""fruit""}","","../img/tt/1084tt.jpg","",""
"null","../img/gs/1084gs.jpg","null","reveal","image-keyboard-response","73","548343","0.0-6.0-4.9","2924939","co38755","norming","","","","","","",""
"null","../img/tt/1084tt.jpg","null","mooney2","image-keyboard-response","74","550345","0.0-6.0-5.9","2924939","co38755","norming","","","","","","",""
"1514.1300000014016","","","post_reveal_questions","survey-likert","75","551862","0.0-6.0-6.9","2924939","co38755","norming","","","{""aha"":2}","[0]","../img/tt/1084tt.jpg","",""
"null","<div style=""font-size:60px;""> </div>","null","fixation","html-keyboard-response","76","552064","0.0-6.0-0.10","2924939","co38755","norming","","","","","","",""
"null","../img/tt/1309tt.jpg","null","mooney1","image-keyboard-response","77","555075","0.0-6.0-1.10","2924939","co38755","norming","","","","","","",""
"4936.120000000228","","","post_mooney1_questions","survey-likert","78","560014","0.0-6.0-2.10","2924939","co38755","norming","","","{""curiosity"":1,""confidence"":1}","[0,1]","../img/tt/1309tt.jpg","",""
"2902.330000000773","","","recognition","survey-text","79","562918","0.0-6.0-3.10","2924939","co38755","norming","","","{""guess"":""car""}","","../img/tt/1309tt.jpg","",""
"null","../img/gs/1309gs.jpg","null","reveal","image-keyboard-response","80","564925","0.0-6.0-4.10","2924939","co38755","norming","","","","","","",""
"null","../img/tt/1309tt.jpg","null","mooney2","image-keyboard-response","81","566935","0.0-6.0-5.10","2924939","co38755","norming","","","","","","",""
"4189.655000000144","","","post_reveal_questions","survey-likert","82","571127","0.0-6.0-6.10","2924939","co38755","norming","","","{""aha"":1}","[0]","../img/tt/1309tt.jpg","",""
"null","<div style=""font-size:60px;""> </div>","null","fixation","html-keyboard-response","83","571336","0.0-6.0-0.11","2924939","co38755","norming","","","","","","",""
"null","../img/tt/603tt.jpg","null","mooney1","image-keyboard-response","84","574341","0.0-6.0-1.11","2924939","co38755","norming","","","","","","",""
"12807.295000000508","","","post_mooney1_questions","survey-likert","85","587151","0.0-6.0-2.11","2924939","co38755","norming","","","{""curiosity"":4,""confidence"":0}","[0,1]","../img/tt/603tt.jpg","",""
"838.2000000001863","","","recognition","survey-text","86","587991","0.0-6.0-3.11","2924939","co38755","norming","","","{""guess"":""""}","","../img/tt/603tt.jpg","",""
"null","../img/gs/603gs.jpg","null","reveal","image-keyboard-response","87","590000","0.0-6.0-4.11","2924939","co38755","norming","","","","","","",""
"null","../img/tt/603tt.jpg","null","mooney2","image-keyboard-response","88","592006","0.0-6.0-5.11","2924939","co38755","norming","","","","","","",""
"1903.8950000012992","","","post_reveal_questions","survey-likert","89","593911","0.0-6.0-6.11","2924939","co38755","norming","","","{""aha"":4}","[0]","../img/tt/603tt.jpg","",""
"null","<div style=""font-size:60px;""> </div>","null","fixation","html-keyboard-response","90","594112","0.0-6.0-0.12","2924939","co38755","norming","","","","","","",""
"null","../img/tt/053tt.jpg","null","mooney1","image-keyboard-response","91","597120","0.0-6.0-1.12","2924939","co38755","norming","","","","","","",""
"5524.085000000894","","","post_mooney1_questions","survey-likert","92","602647","0.0-6.0-2.12","2924939","co38755","norming","","","{""curiosity"":4,""confidence"":0}","[0,1]","../img/tt/053tt.jpg","",""
"750.1549999996787","","","recognition","survey-text","93","603399","0.0-6.0-3.12","2924939","co38755","norming","","","{""guess"":""""}","","../img/tt/053tt.jpg","",""
"null","../img/gs/053gs.jpg","null","reveal","image-keyboard-response","94","605403","0.0-6.0-4.12","2924939","co38755","norming","","","","","","",""
"null","../img/tt/053tt.jpg","null","mooney2","image-keyboard-response","95","607412","0.0-6.0-5.12","2924939","co38755","norming","","","","","","",""
"2320.170000000857","","","post_reveal_questions","survey-likert","96","609734","0.0-6.0-6.12","2924939","co38755","norming","","","{""aha"":2}","[0]","../img/tt/053tt.jpg","",""
"null","<div style=""font-size:60px;""> </div>","null","fixation","html-keyboard-response","97","609937","0.0-6.0-0.13","2924939","co38755","norming","","","","","","",""
"null","../img/tt/055tt.jpg","null","mooney1","image-keyboard-response","98","612939","0.0-6.0-1.13","2924939","co38755","norming","","","","","","",""
"3720.6800000004005","","","post_mooney1_questions","survey-likert","99","616663","0.0-6.0-2.13","2924939","co38755","norming","","","{""curiosity"":3,""confidence"":1}","[0,1]","../img/tt/055tt.jpg","",""
"4221.989999999991","","","recognition","survey-text","100","620887","0.0-6.0-3.13","2924939","co38755","norming","","","{""guess"":""rugzak""}","","../img/tt/055tt.jpg","",""
"null","../img/gs/055gs.jpg","null","reveal","image-keyboard-response","101","622894","0.0-6.0-4.13","2924939","co38755","norming","","","","","","",""
"null","../img/tt/055tt.jpg","null","mooney2","image-keyboard-response","102","624900","0.0-6.0-5.13","2924939","co38755","norming","","","","","","",""
"3656.7799999993294","","","post_reveal_questions","survey-likert","103","628552","0.0-6.0-6.13","2924939","co38755","norming","","","{""aha"":3}","[0]","../img/tt/055tt.jpg","",""
"null","<div style=""font-size:60px;""> </div>","null","fixation","html-keyboard-response","104","628759","0.0-6.0-0.14","2924939","co38755","norming","","","","","","",""
"null","../img/tt/1033tt.jpg","null","mooney1","image-keyboard-response","105","631763","0.0-6.0-1.14","2924939","co38755","norming","","","","","","",""
"4962.424999999814","","","post_mooney1_questions","survey-likert","106","636728","0.0-6.0-2.14","2924939","co38755","norming","","","{""curiosity"":3,""confidence"":2}","[0,1]","../img/tt/1033tt.jpg","",""
"5142.040000000619","","","recognition","survey-text","107","641872","0.0-6.0-3.14","2924939","co38755","norming","","","{""guess"":""football""}","","../img/tt/1033tt.jpg","",""
"null","../img/gs/1033gs.jpg","null","reveal","image-keyboard-response","108","643874","0.0-6.0-4.14","2924939","co38755","norming","","","","","","",""
"null","../img/tt/1033tt.jpg","null","mooney2","image-keyboard-response","109","645885","0.0-6.0-5.14","2924939","co38755","norming","","","","","","",""
"2744.6700000001583","","","post_reveal_questions","survey-likert","110","648632","0.0-6.0-6.14","2924939","co38755","norming","","","{""aha"":2}","[0]","../img/tt/1033tt.jpg","",""
"null","<div style=""font-size:60px;""> </div>","null","fixation","html-keyboard-response","111","648840","0.0-6.0-0.15","2924939","co38755","norming","","","","","","",""
"null","../img/tt/080tt.jpg","null","mooney1","image-keyboard-response","112","651843","0.0-6.0-1.15","2924939","co38755","norming","","","","","","",""
"4194.659999999218","","","post_mooney1_questions","survey-likert","113","656040","0.0-6.0-2.15","2924939","co38755","norming","","","{""curiosity"":2,""confidence"":1}","[0,1]","../img/tt/080tt.jpg","",""
"4518.244999999297","","","recognition","survey-text","114","660560","0.0-6.0-3.15","2924939","co38755","norming","","","{""guess"":""mushroom""}","","../img/tt/080tt.jpg","",""
"null","../img/gs/080gs.jpg","null","reveal","image-keyboard-response","115","662563","0.0-6.0-4.15","2924939","co38755","norming","","","","","","",""
"null","../img/tt/080tt.jpg","null","mooney2","image-keyboard-response","116","664568","0.0-6.0-5.15","2924939","co38755","norming","","","","","","",""
"1686.1399999997811","","","post_reveal_questions","survey-likert","117","666256","0.0-6.0-6.15","2924939","co38755","norming","","","{""aha"":4}","[0]","../img/tt/080tt.jpg","",""
"null","<div style=""font-size:60px;""> </div>","null","fixation","html-keyboard-response","118","666460","0.0-6.0-0.16","2924939","co38755","norming","","","","","","",""
"null","../img/tt/1012tt.jpg","null","mooney1","image-keyboard-response","119","669465","0.0-6.0-1.16","2924939","co38755","norming","","","","","","",""
"5468.339999999385","","","post_mooney1_questions","survey-likert","120","674936","0.0-6.0-2.16","2924939","co38755","norming","","","{""curiosity"":4,""confidence"":1}","[0,1]","../img/tt/1012tt.jpg","",""
"1061.5300000008428","","","recognition","survey-text","121","676000","0.0-6.0-3.16","2924939","co38755","norming","","","{""guess"":""""}","","../img/tt/1012tt.jpg","",""
"null","../img/gs/1012gs.jpg","null","reveal","image-keyboard-response","122","678010","0.0-6.0-4.16","2924939","co38755","norming","","","","","","",""
"null","../img/tt/1012tt.jpg","null","mooney2","image-keyboard-response","123","680018","0.0-6.0-5.16","2924939","co38755","norming","","","","","","",""
"2516.7249999993946","","","post_reveal_questions","survey-likert","124","682536","0.0-6.0-6.16","2924939","co38755","norming","","","{""aha"":5}","[0]","../img/tt/1012tt.jpg","",""
"null","<div style=""font-size:60px;""> </div>","null","fixation","html-keyboard-response","125","682737","0.0-6.0-0.17","2924939","co38755","norming","","","","","","",""
"null","../img/tt/496tt.jpg","null","mooney1","image-keyboard-response","126","685740","0.0-6.0-1.17","2924939","co38755","norming","","","","","","",""
"7049.545000001672","","","post_mooney1_questions","survey-likert","127","692790","0.0-6.0-2.17","2924939","co38755","norming","","","{""curiosity"":3,""confidence"":4}","[0,1]","../img/tt/496tt.jpg","",""
"2246.3299999998417","","","recognition","survey-text","128","695038","0.0-6.0-3.17","2924939","co38755","norming","","","{""guess"":""dog""}","","../img/tt/496tt.jpg","",""
"null","../img/gs/496gs.jpg","null","reveal","image-keyboard-response","129","697046","0.0-6.0-4.17","2924939","co38755","norming","","","","","","",""
"null","../img/tt/496tt.jpg","null","mooney2","image-keyboard-response","130","699050","0.0-6.0-5.17","2924939","co38755","norming","","","","","","",""
"3577.2199999992736","","","post_reveal_questions","survey-likert","131","702630","0.0-6.0-6.17","2924939","co38755","norming","","","{""aha"":1}","[0]","../img/tt/496tt.jpg","",""
"null","<div style=""font-size:60px;""> </div>","null","fixation","html-keyboard-response","132","702831","0.0-6.0-0.18","2924939","co38755","norming","","","","","","",""
"null","../img/tt/580tt.jpg","null","mooney1","image-keyboard-response","133","705835","0.0-6.0-1.18","2924939","co38755","norming","","","","","","",""
"3824.6749999998137","","","post_mooney1_questions","survey-likert","134","709662","0.0-6.0-2.18","2924939","co38755","norming","","","{""curiosity"":1,""confidence"":1}","[0,1]","../img/tt/580tt.jpg","",""
"4798.025000000023","","","recognition","survey-text","135","714462","0.0-6.0-3.18","2924939","co38755","norming","","","{""guess"":""scorpian""}","","../img/tt/580tt.jpg","",""
"null","../img/gs/580gs.jpg","null","reveal","image-keyboard-response","136","716464","0.0-6.0-4.18","2924939","co38755","norming","","","","","","",""
"null","../img/tt/580tt.jpg","null","mooney2","image-keyboard-response","137","718466","0.0-6.0-5.18","2924939","co38755","norming","","","","","","",""
"1369.2399999999907","","","post_reveal_questions","survey-likert","138","719838","0.0-6.0-6.18","2924939","co38755","norming","","","{""aha"":4}","[0]","../img/tt/580tt.jpg","",""
"null","<div style=""font-size:60px;""> </div>","null","fixation","html-keyboard-response","139","720039","0.0-6.0-0.19","2924939","co38755","norming","","","","","","",""
"null","../img/tt/108tt.jpg","null","mooney1","image-keyboard-response","140","723043","0.0-6.0-1.19","2924939","co38755","norming","","","","","","",""
"7776.439999999595","","","post_mooney1_questions","survey-likert","141","730822","0.0-6.0-2.19","2924939","co38755","norming","","","{""curiosity"":2,""confidence"":0}","[0,1]","../img/tt/108tt.jpg","",""
"661.9049999990966","","","recognition","survey-text","142","731486","0.0-6.0-3.19","2924939","co38755","norming","","","{""guess"":""""}","","../img/tt/108tt.jpg","",""
"null","../img/gs/108gs.jpg","null","reveal","image-keyboard-response","143","733493","0.0-6.0-4.19","2924939","co38755","norming","","","","","","",""
"null","../img/tt/108tt.jpg","null","mooney2","image-keyboard-response","144","735495","0.0-6.0-5.19","2924939","co38755","norming","","","","","","",""
"2372.755000000354","","","post_reveal_questions","survey-likert","145","737870","0.0-6.0-6.19","2924939","co38755","norming","","","{""aha"":1}","[0]","../img/tt/108tt.jpg","",""
"null","<div style=""font-size:60px;""> </div>","null","fixation","html-keyboard-response","146","738075","0.0-6.0-0.20","2924939","co38755","norming","","","","","","",""
"null","../img/tt/084tt.jpg","null","mooney1","image-keyboard-response","147","741080","0.0-6.0-1.20","2924939","co38755","norming","","","","","","",""
"7107.065000000177","","","post_mooney1_questions","survey-likert","148","748190","0.0-6.0-2.20","2924939","co38755","norming","","","{""curiosity"":3,""confidence"":2}","[0,1]","../img/tt/084tt.jpg","",""
"2750.0099999997765","","","recognition","survey-text","149","750944","0.0-6.0-3.20","2924939","co38755","norming","","","{""guess"":""pauw""}","","../img/tt/084tt.jpg","",""
"null","../img/gs/084gs.jpg","null","reveal","image-keyboard-response","150","752952","0.0-6.0-4.20","2924939","co38755","norming","","","","","","",""
"null","../img/tt/084tt.jpg","null","mooney2","image-keyboard-response","151","754959","0.0-6.0-5.20","2924939","co38755","norming","","","","","","",""
"2022.954999998561","","","post_reveal_questions","survey-likert","152","756984","0.0-6.0-6.20","2924939","co38755","norming","","","{""aha"":4}","[0]","../img/tt/084tt.jpg","",""
"null","<div style=""font-size:60px;""> </div>","null","fixation","html-keyboard-response","153","757187","0.0-6.0-0.21","2924939","co38755","norming","","","","","","",""
"null","../img/tt/123tt.jpg","null","mooney1","image-keyboard-response","154","760190","0.0-6.0-1.21","2924939","co38755","norming","","","","","","",""
"2623.5350000006147","","","post_mooney1_questions","survey-likert","155","762816","0.0-6.0-2.21","2924939","co38755","norming","","","{""curiosity"":2,""confidence"":1}","[0,1]","../img/tt/123tt.jpg","",""
"2078.2299999991665","","","recognition","survey-text","156","764896","0.0-6.0-3.21","2924939","co38755","norming","","","{""guess"":""slee""}","","../img/tt/123tt.jpg","",""
"null","../img/gs/123gs.jpg","null","reveal","image-keyboard-response","157","766901","0.0-6.0-4.21","2924939","co38755","norming","","","","","","",""
"null","../img/tt/123tt.jpg","null","mooney2","image-keyboard-response","158","768907","0.0-6.0-5.21","2924939","co38755","norming","","","","","","",""
"3675.1399999993155","","","post_reveal_questions","survey-likert","159","772584","0.0-6.0-6.21","2924939","co38755","norming","","","{""aha"":2}","[0]","../img/tt/123tt.jpg","",""
"null","<div style=""font-size:60px;""> </div>","null","fixation","html-keyboard-response","160","772795","0.0-6.0-0.22","2924939","co38755","norming","","","","","","",""
"null","../img/tt/1353tt.jpg","null","mooney1","image-keyboard-response","161","775804","0.0-6.0-1.22","2924939","co38755","norming","","","","","","",""
"6464.859999999986","","","post_mooney1_questions","survey-likert","162","782272","0.0-6.0-2.22","2924939","co38755","norming","","","{""curiosity"":1,""confidence"":5}","[0,1]","../img/tt/1353tt.jpg","",""
"7278.275000000605","","","recognition","survey-text","163","789552","0.0-6.0-3.22","2924939","co38755","norming","","","{""guess"":""paprika""}","","../img/tt/1353tt.jpg","",""
"null","../img/gs/1353gs.jpg","null","reveal","image-keyboard-response","164","791561","0.0-6.0-4.22","2924939","co38755","norming","","","","","","",""
"null","../img/tt/1353tt.jpg","null","mooney2","image-keyboard-response","165","793570","0.0-6.0-5.22","2924939","co38755","norming","","","","","","",""
"2123.369999999297","","","post_reveal_questions","survey-likert","166","795696","0.0-6.0-6.22","2924939","co38755","norming","","","{""aha"":1}","[0]","../img/tt/1353tt.jpg","",""
"null","<div style=""font-size:60px;""> </div>","null","fixation","html-keyboard-response","167","795901","0.0-6.0-0.23","2924939","co38755","norming","","","","","","",""
"null","../img/tt/020tt.jpg","null","mooney1","image-keyboard-response","168","798910","0.0-6.0-1.23","2924939","co38755","norming","","","","","","",""
"5623.535000000731","","","post_mooney1_questions","survey-likert","169","804536","0.0-6.0-2.23","2924939","co38755","norming","","","{""curiosity"":3,""confidence"":2}","[0,1]","../img/tt/020tt.jpg","",""
"6766.0100000011735","","","recognition","survey-text","170","811304","0.0-6.0-3.23","2924939","co38755","norming","","","{""guess"":""kameleon""}","","../img/tt/020tt.jpg","",""
"null","../img/gs/020gs.jpg","null","reveal","image-keyboard-response","171","813314","0.0-6.0-4.23","2924939","co38755","norming","","","","","","",""
"null","../img/tt/020tt.jpg","null","mooney2","image-keyboard-response","172","815317","0.0-6.0-5.23","2924939","co38755","norming","","","","","","",""
"1569.0500000000466","","","post_reveal_questions","survey-likert","173","816888","0.0-6.0-6.23","2924939","co38755","norming","","","{""aha"":1}","[0]","../img/tt/020tt.jpg","",""
"null","<div style=""font-size:60px;""> </div>","null","fixation","html-keyboard-response","174","817090","0.0-6.0-0.24","2924939","co38755","norming","","","","","","",""
"null","../img/tt/552tt.jpg","null","mooney1","image-keyboard-response","175","820096","0.0-6.0-1.24","2924939","co38755","norming","","","","","","",""
"5493.229999999981","","","post_mooney1_questions","survey-likert","176","825592","0.0-6.0-2.24","2924939","co38755","norming","","","{""curiosity"":5,""confidence"":2}","[0,1]","../img/tt/552tt.jpg","",""
"2486.100000000093","","","recognition","survey-text","177","828080","0.0-6.0-3.24","2924939","co38755","norming","","","{""guess"":""noot""}","","../img/tt/552tt.jpg","",""
"null","../img/gs/552gs.jpg","null","reveal","image-keyboard-response","178","830085","0.0-6.0-4.24","2924939","co38755","norming","","","","","","",""
"null","../img/tt/552tt.jpg","null","mooney2","image-keyboard-response","179","832088","0.0-6.0-5.24","2924939","co38755","norming","","","","","","",""
"2165.854999999283","","","post_reveal_questions","survey-likert","180","834256","0.0-6.0-6.24","2924939","co38755","norming","","","{""aha"":3}","[0]","../img/tt/552tt.jpg","",""
"null","<div style=""font-size:60px;""> </div>","null","fixation","html-keyboard-response","181","834457","0.0-6.0-0.25","2924939","co38755","norming","","","","","","",""
"null","../img/tt/1053tt.jpg","null","mooney1","image-keyboard-response","182","837468","0.0-6.0-1.25","2924939","co38755","norming","","","","","","",""
"5449.200000001001","","","post_mooney1_questions","survey-likert","183","842920","0.0-6.0-2.25","2924939","co38755","norming","","","{""curiosity"":4,""confidence"":1}","[0,1]","../img/tt/1053tt.jpg","",""
"11221.905000000377","","","recognition","survey-text","184","854144","0.0-6.0-3.25","2924939","co38755","norming","","","{""guess"":""kangrou""}","","../img/tt/1053tt.jpg","",""
"null","../img/gs/1053gs.jpg","null","reveal","image-keyboard-response","185","856149","0.0-6.0-4.25","2924939","co38755","norming","","","","","","",""
"null","../img/tt/1053tt.jpg","null","mooney2","image-keyboard-response","186","858151","0.0-6.0-5.25","2924939","co38755","norming","","","","","","",""
"2886.099999999744","","","post_reveal_questions","survey-likert","187","861040","0.0-6.0-6.25","2924939","co38755","norming","","","{""aha"":4}","[0]","../img/tt/1053tt.jpg","",""
"null","<div style=""font-size:60px;""> </div>","null","fixation","html-keyboard-response","188","861248","0.0-6.0-0.26","2924939","co38755","norming","","","","","","",""
"null","../img/tt/1224tt.jpg","null","mooney1","image-keyboard-response","189","864261","0.0-6.0-1.26","2924939","co38755","norming","","","","","","",""
"11648.809999998775","","","post_mooney1_questions","survey-likert","190","875912","0.0-6.0-2.26","2924939","co38755","norming","","","{""curiosity"":4,""confidence"":2}","[0,1]","../img/tt/1224tt.jpg","",""
"3877.8349999992643","","","recognition","survey-text","191","879792","0.0-6.0-3.26","2924939","co38755","norming","","","{""guess"":""musician""}","","../img/tt/1224tt.jpg","",""
"null","../img/gs/1224gs.jpg","null","reveal","image-keyboard-response","192","881799","0.0-6.0-4.26","2924939","co38755","norming","","","","","","",""
"null","../img/tt/1224tt.jpg","null","mooney2","image-keyboard-response","193","883810","0.0-6.0-5.26","2924939","co38755","norming","","","","","","",""
"2692.434999999008","","","post_reveal_questions","survey-likert","194","886504","0.0-6.0-6.26","2924939","co38755","norming","","","{""aha"":2}","[0]","../img/tt/1224tt.jpg","",""
"null","<div style=""font-size:60px;""> </div>","null","fixation","html-keyboard-response","195","886706","0.0-6.0-0.27","2924939","co38755","norming","","","","","","",""
"null","../img/tt/063tt.jpg","null","mooney1","image-keyboard-response","196","889711","0.0-6.0-1.27","2924939","co38755","norming","","","","","","",""
"4247.430000001215","","","post_mooney1_questions","survey-likert","197","893960","0.0-6.0-2.27","2924939","co38755","norming","","","{""curiosity"":1,""confidence"":1}","[0,1]","../img/tt/063tt.jpg","",""
"3158.145000001299","","","recognition","survey-text","198","897120","0.0-6.0-3.27","2924939","co38755","norming","","","{""guess"":""computer""}","","../img/tt/063tt.jpg","",""
"null","../img/gs/063gs.jpg","null","reveal","image-keyboard-response","199","899127","0.0-6.0-4.27","2924939","co38755","norming","","","","","","",""
"null","../img/tt/063tt.jpg","null","mooney2","image-keyboard-response","200","901130","0.0-6.0-5.27","2924939","co38755","norming","","","","","","",""
"2876.39499999932","","","post_reveal_questions","survey-likert","201","904008","0.0-6.0-6.27","2924939","co38755","norming","","","{""aha"":5}","[0]","../img/tt/063tt.jpg","",""
"null","<div style=""font-size:60px;""> </div>","null","fixation","html-keyboard-response","202","904210","0.0-6.0-0.28","2924939","co38755","norming","","","","","","",""
"null","../img/tt/1276tt.jpg","null","mooney1","image-keyboard-response","203","907213","0.0-6.0-1.28","2924939","co38755","norming","","","","","","",""
"4792.374999999069","","","post_mooney1_questions","survey-likert","204","912008","0.0-6.0-2.28","2924939","co38755","norming","","","{""curiosity"":4,""confidence"":0}","[0,1]","../img/tt/1276tt.jpg","",""
"2118.0399999993388","","","recognition","survey-text","205","914128","0.0-6.0-3.28","2924939","co38755","norming","","","{""guess"":""bird""}","","../img/tt/1276tt.jpg","",""
"null","../img/gs/1276gs.jpg","null","reveal","image-keyboard-response","206","916135","0.0-6.0-4.28","2924939","co38755","norming","","","","","","",""
"null","../img/tt/1276tt.jpg","null","mooney2","image-keyboard-response","207","918144","0.0-6.0-5.28","2924939","co38755","norming","","","","","","",""
"2254.380000000354","","","post_reveal_questions","survey-likert","208","920400","0.0-6.0-6.28","2924939","co38755","norming","","","{""aha"":1}","[0]","../img/tt/1276tt.jpg","",""
"null","<div style=""font-size:60px;""> </div>","null","fixation","html-keyboard-response","209","920602","0.0-6.0-0.29","2924939","co38755","norming","","","","","","",""
"null","../img/tt/1175tt.jpg","null","mooney1","image-keyboard-response","210","923609","0.0-6.0-1.29","2924939","co38755","norming","","","","","","",""
"11476.709999999031","","","post_mooney1_questions","survey-likert","211","935092","0.0-6.0-2.29","2924939","co38755","norming","","","{""curiosity"":1,""confidence"":0}","[0,1]","../img/tt/1175tt.jpg","",""
"2750.1400000001304","","","recognition","survey-text","212","937844","0.0-6.0-3.29","2924939","co38755","norming","","","{""guess"":""cow""}","","../img/tt/1175tt.jpg","",""
"null","../img/gs/1175gs.jpg","null","reveal","image-keyboard-response","213","939849","0.0-6.0-4.29","2924939","co38755","norming","","","","","","",""
"null","../img/tt/1175tt.jpg","null","mooney2","image-keyboard-response","214","941858","0.0-6.0-5.29","2924939","co38755","norming","","","","","","",""
"2431.230000000098","","","post_reveal_questions","survey-likert","215","944292","0.0-6.0-6.29","2924939","co38755","norming","","","{""aha"":0}","[0]","../img/tt/1175tt.jpg","",""
"null","<div style=""font-size:60px;""> </div>","null","fixation","html-keyboard-response","216","944493","0.0-6.0-0.30","2924939","co38755","norming","","","","","","",""
"null","../img/tt/1247tt.jpg","null","mooney1","image-keyboard-response","217","947500","0.0-6.0-1.30","2924939","co38755","norming","","","","","","",""
"3236.2699999994365","","","post_mooney1_questions","survey-likert","218","950740","0.0-6.0-2.30","2924939","co38755","norming","","","{""curiosity"":2,""confidence"":0}","[0,1]","../img/tt/1247tt.jpg","",""
"3854.3300000000745","","","recognition","survey-text","219","954596","0.0-6.0-3.30","2924939","co38755","norming","","","{""guess"":""lion""}","","../img/tt/1247tt.jpg","",""
"null","../img/gs/1247gs.jpg","null","reveal","image-keyboard-response","220","956602","0.0-6.0-4.30","2924939","co38755","norming","","","","","","",""
"null","../img/tt/1247tt.jpg","null","mooney2","image-keyboard-response","221","958612","0.0-6.0-5.30","2924939","co38755","norming","","","","","","",""
"3308.6149999998743","","","post_reveal_questions","survey-likert","222","961923","0.0-6.0-6.30","2924939","co38755","norming","","","{""aha"":2}","[0]","../img/tt/1247tt.jpg","",""
"null","<div style=""font-size:60px;""> </div>","null","fixation","html-keyboard-response","223","962132","0.0-6.0-0.31","2924939","co38755","norming","","","","","","",""
"null","../img/tt/1161tt.jpg","null","mooney1","image-keyboard-response","224","965136","0.0-6.0-1.31","2924939","co38755","norming","","","","","","",""
"6625.359999999986","","","post_mooney1_questions","survey-likert","225","971764","0.0-6.0-2.31","2924939","co38755","norming","","","{""curiosity"":2,""confidence"":2}","[0,1]","../img/tt/1161tt.jpg","",""
"2973.944999999716","","","recognition","survey-text","226","974740","0.0-6.0-3.31","2924939","co38755","norming","","","{""guess"":""running""}","","../img/tt/1161tt.jpg","",""
"null","../img/gs/1161gs.jpg","null","reveal","image-keyboard-response","227","976742","0.0-6.0-4.31","2924939","co38755","norming","","","","","","",""
"null","../img/tt/1161tt.jpg","null","mooney2","image-keyboard-response","228","978746","0.0-6.0-5.31","2924939","co38755","norming","","","","","","",""
"3535.744999999297","","","post_reveal_questions","survey-likert","229","982284","0.0-6.0-6.31","2924939","co38755","norming","","","{""aha"":3}","[0]","../img/tt/1161tt.jpg","",""
"null","<div style=""font-size:60px;""> </div>","null","fixation","html-keyboard-response","230","982488","0.0-6.0-0.32","2924939","co38755","norming","","","","","","",""
"null","../img/tt/1270tt.jpg","null","mooney1","image-keyboard-response","231","985493","0.0-6.0-1.32","2924939","co38755","norming","","","","","","",""
"4787.414999998873","","","post_mooney1_questions","survey-likert","232","990284","0.0-6.0-2.32","2924939","co38755","norming","","","{""curiosity"":5,""confidence"":0}","[0,1]","../img/tt/1270tt.jpg","",""
"821.5700000000652","","","recognition","survey-text","233","991107","0.0-6.0-3.32","2924939","co38755","norming","","","{""guess"":""""}","","../img/tt/1270tt.jpg","",""
"null","../img/gs/1270gs.jpg","null","reveal","image-keyboard-response","234","993118","0.0-6.0-4.32","2924939","co38755","norming","","","","","","",""
"null","../img/tt/1270tt.jpg","null","mooney2","image-keyboard-response","235","995125","0.0-6.0-5.32","2924939","co38755","norming","","","","","","",""
"3927.814999999129","","","post_reveal_questions","survey-likert","236","999055","0.0-6.0-6.32","2924939","co38755","norming","","","{""aha"":1}","[0]","../img/tt/1270tt.jpg","",""
"null","<div style=""font-size:60px;""> </div>","null","fixation","html-keyboard-response","237","999260","0.0-6.0-0.33","2924939","co38755","norming","","","","","","",""
"null","../img/tt/1078tt.jpg","null","mooney1","image-keyboard-response","238","1002264","0.0-6.0-1.33","2924939","co38755","norming","","","","","","",""
"3900.740000000922","","","post_mooney1_questions","survey-likert","239","1006167","0.0-6.0-2.33","2924939","co38755","norming","","","{""curiosity"":2,""confidence"":1}","[0,1]","../img/tt/1078tt.jpg","",""
"2014.0900000005495","","","recognition","survey-text","240","1008183","0.0-6.0-3.33","2924939","co38755","norming","","","{""guess"":""ballet""}","","../img/tt/1078tt.jpg","",""
"null","../img/gs/1078gs.jpg","null","reveal","image-keyboard-response","241","1010185","0.0-6.0-4.33","2924939","co38755","norming","","","","","","",""
"null","../img/tt/1078tt.jpg","null","mooney2","image-keyboard-response","242","1012187","0.0-6.0-5.33","2924939","co38755","norming","","","","","","",""
"1849.9700000010198","","","post_reveal_questions","survey-likert","243","1014039","0.0-6.0-6.33","2924939","co38755","norming","","","{""aha"":1}","[0]","../img/tt/1078tt.jpg","",""
"null","<div style=""font-size:60px;""> </div>","null","fixation","html-keyboard-response","244","1014241","0.0-6.0-0.34","2924939","co38755","norming","","","","","","",""
"null","../img/tt/189tt.jpg","null","mooney1","image-keyboard-response","245","1017249","0.0-6.0-1.34","2924939","co38755","norming","","","","","","",""
"9035.400000000605","","","post_mooney1_questions","survey-likert","246","1026288","0.0-6.0-2.34","2924939","co38755","norming","","","{""curiosity"":2,""confidence"":0}","[0,1]","../img/tt/189tt.jpg","",""
"8373.685000000405","","","recognition","survey-text","247","1034663","0.0-6.0-3.34","2924939","co38755","norming","","","{""guess"":""surfen""}","","../img/tt/189tt.jpg","",""
"null","../img/gs/189gs.jpg","null","reveal","image-keyboard-response","248","1036667","0.0-6.0-4.34","2924939","co38755","norming","","","","","","",""
"null","../img/tt/189tt.jpg","null","mooney2","image-keyboard-response","249","1038669","0.0-6.0-5.34","2924939","co38755","norming","","","","","","",""
"2376.234999999753","","","post_reveal_questions","survey-likert","250","1041047","0.0-6.0-6.34","2924939","co38755","norming","","","{""aha"":0}","[0]","../img/tt/189tt.jpg","",""
"null","<div style=""font-size:60px;""> </div>","null","fixation","html-keyboard-response","251","1041257","0.0-6.0-0.35","2924939","co38755","norming","","","","","","",""
"null","../img/tt/010tt.jpg","null","mooney1","image-keyboard-response","252","1044260","0.0-6.0-1.35","2924939","co38755","norming","","","","","","",""
"9312.72499999986","","","post_mooney1_questions","survey-likert","253","1053576","0.0-6.0-2.35","2924939","co38755","norming","","","{""curiosity"":1,""confidence"":0}","[0,1]","../img/tt/010tt.jpg","",""
"4542.04000000027","","","recognition","survey-text","254","1058120","0.0-6.0-3.35","2924939","co38755","norming","","","{""guess"":""fish""}","","../img/tt/010tt.jpg","",""
"null","../img/gs/010gs.jpg","null","reveal","image-keyboard-response","255","1060125","0.0-6.0-4.35","2924939","co38755","norming","","","","","","",""
"null","../img/tt/010tt.jpg","null","mooney2","image-keyboard-response","256","1062128","0.0-6.0-5.35","2924939","co38755","norming","","","","","","",""
"1845.5399999984074","","","post_reveal_questions","survey-likert","257","1063976","0.0-6.0-6.35","2924939","co38755","norming","","","{""aha"":1}","[0]","../img/tt/010tt.jpg","",""
"null","<div style=""font-size:60px;""> </div>","null","fixation","html-keyboard-response","258","1064177","0.0-6.0-0.36","2924939","co38755","norming","","","","","","",""
"null","../img/tt/078tt.jpg","null","mooney1","image-keyboard-response","259","1067180","0.0-6.0-1.36","2924939","co38755","norming","","","","","","",""
"3153.435000000056","","","post_mooney1_questions","survey-likert","260","1070336","0.0-6.0-2.36","2924939","co38755","norming","","","{""curiosity"":2,""confidence"":2}","[0,1]","../img/tt/078tt.jpg","",""
"2998.144999999786","","","recognition","survey-text","261","1073336","0.0-6.0-3.36","2924939","co38755","norming","","","{""guess"":""druiven""}","","../img/tt/078tt.jpg","",""
"null","../img/gs/078gs.jpg","null","reveal","image-keyboard-response","262","1075345","0.0-6.0-4.36","2924939","co38755","norming","","","","","","",""
"null","../img/tt/078tt.jpg","null","mooney2","image-keyboard-response","263","1077348","0.0-6.0-5.36","2924939","co38755","norming","","","","","","",""
"1947.2050000005402","","","post_reveal_questions","survey-likert","264","1079296","0.0-6.0-6.36","2924939","co38755","norming","","","{""aha"":1}","[0]","../img/tt/078tt.jpg","",""
"null","<div style=""font-size:60px;""> </div>","null","fixation","html-keyboard-response","265","1079506","0.0-6.0-0.37","2924939","co38755","norming","","","","","","",""
"null","../img/tt/477tt.jpg","null","mooney1","image-keyboard-response","266","1082515","0.0-6.0-1.37","2924939","co38755","norming","","","","","","",""
"4618.309999999823","","","post_mooney1_questions","survey-likert","267","1087136","0.0-6.0-2.37","2924939","co38755","norming","","","{""curiosity"":2,""confidence"":0}","[0,1]","../img/tt/477tt.jpg","",""
"534.5350000006147","","","recognition","survey-text","268","1087672","0.0-6.0-3.37","2924939","co38755","norming","","","{""guess"":""""}","","../img/tt/477tt.jpg","",""
"null","../img/gs/477gs.jpg","null","reveal","image-keyboard-response","269","1089682","0.0-6.0-4.37","2924939","co38755","norming","","","","","","",""
"null","../img/tt/477tt.jpg","null","mooney2","image-keyboard-response","270","1091685","0.0-6.0-5.37","2924939","co38755","norming","","","","","","",""
"1248.4449999993667","","","post_reveal_questions","survey-likert","271","1092936","0.0-6.0-6.37","2924939","co38755","norming","","","{""aha"":5}","[0]","../img/tt/477tt.jpg","",""
"null","<div style=""font-size:60px;""> </div>","null","fixation","html-keyboard-response","272","1093138","0.0-6.0-0.38","2924939","co38755","norming","","","","","","",""
"null","../img/tt/105tt.jpg","null","mooney1","image-keyboard-response","273","1096140","0.0-6.0-1.38","2924939","co38755","norming","","","","","","",""
"2704.9000000006054","","","post_mooney1_questions","survey-likert","274","1098848","0.0-6.0-2.38","2924939","co38755","norming","","","{""curiosity"":4,""confidence"":0}","[0,1]","../img/tt/105tt.jpg","",""
"534.1250000002328","","","recognition","survey-text","275","1099384","0.0-6.0-3.38","2924939","co38755","norming","","","{""guess"":""""}","","../img/tt/105tt.jpg","",""
"null","../img/gs/105gs.jpg","null","reveal","image-keyboard-response","276","1101386","0.0-6.0-4.38","2924939","co38755","norming","","","","","","",""
"null","../img/tt/105tt.jpg","null","mooney2","image-keyboard-response","277","1103388","0.0-6.0-5.38","2924939","co38755","norming","","","","","","",""
"1239.590000001248","","","post_reveal_questions","survey-likert","278","1104632","0.0-6.0-6.38","2924939","co38755","norming","","","{""aha"":1}","[0]","../img/tt/105tt.jpg","",""
"null","<div style=""font-size:60px;""> </div>","null","fixation","html-keyboard-response","279","1104833","0.0-6.0-0.39","2924939","co38755","norming","","","","","","",""
"null","../img/tt/279tt.jpg","null","mooney1","image-keyboard-response","280","1107838","0.0-6.0-1.39","2924939","co38755","norming","","","","","","",""
"4614.4199999999255","","","post_mooney1_questions","survey-likert","281","1112456","0.0-6.0-2.39","2924939","co38755","norming","","","{""curiosity"":2,""confidence"":2}","[0,1]","../img/tt/279tt.jpg","",""
"2253.9999999990687","","","recognition","survey-text","282","1114713","0.0-6.0-3.39","2924939","co38755","norming","","","{""guess"":""koala""}","","../img/tt/279tt.jpg","",""
"null","../img/gs/279gs.jpg","null","reveal","image-keyboard-response","283","1116717","0.0-6.0-4.39","2924939","co38755","norming","","","","","","",""
"null","../img/tt/279tt.jpg","null","mooney2","image-keyboard-response","284","1118727","0.0-6.0-5.39","2924939","co38755","norming","","","","","","",""
"1407.9099999999162","","","post_reveal_questions","survey-likert","285","1120137","0.0-6.0-6.39","2924939","co38755","norming","","","{""aha"":1}","[0]","../img/tt/279tt.jpg","",""
"null","<div style=""font-size:60px;""> </div>","null","fixation","html-keyboard-response","286","1120339","0.0-6.0-0.40","2924939","co38755","norming","","","","","","",""
"null","../img/tt/1268tt.jpg","null","mooney1","image-keyboard-response","287","1123349","0.0-6.0-1.40","2924939","co38755","norming","","","","","","",""
"5786.115000000689","","","post_mooney1_questions","survey-likert","288","1129138","0.0-6.0-2.40","2924939","co38755","norming","","","{""curiosity"":1,""confidence"":1}","[0,1]","../img/tt/1268tt.jpg","",""
"2533.9349999993574","","","recognition","survey-text","289","1131673","0.0-6.0-3.40","2924939","co38755","norming","","","{""guess"":""paard""}","","../img/tt/1268tt.jpg","",""
"null","../img/gs/1268gs.jpg","null","reveal","image-keyboard-response","290","1133676","0.0-6.0-4.40","2924939","co38755","norming","","","","","","",""
"null","../img/tt/1268tt.jpg","null","mooney2","image-keyboard-response","291","1135677","0.0-6.0-5.40","2924939","co38755","norming","","","","","","",""
"2034.1549999993294","","","post_reveal_questions","survey-likert","292","1137713","0.0-6.0-6.40","2924939","co38755","norming","","","{""aha"":4}","[0]","../img/tt/1268tt.jpg","",""
"null","<div style=""font-size:60px;""> </div>","null","fixation","html-keyboard-response","293","1137918","0.0-6.0-0.41","2924939","co38755","norming","","","","","","",""
"null","../img/tt/1226tt.jpg","null","mooney1","image-keyboard-response","294","1140924","0.0-6.0-1.41","2924939","co38755","norming","","","","","","",""
"5642.330000000773","","","post_mooney1_questions","survey-likert","295","1146570","0.0-6.0-2.41","2924939","co38755","norming","","","{""curiosity"":4,""confidence"":2}","[0,1]","../img/tt/1226tt.jpg","",""
"2798.179999999702","","","recognition","survey-text","296","1149369","0.0-6.0-3.41","2924939","co38755","norming","","","{""guess"":""gans""}","","../img/tt/1226tt.jpg","",""
"null","../img/gs/1226gs.jpg","null","reveal","image-keyboard-response","297","1151375","0.0-6.0-4.41","2924939","co38755","norming","","","","","","",""
"null","../img/tt/1226tt.jpg","null","mooney2","image-keyboard-response","298","1153386","0.0-6.0-5.41","2924939","co38755","norming","","","","","","",""
"1325.2350000003353","","","post_reveal_questions","survey-likert","299","1154713","0.0-6.0-6.41","2924939","co38755","norming","","","{""aha"":2}","[0]","../img/tt/1226tt.jpg","",""
"null","<div style=""font-size:60px;""> </div>","null","fixation","html-keyboard-response","300","1154915","0.0-6.0-0.42","2924939","co38755","norming","","","","","","",""
"null","../img/tt/270tt.jpg","null","mooney1","image-keyboard-response","301","1157923","0.0-6.0-1.42","2924939","co38755","norming","","","","","","",""
"5203.305000000866","","","post_mooney1_questions","survey-likert","302","1163130","0.0-6.0-2.42","2924939","co38755","norming","","","{""curiosity"":5,""confidence"":2}","[0,1]","../img/tt/270tt.jpg","",""
"1758.0799999996088","","","recognition","survey-text","303","1164889","0.0-6.0-3.42","2924939","co38755","norming","","","{""guess"":""herd""}","","../img/tt/270tt.jpg","",""
"null","../img/gs/270gs.jpg","null","reveal","image-keyboard-response","304","1166892","0.0-6.0-4.42","2924939","co38755","norming","","","","","","",""
"null","../img/tt/270tt.jpg","null","mooney2","image-keyboard-response","305","1168901","0.0-6.0-5.42","2924939","co38755","norming","","","","","","",""
"3271.7150000007823","","","post_reveal_questions","survey-likert","306","1172178","0.0-6.0-6.42","2924939","co38755","norming","","","{""aha"":1}","[0]","../img/tt/270tt.jpg","",""
"null","<div style=""font-size:60px;""> </div>","null","fixation","html-keyboard-response","307","1172380","0.0-6.0-0.43","2924939","co38755","norming","","","","","","",""
"null","../img/tt/085tt.jpg","null","mooney1","image-keyboard-response","308","1175385","0.0-6.0-1.43","2924939","co38755","norming","","","","","","",""
"3045.6399999985006","","","post_mooney1_questions","survey-likert","309","1178434","0.0-6.0-2.43","2924939","co38755","norming","","","{""curiosity"":2,""confidence"":1}","[0,1]","../img/tt/085tt.jpg","",""
"1910.2099999999627","","","recognition","survey-text","310","1180346","0.0-6.0-3.43","2924939","co38755","norming","","","{""guess"":""hond""}","","../img/tt/085tt.jpg","",""
"null","../img/gs/085gs.jpg","null","reveal","image-keyboard-response","311","1182355","0.0-6.0-4.43","2924939","co38755","norming","","","","","","",""
"null","../img/tt/085tt.jpg","null","mooney2","image-keyboard-response","312","1184363","0.0-6.0-5.43","2924939","co38755","norming","","","","","","",""
"2572.239999999292","","","post_reveal_questions","survey-likert","313","1186938","0.0-6.0-6.43","2924939","co38755","norming","","","{""aha"":4}","[0]","../img/tt/085tt.jpg","",""
"null","<div style=""font-size:60px;""> </div>","null","fixation","html-keyboard-response","314","1187139","0.0-6.0-0.44","2924939","co38755","norming","","","","","","",""
"null","../img/tt/378tt.jpg","null","mooney1","image-keyboard-response","315","1190142","0.0-6.0-1.44","2924939","co38755","norming","","","","","","",""
"2552.819999999134","","","post_mooney1_questions","survey-likert","316","1192698","0.0-6.0-2.44","2924939","co38755","norming","","","{""curiosity"":4,""confidence"":0}","[0,1]","../img/tt/378tt.jpg","",""
"806.0049999987241","","","recognition","survey-text","317","1193506","0.0-6.0-3.44","2924939","co38755","norming","","","{""guess"":""""}","","../img/tt/378tt.jpg","",""
"null","../img/gs/378gs.jpg","null","reveal","image-keyboard-response","318","1195510","0.0-6.0-4.44","2924939","co38755","norming","","","","","","",""
"null","../img/tt/378tt.jpg","null","mooney2","image-keyboard-response","319","1197517","0.0-6.0-5.44","2924939","co38755","norming","","","","","","",""
"2584.9200000010896","","","post_reveal_questions","survey-likert","320","1200106","0.0-6.0-6.44","2924939","co38755","norming","","","{""aha"":2}","[0]","../img/tt/378tt.jpg","",""
"null","<div style=""font-size:60px;""> </div>","null","fixation","html-keyboard-response","321","1200316","0.0-6.0-0.45","2924939","co38755","norming","","","","","","",""
"null","../img/tt/1037tt.jpg","null","mooney1","image-keyboard-response","322","1203329","0.0-6.0-1.45","2924939","co38755","norming","","","","","","",""
"4190.275000000838","","","post_mooney1_questions","survey-likert","323","1207522","0.0-6.0-2.45","2924939","co38755","norming","","","{""curiosity"":4,""confidence"":2}","[0,1]","../img/tt/1037tt.jpg","",""
"2294.0500000002794","","","recognition","survey-text","324","1209818","0.0-6.0-3.45","2924939","co38755","norming","","","{""guess"":""dog""}","","../img/tt/1037tt.jpg","",""
"null","../img/gs/1037gs.jpg","null","reveal","image-keyboard-response","325","1211826","0.0-6.0-4.45","2924939","co38755","norming","","","","","","",""
"null","../img/tt/1037tt.jpg","null","mooney2","image-keyboard-response","326","1213829","0.0-6.0-5.45","2924939","co38755","norming","","","","","","",""
"3811.040000000503","","","post_reveal_questions","survey-likert","327","1217642","0.0-6.0-6.45","2924939","co38755","norming","","","{""aha"":2}","[0]","../img/tt/1037tt.jpg","",""
"null","<div style=""font-size:60px;""> </div>","null","fixation","html-keyboard-response","328","1217844","0.0-6.0-0.46","2924939","co38755","norming","","","","","","",""
"null","../img/tt/111tt.jpg","null","mooney1","image-keyboard-response","329","1220847","0.0-6.0-1.46","2924939","co38755","norming","","","","","","",""
"5127.6249999993015","","","post_mooney1_questions","survey-likert","330","1225978","0.0-6.0-2.46","2924939","co38755","norming","","","{""curiosity"":3,""confidence"":2}","[0,1]","../img/tt/111tt.jpg","",""
"2126.1200000008103","","","recognition","survey-text","331","1228106","0.0-6.0-3.46","2924939","co38755","norming","","","{""guess"":""fruit""}","","../img/tt/111tt.jpg","",""
"null","../img/gs/111gs.jpg","null","reveal","image-keyboard-response","332","1230107","0.0-6.0-4.46","2924939","co38755","norming","","","","","","",""
"null","../img/tt/111tt.jpg","null","mooney2","image-keyboard-response","333","1232118","0.0-6.0-5.46","2924939","co38755","norming","","","","","","",""
"2642.9050000007264","","","post_reveal_questions","survey-likert","334","1234762","0.0-6.0-6.46","2924939","co38755","norming","","","{""aha"":4}","[0]","../img/tt/111tt.jpg","",""
"null","<div style=""font-size:60px;""> </div>","null","fixation","html-keyboard-response","335","1234968","0.0-6.0-0.47","2924939","co38755","norming","","","","","","",""
"null","../img/tt/1171tt.jpg","null","mooney1","image-keyboard-response","336","1237973","0.0-6.0-1.47","2924939","co38755","norming","","","","","","",""
"4116.969999999041","","","post_mooney1_questions","survey-likert","337","1242092","0.0-6.0-2.47","2924939","co38755","norming","","","{""curiosity"":1,""confidence"":2}","[0,1]","../img/tt/1171tt.jpg","",""
"3277.5849999999627","","","recognition","survey-text","338","1245371","0.0-6.0-3.47","2924939","co38755","norming","","","{""guess"":""basketbal""}","","../img/tt/1171tt.jpg","",""
"null","../img/gs/1171gs.jpg","null","reveal","image-keyboard-response","339","1247374","0.0-6.0-4.47","2924939","co38755","norming","","","","","","",""
"null","../img/tt/1171tt.jpg","null","mooney2","image-keyboard-response","340","1249383","0.0-6.0-5.47","2924939","co38755","norming","","","","","","",""
"3017.920000000391","","","post_reveal_questions","survey-likert","341","1252403","0.0-6.0-6.47","2924939","co38755","norming","","","{""aha"":1}","[0]","../img/tt/1171tt.jpg","",""
"null","<div style=""font-size:60px;""> </div>","null","fixation","html-keyboard-response","342","1252613","0.0-6.0-0.48","2924939","co38755","norming","","","","","","",""
"null","../img/tt/1086tt.jpg","null","mooney1","image-keyboard-response","343","1255620","0.0-6.0-1.48","2924939","co38755","norming","","","","","","",""
"2796.4300000001676","","","post_mooney1_questions","survey-likert","344","1258419","0.0-6.0-2.48","2924939","co38755","norming","","","{""curiosity"":2,""confidence"":2}","[0,1]","../img/tt/1086tt.jpg","",""
"2598.6849999991246","","","recognition","survey-text","345","1261019","0.0-6.0-3.48","2924939","co38755","norming","","","{""guess"":""honden""}","","../img/tt/1086tt.jpg","",""
"null","../img/gs/1086gs.jpg","null","reveal","image-keyboard-response","346","1263022","0.0-6.0-4.48","2924939","co38755","norming","","","","","","",""
"null","../img/tt/1086tt.jpg","null","mooney2","image-keyboard-response","347","1265032","0.0-6.0-5.48","2924939","co38755","norming","","","","","","",""
"3264.6600000006147","","","post_reveal_questions","survey-likert","348","1268299","0.0-6.0-6.48","2924939","co38755","norming","","","{""aha"":0}","[0]","../img/tt/1086tt.jpg","",""
"null","<div style=""font-size:60px;""> </div>","null","fixation","html-keyboard-response","349","1268502","0.0-6.0-0.49","2924939","co38755","norming","","","","","","",""
"null","../img/tt/1228tt.jpg","null","mooney1","image-keyboard-response","350","1271505","0.0-6.0-1.49","2924939","co38755","norming","","","","","","",""
"2959.289999998873","","","post_mooney1_questions","survey-likert","351","1274468","0.0-6.0-2.49","2924939","co38755","norming","","","{""curiosity"":2,""confidence"":1}","[0,1]","../img/tt/1228tt.jpg","",""
"2661.999999998603","","","recognition","survey-text","352","1277131","0.0-6.0-3.49","2924939","co38755","norming","","","{""guess"":""haan""}","","../img/tt/1228tt.jpg","",""
"null","../img/gs/1228gs.jpg","null","reveal","image-keyboard-response","353","1279138","0.0-6.0-4.49","2924939","co38755","norming","","","","","","",""
"null","../img/tt/1228tt.jpg","null","mooney2","image-keyboard-response","354","1281149","0.0-6.0-5.49","2924939","co38755","norming","","","","","","",""
"3132.0649999997113","","","post_reveal_questions","survey-likert","355","1284283","0.0-6.0-6.49","2924939","co38755","norming","","","{""aha"":2}","[0]","../img/tt/1228tt.jpg","",""
"null","<div style=""font-size:60px;""> </div>","null","fixation","html-keyboard-response","356","1284485","0.0-6.0-0.50","2924939","co38755","norming","","","","","","",""
"null","../img/tt/1366tt.jpg","null","mooney1","image-keyboard-response","357","1287489","0.0-6.0-1.50","2924939","co38755","norming","","","","","","",""
"3014.2899999993388","","","post_mooney1_questions","survey-likert","358","1290507","0.0-6.0-2.50","2924939","co38755","norming","","","{""curiosity"":2,""confidence"":2}","[0,1]","../img/tt/1366tt.jpg","",""
"1998.2749999999069","","","recognition","survey-text","359","1292507","0.0-6.0-3.50","2924939","co38755","norming","","","{""guess"":""kip""}","","../img/tt/1366tt.jpg","",""
"null","../img/gs/1366gs.jpg","null","reveal","image-keyboard-response","360","1294509","0.0-6.0-4.50","2924939","co38755","norming","","","","","","",""
"null","../img/tt/1366tt.jpg","null","mooney2","image-keyboard-response","361","1296512","0.0-6.0-5.50","2924939","co38755","norming","","","","","","",""
"3336.185000000056","","","post_reveal_questions","survey-likert","362","1299849","0.0-6.0-6.50","2924939","co38755","norming","","","{""aha"":2}","[0]","../img/tt/1366tt.jpg","",""
"null","<div style=""font-size:60px;""> </div>","null","fixation","html-keyboard-response","363","1300050","0.0-6.0-0.51","2924939","co38755","norming","","","","","","",""
"null","../img/tt/301tt.jpg","null","mooney1","image-keyboard-response","364","1303061","0.0-6.0-1.51","2924939","co38755","norming","","","","","","",""
"3553.110000000801","","","post_mooney1_questions","survey-likert","365","1306617","0.0-6.0-2.51","2924939","co38755","norming","","","{""curiosity"":2,""confidence"":0}","[0,1]","../img/tt/301tt.jpg","",""
"678.0199999993201","","","recognition","survey-text","366","1307297","0.0-6.0-3.51","2924939","co38755","norming","","","{""guess"":""""}","","../img/tt/301tt.jpg","",""
"null","../img/gs/301gs.jpg","null","reveal","image-keyboard-response","367","1309298","0.0-6.0-4.51","2924939","co38755","norming","","","","","","",""
"null","../img/tt/301tt.jpg","null","mooney2","image-keyboard-response","368","1311309","0.0-6.0-5.51","2924939","co38755","norming","","","","","","",""
"3777.0600000005215","","","post_reveal_questions","survey-likert","369","1315089","0.0-6.0-6.51","2924939","co38755","norming","","","{""aha"":1}","[0]","../img/tt/301tt.jpg","",""
"null","<div style=""font-size:60px;""> </div>","null","fixation","html-keyboard-response","370","1315291","0.0-6.0-0.52","2924939","co38755","norming","","","","","","",""
"null","../img/tt/019tt.jpg","null","mooney1","image-keyboard-response","371","1318294","0.0-6.0-1.52","2924939","co38755","norming","","","","","","",""
"2592.0599999988917","","","post_mooney1_questions","survey-likert","372","1320889","0.0-6.0-2.52","2924939","co38755","norming","","","{""curiosity"":1,""confidence"":3}","[0,1]","../img/tt/019tt.jpg","",""
"1950.0799999986775","","","recognition","survey-text","373","1322841","0.0-6.0-3.52","2924939","co38755","norming","","","{""guess"":""tang""}","","../img/tt/019tt.jpg","",""
"null","../img/gs/019gs.jpg","null","reveal","image-keyboard-response","374","1324849","0.0-6.0-4.52","2924939","co38755","norming","","","","","","",""
"null","../img/tt/019tt.jpg","null","mooney2","image-keyboard-response","375","1326861","0.0-6.0-5.52","2924939","co38755","norming","","","","","","",""
"3785.3999999989755","","","post_reveal_questions","survey-likert","376","1330649","0.0-6.0-6.52","2924939","co38755","norming","","","{""aha"":0}","[0]","../img/tt/019tt.jpg","",""
"null","<div style=""font-size:60px;""> </div>","null","fixation","html-keyboard-response","377","1330850","0.0-6.0-0.53","2924939","co38755","norming","","","","","","",""
"null","../img/tt/007tt.jpg","null","mooney1","image-keyboard-response","378","1333855","0.0-6.0-1.53","2924939","co38755","norming","","","","","","",""
"4343.399999999674","","","post_mooney1_questions","survey-likert","379","1338201","0.0-6.0-2.53","2924939","co38755","norming","","","{""curiosity"":2,""confidence"":1}","[0,1]","../img/tt/007tt.jpg","",""
"2766.090000001015","","","recognition","survey-text","380","1340969","0.0-6.0-3.53","2924939","co38755","norming","","","{""guess"":""spin""}","","../img/tt/007tt.jpg","",""
"null","../img/gs/007gs.jpg","null","reveal","image-keyboard-response","381","1342970","0.0-6.0-4.53","2924939","co38755","norming","","","","","","",""
"null","../img/tt/007tt.jpg","null","mooney2","image-keyboard-response","382","1344981","0.0-6.0-5.53","2924939","co38755","norming","","","","","","",""
"3889.1749999984168","","","post_reveal_questions","survey-likert","383","1348873","0.0-6.0-6.53","2924939","co38755","norming","","","{""aha"":2}","[0]","../img/tt/007tt.jpg","",""
"null","<div style=""font-size:60px;""> </div>","null","fixation","html-keyboard-response","384","1349075","0.0-6.0-0.54","2924939","co38755","norming","","","","","","",""
"null","../img/tt/1055tt.jpg","null","mooney1","image-keyboard-response","385","1352077","0.0-6.0-1.54","2924939","co38755","norming","","","","","","",""
"3474.70500000054","","","post_mooney1_questions","survey-likert","386","1355553","0.0-6.0-2.54","2924939","co38755","norming","","","{""curiosity"":1,""confidence"":2}","[0,1]","../img/tt/1055tt.jpg","",""
"3334.015000000363","","","recognition","survey-text","387","1358886","0.0-6.0-3.54","2924939","co38755","norming","","","{""guess"":""groente""}","","../img/tt/1055tt.jpg","",""
"null","../img/gs/1055gs.jpg","null","reveal","image-keyboard-response","388","1360891","0.0-6.0-4.54","2924939","co38755","norming","","","","","","",""
"null","../img/tt/1055tt.jpg","null","mooney2","image-keyboard-response","389","1362895","0.0-6.0-5.54","2924939","co38755","norming","","","","","","",""
"2980.7950000013225","","","post_reveal_questions","survey-likert","390","1365878","0.0-6.0-6.54","2924939","co38755","norming","","","{""aha"":3}","[0]","../img/tt/1055tt.jpg","",""
"null","<div style=""font-size:60px;""> </div>","null","fixation","html-keyboard-response","391","1366086","0.0-6.0-0.55","2924939","co38755","norming","","","","","","",""
"null","../img/tt/1118tt.jpg","null","mooney1","image-keyboard-response","392","1369089","0.0-6.0-1.55","2924939","co38755","norming","","","","","","",""
"2864.999999999767","","","post_mooney1_questions","survey-likert","393","1371958","0.0-6.0-2.55","2924939","co38755","norming","","","{""curiosity"":1,""confidence"":0}","[0,1]","../img/tt/1118tt.jpg","",""
"454.04500000039116","","","recognition","survey-text","394","1372414","0.0-6.0-3.55","2924939","co38755","norming","","","{""guess"":""""}","","../img/tt/1118tt.jpg","",""
"null","../img/gs/1118gs.jpg","null","reveal","image-keyboard-response","395","1374417","0.0-6.0-4.55","2924939","co38755","norming","","","","","","",""
"null","../img/tt/1118tt.jpg","null","mooney2","image-keyboard-response","396","1376428","0.0-6.0-5.55","2924939","co38755","norming","","","","","","",""
"1495.0799999986775","","","post_reveal_questions","survey-likert","397","1377926","0.0-6.0-6.55","2924939","co38755","norming","","","{""aha"":4}","[0]","../img/tt/1118tt.jpg","",""
"null","<div style=""font-size:60px;""> </div>","null","fixation","html-keyboard-response","398","1378127","0.0-6.0-0.56","2924939","co38755","norming","","","","","","",""
"null","../img/tt/1122tt.jpg","null","mooney1","image-keyboard-response","399","1381130","0.0-6.0-1.56","2924939","co38755","norming","","","","","","",""
"2432.549999999581","","","post_mooney1_questions","survey-likert","400","1383566","0.0-6.0-2.56","2924939","co38755","norming","","","{""curiosity"":1,""confidence"":3}","[0,1]","../img/tt/1122tt.jpg","",""
"2422.1450000004843","","","recognition","survey-text","401","1385990","0.0-6.0-3.56","2924939","co38755","norming","","","{""guess"":""boten""}","","../img/tt/1122tt.jpg","",""
"null","../img/gs/1122gs.jpg","null","reveal","image-keyboard-response","402","1387996","0.0-6.0-4.56","2924939","co38755","norming","","","","","","",""
"null","../img/tt/1122tt.jpg","null","mooney2","image-keyboard-response","403","1389997","0.0-6.0-5.56","2924939","co38755","norming","","","","","","",""
"3535.9350000016857","","","post_reveal_questions","survey-likert","404","1393534","0.0-6.0-6.56","2924939","co38755","norming","","","{""aha"":0}","[0]","../img/tt/1122tt.jpg","",""
"null","<div style=""font-size:60px;""> </div>","null","fixation","html-keyboard-response","405","1393737","0.0-6.0-0.57","2924939","co38755","norming","","","","","","",""
"null","../img/tt/1044tt.jpg","null","mooney1","image-keyboard-response","406","1396749","0.0-6.0-1.57","2924939","co38755","norming","","","","","","",""
"4430.304999999935","","","post_mooney1_questions","survey-likert","407","1401182","0.0-6.0-2.57","2924939","co38755","norming","","","{""curiosity"":2,""confidence"":1}","[0,1]","../img/tt/1044tt.jpg","",""
"3845.905000000028","","","recognition","survey-text","408","1405030","0.0-6.0-3.57","2924939","co38755","norming","","","{""guess"":""sprinkhaan""}","","../img/tt/1044tt.jpg","",""
"null","../img/gs/1044gs.jpg","null","reveal","image-keyboard-response","409","1407034","0.0-6.0-4.57","2924939","co38755","norming","","","","","","",""
"null","../img/tt/1044tt.jpg","null","mooney2","image-keyboard-response","410","1409035","0.0-6.0-5.57","2924939","co38755","norming","","","","","","",""
"2121.5750000008848","","","post_reveal_questions","survey-likert","411","1411158","0.0-6.0-6.57","2924939","co38755","norming","","","{""aha"":1}","[0]","../img/tt/1044tt.jpg","",""
"null","<div style=""font-size:60px;""> </div>","null","fixation","html-keyboard-response","412","1411359","0.0-6.0-0.58","2924939","co38755","norming","","","","","","",""
"null","../img/tt/1232tt.jpg","null","mooney1","image-keyboard-response","413","1414366","0.0-6.0-1.58","2924939","co38755","norming","","","","","","",""
"4804.300000001676","","","post_mooney1_questions","survey-likert","414","1419177","0.0-6.0-2.58","2924939","co38755","norming","","","{""curiosity"":1,""confidence"":1}","[0,1]","../img/tt/1232tt.jpg","",""
"3677.9900000002235","","","recognition","survey-text","415","1422857","0.0-6.0-3.58","2924939","co38755","norming","","","{""guess"":""watersport""}","","../img/tt/1232tt.jpg","",""
"null","../img/gs/1232gs.jpg","null","reveal","image-keyboard-response","416","1424859","0.0-6.0-4.58","2924939","co38755","norming","","","","","","",""
"null","../img/tt/1232tt.jpg","null","mooney2","image-keyboard-response","417","1426862","0.0-6.0-5.58","2924939","co38755","norming","","","","","","",""
"1976.5549999992363","","","post_reveal_questions","survey-likert","418","1428841","0.0-6.0-6.58","2924939","co38755","norming","","","{""aha"":1}","[0]","../img/tt/1232tt.jpg","",""
"null","<div style=""font-size:60px;""> </div>","null","fixation","html-keyboard-response","419","1429048","0.0-6.0-0.59","2924939","co38755","norming","","","","","","",""
"null","../img/tt/1006tt.jpg","null","mooney1","image-keyboard-response","420","1432051","0.0-6.0-1.59","2924939","co38755","norming","","","","","","",""
"3268.7800000002608","","","post_mooney1_questions","survey-likert","421","1435321","0.0-6.0-2.59","2924939","co38755","norming","","","{""curiosity"":4,""confidence"":3}","[0,1]","../img/tt/1006tt.jpg","",""
"2734.1649999998044","","","recognition","survey-text","422","1438057","0.0-6.0-3.59","2924939","co38755","norming","","","{""guess"":""schaap""}","","../img/tt/1006tt.jpg","",""
"null","../img/gs/1006gs.jpg","null","reveal","image-keyboard-response","423","1440064","0.0-6.0-4.59","2924939","co38755","norming","","","","","","",""
"null","../img/tt/1006tt.jpg","null","mooney2","image-keyboard-response","424","1442069","0.0-6.0-5.59","2924939","co38755","norming","","","","","","",""
"4106.894999999087","","","post_reveal_questions","survey-likert","425","1446177","0.0-6.0-6.59","2924939","co38755","norming","","","{""aha"":2}","[0]","../img/tt/1006tt.jpg","",""
"null","<div style=""font-size:60px;""> </div>","null","fixation","html-keyboard-response","426","1446379","0.0-6.0-0.60","2924939","co38755","norming","","","","","","",""
"null","../img/tt/497tt.jpg","null","mooney1","image-keyboard-response","427","1449383","0.0-6.0-1.60","2924939","co38755","norming","","","","","","",""
"3326.6949999998324","","","post_mooney1_questions","survey-likert","428","1452713","0.0-6.0-2.60","2924939","co38755","norming","","","{""curiosity"":1,""confidence"":1}","[0,1]","../img/tt/497tt.jpg","",""
"4333.904999999562","","","recognition","survey-text","429","1457049","0.0-6.0-3.60","2924939","co38755","norming","","","{""guess"":""taart""}","","../img/tt/497tt.jpg","",""
"null","../img/gs/497gs.jpg","null","reveal","image-keyboard-response","430","1459055","0.0-6.0-4.60","2924939","co38755","norming","","","","","","",""
"null","../img/tt/497tt.jpg","null","mooney2","image-keyboard-response","431","1461056","0.0-6.0-5.60","2924939","co38755","norming","","","","","","",""
"1053.7550000008196","","","post_reveal_questions","survey-likert","432","1462113","0.0-6.0-6.60","2924939","co38755","norming","","","{""aha"":2}","[0]","../img/tt/497tt.jpg","",""
"null","<div style=""font-size:60px;""> </div>","null","fixation","html-keyboard-response","433","1462314","0.0-6.0-0.61","2924939","co38755","norming","","","","","","",""
"null","../img/tt/1250tt.jpg","null","mooney1","image-keyboard-response","434","1465317","0.0-6.0-1.61","2924939","co38755","norming","","","","","","",""
"3112.574999999022","","","post_mooney1_questions","survey-likert","435","1468433","0.0-6.0-2.61","2924939","co38755","norming","","","{""curiosity"":1,""confidence"":1}","[0,1]","../img/tt/1250tt.jpg","",""
"2406.179999999935","","","recognition","survey-text","436","1470841","0.0-6.0-3.61","2924939","co38755","norming","","","{""guess"":""geiten""}","","../img/tt/1250tt.jpg","",""
"null","../img/gs/1250gs.jpg","null","reveal","image-keyboard-response","437","1472847","0.0-6.0-4.61","2924939","co38755","norming","","","","","","",""
"null","../img/tt/1250tt.jpg","null","mooney2","image-keyboard-response","438","1474850","0.0-6.0-5.61","2924939","co38755","norming","","","","","","",""
"3268.265000000596","","","post_reveal_questions","survey-likert","439","1478121","0.0-6.0-6.61","2924939","co38755","norming","","","{""aha"":1}","[0]","../img/tt/1250tt.jpg","",""
"null","<div style=""font-size:60px;""> </div>","null","fixation","html-keyboard-response","440","1478323","0.0-6.0-0.62","2924939","co38755","norming","","","","","","",""
"null","../img/tt/1260tt.jpg","null","mooney1","image-keyboard-response","441","1481331","0.0-6.0-1.62","2924939","co38755","norming","","","","","","",""
"2895.7249999984633","","","post_mooney1_questions","survey-likert","442","1484230","0.0-6.0-2.62","2924939","co38755","norming","","","{""curiosity"":4,""confidence"":0}","[0,1]","../img/tt/1260tt.jpg","",""
"582.6849999995902","","","recognition","survey-text","443","1484814","0.0-6.0-3.62","2924939","co38755","norming","","","{""guess"":""""}","","../img/tt/1260tt.jpg","",""
"null","../img/gs/1260gs.jpg","null","reveal","image-keyboard-response","444","1486819","0.0-6.0-4.62","2924939","co38755","norming","","","","","","",""
"null","../img/tt/1260tt.jpg","null","mooney2","image-keyboard-response","445","1488825","0.0-6.0-5.62","2924939","co38755","norming","","","","","","",""
"2394.5750000001863","","","post_reveal_questions","survey-likert","446","1491222","0.0-6.0-6.62","2924939","co38755","norming","","","{""aha"":3}","[0]","../img/tt/1260tt.jpg","",""
"null","<div style=""font-size:60px;""> </div>","null","fixation","html-keyboard-response","447","1491423","0.0-6.0-0.63","2924939","co38755","norming","","","","","","",""
"null","../img/tt/135tt.jpg","null","mooney1","image-keyboard-response","448","1494426","0.0-6.0-1.63","2924939","co38755","norming","","","","","","",""
"3106.7099999999627","","","post_mooney1_questions","survey-likert","449","1497534","0.0-6.0-2.63","2924939","co38755","norming","","","{""curiosity"":1,""confidence"":1}","[0,1]","../img/tt/135tt.jpg","",""
"2014.3200000000652","","","recognition","survey-text","450","1499550","0.0-6.0-3.63","2924939","co38755","norming","","","{""guess"":""hoed""}","","../img/tt/135tt.jpg","",""
"null","../img/gs/135gs.jpg","null","reveal","image-keyboard-response","451","1501561","0.0-6.0-4.63","2924939","co38755","norming","","","","","","",""
"null","../img/tt/135tt.jpg","null","mooney2","image-keyboard-response","452","1503564","0.0-6.0-5.63","2924939","co38755","norming","","","","","","",""
"2359.2499999995343","","","post_reveal_questions","survey-likert","453","1505926","0.0-6.0-6.63","2924939","co38755","norming","","","{""aha"":3}","[0]","../img/tt/135tt.jpg","",""
"null","<div style=""font-size:60px;""> </div>","null","fixation","html-keyboard-response","454","1506128","0.0-6.0-0.64","2924939","co38755","norming","","","","","","",""
"null","../img/tt/1125tt.jpg","null","mooney1","image-keyboard-response","455","1509135","0.0-6.0-1.64","2924939","co38755","norming","","","","","","",""
"3324.4899999990594","","","post_mooney1_questions","survey-likert","456","1512462","0.0-6.0-2.64","2924939","co38755","norming","","","{""curiosity"":3,""confidence"":3}","[0,1]","../img/tt/1125tt.jpg","",""
"1693.9349999993574","","","recognition","survey-text","457","1514158","0.0-6.0-3.64","2924939","co38755","norming","","","{""guess"":""kind""}","","../img/tt/1125tt.jpg","",""
"null","../img/gs/1125gs.jpg","null","reveal","image-keyboard-response","458","1516165","0.0-6.0-4.64","2924939","co38755","norming","","","","","","",""
"null","../img/tt/1125tt.jpg","null","mooney2","image-keyboard-response","459","1518176","0.0-6.0-5.64","2924939","co38755","norming","","","","","","",""
"6755.825000000186","","","post_reveal_questions","survey-likert","460","1524934","0.0-6.0-6.64","2924939","co38755","norming","","","{""aha"":0}","[0]","../img/tt/1125tt.jpg","",""
"null","<div style=""font-size:60px;""> </div>","null","fixation","html-keyboard-response","461","1525136","0.0-6.0-0.65","2924939","co38755","norming","","","","","","",""
"null","../img/tt/121tt.jpg","null","mooney1","image-keyboard-response","462","1528138","0.0-6.0-1.65","2924939","co38755","norming","","","","","","",""
"3088.525000001071","","","post_mooney1_questions","survey-likert","463","1531230","0.0-6.0-2.65","2924939","co38755","norming","","","{""curiosity"":2,""confidence"":1}","[0,1]","../img/tt/121tt.jpg","",""
"2030.2049999989104","","","recognition","survey-text","464","1533262","0.0-6.0-3.65","2924939","co38755","norming","","","{""guess"":""varen""}","","../img/tt/121tt.jpg","",""
"null","../img/gs/121gs.jpg","null","reveal","image-keyboard-response","465","1535263","0.0-6.0-4.65","2924939","co38755","norming","","","","","","",""
"null","../img/tt/121tt.jpg","null","mooney2","image-keyboard-response","466","1537273","0.0-6.0-5.65","2924939","co38755","norming","","","","","","",""
"1850.4550000014715","","","post_reveal_questions","survey-likert","467","1539126","0.0-6.0-6.65","2924939","co38755","norming","","","{""aha"":2}","[0]","../img/tt/121tt.jpg","",""
"null","<div style=""font-size:60px;""> </div>","null","fixation","html-keyboard-response","468","1539328","0.0-6.0-0.66","2924939","co38755","norming","","","","","","",""
"null","../img/tt/306tt.jpg","null","mooney1","image-keyboard-response","469","1542340","0.0-6.0-1.66","2924939","co38755","norming","","","","","","",""
"2791.280000001425","","","post_mooney1_questions","survey-likert","470","1545135","0.0-6.0-2.66","2924939","co38755","norming","","","{""curiosity"":1,""confidence"":0}","[0,1]","../img/tt/306tt.jpg","",""
"2286.2249999998603","","","recognition","survey-text","471","1547423","0.0-6.0-3.66","2924939","co38755","norming","","","{""guess"":""brood""}","","../img/tt/306tt.jpg","",""
"null","../img/gs/306gs.jpg","null","reveal","image-keyboard-response","472","1549432","0.0-6.0-4.66","2924939","co38755","norming","","","","","","",""
"null","../img/tt/306tt.jpg","null","mooney2","image-keyboard-response","473","1551434","0.0-6.0-5.66","2924939","co38755","norming","","","","","","",""
"1321.9800000006799","","","post_reveal_questions","survey-likert","474","1552759","0.0-6.0-6.66","2924939","co38755","norming","","","{""aha"":1}","[0]","../img/tt/306tt.jpg","",""
"null","<div style=""font-size:60px;""> </div>","null","fixation","html-keyboard-response","475","1552960","0.0-6.0-0.67","2924939","co38755","norming","","","","","","",""
"null","../img/tt/056tt.jpg","null","mooney1","image-keyboard-response","476","1555962","0.0-6.0-1.67","2924939","co38755","norming","","","","","","",""
"3657.7500000004657","","","post_mooney1_questions","survey-likert","477","1559623","0.0-6.0-2.67","2924939","co38755","norming","","","{""curiosity"":4,""confidence"":0}","[0,1]","../img/tt/056tt.jpg","",""
"526.0699999998324","","","recognition","survey-text","478","1560151","0.0-6.0-3.67","2924939","co38755","norming","","","{""guess"":""""}","","../img/tt/056tt.jpg","",""
"null","../img/gs/056gs.jpg","null","reveal","image-keyboard-response","479","1562157","0.0-6.0-4.67","2924939","co38755","norming","","","","","","",""
"null","../img/tt/056tt.jpg","null","mooney2","image-keyboard-response","480","1564160","0.0-6.0-5.67","2924939","co38755","norming","","","","","","",""
"1883.5049999998882","","","post_reveal_questions","survey-likert","481","1566046","0.0-6.0-6.67","2924939","co38755","norming","","","{""aha"":1}","[0]","../img/tt/056tt.jpg","",""
"null","<div style=""font-size:60px;""> </div>","null","fixation","html-keyboard-response","482","1566247","0.0-6.0-0.68","2924939","co38755","norming","","","","","","",""
"null","../img/tt/1061tt.jpg","null","mooney1","image-keyboard-response","483","1569257","0.0-6.0-1.68","2924939","co38755","norming","","","","","","",""
"7938.845000000671","","","post_mooney1_questions","survey-likert","484","1577199","0.0-6.0-2.68","2924939","co38755","norming","","","{""curiosity"":2,""confidence"":0}","[0,1]","../img/tt/1061tt.jpg","",""
"645.999999998603","","","recognition","survey-text","485","1577847","0.0-6.0-3.68","2924939","co38755","norming","","","{""guess"":""""}","","../img/tt/1061tt.jpg","",""
"null","../img/gs/1061gs.jpg","null","reveal","image-keyboard-response","486","1579853","0.0-6.0-4.68","2924939","co38755","norming","","","","","","",""
"null","../img/tt/1061tt.jpg","null","mooney2","image-keyboard-response","487","1581855","0.0-6.0-5.68","2924939","co38755","norming","","","","","","",""
"2580.765000000596","","","post_reveal_questions","survey-likert","488","1584439","0.0-6.0-6.68","2924939","co38755","norming","","","{""aha"":1}","[0]","../img/tt/1061tt.jpg","",""
"null","<div style=""font-size:60px;""> </div>","null","fixation","html-keyboard-response","489","1584644","0.0-6.0-0.69","2924939","co38755","norming","","","","","","",""
"null","../img/tt/081tt.jpg","null","mooney1","image-keyboard-response","490","1587648","0.0-6.0-1.69","2924939","co38755","norming","","","","","","",""
"5475.445000000065","","","post_mooney1_questions","survey-likert","491","1593127","0.0-6.0-2.69","2924939","co38755","norming","","","{""curiosity"":2,""confidence"":3}","[0,1]","../img/tt/081tt.jpg","",""
"2406.204999999376","","","recognition","survey-text","492","1595535","0.0-6.0-3.69","2924939","co38755","norming","","","{""guess"":""kikker""}","","../img/tt/081tt.jpg","",""
"null","../img/gs/081gs.jpg","null","reveal","image-keyboard-response","493","1597536","0.0-6.0-4.69","2924939","co38755","norming","","","","","","",""
"null","../img/tt/081tt.jpg","null","mooney2","image-keyboard-response","494","1599539","0.0-6.0-5.69","2924939","co38755","norming","","","","","","",""
"2688.9849999987055","","","post_reveal_questions","survey-likert","495","1602231","0.0-6.0-6.69","2924939","co38755","norming","","","{""aha"":1}","[0]","../img/tt/081tt.jpg","",""
"null","<div style=""font-size:60px;""> </div>","null","fixation","html-keyboard-response","496","1602433","0.0-6.0-0.70","2924939","co38755","norming","","","","","","",""
"null","../img/tt/442tt.jpg","null","mooney1","image-keyboard-response","497","1605439","0.0-6.0-1.70","2924939","co38755","norming","","","","","","",""
"2788.445000000065","","","post_mooney1_questions","survey-likert","498","1608231","0.0-6.0-2.70","2924939","co38755","norming","","","{""curiosity"":1,""confidence"":1}","[0,1]","../img/tt/442tt.jpg","",""
"2118.194999999134","","","recognition","survey-text","499","1610351","0.0-6.0-3.70","2924939","co38755","norming","","","{""guess"":""egel""}","","../img/tt/442tt.jpg","",""
"null","../img/gs/442gs.jpg","null","reveal","image-keyboard-response","500","1612358","0.0-6.0-4.70","2924939","co38755","norming","","","","","","",""
"null","../img/tt/442tt.jpg","null","mooney2","image-keyboard-response","501","1614361","0.0-6.0-5.70","2924939","co38755","norming","","","","","","",""
"3979.470000000205","","","post_reveal_questions","survey-likert","502","1618343","0.0-6.0-6.70","2924939","co38755","norming","","","{""aha"":5}","[0]","../img/tt/442tt.jpg","",""
"null","<div style=""font-size:60px;""> </div>","null","fixation","html-keyboard-response","503","1618544","0.0-6.0-0.71","2924939","co38755","norming","","","","","","",""
"null","../img/tt/524tt.jpg","null","mooney1","image-keyboard-response","504","1621549","0.0-6.0-1.71","2924939","co38755","norming","","","","","","",""
"2975.4300000004005","","","post_mooney1_questions","survey-likert","505","1624527","0.0-6.0-2.71","2924939","co38755","norming","","","{""curiosity"":2,""confidence"":2}","[0,1]","../img/tt/524tt.jpg","",""
"2702.05999999959","","","recognition","survey-text","506","1627231","0.0-6.0-3.71","2924939","co38755","norming","","","{""guess"":""paard""}","","../img/tt/524tt.jpg","",""
"null","../img/gs/524gs.jpg","null","reveal","image-keyboard-response","507","1629239","0.0-6.0-4.71","2924939","co38755","norming","","","","","","",""
"null","../img/tt/524tt.jpg","null","mooney2","image-keyboard-response","508","1631241","0.0-6.0-5.71","2924939","co38755","norming","","","","","","",""
"2395.549999999348","","","post_reveal_questions","survey-likert","509","1633639","0.0-6.0-6.71","2924939","co38755","norming","","","{""aha"":3}","[0]","../img/tt/524tt.jpg","",""
"null","<div style=""font-size:60px;""> </div>","null","fixation","html-keyboard-response","510","1633841","0.0-6.0-0.72","2924939","co38755","norming","","","","","","",""
"null","../img/tt/1272tt.jpg","null","mooney1","image-keyboard-response","511","1636843","0.0-6.0-1.72","2924939","co38755","norming","","","","","","",""
"2712.7099999999627","","","post_mooney1_questions","survey-likert","512","1639559","0.0-6.0-2.72","2924939","co38755","norming","","","{""curiosity"":2,""confidence"":3}","[0,1]","../img/tt/1272tt.jpg","",""
"2229.7249999993946","","","recognition","survey-text","513","1641791","0.0-6.0-3.72","2924939","co38755","norming","","","{""guess"":""cactus""}","","../img/tt/1272tt.jpg","",""
"null","../img/gs/1272gs.jpg","null","reveal","image-keyboard-response","514","1643801","0.0-6.0-4.72","2924939","co38755","norming","","","","","","",""
"null","../img/tt/1272tt.jpg","null","mooney2","image-keyboard-response","515","1645812","0.0-6.0-5.72","2924939","co38755","norming","","","","","","",""
"3319.805000001099","","","post_reveal_questions","survey-likert","516","1649135","0.0-6.0-6.72","2924939","co38755","norming","","","{""aha"":4}","[0]","../img/tt/1272tt.jpg","",""
"null","<div style=""font-size:60px;""> </div>","null","fixation","html-keyboard-response","517","1649336","0.0-6.0-0.73","2924939","co38755","norming","","","","","","",""
"null","../img/tt/1143tt.jpg","null","mooney1","image-keyboard-response","518","1652344","0.0-6.0-1.73","2924939","co38755","norming","","","","","","",""
"2876.200000000419","","","post_mooney1_questions","survey-likert","519","1655223","0.0-6.0-2.73","2924939","co38755","norming","","","{""curiosity"":2,""confidence"":2}","[0,1]","../img/tt/1143tt.jpg","",""
"3270.3349999992643","","","recognition","survey-text","520","1658495","0.0-6.0-3.73","2924939","co38755","norming","","","{""guess"":""fitness""}","","../img/tt/1143tt.jpg","",""
"null","../img/gs/1143gs.jpg","null","reveal","image-keyboard-response","521","1660496","0.0-6.0-4.73","2924939","co38755","norming","","","","","","",""
"null","../img/tt/1143tt.jpg","null","mooney2","image-keyboard-response","522","1662500","0.0-6.0-5.73","2924939","co38755","norming","","","","","","",""
"1761.2349999998696","","","post_reveal_questions","survey-likert","523","1664264","0.0-6.0-6.73","2924939","co38755","norming","","","{""aha"":2}","[0]","../img/tt/1143tt.jpg","",""
"null","<div style=""font-size:60px;""> </div>","null","fixation","html-keyboard-response","524","1664465","0.0-6.0-0.74","2924939","co38755","norming","","","","","","",""
"null","../img/tt/1127tt.jpg","null","mooney1","image-keyboard-response","525","1667470","0.0-6.0-1.74","2924939","co38755","norming","","","","","","",""
"3358.4100000008475","","","post_mooney1_questions","survey-likert","526","1670832","0.0-6.0-2.74","2924939","co38755","norming","","","{""curiosity"":2,""confidence"":1}","[0,1]","../img/tt/1127tt.jpg","",""
"1486.139999999199","","","recognition","survey-text","527","1672320","0.0-6.0-3.74","2924939","co38755","norming","","","{""guess"":""ober""}","","../img/tt/1127tt.jpg","",""
"null","../img/gs/1127gs.jpg","null","reveal","image-keyboard-response","528","1674322","0.0-6.0-4.74","2924939","co38755","norming","","","","","","",""
"null","../img/tt/1127tt.jpg","null","mooney2","image-keyboard-response","529","1676324","0.0-6.0-5.74","2924939","co38755","norming","","","","","","",""
"1824.9599999999627","","","post_reveal_questions","survey-likert","530","1678152","0.0-6.0-6.74","2924939","co38755","norming","","","{""aha"":1}","[0]","../img/tt/1127tt.jpg","",""
"null","<div style=""font-size:60px;""> </div>","null","fixation","html-keyboard-response","531","1678355","0.0-6.0-0.75","2924939","co38755","norming","","","","","","",""
"null","../img/tt/1363tt.jpg","null","mooney1","image-keyboard-response","532","1681361","0.0-6.0-1.75","2924939","co38755","norming","","","","","","",""
"3331.635000000475","","","post_mooney1_questions","survey-likert","533","1684696","0.0-6.0-2.75","2924939","co38755","norming","","","{""curiosity"":1,""confidence"":2}","[0,1]","../img/tt/1363tt.jpg","",""
"2550.0649999994785","","","recognition","survey-text","534","1687248","0.0-6.0-3.75","2924939","co38755","norming","","","{""guess"":""saus""}","","../img/tt/1363tt.jpg","",""
"null","../img/gs/1363gs.jpg","null","reveal","image-keyboard-response","535","1689251","0.0-6.0-4.75","2924939","co38755","norming","","","","","","",""
"null","../img/tt/1363tt.jpg","null","mooney2","image-keyboard-response","536","1691258","0.0-6.0-5.75","2924939","co38755","norming","","","","","","",""
"2978.7149999993853","","","post_reveal_questions","survey-likert","537","1694240","0.0-6.0-6.75","2924939","co38755","norming","","","{""aha"":1}","[0]","../img/tt/1363tt.jpg","",""
"null","<div style=""font-size:60px;""> </div>","null","fixation","html-keyboard-response","538","1694442","0.0-6.0-0.76","2924939","co38755","norming","","","","","","",""
"null","../img/tt/1151tt.jpg","null","mooney1","image-keyboard-response","539","1697449","0.0-6.0-1.76","2924939","co38755","norming","","","","","","",""
"2419.290000001667","","","post_mooney1_questions","survey-likert","540","1699872","0.0-6.0-2.76","2924939","co38755","norming","","","{""curiosity"":2,""confidence"":0}","[0,1]","../img/tt/1151tt.jpg","",""
"422.23999999975786","","","recognition","survey-text","541","1700296","0.0-6.0-3.76","2924939","co38755","norming","","","{""guess"":""""}","","../img/tt/1151tt.jpg","",""
"null","../img/gs/1151gs.jpg","null","reveal","image-keyboard-response","542","1702302","0.0-6.0-4.76","2924939","co38755","norming","","","","","","",""
"null","../img/tt/1151tt.jpg","null","mooney2","image-keyboard-response","543","1704306","0.0-6.0-5.76","2924939","co38755","norming","","","","","","",""
"2154.7650000010617","","","post_reveal_questions","survey-likert","544","1706464","0.0-6.0-6.76","2924939","co38755","norming","","","{""aha"":1}","[0]","../img/tt/1151tt.jpg","",""
"null","<div style=""font-size:60px;""> </div>","null","fixation","html-keyboard-response","545","1706665","0.0-6.0-0.77","2924939","co38755","norming","","","","","","",""
"null","../img/tt/082tt.jpg","null","mooney1","image-keyboard-response","546","1709670","0.0-6.0-1.77","2924939","co38755","norming","","","","","","",""
"3918.2099999999627","","","post_mooney1_questions","survey-likert","547","1713592","0.0-6.0-2.77","2924939","co38755","norming","","","{""curiosity"":4,""confidence"":0}","[0,1]","../img/tt/082tt.jpg","",""
"926.125","","","recognition","survey-text","548","1714520","0.0-6.0-3.77","2924939","co38755","norming","","","{""guess"":""""}","","../img/tt/082tt.jpg","",""
"null","../img/gs/082gs.jpg","null","reveal","image-keyboard-response","549","1716528","0.0-6.0-4.77","2924939","co38755","norming","","","","","","",""
"null","../img/tt/082tt.jpg","null","mooney2","image-keyboard-response","550","1718531","0.0-6.0-5.77","2924939","co38755","norming","","","","","","",""
"2665.930000001099","","","post_reveal_questions","survey-likert","551","1721200","0.0-6.0-6.77","2924939","co38755","norming","","","{""aha"":3}","[0]","../img/tt/082tt.jpg","",""
"null","<div style=""font-size:60px;""> </div>","null","fixation","html-keyboard-response","552","1721402","0.0-6.0-0.78","2924939","co38755","norming","","","","","","",""
