"rt","stimulus","key_press","test_part","trial_type","trial_index","time_elapsed","internal_node_id","totalTime","subject","experiment_name","button_pressed","success","responses","question_order","currentStim","old","correct"
"43106.7750000002","Welcome to the experiment. This is an online experiment so please don't close the tab/window until we say goodbye.  Press any key to begin.","67","instructions","html-keyboard-response","0","43125","0.0-0.0","4083208","co38179","norming","","","","","","",""
"59769.084999999905","<div style='word-wrap: break-word; width: 900px'><h3>Please consider this information carefully before deciding whether to participate in this research</h3><ul style='text-align: left; font-size: .8em;'><li><b>Purpose of the research</b>: To examine how people process images.</li><li><b>What you will do in this research</b>:  Stimuli (images) will be presented on the computer and you will be asked different questions about them.</li><li><b>Time required</b>: Participation will take between 45 and 60 minutes to complete.</li><li><b>Risks</b>:  There are no anticipated risks associated with participating in this study. The effects of participating should be comparable to those you would experience from viewing a computer monitor for 30 minutes and using a mouse or keyboard.</li><li><b>Benefits</b>:  This study provides no benefits to you individually except for the credit. The study provides important information about the nature of perception and learning.</li><li><b>Confidentiality</b>:  Your participation in this study will remain confidential. No personally identifiable information will be associated with your data. Your de-identified data may be shared with other researchers and used in future projects.</li><li><b>Participation and withdrawal</b>:  Your participation in this study is completely voluntary and you may refuse to participate or you may choose to withdraw at any time without penalty.</li><li><b>How to contact the researchers</b>: If you have questions or concerns about your participation or payment, or want to request a summary of research findings, please contact Sander Van de Cruys (KU Leuven), at sander.vandecruys@kuleuven.be.</li></ul><p>The nature and purpose of this research have been sufficiently explained and I agree to participate in this study.  I understand that I am free to withdraw at any time without incurring any penalty.</p><p>Please consent by clicking the button below to continue. Otherwise, please exit the study at this time.</p></div>","","instructions","html-button-response","1","102898","0.0-1.0","4083208","co38179","norming","0","","","","","",""
"","","","instructions","fullscreen","2","109917","0.0-2.0","4083208","co38179","norming","","true","","","","",""
"73322.94000000184","","","sona","survey-html-form","3","183249","0.0-3.0","4083208","co38179","norming","","","[{""name"":""sonaid"",""value"":""38179""},{""name"":""debrief"",""value"":""yes""},{""name"":""datajoin"",""value"":""yes""}]","","","",""
"87907.9700000002","<div style='word-wrap: break-word; width: 900px'><h3>Instructions</h3><p>This experiment will have 3 parts. In the first part you will see a series of distorted images like the one below on the left. As you can see in the righthand image, the distorted images are derived from actual photographs. In what follows, you will <strong>briefly</strong> be presented with <strong>only</strong> the distorted image.</p> <div style='float: left; margin-right: 20px;'><img src='../img/018tt.jpg' height='250' width='250'></img></div><div style='float: right; margin-left: 20px;'><img src='../img/018gs.jpg' height='250' width='250'></img></div><p>Subsequently you will be asked a few questions about the image: One question on how <strong>curious</strong> you are about the solution and one on how <strong>confident</strong> you are that you know the solution.</p>Next, we ask you to make a guess on what is in the image. Note that it is OK to name just the <strong>basic level category</strong>. For example when you see a parrot in the image, 'parrot' will obviously be a correct answer but also correct is 'bird'. However, 'animal' will <strong>not</strong> be counted as a correct response. For the example above, 'rose' would be correct or 'flower', but not 'plant'. When soccer players are depicted, 'soccer', 'football', 'soccer players' will be correct, but not 'humans', 'outdoors', or 'sports'. You do not need to describe the image in full, just name the main object in it <strong>in one or two words</strong>. All images depict objects from one of the following broad level categories: animals, inanimate objects, plants, sports, vehicles, and food. Recognizing means knowing <strong>more</strong> than these broad labels for a given image. But we always encourage you to <strong>make a guess</strong> if you can. Note that you are allowed to use <strong>Dutch and English</strong> in your answers, whatever comes easiest for you.</p><p>Press any key to continue.</p></div>","67","instructions","html-keyboard-response","4","271161","0.0-4.0","4083208","co38179","norming","","","","","","",""
"13597.945000001346","<div style='word-wrap: break-word; width: 900px'><h3>Instructions</h3> <p>Next, the solution image will be revealed to you and you'll be asked to indicate how strong your <strong>aha-experience</strong> was after seeing the solution. This describes the positive feeling of the 'click' you sometimes experience, when the pieces of the 'puzzle' fall together and you suddenly have 'insight' in the image.</p><img src='aha.jpg' height='188' width='250'></img><p>Note that there are no right or wrong answers. We are interested in what <strong>you</strong> see in the image and how <strong>you</strong> feel about it.</p><p>Press any key to start the experiment.</p></div>","67","instructions","html-keyboard-response","5","284760","0.0-5.0","4083208","co38179","norming","","","","","","",""
"null","<div style=""font-size:60px;""> </div>","null","fixation","html-keyboard-response","6","284963","0.0-6.0-0.0","4083208","co38179","norming","","","","","","",""
"null","../img/tt/584tt.jpg","null","mooney1","image-keyboard-response","7","287968","0.0-6.0-1.0","4083208","co38179","norming","","","","","","",""
"17644.319999999367","","","post_mooney1_questions","survey-likert","8","305616","0.0-6.0-2.0","4083208","co38179","norming","","","{""curiosity"":4,""confidence"":4}","[0,1]","../img/tt/584tt.jpg","",""
"11365.454999999201","","","recognition","survey-text","9","316983","0.0-6.0-3.0","4083208","co38179","norming","","","{""guess"":""flower""}","","../img/tt/584tt.jpg","",""
"null","../img/gs/584gs.jpg","null","reveal","image-keyboard-response","10","318986","0.0-6.0-4.0","4083208","co38179","norming","","","","","","",""
"null","../img/tt/584tt.jpg","null","mooney2","image-keyboard-response","11","320989","0.0-6.0-5.0","4083208","co38179","norming","","","","","","",""
"7744.360000000626","","","post_reveal_questions","survey-likert","12","328735","0.0-6.0-6.0","4083208","co38179","norming","","","{""aha"":5}","[0]","../img/tt/584tt.jpg","",""
"null","<div style=""font-size:60px;""> </div>","null","fixation","html-keyboard-response","13","328938","0.0-6.0-0.1","4083208","co38179","norming","","","","","","",""
"null","../img/tt/1004tt.jpg","null","mooney1","image-keyboard-response","14","331942","0.0-6.0-1.1","4083208","co38179","norming","","","","","","",""
"10296.825000001292","","","post_mooney1_questions","survey-likert","15","342241","0.0-6.0-2.1","4083208","co38179","norming","","","{""curiosity"":5,""confidence"":4}","[0,1]","../img/tt/1004tt.jpg","",""
"22989.959999998973","","","recognition","survey-text","16","365233","0.0-6.0-3.1","4083208","co38179","norming","","","{""guess"":""luipaard""}","","../img/tt/1004tt.jpg","",""
"null","../img/gs/1004gs.jpg","null","reveal","image-keyboard-response","17","367236","0.0-6.0-4.1","4083208","co38179","norming","","","","","","",""
"null","../img/tt/1004tt.jpg","null","mooney2","image-keyboard-response","18","369238","0.0-6.0-5.1","4083208","co38179","norming","","","","","","",""
"11136.805000001914","","","post_reveal_questions","survey-likert","19","380377","0.0-6.0-6.1","4083208","co38179","norming","","","{""aha"":6}","[0]","../img/tt/1004tt.jpg","",""
"null","<div style=""font-size:60px;""> </div>","null","fixation","html-keyboard-response","20","380578","0.0-6.0-0.2","4083208","co38179","norming","","","","","","",""
"null","../img/tt/307tt.jpg","null","mooney1","image-keyboard-response","21","383581","0.0-6.0-1.2","4083208","co38179","norming","","","","","","",""
"8553.664999999455","","","post_mooney1_questions","survey-likert","22","392138","0.0-6.0-2.2","4083208","co38179","norming","","","{""curiosity"":5,""confidence"":1}","[0,1]","../img/tt/307tt.jpg","",""
"12726.020000001881","","","recognition","survey-text","23","404865","0.0-6.0-3.2","4083208","co38179","norming","","","{""guess"":""instrument""}","","../img/tt/307tt.jpg","",""
"null","../img/gs/307gs.jpg","null","reveal","image-keyboard-response","24","406868","0.0-6.0-4.2","4083208","co38179","norming","","","","","","",""
"null","../img/tt/307tt.jpg","null","mooney2","image-keyboard-response","25","408870","0.0-6.0-5.2","4083208","co38179","norming","","","","","","",""
"8561.365000001388","","","post_reveal_questions","survey-likert","26","417434","0.0-6.0-6.2","4083208","co38179","norming","","","{""aha"":5}","[0]","../img/tt/307tt.jpg","",""
"null","<div style=""font-size:60px;""> </div>","null","fixation","html-keyboard-response","27","417636","0.0-6.0-0.3","4083208","co38179","norming","","","","","","",""
"null","../img/tt/524tt.jpg","null","mooney1","image-keyboard-response","28","420638","0.0-6.0-1.3","4083208","co38179","norming","","","","","","",""
"14225.135000000591","","","post_mooney1_questions","survey-likert","29","434866","0.0-6.0-2.3","4083208","co38179","norming","","","{""curiosity"":5,""confidence"":2}","[0,1]","../img/tt/524tt.jpg","",""
"20510.064999998547","","","recognition","survey-text","30","455377","0.0-6.0-3.3","4083208","co38179","norming","","","{""guess"":""zeeleeuw""}","","../img/tt/524tt.jpg","",""
"null","../img/gs/524gs.jpg","null","reveal","image-keyboard-response","31","457379","0.0-6.0-4.3","4083208","co38179","norming","","","","","","",""
"null","../img/tt/524tt.jpg","null","mooney2","image-keyboard-response","32","459381","0.0-6.0-5.3","4083208","co38179","norming","","","","","","",""
"5914.474999997765","","","post_reveal_questions","survey-likert","33","465297","0.0-6.0-6.3","4083208","co38179","norming","","","{""aha"":5}","[0]","../img/tt/524tt.jpg","",""
"null","<div style=""font-size:60px;""> </div>","null","fixation","html-keyboard-response","34","465498","0.0-6.0-0.4","4083208","co38179","norming","","","","","","",""
"null","../img/tt/078tt.jpg","null","mooney1","image-keyboard-response","35","468502","0.0-6.0-1.4","4083208","co38179","norming","","","","","","",""
"6569.865000001271","","","post_mooney1_questions","survey-likert","36","475074","0.0-6.0-2.4","4083208","co38179","norming","","","{""curiosity"":5,""confidence"":1}","[0,1]","../img/tt/078tt.jpg","",""
"8694.035000000498","","","recognition","survey-text","37","483769","0.0-6.0-3.4","4083208","co38179","norming","","","{""guess"":""druiven""}","","../img/tt/078tt.jpg","",""
"null","../img/gs/078gs.jpg","null","reveal","image-keyboard-response","38","485772","0.0-6.0-4.4","4083208","co38179","norming","","","","","","",""
"null","../img/tt/078tt.jpg","null","mooney2","image-keyboard-response","39","487774","0.0-6.0-5.4","4083208","co38179","norming","","","","","","",""
"15770.47500000114","","","post_reveal_questions","survey-likert","40","503546","0.0-6.0-6.4","4083208","co38179","norming","","","{""aha"":2}","[0]","../img/tt/078tt.jpg","",""
"null","<div style=""font-size:60px;""> </div>","null","fixation","html-keyboard-response","41","503748","0.0-6.0-0.5","4083208","co38179","norming","","","","","","",""
"null","../img/tt/1275tt.jpg","null","mooney1","image-keyboard-response","42","506751","0.0-6.0-1.5","4083208","co38179","norming","","","","","","",""
"17376.090000001597","","","post_mooney1_questions","survey-likert","43","524130","0.0-6.0-2.5","4083208","co38179","norming","","","{""curiosity"":5,""confidence"":1}","[0,1]","../img/tt/1275tt.jpg","",""
"7133.959999999264","","","recognition","survey-text","44","531265","0.0-6.0-3.5","4083208","co38179","norming","","","{""guess"":""""}","","../img/tt/1275tt.jpg","",""
"null","../img/gs/1275gs.jpg","null","reveal","image-keyboard-response","45","533267","0.0-6.0-4.5","4083208","co38179","norming","","","","","","",""
"null","../img/tt/1275tt.jpg","null","mooney2","image-keyboard-response","46","535269","0.0-6.0-5.5","4083208","co38179","norming","","","","","","",""
"14642.81000000122","","","post_reveal_questions","survey-likert","47","549914","0.0-6.0-6.5","4083208","co38179","norming","","","{""aha"":5}","[0]","../img/tt/1275tt.jpg","",""
"null","<div style=""font-size:60px;""> </div>","null","fixation","html-keyboard-response","48","550115","0.0-6.0-0.6","4083208","co38179","norming","","","","","","",""
"null","../img/tt/1283tt.jpg","null","mooney1","image-keyboard-response","49","553120","0.0-6.0-1.6","4083208","co38179","norming","","","","","","",""
"10279.515000001993","","","post_mooney1_questions","survey-likert","50","563402","0.0-6.0-2.6","4083208","co38179","norming","","","{""curiosity"":4,""confidence"":1}","[0,1]","../img/tt/1283tt.jpg","",""
"4870.10999999987","","","recognition","survey-text","51","568273","0.0-6.0-3.6","4083208","co38179","norming","","","{""guess"":""forest""}","","../img/tt/1283tt.jpg","",""
"null","../img/gs/1283gs.jpg","null","reveal","image-keyboard-response","52","570275","0.0-6.0-4.6","4083208","co38179","norming","","","","","","",""
"null","../img/tt/1283tt.jpg","null","mooney2","image-keyboard-response","53","572277","0.0-6.0-5.6","4083208","co38179","norming","","","","","","",""
"10970.2799999977","","","post_reveal_questions","survey-likert","54","583249","0.0-6.0-6.6","4083208","co38179","norming","","","{""aha"":3}","[0]","../img/tt/1283tt.jpg","",""
"null","<div style=""font-size:60px;""> </div>","null","fixation","html-keyboard-response","55","583451","0.0-6.0-0.7","4083208","co38179","norming","","","","","","",""
"null","../img/tt/1247tt.jpg","null","mooney1","image-keyboard-response","56","586453","0.0-6.0-1.7","4083208","co38179","norming","","","","","","",""
"13731.2649999985","","","post_mooney1_questions","survey-likert","57","600186","0.0-6.0-2.7","4083208","co38179","norming","","","{""curiosity"":5,""confidence"":4}","[0,1]","../img/tt/1247tt.jpg","",""
"4270.254999999423","","","recognition","survey-text","58","604458","0.0-6.0-3.7","4083208","co38179","norming","","","{""guess"":""lion""}","","../img/tt/1247tt.jpg","",""
"null","../img/gs/1247gs.jpg","null","reveal","image-keyboard-response","59","606458","0.0-6.0-4.7","4083208","co38179","norming","","","","","","",""
"null","../img/tt/1247tt.jpg","null","mooney2","image-keyboard-response","60","608460","0.0-6.0-5.7","4083208","co38179","norming","","","","","","",""
"5404.344999999041","","","post_reveal_questions","survey-likert","61","613865","0.0-6.0-6.7","4083208","co38179","norming","","","{""aha"":2}","[0]","../img/tt/1247tt.jpg","",""
"null","<div style=""font-size:60px;""> </div>","null","fixation","html-keyboard-response","62","614067","0.0-6.0-0.8","4083208","co38179","norming","","","","","","",""
"null","../img/tt/1116tt.jpg","null","mooney1","image-keyboard-response","63","617070","0.0-6.0-1.8","4083208","co38179","norming","","","","","","",""
"13232.62000000244","","","post_mooney1_questions","survey-likert","64","630306","0.0-6.0-2.8","4083208","co38179","norming","","","{""curiosity"":5,""confidence"":1}","[0,1]","../img/tt/1116tt.jpg","",""
"9909.91500000027","","","recognition","survey-text","65","640217","0.0-6.0-3.8","4083208","co38179","norming","","","{""guess"":""banden""}","","../img/tt/1116tt.jpg","",""
"null","../img/gs/1116gs.jpg","null","reveal","image-keyboard-response","66","642219","0.0-6.0-4.8","4083208","co38179","norming","","","","","","",""
"null","../img/tt/1116tt.jpg","null","mooney2","image-keyboard-response","67","644221","0.0-6.0-5.8","4083208","co38179","norming","","","","","","",""
"3306.4450000020443","","","post_reveal_questions","survey-likert","68","647529","0.0-6.0-6.8","4083208","co38179","norming","","","{""aha"":5}","[0]","../img/tt/1116tt.jpg","",""
"null","<div style=""font-size:60px;""> </div>","null","fixation","html-keyboard-response","69","647733","0.0-6.0-0.9","4083208","co38179","norming","","","","","","",""
"null","../img/tt/032tt.jpg","null","mooney1","image-keyboard-response","70","650736","0.0-6.0-1.9","4083208","co38179","norming","","","","","","",""
"4695.2200000014855","","","post_mooney1_questions","survey-likert","71","655434","0.0-6.0-2.9","4083208","co38179","norming","","","{""curiosity"":4,""confidence"":4}","[0,1]","../img/tt/032tt.jpg","",""
"5022.045000001439","","","recognition","survey-text","72","660457","0.0-6.0-3.9","4083208","co38179","norming","","","{""guess"":""snake""}","","../img/tt/032tt.jpg","",""
"null","../img/gs/032gs.jpg","null","reveal","image-keyboard-response","73","662458","0.0-6.0-4.9","4083208","co38179","norming","","","","","","",""
"null","../img/tt/032tt.jpg","null","mooney2","image-keyboard-response","74","664460","0.0-6.0-5.9","4083208","co38179","norming","","","","","","",""
"2308.529999998398","","","post_reveal_questions","survey-likert","75","666769","0.0-6.0-6.9","4083208","co38179","norming","","","{""aha"":5}","[0]","../img/tt/032tt.jpg","",""
"null","<div style=""font-size:60px;""> </div>","null","fixation","html-keyboard-response","76","666972","0.0-6.0-0.10","4083208","co38179","norming","","","","","","",""
"null","../img/tt/1061tt.jpg","null","mooney1","image-keyboard-response","77","669975","0.0-6.0-1.10","4083208","co38179","norming","","","","","","",""
"16536.364999999874","","","post_mooney1_questions","survey-likert","78","686514","0.0-6.0-2.10","4083208","co38179","norming","","","{""curiosity"":4,""confidence"":1}","[0,1]","../img/tt/1061tt.jpg","",""
"4750.090000001364","","","recognition","survey-text","79","691265","0.0-6.0-3.10","4083208","co38179","norming","","","{""guess"":""garden""}","","../img/tt/1061tt.jpg","",""
"null","../img/gs/1061gs.jpg","null","reveal","image-keyboard-response","80","693268","0.0-6.0-4.10","4083208","co38179","norming","","","","","","",""
"null","../img/tt/1061tt.jpg","null","mooney2","image-keyboard-response","81","695271","0.0-6.0-5.10","4083208","co38179","norming","","","","","","",""
"6280.0349999998","","","post_reveal_questions","survey-likert","82","701553","0.0-6.0-6.10","4083208","co38179","norming","","","{""aha"":4}","[0]","../img/tt/1061tt.jpg","",""
"null","<div style=""font-size:60px;""> </div>","null","fixation","html-keyboard-response","83","701755","0.0-6.0-0.11","4083208","co38179","norming","","","","","","",""
"null","../img/tt/031tt.jpg","null","mooney1","image-keyboard-response","84","704759","0.0-6.0-1.11","4083208","co38179","norming","","","","","","",""
"6975.8849999997765","","","post_mooney1_questions","survey-likert","85","711737","0.0-6.0-2.11","4083208","co38179","norming","","","{""curiosity"":5,""confidence"":1}","[0,1]","../img/tt/031tt.jpg","",""
"4356.1750000008615","","","recognition","survey-text","86","716097","0.0-6.0-3.11","4083208","co38179","norming","","","{""guess"":""""}","","../img/tt/031tt.jpg","",""
"null","../img/gs/031gs.jpg","null","reveal","image-keyboard-response","87","718100","0.0-6.0-4.11","4083208","co38179","norming","","","","","","",""
"null","../img/tt/031tt.jpg","null","mooney2","image-keyboard-response","88","720102","0.0-6.0-5.11","4083208","co38179","norming","","","","","","",""
"3112.810000002384","","","post_reveal_questions","survey-likert","89","723217","0.0-6.0-6.11","4083208","co38179","norming","","","{""aha"":5}","[0]","../img/tt/031tt.jpg","",""
"null","<div style=""font-size:60px;""> </div>","null","fixation","html-keyboard-response","90","723419","0.0-6.0-0.12","4083208","co38179","norming","","","","","","",""
"null","../img/tt/1154tt.jpg","null","mooney1","image-keyboard-response","91","726422","0.0-6.0-1.12","4083208","co38179","norming","","","","","","",""
"9627.049999999115","","","post_mooney1_questions","survey-likert","92","736050","0.0-6.0-2.12","4083208","co38179","norming","","","{""curiosity"":4,""confidence"":5}","[0,1]","../img/tt/1154tt.jpg","",""
"6254.075000000768","","","recognition","survey-text","93","742305","0.0-6.0-3.12","4083208","co38179","norming","","","{""guess"":""kano""}","","../img/tt/1154tt.jpg","",""
"null","../img/gs/1154gs.jpg","null","reveal","image-keyboard-response","94","744306","0.0-6.0-4.12","4083208","co38179","norming","","","","","","",""
"null","../img/tt/1154tt.jpg","null","mooney2","image-keyboard-response","95","746309","0.0-6.0-5.12","4083208","co38179","norming","","","","","","",""
"4994.384999998147","","","post_reveal_questions","survey-likert","96","751305","0.0-6.0-6.12","4083208","co38179","norming","","","{""aha"":1}","[0]","../img/tt/1154tt.jpg","",""
"null","<div style=""font-size:60px;""> </div>","null","fixation","html-keyboard-response","97","751507","0.0-6.0-0.13","4083208","co38179","norming","","","","","","",""
"null","../img/tt/1101tt.jpg","null","mooney1","image-keyboard-response","98","754511","0.0-6.0-1.13","4083208","co38179","norming","","","","","","",""
"16936.710000001825","","","post_mooney1_questions","survey-likert","99","771449","0.0-6.0-2.13","4083208","co38179","norming","","","{""curiosity"":2,""confidence"":5}","[0,1]","../img/tt/1101tt.jpg","",""
"5398.269999997807","","","recognition","survey-text","100","776849","0.0-6.0-3.13","4083208","co38179","norming","","","{""guess"":""waterski""}","","../img/tt/1101tt.jpg","",""
"null","../img/gs/1101gs.jpg","null","reveal","image-keyboard-response","101","778851","0.0-6.0-4.13","4083208","co38179","norming","","","","","","",""
"null","../img/tt/1101tt.jpg","null","mooney2","image-keyboard-response","102","780853","0.0-6.0-5.13","4083208","co38179","norming","","","","","","",""
"6602.575000000768","","","post_reveal_questions","survey-likert","103","787457","0.0-6.0-6.13","4083208","co38179","norming","","","{""aha"":5}","[0]","../img/tt/1101tt.jpg","",""
"null","<div style=""font-size:60px;""> </div>","null","fixation","html-keyboard-response","104","787660","0.0-6.0-0.14","4083208","co38179","norming","","","","","","",""
"null","../img/tt/1171tt.jpg","null","mooney1","image-keyboard-response","105","790664","0.0-6.0-1.14","4083208","co38179","norming","","","","","","",""
"8919.154999999562","","","post_mooney1_questions","survey-likert","106","799585","0.0-6.0-2.14","4083208","co38179","norming","","","{""curiosity"":5,""confidence"":1}","[0,1]","../img/tt/1171tt.jpg","",""
"2045.8550000003306","","","recognition","survey-text","107","801633","0.0-6.0-3.14","4083208","co38179","norming","","","{""guess"":""""}","","../img/tt/1171tt.jpg","",""
"null","../img/gs/1171gs.jpg","null","reveal","image-keyboard-response","108","803634","0.0-6.0-4.14","4083208","co38179","norming","","","","","","",""
"null","../img/tt/1171tt.jpg","null","mooney2","image-keyboard-response","109","805635","0.0-6.0-5.14","4083208","co38179","norming","","","","","","",""
"4052.739999999176","","","post_reveal_questions","survey-likert","110","809689","0.0-6.0-6.14","4083208","co38179","norming","","","{""aha"":5}","[0]","../img/tt/1171tt.jpg","",""
"null","<div style=""font-size:60px;""> </div>","null","fixation","html-keyboard-response","111","809892","0.0-6.0-0.15","4083208","co38179","norming","","","","","","",""
"null","../img/tt/1261tt.jpg","null","mooney1","image-keyboard-response","112","812894","0.0-6.0-1.15","4083208","co38179","norming","","","","","","",""
"17560.73499999917","","","post_mooney1_questions","survey-likert","113","830457","0.0-6.0-2.15","4083208","co38179","norming","","","{""curiosity"":5,""confidence"":2}","[0,1]","../img/tt/1261tt.jpg","",""
"6669.935000001686","","","recognition","survey-text","114","837129","0.0-6.0-3.15","4083208","co38179","norming","","","{""guess"":""kooi""}","","../img/tt/1261tt.jpg","",""
"null","../img/gs/1261gs.jpg","null","reveal","image-keyboard-response","115","839130","0.0-6.0-4.15","4083208","co38179","norming","","","","","","",""
"null","../img/tt/1261tt.jpg","null","mooney2","image-keyboard-response","116","841131","0.0-6.0-5.15","4083208","co38179","norming","","","","","","",""
"4108.879999999888","","","post_reveal_questions","survey-likert","117","845241","0.0-6.0-6.15","4083208","co38179","norming","","","{""aha"":5}","[0]","../img/tt/1261tt.jpg","",""
"null","<div style=""font-size:60px;""> </div>","null","fixation","html-keyboard-response","118","845443","0.0-6.0-0.16","4083208","co38179","norming","","","","","","",""
"null","../img/tt/1142tt.jpg","null","mooney1","image-keyboard-response","119","848445","0.0-6.0-1.16","4083208","co38179","norming","","","","","","",""
"7778.774999998859","","","post_mooney1_questions","survey-likert","120","856225","0.0-6.0-2.16","4083208","co38179","norming","","","{""curiosity"":2,""confidence"":5}","[0,1]","../img/tt/1142tt.jpg","",""
"10965.814999999478","","","recognition","survey-text","121","867193","0.0-6.0-3.16","4083208","co38179","norming","","","{""guess"":""tennisspeler""}","","../img/tt/1142tt.jpg","",""
"null","../img/gs/1142gs.jpg","null","reveal","image-keyboard-response","122","869194","0.0-6.0-4.16","4083208","co38179","norming","","","","","","",""
"null","../img/tt/1142tt.jpg","null","mooney2","image-keyboard-response","123","871196","0.0-6.0-5.16","4083208","co38179","norming","","","","","","",""
"7060.205000001704","","","post_reveal_questions","survey-likert","124","878257","0.0-6.0-6.16","4083208","co38179","norming","","","{""aha"":4}","[0]","../img/tt/1142tt.jpg","",""
"null","<div style=""font-size:60px;""> </div>","null","fixation","html-keyboard-response","125","878459","0.0-6.0-0.17","4083208","co38179","norming","","","","","","",""
"null","../img/tt/279tt.jpg","null","mooney1","image-keyboard-response","126","881461","0.0-6.0-1.17","4083208","co38179","norming","","","","","","",""
"9530.689999999595","","","post_mooney1_questions","survey-likert","127","890993","0.0-6.0-2.17","4083208","co38179","norming","","","{""curiosity"":2,""confidence"":5}","[0,1]","../img/tt/279tt.jpg","",""
"3493.365000002086","","","recognition","survey-text","128","894489","0.0-6.0-3.17","4083208","co38179","norming","","","{""guess"":""koala""}","","../img/tt/279tt.jpg","",""
"null","../img/gs/279gs.jpg","null","reveal","image-keyboard-response","129","896492","0.0-6.0-4.17","4083208","co38179","norming","","","","","","",""
"null","../img/tt/279tt.jpg","null","mooney2","image-keyboard-response","130","898493","0.0-6.0-5.17","4083208","co38179","norming","","","","","","",""
"2819.4250000014435","","","post_reveal_questions","survey-likert","131","901313","0.0-6.0-6.17","4083208","co38179","norming","","","{""aha"":1}","[0]","../img/tt/279tt.jpg","",""
"null","<div style=""font-size:60px;""> </div>","null","fixation","html-keyboard-response","132","901515","0.0-6.0-0.18","4083208","co38179","norming","","","","","","",""
"null","../img/tt/1040tt.jpg","null","mooney1","image-keyboard-response","133","904516","0.0-6.0-1.18","4083208","co38179","norming","","","","","","",""
"6508.349999996368","","","post_mooney1_questions","survey-likert","134","911026","0.0-6.0-2.18","4083208","co38179","norming","","","{""curiosity"":5,""confidence"":1}","[0,1]","../img/tt/1040tt.jpg","",""
"1910.1000000010245","","","recognition","survey-text","135","912937","0.0-6.0-3.18","4083208","co38179","norming","","","{""guess"":""""}","","../img/tt/1040tt.jpg","",""
"null","../img/gs/1040gs.jpg","null","reveal","image-keyboard-response","136","914938","0.0-6.0-4.18","4083208","co38179","norming","","","","","","",""
"null","../img/tt/1040tt.jpg","null","mooney2","image-keyboard-response","137","916940","0.0-6.0-5.18","4083208","co38179","norming","","","","","","",""
"4955.32000000088","","","post_reveal_questions","survey-likert","138","921897","0.0-6.0-6.18","4083208","co38179","norming","","","{""aha"":5}","[0]","../img/tt/1040tt.jpg","",""
"null","<div style=""font-size:60px;""> </div>","null","fixation","html-keyboard-response","139","922099","0.0-6.0-0.19","4083208","co38179","norming","","","","","","",""
"null","../img/tt/1107tt.jpg","null","mooney1","image-keyboard-response","140","925103","0.0-6.0-1.19","4083208","co38179","norming","","","","","","",""
"7568.075000002864","","","post_mooney1_questions","survey-likert","141","932673","0.0-6.0-2.19","4083208","co38179","norming","","","{""curiosity"":5,""confidence"":2}","[0,1]","../img/tt/1107tt.jpg","",""
"7406.204999999376","","","recognition","survey-text","142","940081","0.0-6.0-3.19","4083208","co38179","norming","","","{""guess"":""t-shirt""}","","../img/tt/1107tt.jpg","",""
"null","../img/gs/1107gs.jpg","null","reveal","image-keyboard-response","143","942083","0.0-6.0-4.19","4083208","co38179","norming","","","","","","",""
"null","../img/tt/1107tt.jpg","null","mooney2","image-keyboard-response","144","944086","0.0-6.0-5.19","4083208","co38179","norming","","","","","","",""
"3961.2899999992223","","","post_reveal_questions","survey-likert","145","948050","0.0-6.0-6.19","4083208","co38179","norming","","","{""aha"":5}","[0]","../img/tt/1107tt.jpg","",""
"null","<div style=""font-size:60px;""> </div>","null","fixation","html-keyboard-response","146","948251","0.0-6.0-0.20","4083208","co38179","norming","","","","","","",""
"null","../img/tt/300tt.jpg","null","mooney1","image-keyboard-response","147","951254","0.0-6.0-1.20","4083208","co38179","norming","","","","","","",""
"13233.290000000037","","","post_mooney1_questions","survey-likert","148","964490","0.0-6.0-2.20","4083208","co38179","norming","","","{""curiosity"":5,""confidence"":3}","[0,1]","../img/tt/300tt.jpg","",""
"6086.095000002417","","","recognition","survey-text","149","970577","0.0-6.0-3.20","4083208","co38179","norming","","","{""guess"":""aap""}","","../img/tt/300tt.jpg","",""
"null","../img/gs/300gs.jpg","null","reveal","image-keyboard-response","150","972579","0.0-6.0-4.20","4083208","co38179","norming","","","","","","",""
"null","../img/tt/300tt.jpg","null","mooney2","image-keyboard-response","151","974581","0.0-6.0-5.20","4083208","co38179","norming","","","","","","",""
"12570.364999999641","","","post_reveal_questions","survey-likert","152","987153","0.0-6.0-6.20","4083208","co38179","norming","","","{""aha"":5}","[0]","../img/tt/300tt.jpg","",""
"null","<div style=""font-size:60px;""> </div>","null","fixation","html-keyboard-response","153","987355","0.0-6.0-0.21","4083208","co38179","norming","","","","","","",""
"null","../img/tt/497tt.jpg","null","mooney1","image-keyboard-response","154","990359","0.0-6.0-1.21","4083208","co38179","norming","","","","","","",""
"10352.385000001988","","","post_mooney1_questions","survey-likert","155","1000714","0.0-6.0-2.21","4083208","co38179","norming","","","{""curiosity"":4,""confidence"":2}","[0,1]","../img/tt/497tt.jpg","",""
"8605.970000000554","","","recognition","survey-text","156","1009321","0.0-6.0-3.21","4083208","co38179","norming","","","{""guess"":""deksel""}","","../img/tt/497tt.jpg","",""
"null","../img/gs/497gs.jpg","null","reveal","image-keyboard-response","157","1011323","0.0-6.0-4.21","4083208","co38179","norming","","","","","","",""
"null","../img/tt/497tt.jpg","null","mooney2","image-keyboard-response","158","1013326","0.0-6.0-5.21","4083208","co38179","norming","","","","","","",""
"3385.6849999974947","","","post_reveal_questions","survey-likert","159","1016714","0.0-6.0-6.21","4083208","co38179","norming","","","{""aha"":5}","[0]","../img/tt/497tt.jpg","",""
"null","<div style=""font-size:60px;""> </div>","null","fixation","html-keyboard-response","160","1016916","0.0-6.0-0.22","4083208","co38179","norming","","","","","","",""
"null","../img/tt/416tt.jpg","null","mooney1","image-keyboard-response","161","1019919","0.0-6.0-1.22","4083208","co38179","norming","","","","","","",""
"12447.980000000796","","","post_mooney1_questions","survey-likert","162","1032370","0.0-6.0-2.22","4083208","co38179","norming","","","{""curiosity"":4,""confidence"":4}","[0,1]","../img/tt/416tt.jpg","",""
"4069.9249999998137","","","recognition","survey-text","163","1036441","0.0-6.0-3.22","4083208","co38179","norming","","","{""guess"":""birds""}","","../img/tt/416tt.jpg","",""
"null","../img/gs/416gs.jpg","null","reveal","image-keyboard-response","164","1038443","0.0-6.0-4.22","4083208","co38179","norming","","","","","","",""
"null","../img/tt/416tt.jpg","null","mooney2","image-keyboard-response","165","1040445","0.0-6.0-5.22","4083208","co38179","norming","","","","","","",""
"8611.529999998398","","","post_reveal_questions","survey-likert","166","1049058","0.0-6.0-6.22","4083208","co38179","norming","","","{""aha"":3}","[0]","../img/tt/416tt.jpg","",""
"null","<div style=""font-size:60px;""> </div>","null","fixation","html-keyboard-response","167","1049260","0.0-6.0-0.23","4083208","co38179","norming","","","","","","",""
"null","../img/tt/1070tt.jpg","null","mooney1","image-keyboard-response","168","1052263","0.0-6.0-1.23","4083208","co38179","norming","","","","","","",""
"4991.99999999837","","","post_mooney1_questions","survey-likert","169","1057258","0.0-6.0-2.23","4083208","co38179","norming","","","{""curiosity"":4,""confidence"":4}","[0,1]","../img/tt/1070tt.jpg","",""
"3622.0900000007823","","","recognition","survey-text","170","1060881","0.0-6.0-3.23","4083208","co38179","norming","","","{""guess"":""food""}","","../img/tt/1070tt.jpg","",""
"null","../img/gs/1070gs.jpg","null","reveal","image-keyboard-response","171","1062883","0.0-6.0-4.23","4083208","co38179","norming","","","","","","",""
"null","../img/tt/1070tt.jpg","null","mooney2","image-keyboard-response","172","1064885","0.0-6.0-5.23","4083208","co38179","norming","","","","","","",""
"3834.275000001071","","","post_reveal_questions","survey-likert","173","1068721","0.0-6.0-6.23","4083208","co38179","norming","","","{""aha"":4}","[0]","../img/tt/1070tt.jpg","",""
"null","<div style=""font-size:60px;""> </div>","null","fixation","html-keyboard-response","174","1068924","0.0-6.0-0.24","4083208","co38179","norming","","","","","","",""
"null","../img/tt/1200tt.jpg","null","mooney1","image-keyboard-response","175","1071927","0.0-6.0-1.24","4083208","co38179","norming","","","","","","",""
"6728.455000000307","","","post_mooney1_questions","survey-likert","176","1078658","0.0-6.0-2.24","4083208","co38179","norming","","","{""curiosity"":5,""confidence"":2}","[0,1]","../img/tt/1200tt.jpg","",""
"5789.614999997895","","","recognition","survey-text","177","1084450","0.0-6.0-3.24","4083208","co38179","norming","","","{""guess"":""street""}","","../img/tt/1200tt.jpg","",""
"null","../img/gs/1200gs.jpg","null","reveal","image-keyboard-response","178","1086452","0.0-6.0-4.24","4083208","co38179","norming","","","","","","",""
"null","../img/tt/1200tt.jpg","null","mooney2","image-keyboard-response","179","1088452","0.0-6.0-5.24","4083208","co38179","norming","","","","","","",""
"2476.5050000024494","","","post_reveal_questions","survey-likert","180","1090930","0.0-6.0-6.24","4083208","co38179","norming","","","{""aha"":5}","[0]","../img/tt/1200tt.jpg","",""
"null","<div style=""font-size:60px;""> </div>","null","fixation","html-keyboard-response","181","1091132","0.0-6.0-0.25","4083208","co38179","norming","","","","","","",""
"null","../img/tt/1278tt.jpg","null","mooney1","image-keyboard-response","182","1094136","0.0-6.0-1.25","4083208","co38179","norming","","","","","","",""
"6479.7849999994505","","","post_mooney1_questions","survey-likert","183","1100618","0.0-6.0-2.25","4083208","co38179","norming","","","{""curiosity"":5,""confidence"":1}","[0,1]","../img/tt/1278tt.jpg","",""
"2022.0799999989104","","","recognition","survey-text","184","1102642","0.0-6.0-3.25","4083208","co38179","norming","","","{""guess"":""""}","","../img/tt/1278tt.jpg","",""
"null","../img/gs/1278gs.jpg","null","reveal","image-keyboard-response","185","1104651","0.0-6.0-4.25","4083208","co38179","norming","","","","","","",""
"null","../img/tt/1278tt.jpg","null","mooney2","image-keyboard-response","186","1106653","0.0-6.0-5.25","4083208","co38179","norming","","","","","","",""
"6506.185000002151","","","post_reveal_questions","survey-likert","187","1113162","0.0-6.0-6.25","4083208","co38179","norming","","","{""aha"":5}","[0]","../img/tt/1278tt.jpg","",""
"null","<div style=""font-size:60px;""> </div>","null","fixation","html-keyboard-response","188","1113364","0.0-6.0-0.26","4083208","co38179","norming","","","","","","",""
"null","../img/tt/1307tt.jpg","null","mooney1","image-keyboard-response","189","1116368","0.0-6.0-1.26","4083208","co38179","norming","","","","","","",""
"6639.599999998696","","","post_mooney1_questions","survey-likert","190","1123010","0.0-6.0-2.26","4083208","co38179","norming","","","{""curiosity"":4,""confidence"":3}","[0,1]","../img/tt/1307tt.jpg","",""
"3670.0300000009593","","","recognition","survey-text","191","1126682","0.0-6.0-3.26","4083208","co38179","norming","","","{""guess"":""kompas""}","","../img/tt/1307tt.jpg","",""
"null","../img/gs/1307gs.jpg","null","reveal","image-keyboard-response","192","1128683","0.0-6.0-4.26","4083208","co38179","norming","","","","","","",""
"null","../img/tt/1307tt.jpg","null","mooney2","image-keyboard-response","193","1130685","0.0-6.0-5.26","4083208","co38179","norming","","","","","","",""
"4122.8049999990035","","","post_reveal_questions","survey-likert","194","1134811","0.0-6.0-6.26","4083208","co38179","norming","","","{""aha"":4}","[0]","../img/tt/1307tt.jpg","",""
"null","<div style=""font-size:60px;""> </div>","null","fixation","html-keyboard-response","195","1135013","0.0-6.0-0.27","4083208","co38179","norming","","","","","","",""
"null","../img/tt/1072tt.jpg","null","mooney1","image-keyboard-response","196","1138016","0.0-6.0-1.27","4083208","co38179","norming","","","","","","",""
"11984.810000001686","","","post_mooney1_questions","survey-likert","197","1150003","0.0-6.0-2.27","4083208","co38179","norming","","","{""curiosity"":5,""confidence"":1}","[0,1]","../img/tt/1072tt.jpg","",""
"1526.0400000007357","","","recognition","survey-text","198","1151531","0.0-6.0-3.27","4083208","co38179","norming","","","{""guess"":""""}","","../img/tt/1072tt.jpg","",""
"null","../img/gs/1072gs.jpg","null","reveal","image-keyboard-response","199","1153532","0.0-6.0-4.27","4083208","co38179","norming","","","","","","",""
"null","../img/tt/1072tt.jpg","null","mooney2","image-keyboard-response","200","1155534","0.0-6.0-5.27","4083208","co38179","norming","","","","","","",""
"4346.004999999423","","","post_reveal_questions","survey-likert","201","1159883","0.0-6.0-6.27","4083208","co38179","norming","","","{""aha"":5}","[0]","../img/tt/1072tt.jpg","",""
"null","<div style=""font-size:60px;""> </div>","null","fixation","html-keyboard-response","202","1160084","0.0-6.0-0.28","4083208","co38179","norming","","","","","","",""
"null","../img/tt/1126tt.jpg","null","mooney1","image-keyboard-response","203","1163088","0.0-6.0-1.28","4083208","co38179","norming","","","","","","",""
"16592.50499999686","","","post_mooney1_questions","survey-likert","204","1179683","0.0-6.0-2.28","4083208","co38179","norming","","","{""curiosity"":5,""confidence"":1}","[0,1]","../img/tt/1126tt.jpg","",""
"5302.019999999087","","","recognition","survey-text","205","1184987","0.0-6.0-3.28","4083208","co38179","norming","","","{""guess"":""ruimte""}","","../img/tt/1126tt.jpg","",""
"null","../img/gs/1126gs.jpg","null","reveal","image-keyboard-response","206","1186988","0.0-6.0-4.28","4083208","co38179","norming","","","","","","",""
"null","../img/tt/1126tt.jpg","null","mooney2","image-keyboard-response","207","1188990","0.0-6.0-5.28","4083208","co38179","norming","","","","","","",""
"5187.119999998715","","","post_reveal_questions","survey-likert","208","1194181","0.0-6.0-6.28","4083208","co38179","norming","","","{""aha"":5}","[0]","../img/tt/1126tt.jpg","",""
"null","<div style=""font-size:60px;""> </div>","null","fixation","html-keyboard-response","209","1194382","0.0-6.0-0.29","4083208","co38179","norming","","","","","","",""
"null","../img/tt/1268tt.jpg","null","mooney1","image-keyboard-response","210","1197384","0.0-6.0-1.29","4083208","co38179","norming","","","","","","",""
"8497.800000000978","","","post_mooney1_questions","survey-likert","211","1205885","0.0-6.0-2.29","4083208","co38179","norming","","","{""curiosity"":4,""confidence"":2}","[0,1]","../img/tt/1268tt.jpg","",""
"15750.104999999283","","","recognition","survey-text","212","1221637","0.0-6.0-3.29","4083208","co38179","norming","","","{""guess"":""leeuw""}","","../img/tt/1268tt.jpg","",""
"null","../img/gs/1268gs.jpg","null","reveal","image-keyboard-response","213","1223639","0.0-6.0-4.29","4083208","co38179","norming","","","","","","",""
"null","../img/tt/1268tt.jpg","null","mooney2","image-keyboard-response","214","1225641","0.0-6.0-5.29","4083208","co38179","norming","","","","","","",""
"7065.829999999609","","","post_reveal_questions","survey-likert","215","1232709","0.0-6.0-6.29","4083208","co38179","norming","","","{""aha"":4}","[0]","../img/tt/1268tt.jpg","",""
"null","<div style=""font-size:60px;""> </div>","null","fixation","html-keyboard-response","216","1232911","0.0-6.0-0.30","4083208","co38179","norming","","","","","","",""
"null","../img/tt/1243tt.jpg","null","mooney1","image-keyboard-response","217","1235914","0.0-6.0-1.30","4083208","co38179","norming","","","","","","",""
"8744.364999998827","","","post_mooney1_questions","survey-likert","218","1244661","0.0-6.0-2.30","4083208","co38179","norming","","","{""curiosity"":4,""confidence"":3}","[0,1]","../img/tt/1243tt.jpg","",""
"8134.095000001136","","","recognition","survey-text","219","1252797","0.0-6.0-3.30","4083208","co38179","norming","","","{""guess"":""knuffel""}","","../img/tt/1243tt.jpg","",""
"null","../img/gs/1243gs.jpg","null","reveal","image-keyboard-response","220","1254800","0.0-6.0-4.30","4083208","co38179","norming","","","","","","",""
"null","../img/tt/1243tt.jpg","null","mooney2","image-keyboard-response","221","1256802","0.0-6.0-5.30","4083208","co38179","norming","","","","","","",""
"5146.510000002105","","","post_reveal_questions","survey-likert","222","1261950","0.0-6.0-6.30","4083208","co38179","norming","","","{""aha"":5}","[0]","../img/tt/1243tt.jpg","",""
"null","<div style=""font-size:60px;""> </div>","null","fixation","html-keyboard-response","223","1262152","0.0-6.0-0.31","4083208","co38179","norming","","","","","","",""
"null","../img/tt/1175tt.jpg","null","mooney1","image-keyboard-response","224","1265155","0.0-6.0-1.31","4083208","co38179","norming","","","","","","",""
"9104.414999997942","","","post_mooney1_questions","survey-likert","225","1274263","0.0-6.0-2.31","4083208","co38179","norming","","","{""curiosity"":5,""confidence"":1}","[0,1]","../img/tt/1175tt.jpg","",""
"1501.8649999983609","","","recognition","survey-text","226","1275766","0.0-6.0-3.31","4083208","co38179","norming","","","{""guess"":""""}","","../img/tt/1175tt.jpg","",""
"null","../img/gs/1175gs.jpg","null","reveal","image-keyboard-response","227","1277767","0.0-6.0-4.31","4083208","co38179","norming","","","","","","",""
"null","../img/tt/1175tt.jpg","null","mooney2","image-keyboard-response","228","1279769","0.0-6.0-5.31","4083208","co38179","norming","","","","","","",""
"2371.3300000017043","","","post_reveal_questions","survey-likert","229","1282143","0.0-6.0-6.31","4083208","co38179","norming","","","{""aha"":5}","[0]","../img/tt/1175tt.jpg","",""
"null","<div style=""font-size:60px;""> </div>","null","fixation","html-keyboard-response","230","1282345","0.0-6.0-0.32","4083208","co38179","norming","","","","","","",""
"null","../img/tt/1276tt.jpg","null","mooney1","image-keyboard-response","231","1285349","0.0-6.0-1.32","4083208","co38179","norming","","","","","","",""
"17182.81000000192","","","post_mooney1_questions","survey-likert","232","1302535","0.0-6.0-2.32","4083208","co38179","norming","","","{""curiosity"":5,""confidence"":2}","[0,1]","../img/tt/1276tt.jpg","",""
"4030.0500000012107","","","recognition","survey-text","233","1306566","0.0-6.0-3.32","4083208","co38179","norming","","","{""guess"":""garden""}","","../img/tt/1276tt.jpg","",""
"null","../img/gs/1276gs.jpg","null","reveal","image-keyboard-response","234","1308568","0.0-6.0-4.32","4083208","co38179","norming","","","","","","",""
"null","../img/tt/1276tt.jpg","null","mooney2","image-keyboard-response","235","1310570","0.0-6.0-5.32","4083208","co38179","norming","","","","","","",""
"4338.400000000605","","","post_reveal_questions","survey-likert","236","1314912","0.0-6.0-6.32","4083208","co38179","norming","","","{""aha"":5}","[0]","../img/tt/1276tt.jpg","",""
"null","<div style=""font-size:60px;""> </div>","null","fixation","html-keyboard-response","237","1315114","0.0-6.0-0.33","4083208","co38179","norming","","","","","","",""
"null","../img/tt/1181tt.jpg","null","mooney1","image-keyboard-response","238","1318117","0.0-6.0-1.33","4083208","co38179","norming","","","","","","",""
"12792.150000001071","","","post_mooney1_questions","survey-likert","239","1330912","0.0-6.0-2.33","4083208","co38179","norming","","","{""curiosity"":4,""confidence"":2}","[0,1]","../img/tt/1181tt.jpg","",""
"2933.854999999283","","","recognition","survey-text","240","1333848","0.0-6.0-3.33","4083208","co38179","norming","","","{""guess"":""pet""}","","../img/tt/1181tt.jpg","",""
"null","../img/gs/1181gs.jpg","null","reveal","image-keyboard-response","241","1335849","0.0-6.0-4.33","4083208","co38179","norming","","","","","","",""
"null","../img/tt/1181tt.jpg","null","mooney2","image-keyboard-response","242","1337851","0.0-6.0-5.33","4083208","co38179","norming","","","","","","",""
"5754.140000000829","","","post_reveal_questions","survey-likert","243","1343608","0.0-6.0-6.33","4083208","co38179","norming","","","{""aha"":4}","[0]","../img/tt/1181tt.jpg","",""
"null","<div style=""font-size:60px;""> </div>","null","fixation","html-keyboard-response","244","1343810","0.0-6.0-0.34","4083208","co38179","norming","","","","","","",""
"null","../img/tt/189tt.jpg","null","mooney1","image-keyboard-response","245","1346813","0.0-6.0-1.34","4083208","co38179","norming","","","","","","",""
"7409.69000000041","","","post_mooney1_questions","survey-likert","246","1354224","0.0-6.0-2.34","4083208","co38179","norming","","","{""curiosity"":4,""confidence"":3}","[0,1]","../img/tt/189tt.jpg","",""
"4454.245000000577","","","recognition","survey-text","247","1358680","0.0-6.0-3.34","4083208","co38179","norming","","","{""guess"":""hangmat""}","","../img/tt/189tt.jpg","",""
"null","../img/gs/189gs.jpg","null","reveal","image-keyboard-response","248","1360681","0.0-6.0-4.34","4083208","co38179","norming","","","","","","",""
"null","../img/tt/189tt.jpg","null","mooney2","image-keyboard-response","249","1362683","0.0-6.0-5.34","4083208","co38179","norming","","","","","","",""
"7682.865000002319","","","post_reveal_questions","survey-likert","250","1370368","0.0-6.0-6.34","4083208","co38179","norming","","","{""aha"":1}","[0]","../img/tt/189tt.jpg","",""
"null","<div style=""font-size:60px;""> </div>","null","fixation","html-keyboard-response","251","1370570","0.0-6.0-0.35","4083208","co38179","norming","","","","","","",""
"null","../img/tt/481tt.jpg","null","mooney1","image-keyboard-response","252","1373572","0.0-6.0-1.35","4083208","co38179","norming","","","","","","",""
"15408.609999998705","","","post_mooney1_questions","survey-likert","253","1388985","0.0-6.0-2.35","4083208","co38179","norming","","","{""curiosity"":5,""confidence"":2}","[0,1]","../img/tt/481tt.jpg","",""
"3541.980000001844","","","recognition","survey-text","254","1392529","0.0-6.0-3.35","4083208","co38179","norming","","","{""guess"":""kat""}","","../img/tt/481tt.jpg","",""
"null","../img/gs/481gs.jpg","null","reveal","image-keyboard-response","255","1394530","0.0-6.0-4.35","4083208","co38179","norming","","","","","","",""
"null","../img/tt/481tt.jpg","null","mooney2","image-keyboard-response","256","1396531","0.0-6.0-5.35","4083208","co38179","norming","","","","","","",""
"3653.470000001136","","","post_reveal_questions","survey-likert","257","1400185","0.0-6.0-6.35","4083208","co38179","norming","","","{""aha"":5}","[0]","../img/tt/481tt.jpg","",""
"null","<div style=""font-size:60px;""> </div>","null","fixation","html-keyboard-response","258","1400388","0.0-6.0-0.36","4083208","co38179","norming","","","","","","",""
"null","../img/tt/060tt.jpg","null","mooney1","image-keyboard-response","259","1403391","0.0-6.0-1.36","4083208","co38179","norming","","","","","","",""
"7663.310000000056","","","post_mooney1_questions","survey-likert","260","1411057","0.0-6.0-2.36","4083208","co38179","norming","","","{""curiosity"":5,""confidence"":2}","[0,1]","../img/tt/060tt.jpg","",""
"2941.9799999995157","","","recognition","survey-text","261","1414001","0.0-6.0-3.36","4083208","co38179","norming","","","{""guess"":""riem""}","","../img/tt/060tt.jpg","",""
"null","../img/gs/060gs.jpg","null","reveal","image-keyboard-response","262","1416002","0.0-6.0-4.36","4083208","co38179","norming","","","","","","",""
"null","../img/tt/060tt.jpg","null","mooney2","image-keyboard-response","263","1418005","0.0-6.0-5.36","4083208","co38179","norming","","","","","","",""
"3137.634999999311","","","post_reveal_questions","survey-likert","264","1421145","0.0-6.0-6.36","4083208","co38179","norming","","","{""aha"":5}","[0]","../img/tt/060tt.jpg","",""
"null","<div style=""font-size:60px;""> </div>","null","fixation","html-keyboard-response","265","1421347","0.0-6.0-0.37","4083208","co38179","norming","","","","","","",""
"null","../img/tt/056tt.jpg","null","mooney1","image-keyboard-response","266","1424351","0.0-6.0-1.37","4083208","co38179","norming","","","","","","",""
"7959.78999999701","","","post_mooney1_questions","survey-likert","267","1432313","0.0-6.0-2.37","4083208","co38179","norming","","","{""curiosity"":4,""confidence"":2}","[0,1]","../img/tt/056tt.jpg","",""
"5190.249999999534","","","recognition","survey-text","268","1437505","0.0-6.0-3.37","4083208","co38179","norming","","","{""guess"":""wolf""}","","../img/tt/056tt.jpg","",""
"null","../img/gs/056gs.jpg","null","reveal","image-keyboard-response","269","1439506","0.0-6.0-4.37","4083208","co38179","norming","","","","","","",""
"null","../img/tt/056tt.jpg","null","mooney2","image-keyboard-response","270","1441508","0.0-6.0-5.37","4083208","co38179","norming","","","","","","",""
"4970.704999999609","","","post_reveal_questions","survey-likert","271","1446482","0.0-6.0-6.37","4083208","co38179","norming","","","{""aha"":4}","[0]","../img/tt/056tt.jpg","",""
"null","<div style=""font-size:60px;""> </div>","null","fixation","html-keyboard-response","272","1446683","0.0-6.0-0.38","4083208","co38179","norming","","","","","","",""
"null","../img/tt/515tt.jpg","null","mooney1","image-keyboard-response","273","1449686","0.0-6.0-1.38","4083208","co38179","norming","","","","","","",""
"9002.505000000354","","","post_mooney1_questions","survey-likert","274","1458690","0.0-6.0-2.38","4083208","co38179","norming","","","{""curiosity"":5,""confidence"":3}","[0,1]","../img/tt/515tt.jpg","",""
"3510.1599999980535","","","recognition","survey-text","275","1462201","0.0-6.0-3.38","4083208","co38179","norming","","","{""guess"":""bird""}","","../img/tt/515tt.jpg","",""
"null","../img/gs/515gs.jpg","null","reveal","image-keyboard-response","276","1464203","0.0-6.0-4.38","4083208","co38179","norming","","","","","","",""
"null","../img/tt/515tt.jpg","null","mooney2","image-keyboard-response","277","1466206","0.0-6.0-5.38","4083208","co38179","norming","","","","","","",""
"5081.41499999701","","","post_reveal_questions","survey-likert","278","1471289","0.0-6.0-6.38","4083208","co38179","norming","","","{""aha"":4}","[0]","../img/tt/515tt.jpg","",""
"null","<div style=""font-size:60px;""> </div>","null","fixation","html-keyboard-response","279","1471491","0.0-6.0-0.39","4083208","co38179","norming","","","","","","",""
"null","../img/tt/184tt.jpg","null","mooney1","image-keyboard-response","280","1474495","0.0-6.0-1.39","4083208","co38179","norming","","","","","","",""
"8729.334999999963","","","post_mooney1_questions","survey-likert","281","1483226","0.0-6.0-2.39","4083208","co38179","norming","","","{""curiosity"":4,""confidence"":4}","[0,1]","../img/tt/184tt.jpg","",""
"3638.1200000033714","","","recognition","survey-text","282","1486865","0.0-6.0-3.39","4083208","co38179","norming","","","{""guess"":""food""}","","../img/tt/184tt.jpg","",""
"null","../img/gs/184gs.jpg","null","reveal","image-keyboard-response","283","1488867","0.0-6.0-4.39","4083208","co38179","norming","","","","","","",""
"null","../img/tt/184tt.jpg","null","mooney2","image-keyboard-response","284","1490869","0.0-6.0-5.39","4083208","co38179","norming","","","","","","",""
"3170.304999999469","","","post_reveal_questions","survey-likert","285","1494041","0.0-6.0-6.39","4083208","co38179","norming","","","{""aha"":4}","[0]","../img/tt/184tt.jpg","",""
"null","<div style=""font-size:60px;""> </div>","null","fixation","html-keyboard-response","286","1494243","0.0-6.0-0.40","4083208","co38179","norming","","","","","","",""
"null","../img/tt/1235tt.jpg","null","mooney1","image-keyboard-response","287","1497246","0.0-6.0-1.40","4083208","co38179","norming","","","","","","",""
"6800.600000002189","","","post_mooney1_questions","survey-likert","288","1504050","0.0-6.0-2.40","4083208","co38179","norming","","","{""curiosity"":5,""confidence"":1}","[0,1]","../img/tt/1235tt.jpg","",""
"1262.0749999987893","","","recognition","survey-text","289","1505313","0.0-6.0-3.40","4083208","co38179","norming","","","{""guess"":""""}","","../img/tt/1235tt.jpg","",""
"null","../img/gs/1235gs.jpg","null","reveal","image-keyboard-response","290","1507315","0.0-6.0-4.40","4083208","co38179","norming","","","","","","",""
"null","../img/tt/1235tt.jpg","null","mooney2","image-keyboard-response","291","1509318","0.0-6.0-5.40","4083208","co38179","norming","","","","","","",""
"4609.500000002328","","","post_reveal_questions","survey-likert","292","1513929","0.0-6.0-6.40","4083208","co38179","norming","","","{""aha"":5}","[0]","../img/tt/1235tt.jpg","",""
"null","<div style=""font-size:60px;""> </div>","null","fixation","html-keyboard-response","293","1514131","0.0-6.0-0.41","4083208","co38179","norming","","","","","","",""
"null","../img/tt/552tt.jpg","null","mooney1","image-keyboard-response","294","1517134","0.0-6.0-1.41","4083208","co38179","norming","","","","","","",""
"10186.34999999986","","","post_mooney1_questions","survey-likert","295","1527322","0.0-6.0-2.41","4083208","co38179","norming","","","{""curiosity"":4,""confidence"":4}","[0,1]","../img/tt/552tt.jpg","",""
"4837.76500000013","","","recognition","survey-text","296","1532161","0.0-6.0-3.41","4083208","co38179","norming","","","{""guess"":""stinkdier""}","","../img/tt/552tt.jpg","",""
"null","../img/gs/552gs.jpg","null","reveal","image-keyboard-response","297","1534164","0.0-6.0-4.41","4083208","co38179","norming","","","","","","",""
"null","../img/tt/552tt.jpg","null","mooney2","image-keyboard-response","298","1536167","0.0-6.0-5.41","4083208","co38179","norming","","","","","","",""
"9943.810000000754","","","post_reveal_questions","survey-likert","299","1546113","0.0-6.0-6.41","4083208","co38179","norming","","","{""aha"":2}","[0]","../img/tt/552tt.jpg","",""
"null","<div style=""font-size:60px;""> </div>","null","fixation","html-keyboard-response","300","1546315","0.0-6.0-0.42","4083208","co38179","norming","","","","","","",""
"null","../img/tt/378tt.jpg","null","mooney1","image-keyboard-response","301","1549317","0.0-6.0-1.42","4083208","co38179","norming","","","","","","",""
"10961.384999998612","","","post_mooney1_questions","survey-likert","302","1560281","0.0-6.0-2.42","4083208","co38179","norming","","","{""curiosity"":5,""confidence"":1}","[0,1]","../img/tt/378tt.jpg","",""
"942.269999999553","","","recognition","survey-text","303","1561225","0.0-6.0-3.42","4083208","co38179","norming","","","{""guess"":""""}","","../img/tt/378tt.jpg","",""
"null","../img/gs/378gs.jpg","null","reveal","image-keyboard-response","304","1563226","0.0-6.0-4.42","4083208","co38179","norming","","","","","","",""
"null","../img/tt/378tt.jpg","null","mooney2","image-keyboard-response","305","1565228","0.0-6.0-5.42","4083208","co38179","norming","","","","","","",""
"3496.55999999959","","","post_reveal_questions","survey-likert","306","1568730","0.0-6.0-6.42","4083208","co38179","norming","","","{""aha"":5}","[0]","../img/tt/378tt.jpg","",""
"null","<div style=""font-size:60px;""> </div>","null","fixation","html-keyboard-response","307","1568933","0.0-6.0-0.43","4083208","co38179","norming","","","","","","",""
"null","../img/tt/1097tt.jpg","null","mooney1","image-keyboard-response","308","1571935","0.0-6.0-1.43","4083208","co38179","norming","","","","","","",""
"12343.515000000363","","","post_mooney1_questions","survey-likert","309","1584282","0.0-6.0-2.43","4083208","co38179","norming","","","{""curiosity"":2,""confidence"":5}","[0,1]","../img/tt/1097tt.jpg","",""
"3629.9099999996834","","","recognition","survey-text","310","1587913","0.0-6.0-3.43","4083208","co38179","norming","","","{""guess"":""boer""}","","../img/tt/1097tt.jpg","",""
"null","../img/gs/1097gs.jpg","null","reveal","image-keyboard-response","311","1589915","0.0-6.0-4.43","4083208","co38179","norming","","","","","","",""
"null","../img/tt/1097tt.jpg","null","mooney2","image-keyboard-response","312","1591917","0.0-6.0-5.43","4083208","co38179","norming","","","","","","",""
"2674.0799999970477","","","post_reveal_questions","survey-likert","313","1594594","0.0-6.0-6.43","4083208","co38179","norming","","","{""aha"":5}","[0]","../img/tt/1097tt.jpg","",""
"null","<div style=""font-size:60px;""> </div>","null","fixation","html-keyboard-response","314","1594795","0.0-6.0-0.44","4083208","co38179","norming","","","","","","",""
"null","../img/tt/1237tt.jpg","null","mooney1","image-keyboard-response","315","1597797","0.0-6.0-1.44","4083208","co38179","norming","","","","","","",""
"8945.680000000633","","","post_mooney1_questions","survey-likert","316","1606746","0.0-6.0-2.44","4083208","co38179","norming","","","{""curiosity"":1,""confidence"":5}","[0,1]","../img/tt/1237tt.jpg","",""
"3757.6599999994505","","","recognition","survey-text","317","1610506","0.0-6.0-3.44","4083208","co38179","norming","","","{""guess"":""eend""}","","../img/tt/1237tt.jpg","",""
"null","../img/gs/1237gs.jpg","null","reveal","image-keyboard-response","318","1612507","0.0-6.0-4.44","4083208","co38179","norming","","","","","","",""
"null","../img/tt/1237tt.jpg","null","mooney2","image-keyboard-response","319","1614508","0.0-6.0-5.44","4083208","co38179","norming","","","","","","",""
"3812.3850000011735","","","post_reveal_questions","survey-likert","320","1618322","0.0-6.0-6.44","4083208","co38179","norming","","","{""aha"":1}","[0]","../img/tt/1237tt.jpg","",""
"null","<div style=""font-size:60px;""> </div>","null","fixation","html-keyboard-response","321","1618523","0.0-6.0-0.45","4083208","co38179","norming","","","","","","",""
"null","../img/tt/440tt.jpg","null","mooney1","image-keyboard-response","322","1621525","0.0-6.0-1.45","4083208","co38179","norming","","","","","","",""
"14033.910000002012","","","post_mooney1_questions","survey-likert","323","1635562","0.0-6.0-2.45","4083208","co38179","norming","","","{""curiosity"":4,""confidence"":2}","[0,1]","../img/tt/440tt.jpg","",""
"3957.9750000012573","","","recognition","survey-text","324","1639522","0.0-6.0-3.45","4083208","co38179","norming","","","{""guess"":""stal""}","","../img/tt/440tt.jpg","",""
"null","../img/gs/440gs.jpg","null","reveal","image-keyboard-response","325","1641525","0.0-6.0-4.45","4083208","co38179","norming","","","","","","",""
"null","../img/tt/440tt.jpg","null","mooney2","image-keyboard-response","326","1643527","0.0-6.0-5.45","4083208","co38179","norming","","","","","","",""
"6656.549999999814","","","post_reveal_questions","survey-likert","327","1650186","0.0-6.0-6.45","4083208","co38179","norming","","","{""aha"":5}","[0]","../img/tt/440tt.jpg","",""
"null","<div style=""font-size:60px;""> </div>","null","fixation","html-keyboard-response","328","1650387","0.0-6.0-0.46","4083208","co38179","norming","","","","","","",""
"null","../img/tt/135tt.jpg","null","mooney1","image-keyboard-response","329","1653391","0.0-6.0-1.46","4083208","co38179","norming","","","","","","",""
"8215.395000003045","","","post_mooney1_questions","survey-likert","330","1661610","0.0-6.0-2.46","4083208","co38179","norming","","","{""curiosity"":5,""confidence"":2}","[0,1]","../img/tt/135tt.jpg","",""
"5342.259999997448","","","recognition","survey-text","331","1666954","0.0-6.0-3.46","4083208","co38179","norming","","","{""guess"":""""}","","../img/tt/135tt.jpg","",""
"null","../img/gs/135gs.jpg","null","reveal","image-keyboard-response","332","1668956","0.0-6.0-4.46","4083208","co38179","norming","","","","","","",""
"null","../img/tt/135tt.jpg","null","mooney2","image-keyboard-response","333","1670958","0.0-6.0-5.46","4083208","co38179","norming","","","","","","",""
"13785.360000001732","","","post_reveal_questions","survey-likert","334","1684746","0.0-6.0-6.46","4083208","co38179","norming","","","{""aha"":5}","[0]","../img/tt/135tt.jpg","",""
"null","<div style=""font-size:60px;""> </div>","null","fixation","html-keyboard-response","335","1684947","0.0-6.0-0.47","4083208","co38179","norming","","","","","","",""
"null","../img/tt/053tt.jpg","null","mooney1","image-keyboard-response","336","1687951","0.0-6.0-1.47","4083208","co38179","norming","","","","","","",""
"10176.599999998929","","","post_mooney1_questions","survey-likert","337","1698123","0.0-6.0-2.47","4083208","co38179","norming","","","{""curiosity"":5,""confidence"":3}","[0,1]","../img/tt/053tt.jpg","",""
"5757.574999999488","","","recognition","survey-text","338","1703882","0.0-6.0-3.47","4083208","co38179","norming","","","{""guess"":""waterval""}","","../img/tt/053tt.jpg","",""
"null","../img/gs/053gs.jpg","null","reveal","image-keyboard-response","339","1705884","0.0-6.0-4.47","4083208","co38179","norming","","","","","","",""
"null","../img/tt/053tt.jpg","null","mooney2","image-keyboard-response","340","1707886","0.0-6.0-5.47","4083208","co38179","norming","","","","","","",""
"7353.545000001788","","","post_reveal_questions","survey-likert","341","1715242","0.0-6.0-6.47","4083208","co38179","norming","","","{""aha"":5}","[0]","../img/tt/053tt.jpg","",""
"null","<div style=""font-size:60px;""> </div>","null","fixation","html-keyboard-response","342","1715444","0.0-6.0-0.48","4083208","co38179","norming","","","","","","",""
"null","../img/tt/049tt.jpg","null","mooney1","image-keyboard-response","343","1718447","0.0-6.0-1.48","4083208","co38179","norming","","","","","","",""
"8882.155000002822","","","post_mooney1_questions","survey-likert","344","1727330","0.0-6.0-2.48","4083208","co38179","norming","","","{""curiosity"":5,""confidence"":2}","[0,1]","../img/tt/049tt.jpg","",""
"4366.100000002887","","","recognition","survey-text","345","1731698","0.0-6.0-3.48","4083208","co38179","norming","","","{""guess"":""miereneter""}","","../img/tt/049tt.jpg","",""
"null","../img/gs/049gs.jpg","null","reveal","image-keyboard-response","346","1733701","0.0-6.0-4.48","4083208","co38179","norming","","","","","","",""
"null","../img/tt/049tt.jpg","null","mooney2","image-keyboard-response","347","1735702","0.0-6.0-5.48","4083208","co38179","norming","","","","","","",""
"15475.200000000652","","","post_reveal_questions","survey-likert","348","1751178","0.0-6.0-6.48","4083208","co38179","norming","","","{""aha"":5}","[0]","../img/tt/049tt.jpg","",""
"null","<div style=""font-size:60px;""> </div>","null","fixation","html-keyboard-response","349","1751380","0.0-6.0-0.49","4083208","co38179","norming","","","","","","",""
"null","../img/tt/1270tt.jpg","null","mooney1","image-keyboard-response","350","1754390","0.0-6.0-1.49","4083208","co38179","norming","","","","","","",""
"8944.97000000067","","","post_mooney1_questions","survey-likert","351","1763338","0.0-6.0-2.49","4083208","co38179","norming","","","{""curiosity"":5,""confidence"":1}","[0,1]","../img/tt/1270tt.jpg","",""
"1126.0650000004098","","","recognition","survey-text","352","1764465","0.0-6.0-3.49","4083208","co38179","norming","","","{""guess"":""""}","","../img/tt/1270tt.jpg","",""
"null","../img/gs/1270gs.jpg","null","reveal","image-keyboard-response","353","1766467","0.0-6.0-4.49","4083208","co38179","norming","","","","","","",""
"null","../img/tt/1270tt.jpg","null","mooney2","image-keyboard-response","354","1768469","0.0-6.0-5.49","4083208","co38179","norming","","","","","","",""
"4563.365000001853","","","post_reveal_questions","survey-likert","355","1773033","0.0-6.0-6.49","4083208","co38179","norming","","","{""aha"":6}","[0]","../img/tt/1270tt.jpg","",""
"null","<div style=""font-size:60px;""> </div>","null","fixation","html-keyboard-response","356","1773237","0.0-6.0-0.50","4083208","co38179","norming","","","","","","",""
"null","../img/tt/1254tt.jpg","null","mooney1","image-keyboard-response","357","1776239","0.0-6.0-1.50","4083208","co38179","norming","","","","","","",""
"9663.420000000624","","","post_mooney1_questions","survey-likert","358","1785906","0.0-6.0-2.50","4083208","co38179","norming","","","{""curiosity"":3,""confidence"":4}","[0,1]","../img/tt/1254tt.jpg","",""
"2989.929999999702","","","recognition","survey-text","359","1788897","0.0-6.0-3.50","4083208","co38179","norming","","","{""guess"":""koe""}","","../img/tt/1254tt.jpg","",""
"null","../img/gs/1254gs.jpg","null","reveal","image-keyboard-response","360","1790899","0.0-6.0-4.50","4083208","co38179","norming","","","","","","",""
"null","../img/tt/1254tt.jpg","null","mooney2","image-keyboard-response","361","1792901","0.0-6.0-5.50","4083208","co38179","norming","","","","","","",""
"6450.259999997914","","","post_reveal_questions","survey-likert","362","1799354","0.0-6.0-6.50","4083208","co38179","norming","","","{""aha"":5}","[0]","../img/tt/1254tt.jpg","",""
"null","<div style=""font-size:60px;""> </div>","null","fixation","html-keyboard-response","363","1799556","0.0-6.0-0.51","4083208","co38179","norming","","","","","","",""
"null","../img/tt/1156tt.jpg","null","mooney1","image-keyboard-response","364","1802559","0.0-6.0-1.51","4083208","co38179","norming","","","","","","",""
"23009.355000002077","","","post_mooney1_questions","survey-likert","365","1825569","0.0-6.0-2.51","4083208","co38179","norming","","","{""curiosity"":4,""confidence"":3}","[0,1]","../img/tt/1156tt.jpg","",""
"5037.830000001239","","","recognition","survey-text","366","1830609","0.0-6.0-3.51","4083208","co38179","norming","","","{""guess"":""zonnebaden""}","","../img/tt/1156tt.jpg","",""
"null","../img/gs/1156gs.jpg","null","reveal","image-keyboard-response","367","1832611","0.0-6.0-4.51","4083208","co38179","norming","","","","","","",""
"null","../img/tt/1156tt.jpg","null","mooney2","image-keyboard-response","368","1834612","0.0-6.0-5.51","4083208","co38179","norming","","","","","","",""
"9747.960000000661","","","post_reveal_questions","survey-likert","369","1844361","0.0-6.0-6.51","4083208","co38179","norming","","","{""aha"":2}","[0]","../img/tt/1156tt.jpg","",""
"null","<div style=""font-size:60px;""> </div>","null","fixation","html-keyboard-response","370","1844563","0.0-6.0-0.52","4083208","co38179","norming","","","","","","",""
"null","../img/tt/020tt.jpg","null","mooney1","image-keyboard-response","371","1847566","0.0-6.0-1.52","4083208","co38179","norming","","","","","","",""
"7536.6250000006985","","","post_mooney1_questions","survey-likert","372","1855106","0.0-6.0-2.52","4083208","co38179","norming","","","{""curiosity"":4,""confidence"":4}","[0,1]","../img/tt/020tt.jpg","",""
"4486.160000000382","","","recognition","survey-text","373","1859593","0.0-6.0-3.52","4083208","co38179","norming","","","{""guess"":""hond""}","","../img/tt/020tt.jpg","",""
"null","../img/gs/020gs.jpg","null","reveal","image-keyboard-response","374","1861595","0.0-6.0-4.52","4083208","co38179","norming","","","","","","",""
"null","../img/tt/020tt.jpg","null","mooney2","image-keyboard-response","375","1863598","0.0-6.0-5.52","4083208","co38179","norming","","","","","","",""
"4113.36999999918","","","post_reveal_questions","survey-likert","376","1867713","0.0-6.0-6.52","4083208","co38179","norming","","","{""aha"":6}","[0]","../img/tt/020tt.jpg","",""
"null","<div style=""font-size:60px;""> </div>","null","fixation","html-keyboard-response","377","1867915","0.0-6.0-0.53","4083208","co38179","norming","","","","","","",""
"null","../img/tt/1363tt.jpg","null","mooney1","image-keyboard-response","378","1870918","0.0-6.0-1.53","4083208","co38179","norming","","","","","","",""
"7264.2349999987055","","","post_mooney1_questions","survey-likert","379","1878185","0.0-6.0-2.53","4083208","co38179","norming","","","{""curiosity"":5,""confidence"":1}","[0,1]","../img/tt/1363tt.jpg","",""
"2118.024999999674","","","recognition","survey-text","380","1880305","0.0-6.0-3.53","4083208","co38179","norming","","","{""guess"":""""}","","../img/tt/1363tt.jpg","",""
"null","../img/gs/1363gs.jpg","null","reveal","image-keyboard-response","381","1882307","0.0-6.0-4.53","4083208","co38179","norming","","","","","","",""
"null","../img/tt/1363tt.jpg","null","mooney2","image-keyboard-response","382","1884308","0.0-6.0-5.53","4083208","co38179","norming","","","","","","",""
"6378.179999999702","","","post_reveal_questions","survey-likert","383","1890689","0.0-6.0-6.53","4083208","co38179","norming","","","{""aha"":6}","[0]","../img/tt/1363tt.jpg","",""
"null","<div style=""font-size:60px;""> </div>","null","fixation","html-keyboard-response","384","1890891","0.0-6.0-0.54","4083208","co38179","norming","","","","","","",""
"null","../img/tt/121tt.jpg","null","mooney1","image-keyboard-response","385","1893894","0.0-6.0-1.54","4083208","co38179","norming","","","","","","",""
"7776.475000002189","","","post_mooney1_questions","survey-likert","386","1901673","0.0-6.0-2.54","4083208","co38179","norming","","","{""curiosity"":2,""confidence"":5}","[0,1]","../img/tt/121tt.jpg","",""
"6422.224999998463","","","recognition","survey-text","387","1908097","0.0-6.0-3.54","4083208","co38179","norming","","","{""guess"":""kangoeroe""}","","../img/tt/121tt.jpg","",""
"null","../img/gs/121gs.jpg","null","reveal","image-keyboard-response","388","1910100","0.0-6.0-4.54","4083208","co38179","norming","","","","","","",""
"null","../img/tt/121tt.jpg","null","mooney2","image-keyboard-response","389","1912102","0.0-6.0-5.54","4083208","co38179","norming","","","","","","",""
"6680.710000000428","","","post_reveal_questions","survey-likert","390","1918785","0.0-6.0-6.54","4083208","co38179","norming","","","{""aha"":1}","[0]","../img/tt/121tt.jpg","",""
"null","<div style=""font-size:60px;""> </div>","null","fixation","html-keyboard-response","391","1918988","0.0-6.0-0.55","4083208","co38179","norming","","","","","","",""
"null","../img/tt/418tt.jpg","null","mooney1","image-keyboard-response","392","1921990","0.0-6.0-1.55","4083208","co38179","norming","","","","","","",""
"10961.615000000224","","","post_mooney1_questions","survey-likert","393","1932954","0.0-6.0-2.55","4083208","co38179","norming","","","{""curiosity"":3,""confidence"":4}","[0,1]","../img/tt/418tt.jpg","",""
"3694.1050000023097","","","recognition","survey-text","394","1936649","0.0-6.0-3.55","4083208","co38179","norming","","","{""guess"":""tomaten""}","","../img/tt/418tt.jpg","",""
"null","../img/gs/418gs.jpg","null","reveal","image-keyboard-response","395","1938651","0.0-6.0-4.55","4083208","co38179","norming","","","","","","",""
"null","../img/tt/418tt.jpg","null","mooney2","image-keyboard-response","396","1940652","0.0-6.0-5.55","4083208","co38179","norming","","","","","","",""
"3698.609999999637","","","post_reveal_questions","survey-likert","397","1944353","0.0-6.0-6.55","4083208","co38179","norming","","","{""aha"":1}","[0]","../img/tt/418tt.jpg","",""
"null","<div style=""font-size:60px;""> </div>","null","fixation","html-keyboard-response","398","1944556","0.0-6.0-0.56","4083208","co38179","norming","","","","","","",""
"null","../img/tt/318tt.jpg","null","mooney1","image-keyboard-response","399","1947559","0.0-6.0-1.56","4083208","co38179","norming","","","","","","",""
"11055.629999998957","","","post_mooney1_questions","survey-likert","400","1958618","0.0-6.0-2.56","4083208","co38179","norming","","","{""curiosity"":5,""confidence"":1}","[0,1]","../img/tt/318tt.jpg","",""
"1382.1800000006333","","","recognition","survey-text","401","1960002","0.0-6.0-3.56","4083208","co38179","norming","","","{""guess"":""""}","","../img/tt/318tt.jpg","",""
"null","../img/gs/318gs.jpg","null","reveal","image-keyboard-response","402","1962004","0.0-6.0-4.56","4083208","co38179","norming","","","","","","",""
"null","../img/tt/318tt.jpg","null","mooney2","image-keyboard-response","403","1964008","0.0-6.0-5.56","4083208","co38179","norming","","","","","","",""
"2391.7849999996834","","","post_reveal_questions","survey-likert","404","1966402","0.0-6.0-6.56","4083208","co38179","norming","","","{""aha"":5}","[0]","../img/tt/318tt.jpg","",""
"null","<div style=""font-size:60px;""> </div>","null","fixation","html-keyboard-response","405","1966603","0.0-6.0-0.57","4083208","co38179","norming","","","","","","",""
"null","../img/tt/1080tt.jpg","null","mooney1","image-keyboard-response","406","1969606","0.0-6.0-1.57","4083208","co38179","norming","","","","","","",""
"31161.17500000121","","","post_mooney1_questions","survey-likert","407","2000770","0.0-6.0-2.57","4083208","co38179","norming","","","{""curiosity"":5,""confidence"":2}","[0,1]","../img/tt/1080tt.jpg","",""
"7117.99999999837","","","recognition","survey-text","408","2007889","0.0-6.0-3.57","4083208","co38179","norming","","","{""guess"":""living""}","","../img/tt/1080tt.jpg","",""
"null","../img/gs/1080gs.jpg","null","reveal","image-keyboard-response","409","2009890","0.0-6.0-4.57","4083208","co38179","norming","","","","","","",""
"null","../img/tt/1080tt.jpg","null","mooney2","image-keyboard-response","410","2011893","0.0-6.0-5.57","4083208","co38179","norming","","","","","","",""
"3353.1350000011735","","","post_reveal_questions","survey-likert","411","2015249","0.0-6.0-6.57","4083208","co38179","norming","","","{""aha"":6}","[0]","../img/tt/1080tt.jpg","",""
"null","<div style=""font-size:60px;""> </div>","null","fixation","html-keyboard-response","412","2015450","0.0-6.0-0.58","4083208","co38179","norming","","","","","","",""
"null","../img/tt/1049tt.jpg","null","mooney1","image-keyboard-response","413","2018453","0.0-6.0-1.58","4083208","co38179","norming","","","","","","",""
"6819.049999998184","","","post_mooney1_questions","survey-likert","414","2025274","0.0-6.0-2.58","4083208","co38179","norming","","","{""curiosity"":4,""confidence"":3}","[0,1]","../img/tt/1049tt.jpg","",""
"3685.9150000019","","","recognition","survey-text","415","2028961","0.0-6.0-3.58","4083208","co38179","norming","","","{""guess"":""geiten""}","","../img/tt/1049tt.jpg","",""
"null","../img/gs/1049gs.jpg","null","reveal","image-keyboard-response","416","2030962","0.0-6.0-4.58","4083208","co38179","norming","","","","","","",""
"null","../img/tt/1049tt.jpg","null","mooney2","image-keyboard-response","417","2032965","0.0-6.0-5.58","4083208","co38179","norming","","","","","","",""
"4001.530000001425","","","post_reveal_questions","survey-likert","418","2036969","0.0-6.0-6.58","4083208","co38179","norming","","","{""aha"":5}","[0]","../img/tt/1049tt.jpg","",""
"null","<div style=""font-size:60px;""> </div>","null","fixation","html-keyboard-response","419","2037171","0.0-6.0-0.59","4083208","co38179","norming","","","","","","",""
"null","../img/tt/194tt.jpg","null","mooney1","image-keyboard-response","420","2040174","0.0-6.0-1.59","4083208","co38179","norming","","","","","","",""
"6199.964999999851","","","post_mooney1_questions","survey-likert","421","2046378","0.0-6.0-2.59","4083208","co38179","norming","","","{""curiosity"":2,""confidence"":4}","[0,1]","../img/tt/194tt.jpg","",""
"6197.9399999980815","","","recognition","survey-text","422","2052577","0.0-6.0-3.59","4083208","co38179","norming","","","{""guess"":""meisje""}","","../img/tt/194tt.jpg","",""
"null","../img/gs/194gs.jpg","null","reveal","image-keyboard-response","423","2054579","0.0-6.0-4.59","4083208","co38179","norming","","","","","","",""
"null","../img/tt/194tt.jpg","null","mooney2","image-keyboard-response","424","2056580","0.0-6.0-5.59","4083208","co38179","norming","","","","","","",""
"4274.9700000023","","","post_reveal_questions","survey-likert","425","2060857","0.0-6.0-6.59","4083208","co38179","norming","","","{""aha"":3}","[0]","../img/tt/194tt.jpg","",""
"null","<div style=""font-size:60px;""> </div>","null","fixation","html-keyboard-response","426","2061059","0.0-6.0-0.60","4083208","co38179","norming","","","","","","",""
"null","../img/tt/013tt.jpg","null","mooney1","image-keyboard-response","427","2064062","0.0-6.0-1.60","4083208","co38179","norming","","","","","","",""
"16282.29500000109","","","post_mooney1_questions","survey-likert","428","2080346","0.0-6.0-2.60","4083208","co38179","norming","","","{""curiosity"":6,""confidence"":1}","[0,1]","../img/tt/013tt.jpg","",""
"1974.0649999985471","","","recognition","survey-text","429","2082321","0.0-6.0-3.60","4083208","co38179","norming","","","{""guess"":""""}","","../img/tt/013tt.jpg","",""
"null","../img/gs/013gs.jpg","null","reveal","image-keyboard-response","430","2084323","0.0-6.0-4.60","4083208","co38179","norming","","","","","","",""
"null","../img/tt/013tt.jpg","null","mooney2","image-keyboard-response","431","2086326","0.0-6.0-5.60","4083208","co38179","norming","","","","","","",""
"9162.514999999898","","","post_reveal_questions","survey-likert","432","2095489","0.0-6.0-6.60","4083208","co38179","norming","","","{""aha"":4}","[0]","../img/tt/013tt.jpg","",""
"null","<div style=""font-size:60px;""> </div>","null","fixation","html-keyboard-response","433","2095691","0.0-6.0-0.61","4083208","co38179","norming","","","","","","",""
"null","../img/tt/1123tt.jpg","null","mooney1","image-keyboard-response","434","2098695","0.0-6.0-1.61","4083208","co38179","norming","","","","","","",""
"15431.78499999689","","","post_mooney1_questions","survey-likert","435","2114130","0.0-6.0-2.61","4083208","co38179","norming","","","{""curiosity"":4,""confidence"":4}","[0,1]","../img/tt/1123tt.jpg","",""
"2949.9550000000745","","","recognition","survey-text","436","2117081","0.0-6.0-3.61","4083208","co38179","norming","","","{""guess"":""bal""}","","../img/tt/1123tt.jpg","",""
"null","../img/gs/1123gs.jpg","null","reveal","image-keyboard-response","437","2119082","0.0-6.0-4.61","4083208","co38179","norming","","","","","","",""
"null","../img/tt/1123tt.jpg","null","mooney2","image-keyboard-response","438","2121084","0.0-6.0-5.61","4083208","co38179","norming","","","","","","",""
"5988.615000002086","","","post_reveal_questions","survey-likert","439","2127073","0.0-6.0-6.61","4083208","co38179","norming","","","{""aha"":3}","[0]","../img/tt/1123tt.jpg","",""
"null","<div style=""font-size:60px;""> </div>","null","fixation","html-keyboard-response","440","2127276","0.0-6.0-0.62","4083208","co38179","norming","","","","","","",""
"null","../img/tt/1260tt.jpg","null","mooney1","image-keyboard-response","441","2130280","0.0-6.0-1.62","4083208","co38179","norming","","","","","","",""
"16222.454999999143","","","post_mooney1_questions","survey-likert","442","2146507","0.0-6.0-2.62","4083208","co38179","norming","","","{""curiosity"":6,""confidence"":1}","[0,1]","../img/tt/1260tt.jpg","",""
"4510.0800000000745","","","recognition","survey-text","443","2151019","0.0-6.0-3.62","4083208","co38179","norming","","","{""guess"":""bos""}","","../img/tt/1260tt.jpg","",""
"null","../img/gs/1260gs.jpg","null","reveal","image-keyboard-response","444","2153021","0.0-6.0-4.62","4083208","co38179","norming","","","","","","",""
"null","../img/tt/1260tt.jpg","null","mooney2","image-keyboard-response","445","2155023","0.0-6.0-5.62","4083208","co38179","norming","","","","","","",""
"2747.2749999975786","","","post_reveal_questions","survey-likert","446","2157771","0.0-6.0-6.62","4083208","co38179","norming","","","{""aha"":5}","[0]","../img/tt/1260tt.jpg","",""
"null","<div style=""font-size:60px;""> </div>","null","fixation","html-keyboard-response","447","2157973","0.0-6.0-0.63","4083208","co38179","norming","","","","","","",""
"null","../img/tt/055tt.jpg","null","mooney1","image-keyboard-response","448","2160977","0.0-6.0-1.63","4083208","co38179","norming","","","","","","",""
"13143.30999999959","","","post_mooney1_questions","survey-likert","449","2174123","0.0-6.0-2.63","4083208","co38179","norming","","","{""curiosity"":3,""confidence"":3}","[0,1]","../img/tt/055tt.jpg","",""
"3806.0149999982677","","","recognition","survey-text","450","2177931","0.0-6.0-3.63","4083208","co38179","norming","","","{""guess"":""zadel""}","","../img/tt/055tt.jpg","",""
"null","../img/gs/055gs.jpg","null","reveal","image-keyboard-response","451","2179933","0.0-6.0-4.63","4083208","co38179","norming","","","","","","",""
"null","../img/tt/055tt.jpg","null","mooney2","image-keyboard-response","452","2181934","0.0-6.0-5.63","4083208","co38179","norming","","","","","","",""
"6970.144999999087","","","post_reveal_questions","survey-likert","453","2188907","0.0-6.0-6.63","4083208","co38179","norming","","","{""aha"":0}","[0]","../img/tt/055tt.jpg","",""
"null","<div style=""font-size:60px;""> </div>","null","fixation","html-keyboard-response","454","2189109","0.0-6.0-0.64","4083208","co38179","norming","","","","","","",""
"null","../img/tt/1211tt.jpg","null","mooney1","image-keyboard-response","455","2192112","0.0-6.0-1.64","4083208","co38179","norming","","","","","","",""
"7958.914999999106","","","post_mooney1_questions","survey-likert","456","2200075","0.0-6.0-2.64","4083208","co38179","norming","","","{""curiosity"":5,""confidence"":0}","[0,1]","../img/tt/1211tt.jpg","",""
"2469.91999999946","","","recognition","survey-text","457","2202548","0.0-6.0-3.64","4083208","co38179","norming","","","{""guess"":""""}","","../img/tt/1211tt.jpg","",""
"null","../img/gs/1211gs.jpg","null","reveal","image-keyboard-response","458","2204549","0.0-6.0-4.64","4083208","co38179","norming","","","","","","",""
"null","../img/tt/1211tt.jpg","null","mooney2","image-keyboard-response","459","2206550","0.0-6.0-5.64","4083208","co38179","norming","","","","","","",""
"3653.2699999990873","","","post_reveal_questions","survey-likert","460","2210204","0.0-6.0-6.64","4083208","co38179","norming","","","{""aha"":6}","[0]","../img/tt/1211tt.jpg","",""
"null","<div style=""font-size:60px;""> </div>","null","fixation","html-keyboard-response","461","2210405","0.0-6.0-0.65","4083208","co38179","norming","","","","","","",""
"null","../img/tt/567tt.jpg","null","mooney1","image-keyboard-response","462","2213410","0.0-6.0-1.65","4083208","co38179","norming","","","","","","",""
"9351.855000000447","","","post_mooney1_questions","survey-likert","463","2222765","0.0-6.0-2.65","4083208","co38179","norming","","","{""curiosity"":2,""confidence"":5}","[0,1]","../img/tt/567tt.jpg","",""
"6373.980000000447","","","recognition","survey-text","464","2229140","0.0-6.0-3.65","4083208","co38179","norming","","","{""guess"":""broodrooster""}","","../img/tt/567tt.jpg","",""
"null","../img/gs/567gs.jpg","null","reveal","image-keyboard-response","465","2231142","0.0-6.0-4.65","4083208","co38179","norming","","","","","","",""
"null","../img/tt/567tt.jpg","null","mooney2","image-keyboard-response","466","2233144","0.0-6.0-5.65","4083208","co38179","norming","","","","","","",""
"2874.149999999907","","","post_reveal_questions","survey-likert","467","2236021","0.0-6.0-6.65","4083208","co38179","norming","","","{""aha"":0}","[0]","../img/tt/567tt.jpg","",""
"null","<div style=""font-size:60px;""> </div>","null","fixation","html-keyboard-response","468","2236222","0.0-6.0-0.66","4083208","co38179","norming","","","","","","",""
"null","../img/tt/1066tt.jpg","null","mooney1","image-keyboard-response","469","2239225","0.0-6.0-1.66","4083208","co38179","norming","","","","","","",""
"5584.620000001509","","","post_mooney1_questions","survey-likert","470","2244813","0.0-6.0-2.66","4083208","co38179","norming","","","{""curiosity"":1,""confidence"":5}","[0,1]","../img/tt/1066tt.jpg","",""
"2677.9950000019744","","","recognition","survey-text","471","2247492","0.0-6.0-3.66","4083208","co38179","norming","","","{""guess"":""bus""}","","../img/tt/1066tt.jpg","",""
"null","../img/gs/1066gs.jpg","null","reveal","image-keyboard-response","472","2249494","0.0-6.0-4.66","4083208","co38179","norming","","","","","","",""
"null","../img/tt/1066tt.jpg","null","mooney2","image-keyboard-response","473","2251496","0.0-6.0-5.66","4083208","co38179","norming","","","","","","",""
"2937.884999999311","","","post_reveal_questions","survey-likert","474","2254436","0.0-6.0-6.66","4083208","co38179","norming","","","{""aha"":1}","[0]","../img/tt/1066tt.jpg","",""
"null","<div style=""font-size:60px;""> </div>","null","fixation","html-keyboard-response","475","2254637","0.0-6.0-0.67","4083208","co38179","norming","","","","","","",""
"null","../img/tt/1234tt.jpg","null","mooney1","image-keyboard-response","476","2257640","0.0-6.0-1.67","4083208","co38179","norming","","","","","","",""
"9793.069999999832","","","post_mooney1_questions","survey-likert","477","2267439","0.0-6.0-2.67","4083208","co38179","norming","","","{""curiosity"":1,""confidence"":5}","[0,1]","../img/tt/1234tt.jpg","",""
"4550.084999998566","","","recognition","survey-text","478","2271991","0.0-6.0-3.67","4083208","co38179","norming","","","{""guess"":""roeiboot""}","","../img/tt/1234tt.jpg","",""
"null","../img/gs/1234gs.jpg","null","reveal","image-keyboard-response","479","2273992","0.0-6.0-4.67","4083208","co38179","norming","","","","","","",""
"null","../img/tt/1234tt.jpg","null","mooney2","image-keyboard-response","480","2275997","0.0-6.0-5.67","4083208","co38179","norming","","","","","","",""
"4591.059999998659","","","post_reveal_questions","survey-likert","481","2280591","0.0-6.0-6.67","4083208","co38179","norming","","","{""aha"":5}","[0]","../img/tt/1234tt.jpg","",""
"null","<div style=""font-size:60px;""> </div>","null","fixation","html-keyboard-response","482","2280793","0.0-6.0-0.68","4083208","co38179","norming","","","","","","",""
"null","../img/tt/406tt.jpg","null","mooney1","image-keyboard-response","483","2283796","0.0-6.0-1.68","4083208","co38179","norming","","","","","","",""
"7991.450000001118","","","post_mooney1_questions","survey-likert","484","2291791","0.0-6.0-2.68","4083208","co38179","norming","","","{""curiosity"":6,""confidence"":0}","[0,1]","../img/tt/406tt.jpg","",""
"1238.1600000010803","","","recognition","survey-text","485","2293031","0.0-6.0-3.68","4083208","co38179","norming","","","{""guess"":""""}","","../img/tt/406tt.jpg","",""
"null","../img/gs/406gs.jpg","null","reveal","image-keyboard-response","486","2295033","0.0-6.0-4.68","4083208","co38179","norming","","","","","","",""
"null","../img/tt/406tt.jpg","null","mooney2","image-keyboard-response","487","2297035","0.0-6.0-5.68","4083208","co38179","norming","","","","","","",""
"8584.945000002626","","","post_reveal_questions","survey-likert","488","2305623","0.0-6.0-6.68","4083208","co38179","norming","","","{""aha"":5}","[0]","../img/tt/406tt.jpg","",""
"null","<div style=""font-size:60px;""> </div>","null","fixation","html-keyboard-response","489","2305825","0.0-6.0-0.69","4083208","co38179","norming","","","","","","",""
"null","../img/tt/522tt.jpg","null","mooney1","image-keyboard-response","490","2308828","0.0-6.0-1.69","4083208","co38179","norming","","","","","","",""
"9559.874999999069","","","post_mooney1_questions","survey-likert","491","2318391","0.0-6.0-2.69","4083208","co38179","norming","","","{""curiosity"":5,""confidence"":3}","[0,1]","../img/tt/522tt.jpg","",""
"3246.18499999959","","","recognition","survey-text","492","2321639","0.0-6.0-3.69","4083208","co38179","norming","","","{""guess"":""rups""}","","../img/tt/522tt.jpg","",""
"null","../img/gs/522gs.jpg","null","reveal","image-keyboard-response","493","2323642","0.0-6.0-4.69","4083208","co38179","norming","","","","","","",""
"null","../img/tt/522tt.jpg","null","mooney2","image-keyboard-response","494","2325646","0.0-6.0-5.69","4083208","co38179","norming","","","","","","",""
"2872.4599999985658","","","post_reveal_questions","survey-likert","495","2328521","0.0-6.0-6.69","4083208","co38179","norming","","","{""aha"":6}","[0]","../img/tt/522tt.jpg","",""
"null","<div style=""font-size:60px;""> </div>","null","fixation","html-keyboard-response","496","2328723","0.0-6.0-0.70","4083208","co38179","norming","","","","","","",""
"null","../img/tt/124tt.jpg","null","mooney1","image-keyboard-response","497","2331725","0.0-6.0-1.70","4083208","co38179","norming","","","","","","",""
"9391.884999997448","","","post_mooney1_questions","survey-likert","498","2341121","0.0-6.0-2.70","4083208","co38179","norming","","","{""curiosity"":3,""confidence"":4}","[0,1]","../img/tt/124tt.jpg","",""
"7717.8500000010245","","","recognition","survey-text","499","2348840","0.0-6.0-3.70","4083208","co38179","norming","","","{""guess"":""varken""}","","../img/tt/124tt.jpg","",""
"null","../img/gs/124gs.jpg","null","reveal","image-keyboard-response","500","2350843","0.0-6.0-4.70","4083208","co38179","norming","","","","","","",""
"null","../img/tt/124tt.jpg","null","mooney2","image-keyboard-response","501","2352845","0.0-6.0-5.70","4083208","co38179","norming","","","","","","",""
"2297.089999999851","","","post_reveal_questions","survey-likert","502","2355144","0.0-6.0-6.70","4083208","co38179","norming","","","{""aha"":6}","[0]","../img/tt/124tt.jpg","",""
"null","<div style=""font-size:60px;""> </div>","null","fixation","html-keyboard-response","503","2355346","0.0-6.0-0.71","4083208","co38179","norming","","","","","","",""
"null","../img/tt/1217tt.jpg","null","mooney1","image-keyboard-response","504","2358348","0.0-6.0-1.71","4083208","co38179","norming","","","","","","",""
"4841.335000000894","","","post_mooney1_questions","survey-likert","505","2363193","0.0-6.0-2.71","4083208","co38179","norming","","","{""curiosity"":4,""confidence"":4}","[0,1]","../img/tt/1217tt.jpg","",""
"3669.8700000015087","","","recognition","survey-text","506","2366864","0.0-6.0-3.71","4083208","co38179","norming","","","{""guess"":""geiten""}","","../img/tt/1217tt.jpg","",""
"null","../img/gs/1217gs.jpg","null","reveal","image-keyboard-response","507","2368866","0.0-6.0-4.71","4083208","co38179","norming","","","","","","",""
"null","../img/tt/1217tt.jpg","null","mooney2","image-keyboard-response","508","2370869","0.0-6.0-5.71","4083208","co38179","norming","","","","","","",""
"6640.429999999236","","","post_reveal_questions","survey-likert","509","2377512","0.0-6.0-6.71","4083208","co38179","norming","","","{""aha"":6}","[0]","../img/tt/1217tt.jpg","",""
"null","<div style=""font-size:60px;""> </div>","null","fixation","html-keyboard-response","510","2377714","0.0-6.0-0.72","4083208","co38179","norming","","","","","","",""
"null","../img/tt/1226tt.jpg","null","mooney1","image-keyboard-response","511","2380717","0.0-6.0-1.72","4083208","co38179","norming","","","","","","",""
"15575.780000003055","","","post_mooney1_questions","survey-likert","512","2396298","0.0-6.0-2.72","4083208","co38179","norming","","","{""curiosity"":2,""confidence"":5}","[0,1]","../img/tt/1226tt.jpg","",""
"14797.94999999972","","","recognition","survey-text","513","2411098","0.0-6.0-3.72","4083208","co38179","norming","","","{""guess"":""watervogels""}","","../img/tt/1226tt.jpg","",""
"null","../img/gs/1226gs.jpg","null","reveal","image-keyboard-response","514","2413100","0.0-6.0-4.72","4083208","co38179","norming","","","","","","",""
"null","../img/tt/1226tt.jpg","null","mooney2","image-keyboard-response","515","2415104","0.0-6.0-5.72","4083208","co38179","norming","","","","","","",""
"5135.569999998901","","","post_reveal_questions","survey-likert","516","2420242","0.0-6.0-6.72","4083208","co38179","norming","","","{""aha"":5}","[0]","../img/tt/1226tt.jpg","",""
"null","<div style=""font-size:60px;""> </div>","null","fixation","html-keyboard-response","517","2420444","0.0-6.0-0.73","4083208","co38179","norming","","","","","","",""
"null","../img/tt/436tt.jpg","null","mooney1","image-keyboard-response","518","2423447","0.0-6.0-1.73","4083208","co38179","norming","","","","","","",""
"5719.650000002701","","","post_mooney1_questions","survey-likert","519","2429170","0.0-6.0-2.73","4083208","co38179","norming","","","{""curiosity"":5,""confidence"":1}","[0,1]","../img/tt/436tt.jpg","",""
"4845.915000001434","","","recognition","survey-text","520","2434018","0.0-6.0-3.73","4083208","co38179","norming","","","{""guess"":""fruit""}","","../img/tt/436tt.jpg","",""
"null","../img/gs/436gs.jpg","null","reveal","image-keyboard-response","521","2436021","0.0-6.0-4.73","4083208","co38179","norming","","","","","","",""
"null","../img/tt/436tt.jpg","null","mooney2","image-keyboard-response","522","2438023","0.0-6.0-5.73","4083208","co38179","norming","","","","","","",""
"3263.5499999998137","","","post_reveal_questions","survey-likert","523","2441290","0.0-6.0-6.73","4083208","co38179","norming","","","{""aha"":6}","[0]","../img/tt/436tt.jpg","",""
"null","<div style=""font-size:60px;""> </div>","null","fixation","html-keyboard-response","524","2441492","0.0-6.0-0.74","4083208","co38179","norming","","","","","","",""
"null","../img/tt/599tt.jpg","null","mooney1","image-keyboard-response","525","2444495","0.0-6.0-1.74","4083208","co38179","norming","","","","","","",""
"4377.694999999367","","","post_mooney1_questions","survey-likert","526","2448874","0.0-6.0-2.74","4083208","co38179","norming","","","{""curiosity"":1,""confidence"":5}","[0,1]","../img/tt/599tt.jpg","",""
"4542.045000001788","","","recognition","survey-text","527","2453418","0.0-6.0-3.74","4083208","co38179","norming","","","{""guess"":""uilen""}","","../img/tt/599tt.jpg","",""
"null","../img/gs/599gs.jpg","null","reveal","image-keyboard-response","528","2455420","0.0-6.0-4.74","4083208","co38179","norming","","","","","","",""
"null","../img/tt/599tt.jpg","null","mooney2","image-keyboard-response","529","2457422","0.0-6.0-5.74","4083208","co38179","norming","","","","","","",""
"2777.7099999985658","","","post_reveal_questions","survey-likert","530","2460202","0.0-6.0-6.74","4083208","co38179","norming","","","{""aha"":0}","[0]","../img/tt/599tt.jpg","",""
"null","<div style=""font-size:60px;""> </div>","null","fixation","html-keyboard-response","531","2460405","0.0-6.0-0.75","4083208","co38179","norming","","","","","","",""
"null","../img/tt/082tt.jpg","null","mooney1","image-keyboard-response","532","2463408","0.0-6.0-1.75","4083208","co38179","norming","","","","","","",""
"19406.89500000002","","","post_mooney1_questions","survey-likert","533","2482819","0.0-6.0-2.75","4083208","co38179","norming","","","{""curiosity"":2,""confidence"":4}","[0,1]","../img/tt/082tt.jpg","",""
"7597.924999998417","","","recognition","survey-text","534","2490418","0.0-6.0-3.75","4083208","co38179","norming","","","{""guess"":""paardenstal""}","","../img/tt/082tt.jpg","",""
"null","../img/gs/082gs.jpg","null","reveal","image-keyboard-response","535","2492421","0.0-6.0-4.75","4083208","co38179","norming","","","","","","",""
"null","../img/tt/082tt.jpg","null","mooney2","image-keyboard-response","536","2494423","0.0-6.0-5.75","4083208","co38179","norming","","","","","","",""
"4888.329999997746","","","post_reveal_questions","survey-likert","537","2499314","0.0-6.0-6.75","4083208","co38179","norming","","","{""aha"":6}","[0]","../img/tt/082tt.jpg","",""
"null","<div style=""font-size:60px;""> </div>","null","fixation","html-keyboard-response","538","2499520","0.0-6.0-0.76","4083208","co38179","norming","","","","","","",""
"null","../img/tt/559tt.jpg","null","mooney1","image-keyboard-response","539","2502522","0.0-6.0-1.76","4083208","co38179","norming","","","","","","",""
"9615.100000002887","","","post_mooney1_questions","survey-likert","540","2512139","0.0-6.0-2.76","4083208","co38179","norming","","","{""curiosity"":5,""confidence"":2}","[0,1]","../img/tt/559tt.jpg","",""
"6133.850000002421","","","recognition","survey-text","541","2518274","0.0-6.0-3.76","4083208","co38179","norming","","","{""guess"":""loopfiets""}","","../img/tt/559tt.jpg","",""
"null","../img/gs/559gs.jpg","null","reveal","image-keyboard-response","542","2520276","0.0-6.0-4.76","4083208","co38179","norming","","","","","","",""
"null","../img/tt/559tt.jpg","null","mooney2","image-keyboard-response","543","2522278","0.0-6.0-5.76","4083208","co38179","norming","","","","","","",""
"4386.0849999981","","","post_reveal_questions","survey-likert","544","2526667","0.0-6.0-6.76","4083208","co38179","norming","","","{""aha"":4}","[0]","../img/tt/559tt.jpg","",""
"null","<div style=""font-size:60px;""> </div>","null","fixation","html-keyboard-response","545","2526868","0.0-6.0-0.77","4083208","co38179","norming","","","","","","",""
"null","../img/tt/063tt.jpg","null","mooney1","image-keyboard-response","546","2529871","0.0-6.0-1.77","4083208","co38179","norming","","","","","","",""
"8402.629999996629","","","post_mooney1_questions","survey-likert","547","2538275","0.0-6.0-2.77","4083208","co38179","norming","","","{""curiosity"":2,""confidence"":5}","[0,1]","../img/tt/063tt.jpg","",""
"4381.969999998342","","","recognition","survey-text","548","2542658","0.0-6.0-3.77","4083208","co38179","norming","","","{""guess"":""accordeon""}","","../img/tt/063tt.jpg","",""
"null","../img/gs/063gs.jpg","null","reveal","image-keyboard-response","549","2544661","0.0-6.0-4.77","4083208","co38179","norming","","","","","","",""
"null","../img/tt/063tt.jpg","null","mooney2","image-keyboard-response","550","2546663","0.0-6.0-5.77","4083208","co38179","norming","","","","","","",""
"3488.5150000010617","","","post_reveal_questions","survey-likert","551","2550154","0.0-6.0-6.77","4083208","co38179","norming","","","{""aha"":1}","[0]","../img/tt/063tt.jpg","",""
