"rt","stimulus","key_press","test_part","trial_type","trial_index","time_elapsed","internal_node_id","totalTime","subject","experiment_name","button_pressed","success","responses","question_order","currentStim","old","correct"
"18066.674999999974","Welcome to the experiment. This is an online experiment so please don't close the tab/window until we say goodbye.  Press any key to begin.","39","instructions","html-keyboard-response","0","18080","0.0-0.0","3104542","co38014","norming","","","","","","",""
"44198.674999999974","<div style='word-wrap: break-word; width: 900px'><h3>Please consider this information carefully before deciding whether to participate in this research</h3><ul style='text-align: left; font-size: .8em;'><li><b>Purpose of the research</b>: To examine how people process images.</li><li><b>What you will do in this research</b>:  Stimuli (images) will be presented on the computer and you will be asked different questions about them.</li><li><b>Time required</b>: Participation will take between 45 and 60 minutes to complete.</li><li><b>Risks</b>:  There are no anticipated risks associated with participating in this study. The effects of participating should be comparable to those you would experience from viewing a computer monitor for 30 minutes and using a mouse or keyboard.</li><li><b>Benefits</b>:  This study provides no benefits to you individually except for the credit. The study provides important information about the nature of perception and learning.</li><li><b>Confidentiality</b>:  Your participation in this study will remain confidential. No personally identifiable information will be associated with your data. Your de-identified data may be shared with other researchers and used in future projects.</li><li><b>Participation and withdrawal</b>:  Your participation in this study is completely voluntary and you may refuse to participate or you may choose to withdraw at any time without penalty.</li><li><b>How to contact the researchers</b>: If you have questions or concerns about your participation or payment, or want to request a summary of research findings, please contact Sander Van de Cruys (KU Leuven), at sander.vandecruys@kuleuven.be.</li></ul><p>The nature and purpose of this research have been sufficiently explained and I agree to participate in this study.  I understand that I am free to withdraw at any time without incurring any penalty.</p><p>Please consent by clicking the button below to continue. Otherwise, please exit the study at this time.</p></div>","","instructions","html-button-response","1","62276","0.0-1.0","3104542","co38014","norming","0","","","","","",""
"","","","instructions","fullscreen","2","66056","0.0-2.0","3104542","co38014","norming","","true","","","","",""
"20289.964999999997","","","sona","survey-html-form","3","86351","0.0-3.0","3104542","co38014","norming","","","[{""name"":""sonaid"",""value"":""38014""},{""name"":""debrief"",""value"":""yes""},{""name"":""datajoin"",""value"":""yes""}]","","","",""
"100956.86","<div style='word-wrap: break-word; width: 900px'><h3>Instructions</h3><p>This experiment will have 3 parts. In the first part you will see a series of distorted images like the one below on the left. As you can see in the righthand image, the distorted images are derived from actual photographs. In what follows, you will <strong>briefly</strong> be presented with <strong>only</strong> the distorted image.</p> <div style='float: left; margin-right: 20px;'><img src='../img/018tt.jpg' height='250' width='250'></img></div><div style='float: right; margin-left: 20px;'><img src='../img/018gs.jpg' height='250' width='250'></img></div><p>Subsequently you will be asked a few questions about the image: One question on how <strong>curious</strong> you are about the solution and one on how <strong>confident</strong> you are that you know the solution.</p>Next, we ask you to make a guess on what is in the image. Note that it is OK to name just the <strong>basic level category</strong>. For example when you see a parrot in the image, 'parrot' will obviously be a correct answer but also correct is 'bird'. However, 'animal' will <strong>not</strong> be counted as a correct response. For the example above, 'rose' would be correct or 'flower', but not 'plant'. When soccer players are depicted, 'soccer', 'football', 'soccer players' will be correct, but not 'humans', 'outdoors', or 'sports'. You do not need to describe the image in full, just name the main object in it <strong>in one or two words</strong>. All images depict objects from one of the following broad level categories: animals, inanimate objects, plants, sports, vehicles, and food. Recognizing means knowing <strong>more</strong> than these broad labels for a given image. But we always encourage you to <strong>make a guess</strong> if you can. Note that you are allowed to use <strong>Dutch and English</strong> in your answers, whatever comes easiest for you.</p><p>Press any key to continue.</p></div>","39","instructions","html-keyboard-response","4","187482","0.0-4.0","3104542","co38014","norming","","","","","","",""
"85148.12499999994","<div style='word-wrap: break-word; width: 900px'><h3>Instructions</h3> <p>Next, the solution image will be revealed to you and you'll be asked to indicate how strong your <strong>aha-experience</strong> was after seeing the solution. This describes the positive feeling of the 'click' you sometimes experience, when the pieces of the 'puzzle' fall together and you suddenly have 'insight' in the image.</p><img src='aha.jpg' height='188' width='250'></img><p>Note that there are no right or wrong answers. We are interested in what <strong>you</strong> see in the image and how <strong>you</strong> feel about it.</p><p>Press any key to start the experiment.</p></div>","39","instructions","html-keyboard-response","5","272752","0.0-5.0","3104542","co38014","norming","","","","","","",""
"null","<div style=""font-size:60px;""> </div>","null","fixation","html-keyboard-response","6","272955","0.0-6.0-0.0","3104542","co38014","norming","","","","","","",""
"null","../img/tt/534tt.jpg","null","mooney1","image-keyboard-response","7","275960","0.0-6.0-1.0","3104542","co38014","norming","","","","","","",""
"8381.52999999997","","","post_mooney1_questions","survey-likert","8","284345","0.0-6.0-2.0","3104542","co38014","norming","","","{""curiosity"":4,""confidence"":2}","[0,1]","../img/tt/534tt.jpg","",""
"10285.870000000054","","","recognition","survey-text","9","294632","0.0-6.0-3.0","3104542","co38014","norming","","","{""guess"":""Venus vliegenval""}","","../img/tt/534tt.jpg","",""
"null","../img/gs/534gs.jpg","null","reveal","image-keyboard-response","10","296634","0.0-6.0-4.0","3104542","co38014","norming","","","","","","",""
"null","../img/tt/534tt.jpg","null","mooney2","image-keyboard-response","11","298637","0.0-6.0-5.0","3104542","co38014","norming","","","","","","",""
"3832.600000000093","","","post_reveal_questions","survey-likert","12","302472","0.0-6.0-6.0","3104542","co38014","norming","","","{""aha"":4}","[0]","../img/tt/534tt.jpg","",""
"null","<div style=""font-size:60px;""> </div>","null","fixation","html-keyboard-response","13","302674","0.0-6.0-0.1","3104542","co38014","norming","","","","","","",""
"null","../img/tt/184tt.jpg","null","mooney1","image-keyboard-response","14","305678","0.0-6.0-1.1","3104542","co38014","norming","","","","","","",""
"5535.619999999995","","","post_mooney1_questions","survey-likert","15","311216","0.0-6.0-2.1","3104542","co38014","norming","","","{""curiosity"":4,""confidence"":0}","[0,1]","../img/tt/184tt.jpg","",""
"2382.2649999999558","","","recognition","survey-text","16","313600","0.0-6.0-3.1","3104542","co38014","norming","","","{""guess"":""""}","","../img/tt/184tt.jpg","",""
"null","../img/gs/184gs.jpg","null","reveal","image-keyboard-response","17","315603","0.0-6.0-4.1","3104542","co38014","norming","","","","","","",""
"null","../img/tt/184tt.jpg","null","mooney2","image-keyboard-response","18","317612","0.0-6.0-5.1","3104542","co38014","norming","","","","","","",""
"3858.3249999999534","","","post_reveal_questions","survey-likert","19","321472","0.0-6.0-6.1","3104542","co38014","norming","","","{""aha"":5}","[0]","../img/tt/184tt.jpg","",""
"null","<div style=""font-size:60px;""> </div>","null","fixation","html-keyboard-response","20","321676","0.0-6.0-0.2","3104542","co38014","norming","","","","","","",""
"null","../img/tt/1006tt.jpg","null","mooney1","image-keyboard-response","21","324682","0.0-6.0-1.2","3104542","co38014","norming","","","","","","",""
"7132.200000000012","","","post_mooney1_questions","survey-likert","22","331816","0.0-6.0-2.2","3104542","co38014","norming","","","{""curiosity"":3,""confidence"":0}","[0,1]","../img/tt/1006tt.jpg","",""
"894.1099999999278","","","recognition","survey-text","23","332712","0.0-6.0-3.2","3104542","co38014","norming","","","{""guess"":""""}","","../img/tt/1006tt.jpg","",""
"null","../img/gs/1006gs.jpg","null","reveal","image-keyboard-response","24","334805","0.0-6.0-4.2","3104542","co38014","norming","","","","","","",""
"null","../img/tt/1006tt.jpg","null","mooney2","image-keyboard-response","25","336816","0.0-6.0-5.2","3104542","co38014","norming","","","","","","",""
"5182.585000000021","","","post_reveal_questions","survey-likert","26","342000","0.0-6.0-6.2","3104542","co38014","norming","","","{""aha"":5}","[0]","../img/tt/1006tt.jpg","",""
"null","<div style=""font-size:60px;""> </div>","null","fixation","html-keyboard-response","27","342211","0.0-6.0-0.3","3104542","co38014","norming","","","","","","",""
"null","../img/tt/053tt.jpg","null","mooney1","image-keyboard-response","28","345220","0.0-6.0-1.3","3104542","co38014","norming","","","","","","",""
"5225.750000000058","","","post_mooney1_questions","survey-likert","29","350448","0.0-6.0-2.3","3104542","co38014","norming","","","{""curiosity"":3,""confidence"":0}","[0,1]","../img/tt/053tt.jpg","",""
"4574.134999999951","","","recognition","survey-text","30","355024","0.0-6.0-3.3","3104542","co38014","norming","","","{""guess"":""radiator""}","","../img/tt/053tt.jpg","",""
"null","../img/gs/053gs.jpg","null","reveal","image-keyboard-response","31","357032","0.0-6.0-4.3","3104542","co38014","norming","","","","","","",""
"null","../img/tt/053tt.jpg","null","mooney2","image-keyboard-response","32","359043","0.0-6.0-5.3","3104542","co38014","norming","","","","","","",""
"1595.1600000000908","","","post_reveal_questions","survey-likert","33","360640","0.0-6.0-6.3","3104542","co38014","norming","","","{""aha"":4}","[0]","../img/tt/053tt.jpg","",""
"null","<div style=""font-size:60px;""> </div>","null","fixation","html-keyboard-response","34","360846","0.0-6.0-0.4","3104542","co38014","norming","","","","","","",""
"null","../img/tt/019tt.jpg","null","mooney1","image-keyboard-response","35","363852","0.0-6.0-1.4","3104542","co38014","norming","","","","","","",""
"4042.069999999949","","","post_mooney1_questions","survey-likert","36","367896","0.0-6.0-2.4","3104542","co38014","norming","","","{""curiosity"":4,""confidence"":1}","[0,1]","../img/tt/019tt.jpg","",""
"5158.080000000016","","","recognition","survey-text","37","373056","0.0-6.0-3.4","3104542","co38014","norming","","","{""guess"":""vliegtuig""}","","../img/tt/019tt.jpg","",""
"null","../img/gs/019gs.jpg","null","reveal","image-keyboard-response","38","375065","0.0-6.0-4.4","3104542","co38014","norming","","","","","","",""
"null","../img/tt/019tt.jpg","null","mooney2","image-keyboard-response","39","377069","0.0-6.0-5.4","3104542","co38014","norming","","","","","","",""
"1992.859999999986","","","post_reveal_questions","survey-likert","40","379064","0.0-6.0-6.4","3104542","co38014","norming","","","{""aha"":4}","[0]","../img/tt/019tt.jpg","",""
"null","<div style=""font-size:60px;""> </div>","null","fixation","html-keyboard-response","41","379267","0.0-6.0-0.5","3104542","co38014","norming","","","","","","",""
"null","../img/tt/1181tt.jpg","null","mooney1","image-keyboard-response","42","382268","0.0-6.0-1.5","3104542","co38014","norming","","","","","","",""
"11761.754999999946","","","post_mooney1_questions","survey-likert","43","394032","0.0-6.0-2.5","3104542","co38014","norming","","","{""curiosity"":2,""confidence"":1}","[0,1]","../img/tt/1181tt.jpg","",""
"7502.015000000014","","","recognition","survey-text","44","401570","0.0-6.0-3.5","3104542","co38014","norming","","","{""guess"":""hockeyfans""}","","../img/tt/1181tt.jpg","",""
"null","../img/gs/1181gs.jpg","null","reveal","image-keyboard-response","45","403574","0.0-6.0-4.5","3104542","co38014","norming","","","","","","",""
"null","../img/tt/1181tt.jpg","null","mooney2","image-keyboard-response","46","405575","0.0-6.0-5.5","3104542","co38014","norming","","","","","","",""
"1425.1149999999907","","","post_reveal_questions","survey-likert","47","407002","0.0-6.0-6.5","3104542","co38014","norming","","","{""aha"":4}","[0]","../img/tt/1181tt.jpg","",""
"null","<div style=""font-size:60px;""> </div>","null","fixation","html-keyboard-response","48","407203","0.0-6.0-0.6","3104542","co38014","norming","","","","","","",""
"null","../img/tt/1142tt.jpg","null","mooney1","image-keyboard-response","49","410206","0.0-6.0-1.6","3104542","co38014","norming","","","","","","",""
"7579.055000000051","","","post_mooney1_questions","survey-likert","50","417786","0.0-6.0-2.6","3104542","co38014","norming","","","{""curiosity"":2,""confidence"":3}","[0,1]","../img/tt/1142tt.jpg","",""
"5790.1549999999115","","","recognition","survey-text","51","423578","0.0-6.0-3.6","3104542","co38014","norming","","","{""guess"":""javelin throw""}","","../img/tt/1142tt.jpg","",""
"null","../img/gs/1142gs.jpg","null","reveal","image-keyboard-response","52","425580","0.0-6.0-4.6","3104542","co38014","norming","","","","","","",""
"null","../img/tt/1142tt.jpg","null","mooney2","image-keyboard-response","53","427583","0.0-6.0-5.6","3104542","co38014","norming","","","","","","",""
"6736.64499999996","","","post_reveal_questions","survey-likert","54","434322","0.0-6.0-6.6","3104542","co38014","norming","","","{""aha"":2}","[0]","../img/tt/1142tt.jpg","",""
"null","<div style=""font-size:60px;""> </div>","null","fixation","html-keyboard-response","55","434524","0.0-6.0-0.7","3104542","co38014","norming","","","","","","",""
"null","../img/tt/590tt.jpg","null","mooney1","image-keyboard-response","56","437525","0.0-6.0-1.7","3104542","co38014","norming","","","","","","",""
"5634.625000000058","","","post_mooney1_questions","survey-likert","57","443162","0.0-6.0-2.7","3104542","co38014","norming","","","{""curiosity"":2,""confidence"":2}","[0,1]","../img/tt/590tt.jpg","",""
"5781.82500000007","","","recognition","survey-text","58","448946","0.0-6.0-3.7","3104542","co38014","norming","","","{""guess"":""man bij tafel""}","","../img/tt/590tt.jpg","",""
"null","../img/gs/590gs.jpg","null","reveal","image-keyboard-response","59","450947","0.0-6.0-4.7","3104542","co38014","norming","","","","","","",""
"null","../img/tt/590tt.jpg","null","mooney2","image-keyboard-response","60","452955","0.0-6.0-5.7","3104542","co38014","norming","","","","","","",""
"1749.7300000000396","","","post_reveal_questions","survey-likert","61","454706","0.0-6.0-6.7","3104542","co38014","norming","","","{""aha"":4}","[0]","../img/tt/590tt.jpg","",""
"null","<div style=""font-size:60px;""> </div>","null","fixation","html-keyboard-response","62","454917","0.0-6.0-0.8","3104542","co38014","norming","","","","","","",""
"null","../img/tt/1116tt.jpg","null","mooney1","image-keyboard-response","63","457927","0.0-6.0-1.8","3104542","co38014","norming","","","","","","",""
"9734.684999999998","","","post_mooney1_questions","survey-likert","64","467663","0.0-6.0-2.8","3104542","co38014","norming","","","{""curiosity"":3,""confidence"":2}","[0,1]","../img/tt/1116tt.jpg","",""
"4701.919999999984","","","recognition","survey-text","65","472367","0.0-6.0-3.8","3104542","co38014","norming","","","{""guess"":""vliegtuig""}","","../img/tt/1116tt.jpg","",""
"null","../img/gs/1116gs.jpg","null","reveal","image-keyboard-response","66","474376","0.0-6.0-4.8","3104542","co38014","norming","","","","","","",""
"null","../img/tt/1116tt.jpg","null","mooney2","image-keyboard-response","67","476381","0.0-6.0-5.8","3104542","co38014","norming","","","","","","",""
"3072.734999999986","","","post_reveal_questions","survey-likert","68","479455","0.0-6.0-6.8","3104542","co38014","norming","","","{""aha"":1}","[0]","../img/tt/1116tt.jpg","",""
"null","<div style=""font-size:60px;""> </div>","null","fixation","html-keyboard-response","69","479657","0.0-6.0-0.9","3104542","co38014","norming","","","","","","",""
"null","../img/tt/111tt.jpg","null","mooney1","image-keyboard-response","70","482666","0.0-6.0-1.9","3104542","co38014","norming","","","","","","",""
"7035.6900000000605","","","post_mooney1_questions","survey-likert","71","489703","0.0-6.0-2.9","3104542","co38014","norming","","","{""curiosity"":2,""confidence"":2}","[0,1]","../img/tt/111tt.jpg","",""
"10086.35500000004","","","recognition","survey-text","72","499791","0.0-6.0-3.9","3104542","co38014","norming","","","{""guess"":""lamp""}","","../img/tt/111tt.jpg","",""
"null","../img/gs/111gs.jpg","null","reveal","image-keyboard-response","73","501794","0.0-6.0-4.9","3104542","co38014","norming","","","","","","",""
"null","../img/tt/111tt.jpg","null","mooney2","image-keyboard-response","74","503795","0.0-6.0-5.9","3104542","co38014","norming","","","","","","",""
"3002.8400000000256","","","post_reveal_questions","survey-likert","75","506799","0.0-6.0-6.9","3104542","co38014","norming","","","{""aha"":4}","[0]","../img/tt/111tt.jpg","",""
"null","<div style=""font-size:60px;""> </div>","null","fixation","html-keyboard-response","76","507001","0.0-6.0-0.10","3104542","co38014","norming","","","","","","",""
"null","../img/tt/1107tt.jpg","null","mooney1","image-keyboard-response","77","510007","0.0-6.0-1.10","3104542","co38014","norming","","","","","","",""
"5358.789999999979","","","post_mooney1_questions","survey-likert","78","515362","0.0-6.0-2.10","3104542","co38014","norming","","","{""curiosity"":4,""confidence"":0}","[0,1]","../img/tt/1107tt.jpg","",""
"4613.864999999816","","","recognition","survey-text","79","519978","0.0-6.0-3.10","3104542","co38014","norming","","","{""guess"":""geit""}","","../img/tt/1107tt.jpg","",""
"null","../img/gs/1107gs.jpg","null","reveal","image-keyboard-response","80","521988","0.0-6.0-4.10","3104542","co38014","norming","","","","","","",""
"null","../img/tt/1107tt.jpg","null","mooney2","image-keyboard-response","81","523989","0.0-6.0-5.10","3104542","co38014","norming","","","","","","",""
"1155.7449999999953","","","post_reveal_questions","survey-likert","82","525146","0.0-6.0-6.10","3104542","co38014","norming","","","{""aha"":4}","[0]","../img/tt/1107tt.jpg","",""
"null","<div style=""font-size:60px;""> </div>","null","fixation","html-keyboard-response","83","525347","0.0-6.0-0.11","3104542","co38014","norming","","","","","","",""
"null","../img/tt/1211tt.jpg","null","mooney1","image-keyboard-response","84","528350","0.0-6.0-1.11","3104542","co38014","norming","","","","","","",""
"5667.119999999995","","","post_mooney1_questions","survey-likert","85","534018","0.0-6.0-2.11","3104542","co38014","norming","","","{""curiosity"":2,""confidence"":0}","[0,1]","../img/tt/1211tt.jpg","",""
"3134.0800000000745","","","recognition","survey-text","86","537154","0.0-6.0-3.11","3104542","co38014","norming","","","{""guess"":""kano""}","","../img/tt/1211tt.jpg","",""
"null","../img/gs/1211gs.jpg","null","reveal","image-keyboard-response","87","539160","0.0-6.0-4.11","3104542","co38014","norming","","","","","","",""
"null","../img/tt/1211tt.jpg","null","mooney2","image-keyboard-response","88","541166","0.0-6.0-5.11","3104542","co38014","norming","","","","","","",""
"2027.4949999999953","","","post_reveal_questions","survey-likert","89","543194","0.0-6.0-6.11","3104542","co38014","norming","","","{""aha"":4}","[0]","../img/tt/1211tt.jpg","",""
"null","<div style=""font-size:60px;""> </div>","null","fixation","html-keyboard-response","90","543396","0.0-6.0-0.12","3104542","co38014","norming","","","","","","",""
"null","../img/tt/1276tt.jpg","null","mooney1","image-keyboard-response","91","546398","0.0-6.0-1.12","3104542","co38014","norming","","","","","","",""
"6170.885000000009","","","post_mooney1_questions","survey-likert","92","552570","0.0-6.0-2.12","3104542","co38014","norming","","","{""curiosity"":2,""confidence"":0}","[0,1]","../img/tt/1276tt.jpg","",""
"717.9049999999115","","","recognition","survey-text","93","553290","0.0-6.0-3.12","3104542","co38014","norming","","","{""guess"":""""}","","../img/tt/1276tt.jpg","",""
"null","../img/gs/1276gs.jpg","null","reveal","image-keyboard-response","94","555294","0.0-6.0-4.12","3104542","co38014","norming","","","","","","",""
"null","../img/tt/1276tt.jpg","null","mooney2","image-keyboard-response","95","557296","0.0-6.0-5.12","3104542","co38014","norming","","","","","","",""
"2313.390000000014","","","post_reveal_questions","survey-likert","96","559610","0.0-6.0-6.12","3104542","co38014","norming","","","{""aha"":3}","[0]","../img/tt/1276tt.jpg","",""
"null","<div style=""font-size:60px;""> </div>","null","fixation","html-keyboard-response","97","559813","0.0-6.0-0.13","3104542","co38014","norming","","","","","","",""
"null","../img/tt/1270tt.jpg","null","mooney1","image-keyboard-response","98","562818","0.0-6.0-1.13","3104542","co38014","norming","","","","","","",""
"5183.635000000126","","","post_mooney1_questions","survey-likert","99","568002","0.0-6.0-2.13","3104542","co38014","norming","","","{""curiosity"":1,""confidence"":0}","[0,1]","../img/tt/1270tt.jpg","",""
"1149.1849999999395","","","recognition","survey-text","100","569154","0.0-6.0-3.13","3104542","co38014","norming","","","{""guess"":""""}","","../img/tt/1270tt.jpg","",""
"null","../img/gs/1270gs.jpg","null","reveal","image-keyboard-response","101","571160","0.0-6.0-4.13","3104542","co38014","norming","","","","","","",""
"null","../img/tt/1270tt.jpg","null","mooney2","image-keyboard-response","102","573161","0.0-6.0-5.13","3104542","co38014","norming","","","","","","",""
"3576.3699999999953","","","post_reveal_questions","survey-likert","103","576743","0.0-6.0-6.13","3104542","co38014","norming","","","{""aha"":4}","[0]","../img/tt/1270tt.jpg","",""
"null","<div style=""font-size:60px;""> </div>","null","fixation","html-keyboard-response","104","576945","0.0-6.0-0.14","3104542","co38014","norming","","","","","","",""
"null","../img/tt/1127tt.jpg","null","mooney1","image-keyboard-response","105","579948","0.0-6.0-1.14","3104542","co38014","norming","","","","","","",""
"5426.555000000051","","","post_mooney1_questions","survey-likert","106","585375","0.0-6.0-2.14","3104542","co38014","norming","","","{""curiosity"":2,""confidence"":3}","[0,1]","../img/tt/1127tt.jpg","",""
"6085.119999999879","","","recognition","survey-text","107","591463","0.0-6.0-3.14","3104542","co38014","norming","","","{""guess"":""leerkracht""}","","../img/tt/1127tt.jpg","",""
"null","../img/gs/1127gs.jpg","null","reveal","image-keyboard-response","108","593466","0.0-6.0-4.14","3104542","co38014","norming","","","","","","",""
"null","../img/tt/1127tt.jpg","null","mooney2","image-keyboard-response","109","595468","0.0-6.0-5.14","3104542","co38014","norming","","","","","","",""
"1778.2799999999115","","","post_reveal_questions","survey-likert","110","597247","0.0-6.0-6.14","3104542","co38014","norming","","","{""aha"":4}","[0]","../img/tt/1127tt.jpg","",""
"null","<div style=""font-size:60px;""> </div>","null","fixation","html-keyboard-response","111","597450","0.0-6.0-0.15","3104542","co38014","norming","","","","","","",""
"null","../img/tt/598tt.jpg","null","mooney1","image-keyboard-response","112","600451","0.0-6.0-1.15","3104542","co38014","norming","","","","","","",""
"5731.310000000056","","","post_mooney1_questions","survey-likert","113","606183","0.0-6.0-2.15","3104542","co38014","norming","","","{""curiosity"":3,""confidence"":1}","[0,1]","../img/tt/598tt.jpg","",""
"3630.119999999879","","","recognition","survey-text","114","609815","0.0-6.0-3.15","3104542","co38014","norming","","","{""guess"":""rugzak""}","","../img/tt/598tt.jpg","",""
"null","../img/gs/598gs.jpg","null","reveal","image-keyboard-response","115","611817","0.0-6.0-4.15","3104542","co38014","norming","","","","","","",""
"null","../img/tt/598tt.jpg","null","mooney2","image-keyboard-response","116","613819","0.0-6.0-5.15","3104542","co38014","norming","","","","","","",""
"2658.9949999999953","","","post_reveal_questions","survey-likert","117","616479","0.0-6.0-6.15","3104542","co38014","norming","","","{""aha"":4}","[0]","../img/tt/598tt.jpg","",""
"null","<div style=""font-size:60px;""> </div>","null","fixation","html-keyboard-response","118","616681","0.0-6.0-0.16","3104542","co38014","norming","","","","","","",""
"null","../img/tt/405tt.jpg","null","mooney1","image-keyboard-response","119","619683","0.0-6.0-1.16","3104542","co38014","norming","","","","","","",""
"6962.455000000191","","","post_mooney1_questions","survey-likert","120","626647","0.0-6.0-2.16","3104542","co38014","norming","","","{""curiosity"":2,""confidence"":1}","[0,1]","../img/tt/405tt.jpg","",""
"3150.0700000001816","","","recognition","survey-text","121","629799","0.0-6.0-3.16","3104542","co38014","norming","","","{""guess"":""hond""}","","../img/tt/405tt.jpg","",""
"null","../img/gs/405gs.jpg","null","reveal","image-keyboard-response","122","631809","0.0-6.0-4.16","3104542","co38014","norming","","","","","","",""
"null","../img/tt/405tt.jpg","null","mooney2","image-keyboard-response","123","633817","0.0-6.0-5.16","3104542","co38014","norming","","","","","","",""
"1708.8999999999069","","","post_reveal_questions","survey-likert","124","635527","0.0-6.0-6.16","3104542","co38014","norming","","","{""aha"":4}","[0]","../img/tt/405tt.jpg","",""
"null","<div style=""font-size:60px;""> </div>","null","fixation","html-keyboard-response","125","635728","0.0-6.0-0.17","3104542","co38014","norming","","","","","","",""
"null","../img/tt/076tt.jpg","null","mooney1","image-keyboard-response","126","638733","0.0-6.0-1.17","3104542","co38014","norming","","","","","","",""
"5897.130000000121","","","post_mooney1_questions","survey-likert","127","644631","0.0-6.0-2.17","3104542","co38014","norming","","","{""curiosity"":1,""confidence"":3}","[0,1]","../img/tt/076tt.jpg","",""
"4454.055000000168","","","recognition","survey-text","128","649087","0.0-6.0-3.17","3104542","co38014","norming","","","{""guess"":""rollerblades""}","","../img/tt/076tt.jpg","",""
"null","../img/gs/076gs.jpg","null","reveal","image-keyboard-response","129","651089","0.0-6.0-4.17","3104542","co38014","norming","","","","","","",""
"null","../img/tt/076tt.jpg","null","mooney2","image-keyboard-response","130","653091","0.0-6.0-5.17","3104542","co38014","norming","","","","","","",""
"6691","","","post_reveal_questions","survey-likert","131","659783","0.0-6.0-6.17","3104542","co38014","norming","","","{""aha"":0}","[0]","../img/tt/076tt.jpg","",""
"null","<div style=""font-size:60px;""> </div>","null","fixation","html-keyboard-response","132","659993","0.0-6.0-0.18","3104542","co38014","norming","","","","","","",""
"null","../img/tt/040tt.jpg","null","mooney1","image-keyboard-response","133","663000","0.0-6.0-1.18","3104542","co38014","norming","","","","","","",""
"3542.2750000000233","","","post_mooney1_questions","survey-likert","134","666543","0.0-6.0-2.18","3104542","co38014","norming","","","{""curiosity"":1,""confidence"":1}","[0,1]","../img/tt/040tt.jpg","",""
"4742.164999999921","","","recognition","survey-text","135","671287","0.0-6.0-3.18","3104542","co38014","norming","","","{""guess"":""papegaai""}","","../img/tt/040tt.jpg","",""
"null","../img/gs/040gs.jpg","null","reveal","image-keyboard-response","136","673288","0.0-6.0-4.18","3104542","co38014","norming","","","","","","",""
"null","../img/tt/040tt.jpg","null","mooney2","image-keyboard-response","137","675290","0.0-6.0-5.18","3104542","co38014","norming","","","","","","",""
"4507.535000000033","","","post_reveal_questions","survey-likert","138","679799","0.0-6.0-6.18","3104542","co38014","norming","","","{""aha"":2}","[0]","../img/tt/040tt.jpg","",""
"null","<div style=""font-size:60px;""> </div>","null","fixation","html-keyboard-response","139","680001","0.0-6.0-0.19","3104542","co38014","norming","","","","","","",""
"null","../img/tt/1048tt.jpg","null","mooney1","image-keyboard-response","140","683012","0.0-6.0-1.19","3104542","co38014","norming","","","","","","",""
"5122.535000000033","","","post_mooney1_questions","survey-likert","141","688135","0.0-6.0-2.19","3104542","co38014","norming","","","{""curiosity"":4,""confidence"":0}","[0,1]","../img/tt/1048tt.jpg","",""
"549.9999999998836","","","recognition","survey-text","142","688687","0.0-6.0-3.19","3104542","co38014","norming","","","{""guess"":""""}","","../img/tt/1048tt.jpg","",""
"null","../img/gs/1048gs.jpg","null","reveal","image-keyboard-response","143","690692","0.0-6.0-4.19","3104542","co38014","norming","","","","","","",""
"null","../img/tt/1048tt.jpg","null","mooney2","image-keyboard-response","144","692700","0.0-6.0-5.19","3104542","co38014","norming","","","","","","",""
"2034.425000000163","","","post_reveal_questions","survey-likert","145","694735","0.0-6.0-6.19","3104542","co38014","norming","","","{""aha"":5}","[0]","../img/tt/1048tt.jpg","",""
"null","<div style=""font-size:60px;""> </div>","null","fixation","html-keyboard-response","146","694940","0.0-6.0-0.20","3104542","co38014","norming","","","","","","",""
"null","../img/tt/1196tt.jpg","null","mooney1","image-keyboard-response","147","697942","0.0-6.0-1.20","3104542","co38014","norming","","","","","","",""
"6831.944999999949","","","post_mooney1_questions","survey-likert","148","704775","0.0-6.0-2.20","3104542","co38014","norming","","","{""curiosity"":2,""confidence"":1}","[0,1]","../img/tt/1196tt.jpg","",""
"3925.570000000065","","","recognition","survey-text","149","708703","0.0-6.0-3.20","3104542","co38014","norming","","","{""guess"":""gymnast""}","","../img/tt/1196tt.jpg","",""
"null","../img/gs/1196gs.jpg","null","reveal","image-keyboard-response","150","710709","0.0-6.0-4.20","3104542","co38014","norming","","","","","","",""
"null","../img/tt/1196tt.jpg","null","mooney2","image-keyboard-response","151","712719","0.0-6.0-5.20","3104542","co38014","norming","","","","","","",""
"2326.7900000001537","","","post_reveal_questions","survey-likert","152","715047","0.0-6.0-6.20","3104542","co38014","norming","","","{""aha"":4}","[0]","../img/tt/1196tt.jpg","",""
"null","<div style=""font-size:60px;""> </div>","null","fixation","html-keyboard-response","153","715250","0.0-6.0-0.21","3104542","co38014","norming","","","","","","",""
"null","../img/tt/1224tt.jpg","null","mooney1","image-keyboard-response","154","718252","0.0-6.0-1.21","3104542","co38014","norming","","","","","","",""
"3057.515000000014","","","post_mooney1_questions","survey-likert","155","721311","0.0-6.0-2.21","3104542","co38014","norming","","","{""curiosity"":1,""confidence"":1}","[0,1]","../img/tt/1224tt.jpg","",""
"7806.0599999999395","","","recognition","survey-text","156","729118","0.0-6.0-3.21","3104542","co38014","norming","","","{""guess"":""wachtzaal""}","","../img/tt/1224tt.jpg","",""
"null","../img/gs/1224gs.jpg","null","reveal","image-keyboard-response","157","731127","0.0-6.0-4.21","3104542","co38014","norming","","","","","","",""
"null","../img/tt/1224tt.jpg","null","mooney2","image-keyboard-response","158","733129","0.0-6.0-5.21","3104542","co38014","norming","","","","","","",""
"2525.0650000000605","","","post_reveal_questions","survey-likert","159","735655","0.0-6.0-6.21","3104542","co38014","norming","","","{""aha"":4}","[0]","../img/tt/1224tt.jpg","",""
"null","<div style=""font-size:60px;""> </div>","null","fixation","html-keyboard-response","160","735857","0.0-6.0-0.22","3104542","co38014","norming","","","","","","",""
"null","../img/tt/477tt.jpg","null","mooney1","image-keyboard-response","161","738861","0.0-6.0-1.22","3104542","co38014","norming","","","","","","",""
"5384.459999999963","","","post_mooney1_questions","survey-likert","162","744247","0.0-6.0-2.22","3104542","co38014","norming","","","{""curiosity"":1,""confidence"":4}","[0,1]","../img/tt/477tt.jpg","",""
"7709.945000000065","","","recognition","survey-text","163","751959","0.0-6.0-3.22","3104542","co38014","norming","","","{""guess"":""aquarium""}","","../img/tt/477tt.jpg","",""
"null","../img/gs/477gs.jpg","null","reveal","image-keyboard-response","164","753961","0.0-6.0-4.22","3104542","co38014","norming","","","","","","",""
"null","../img/tt/477tt.jpg","null","mooney2","image-keyboard-response","165","755963","0.0-6.0-5.22","3104542","co38014","norming","","","","","","",""
"4306.505000000005","","","post_reveal_questions","survey-likert","166","760266","0.0-6.0-6.22","3104542","co38014","norming","","","{""aha"":0}","[0]","../img/tt/477tt.jpg","",""
"null","<div style=""font-size:60px;""> </div>","null","fixation","html-keyboard-response","167","760469","0.0-6.0-0.23","3104542","co38014","norming","","","","","","",""
"null","../img/tt/1250tt.jpg","null","mooney1","image-keyboard-response","168","763474","0.0-6.0-1.23","3104542","co38014","norming","","","","","","",""
"4070.9949999999953","","","post_mooney1_questions","survey-likert","169","767546","0.0-6.0-2.23","3104542","co38014","norming","","","{""curiosity"":4,""confidence"":1}","[0,1]","../img/tt/1250tt.jpg","",""
"3742.039999999921","","","recognition","survey-text","170","771290","0.0-6.0-3.23","3104542","co38014","norming","","","{""guess"":""loch ness""}","","../img/tt/1250tt.jpg","",""
"null","../img/gs/1250gs.jpg","null","reveal","image-keyboard-response","171","773291","0.0-6.0-4.23","3104542","co38014","norming","","","","","","",""
"null","../img/tt/1250tt.jpg","null","mooney2","image-keyboard-response","172","775299","0.0-6.0-5.23","3104542","co38014","norming","","","","","","",""
"1381.675000000163","","","post_reveal_questions","survey-likert","173","776682","0.0-6.0-6.23","3104542","co38014","norming","","","{""aha"":4}","[0]","../img/tt/1250tt.jpg","",""
"null","<div style=""font-size:60px;""> </div>","null","fixation","html-keyboard-response","174","776883","0.0-6.0-0.24","3104542","co38014","norming","","","","","","",""
"null","../img/tt/121tt.jpg","null","mooney1","image-keyboard-response","175","779885","0.0-6.0-1.24","3104542","co38014","norming","","","","","","",""
"3571.4199999999255","","","post_mooney1_questions","survey-likert","176","783458","0.0-6.0-2.24","3104542","co38014","norming","","","{""curiosity"":4,""confidence"":1}","[0,1]","../img/tt/121tt.jpg","",""
"4486.449999999837","","","recognition","survey-text","177","787946","0.0-6.0-3.24","3104542","co38014","norming","","","{""guess"":""dinosaurus""}","","../img/tt/121tt.jpg","",""
"null","../img/gs/121gs.jpg","null","reveal","image-keyboard-response","178","789949","0.0-6.0-4.24","3104542","co38014","norming","","","","","","",""
"null","../img/tt/121tt.jpg","null","mooney2","image-keyboard-response","179","791959","0.0-6.0-5.24","3104542","co38014","norming","","","","","","",""
"1522.545000000042","","","post_reveal_questions","survey-likert","180","793482","0.0-6.0-6.24","3104542","co38014","norming","","","{""aha"":4}","[0]","../img/tt/121tt.jpg","",""
"null","<div style=""font-size:60px;""> </div>","null","fixation","html-keyboard-response","181","793684","0.0-6.0-0.25","3104542","co38014","norming","","","","","","",""
"null","../img/tt/296tt.jpg","null","mooney1","image-keyboard-response","182","796686","0.0-6.0-1.25","3104542","co38014","norming","","","","","","",""
"4043.5299999999115","","","post_mooney1_questions","survey-likert","183","800731","0.0-6.0-2.25","3104542","co38014","norming","","","{""curiosity"":4,""confidence"":2}","[0,1]","../img/tt/296tt.jpg","",""
"5245.620000000112","","","recognition","survey-text","184","805978","0.0-6.0-3.25","3104542","co38014","norming","","","{""guess"":""buggy""}","","../img/tt/296tt.jpg","",""
"null","../img/gs/296gs.jpg","null","reveal","image-keyboard-response","185","807982","0.0-6.0-4.25","3104542","co38014","norming","","","","","","",""
"null","../img/tt/296tt.jpg","null","mooney2","image-keyboard-response","186","809984","0.0-6.0-5.25","3104542","co38014","norming","","","","","","",""
"4313.114999999874","","","post_reveal_questions","survey-likert","187","814298","0.0-6.0-6.25","3104542","co38014","norming","","","{""aha"":3}","[0]","../img/tt/296tt.jpg","",""
"null","<div style=""font-size:60px;""> </div>","null","fixation","html-keyboard-response","188","814500","0.0-6.0-0.26","3104542","co38014","norming","","","","","","",""
"null","../img/tt/056tt.jpg","null","mooney1","image-keyboard-response","189","817502","0.0-6.0-1.26","3104542","co38014","norming","","","","","","",""
"5155.160000000033","","","post_mooney1_questions","survey-likert","190","822659","0.0-6.0-2.26","3104542","co38014","norming","","","{""curiosity"":2,""confidence"":4}","[0,1]","../img/tt/056tt.jpg","",""
"3269.5250000001397","","","recognition","survey-text","191","825931","0.0-6.0-3.26","3104542","co38014","norming","","","{""guess"":""wolf""}","","../img/tt/056tt.jpg","",""
"null","../img/gs/056gs.jpg","null","reveal","image-keyboard-response","192","827933","0.0-6.0-4.26","3104542","co38014","norming","","","","","","",""
"null","../img/tt/056tt.jpg","null","mooney2","image-keyboard-response","193","829933","0.0-6.0-5.26","3104542","co38014","norming","","","","","","",""
"3548.4949999999953","","","post_reveal_questions","survey-likert","194","833483","0.0-6.0-6.26","3104542","co38014","norming","","","{""aha"":2}","[0]","../img/tt/056tt.jpg","",""
"null","<div style=""font-size:60px;""> </div>","null","fixation","html-keyboard-response","195","833693","0.0-6.0-0.27","3104542","co38014","norming","","","","","","",""
"null","../img/tt/1278tt.jpg","null","mooney1","image-keyboard-response","196","836700","0.0-6.0-1.27","3104542","co38014","norming","","","","","","",""
"3485.3649999999907","","","post_mooney1_questions","survey-likert","197","840187","0.0-6.0-2.27","3104542","co38014","norming","","","{""curiosity"":1,""confidence"":0}","[0,1]","../img/tt/1278tt.jpg","",""
"566.3049999998184","","","recognition","survey-text","198","840755","0.0-6.0-3.27","3104542","co38014","norming","","","{""guess"":""""}","","../img/tt/1278tt.jpg","",""
"null","../img/gs/1278gs.jpg","null","reveal","image-keyboard-response","199","842757","0.0-6.0-4.27","3104542","co38014","norming","","","","","","",""
"null","../img/tt/1278tt.jpg","null","mooney2","image-keyboard-response","200","844758","0.0-6.0-5.27","3104542","co38014","norming","","","","","","",""
"1916.2899999999208","","","post_reveal_questions","survey-likert","201","846675","0.0-6.0-6.27","3104542","co38014","norming","","","{""aha"":4}","[0]","../img/tt/1278tt.jpg","",""
"null","<div style=""font-size:60px;""> </div>","null","fixation","html-keyboard-response","202","846877","0.0-6.0-0.28","3104542","co38014","norming","","","","","","",""
"null","../img/tt/1027tt.jpg","null","mooney1","image-keyboard-response","203","849882","0.0-6.0-1.28","3104542","co38014","norming","","","","","","",""
"6215.5800000000745","","","post_mooney1_questions","survey-likert","204","856099","0.0-6.0-2.28","3104542","co38014","norming","","","{""curiosity"":3,""confidence"":0}","[0,1]","../img/tt/1027tt.jpg","",""
"2997.5449999999255","","","recognition","survey-text","205","859099","0.0-6.0-3.28","3104542","co38014","norming","","","{""guess"":""hond""}","","../img/tt/1027tt.jpg","",""
"null","../img/gs/1027gs.jpg","null","reveal","image-keyboard-response","206","861105","0.0-6.0-4.28","3104542","co38014","norming","","","","","","",""
"null","../img/tt/1027tt.jpg","null","mooney2","image-keyboard-response","207","863107","0.0-6.0-5.28","3104542","co38014","norming","","","","","","",""
"4822.754999999888","","","post_reveal_questions","survey-likert","208","867931","0.0-6.0-6.28","3104542","co38014","norming","","","{""aha"":4}","[0]","../img/tt/1027tt.jpg","",""
"null","<div style=""font-size:60px;""> </div>","null","fixation","html-keyboard-response","209","868132","0.0-6.0-0.29","3104542","co38014","norming","","","","","","",""
"null","../img/tt/085tt.jpg","null","mooney1","image-keyboard-response","210","871142","0.0-6.0-1.29","3104542","co38014","norming","","","","","","",""
"8683.324999999953","","","post_mooney1_questions","survey-likert","211","879827","0.0-6.0-2.29","3104542","co38014","norming","","","{""curiosity"":2,""confidence"":1}","[0,1]","../img/tt/085tt.jpg","",""
"6701.814999999944","","","recognition","survey-text","212","886537","0.0-6.0-3.29","3104542","co38014","norming","","","{""guess"":""been""}","","../img/tt/085tt.jpg","",""
"null","../img/gs/085gs.jpg","null","reveal","image-keyboard-response","213","888543","0.0-6.0-4.29","3104542","co38014","norming","","","","","","",""
"null","../img/tt/085tt.jpg","null","mooney2","image-keyboard-response","214","890544","0.0-6.0-5.29","3104542","co38014","norming","","","","","","",""
"1568.9299999999348","","","post_reveal_questions","survey-likert","215","892114","0.0-6.0-6.29","3104542","co38014","norming","","","{""aha"":4}","[0]","../img/tt/085tt.jpg","",""
"null","<div style=""font-size:60px;""> </div>","null","fixation","html-keyboard-response","216","892323","0.0-6.0-0.30","3104542","co38014","norming","","","","","","",""
"null","../img/tt/1072tt.jpg","null","mooney1","image-keyboard-response","217","895324","0.0-6.0-1.30","3104542","co38014","norming","","","","","","",""
"5100.464999999967","","","post_mooney1_questions","survey-likert","218","900426","0.0-6.0-2.30","3104542","co38014","norming","","","{""curiosity"":1,""confidence"":2}","[0,1]","../img/tt/1072tt.jpg","",""
"5253.965000000084","","","recognition","survey-text","219","905681","0.0-6.0-3.30","3104542","co38014","norming","","","{""guess"":""keuken""}","","../img/tt/1072tt.jpg","",""
"null","../img/gs/1072gs.jpg","null","reveal","image-keyboard-response","220","907683","0.0-6.0-4.30","3104542","co38014","norming","","","","","","",""
"null","../img/tt/1072tt.jpg","null","mooney2","image-keyboard-response","221","909693","0.0-6.0-5.30","3104542","co38014","norming","","","","","","",""
"1803.6049999997485","","","post_reveal_questions","survey-likert","222","911498","0.0-6.0-6.30","3104542","co38014","norming","","","{""aha"":4}","[0]","../img/tt/1072tt.jpg","",""
"null","<div style=""font-size:60px;""> </div>","null","fixation","html-keyboard-response","223","911704","0.0-6.0-0.31","3104542","co38014","norming","","","","","","",""
"null","../img/tt/096tt.jpg","null","mooney1","image-keyboard-response","224","914714","0.0-6.0-1.31","3104542","co38014","norming","","","","","","",""
"4950.354999999981","","","post_mooney1_questions","survey-likert","225","919666","0.0-6.0-2.31","3104542","co38014","norming","","","{""curiosity"":1,""confidence"":2}","[0,1]","../img/tt/096tt.jpg","",""
"6165.724999999977","","","recognition","survey-text","226","925833","0.0-6.0-3.31","3104542","co38014","norming","","","{""guess"":""nietjesmachine""}","","../img/tt/096tt.jpg","",""
"null","../img/gs/096gs.jpg","null","reveal","image-keyboard-response","227","927834","0.0-6.0-4.31","3104542","co38014","norming","","","","","","",""
"null","../img/tt/096tt.jpg","null","mooney2","image-keyboard-response","228","929835","0.0-6.0-5.31","3104542","co38014","norming","","","","","","",""
"3373.4400000000605","","","post_reveal_questions","survey-likert","229","933209","0.0-6.0-6.31","3104542","co38014","norming","","","{""aha"":5}","[0]","../img/tt/096tt.jpg","",""
"null","<div style=""font-size:60px;""> </div>","null","fixation","html-keyboard-response","230","933413","0.0-6.0-0.32","3104542","co38014","norming","","","","","","",""
"null","../img/tt/1171tt.jpg","null","mooney1","image-keyboard-response","231","936424","0.0-6.0-1.32","3104542","co38014","norming","","","","","","",""
"4472.659999999916","","","post_mooney1_questions","survey-likert","232","940897","0.0-6.0-2.32","3104542","co38014","norming","","","{""curiosity"":1,""confidence"":1}","[0,1]","../img/tt/1171tt.jpg","",""
"5853.959999999963","","","recognition","survey-text","233","946752","0.0-6.0-3.32","3104542","co38014","norming","","","{""guess"":""grim reaper""}","","../img/tt/1171tt.jpg","",""
"null","../img/gs/1171gs.jpg","null","reveal","image-keyboard-response","234","948753","0.0-6.0-4.32","3104542","co38014","norming","","","","","","",""
"null","../img/tt/1171tt.jpg","null","mooney2","image-keyboard-response","235","950759","0.0-6.0-5.32","3104542","co38014","norming","","","","","","",""
"4992.909999999916","","","post_reveal_questions","survey-likert","236","955752","0.0-6.0-6.32","3104542","co38014","norming","","","{""aha"":1}","[0]","../img/tt/1171tt.jpg","",""
"null","<div style=""font-size:60px;""> </div>","null","fixation","html-keyboard-response","237","955957","0.0-6.0-0.33","3104542","co38014","norming","","","","","","",""
"null","../img/tt/1255tt.jpg","null","mooney1","image-keyboard-response","238","958964","0.0-6.0-1.33","3104542","co38014","norming","","","","","","",""
"6363.6849999999395","","","post_mooney1_questions","survey-likert","239","965329","0.0-6.0-2.33","3104542","co38014","norming","","","{""curiosity"":2,""confidence"":1}","[0,1]","../img/tt/1255tt.jpg","",""
"3950.0200000000186","","","recognition","survey-text","240","969280","0.0-6.0-3.33","3104542","co38014","norming","","","{""guess"":""konijn""}","","../img/tt/1255tt.jpg","",""
"null","../img/gs/1255gs.jpg","null","reveal","image-keyboard-response","241","971287","0.0-6.0-4.33","3104542","co38014","norming","","","","","","",""
"null","../img/tt/1255tt.jpg","null","mooney2","image-keyboard-response","242","973288","0.0-6.0-5.33","3104542","co38014","norming","","","","","","",""
"2471.7550000000047","","","post_reveal_questions","survey-likert","243","975761","0.0-6.0-6.33","3104542","co38014","norming","","","{""aha"":5}","[0]","../img/tt/1255tt.jpg","",""
"null","<div style=""font-size:60px;""> </div>","null","fixation","html-keyboard-response","244","975969","0.0-6.0-0.34","3104542","co38014","norming","","","","","","",""
"null","../img/tt/020tt.jpg","null","mooney1","image-keyboard-response","245","978972","0.0-6.0-1.34","3104542","co38014","norming","","","","","","",""
"8116.2200000000885","","","post_mooney1_questions","survey-likert","246","987089","0.0-6.0-2.34","3104542","co38014","norming","","","{""curiosity"":2,""confidence"":2}","[0,1]","../img/tt/020tt.jpg","",""
"5085.869999999879","","","recognition","survey-text","247","992176","0.0-6.0-3.34","3104542","co38014","norming","","","{""guess"":""microscoop""}","","../img/tt/020tt.jpg","",""
"null","../img/gs/020gs.jpg","null","reveal","image-keyboard-response","248","994181","0.0-6.0-4.34","3104542","co38014","norming","","","","","","",""
"null","../img/tt/020tt.jpg","null","mooney2","image-keyboard-response","249","996184","0.0-6.0-5.34","3104542","co38014","norming","","","","","","",""
"1839.6499999999069","","","post_reveal_questions","survey-likert","250","998025","0.0-6.0-6.34","3104542","co38014","norming","","","{""aha"":5}","[0]","../img/tt/020tt.jpg","",""
"null","<div style=""font-size:60px;""> </div>","null","fixation","html-keyboard-response","251","998227","0.0-6.0-0.35","3104542","co38014","norming","","","","","","",""
"null","../img/tt/438tt.jpg","null","mooney1","image-keyboard-response","252","1001244","0.0-6.0-1.35","3104542","co38014","norming","","","","","","",""
"3835.4400000000605","","","post_mooney1_questions","survey-likert","253","1005081","0.0-6.0-2.35","3104542","co38014","norming","","","{""curiosity"":1,""confidence"":0}","[0,1]","../img/tt/438tt.jpg","",""
"997.925000000163","","","recognition","survey-text","254","1006081","0.0-6.0-3.35","3104542","co38014","norming","","","{""guess"":""""}","","../img/tt/438tt.jpg","",""
"null","../img/gs/438gs.jpg","null","reveal","image-keyboard-response","255","1008086","0.0-6.0-4.35","3104542","co38014","norming","","","","","","",""
"null","../img/tt/438tt.jpg","null","mooney2","image-keyboard-response","256","1010087","0.0-6.0-5.35","3104542","co38014","norming","","","","","","",""
"3144.67499999993","","","post_reveal_questions","survey-likert","257","1013233","0.0-6.0-6.35","3104542","co38014","norming","","","{""aha"":3}","[0]","../img/tt/438tt.jpg","",""
"null","<div style=""font-size:60px;""> </div>","null","fixation","html-keyboard-response","258","1013434","0.0-6.0-0.36","3104542","co38014","norming","","","","","","",""
"null","../img/tt/1078tt.jpg","null","mooney1","image-keyboard-response","259","1016444","0.0-6.0-1.36","3104542","co38014","norming","","","","","","",""
"3243.2399999999907","","","post_mooney1_questions","survey-likert","260","1019689","0.0-6.0-2.36","3104542","co38014","norming","","","{""curiosity"":1,""confidence"":2}","[0,1]","../img/tt/1078tt.jpg","",""
"6757.844999999856","","","recognition","survey-text","261","1026448","0.0-6.0-3.36","3104542","co38014","norming","","","{""guess"":""skateboarder""}","","../img/tt/1078tt.jpg","",""
"null","../img/gs/1078gs.jpg","null","reveal","image-keyboard-response","262","1028456","0.0-6.0-4.36","3104542","co38014","norming","","","","","","",""
"null","../img/tt/1078tt.jpg","null","mooney2","image-keyboard-response","263","1030456","0.0-6.0-5.36","3104542","co38014","norming","","","","","","",""
"1551.5300000001444","","","post_reveal_questions","survey-likert","264","1032009","0.0-6.0-6.36","3104542","co38014","norming","","","{""aha"":1}","[0]","../img/tt/1078tt.jpg","",""
"null","<div style=""font-size:60px;""> </div>","null","fixation","html-keyboard-response","265","1032217","0.0-6.0-0.37","3104542","co38014","norming","","","","","","",""
"null","../img/tt/549tt.jpg","null","mooney1","image-keyboard-response","266","1035225","0.0-6.0-1.37","3104542","co38014","norming","","","","","","",""
"6910.64999999979","","","post_mooney1_questions","survey-likert","267","1042137","0.0-6.0-2.37","3104542","co38014","norming","","","{""curiosity"":3,""confidence"":0}","[0,1]","../img/tt/549tt.jpg","",""
"1013.7000000000698","","","recognition","survey-text","268","1043153","0.0-6.0-3.37","3104542","co38014","norming","","","{""guess"":""""}","","../img/tt/549tt.jpg","",""
"null","../img/gs/549gs.jpg","null","reveal","image-keyboard-response","269","1045161","0.0-6.0-4.37","3104542","co38014","norming","","","","","","",""
"null","../img/tt/549tt.jpg","null","mooney2","image-keyboard-response","270","1047162","0.0-6.0-5.37","3104542","co38014","norming","","","","","","",""
"2469.399999999907","","","post_reveal_questions","survey-likert","271","1049633","0.0-6.0-6.37","3104542","co38014","norming","","","{""aha"":4}","[0]","../img/tt/549tt.jpg","",""
"null","<div style=""font-size:60px;""> </div>","null","fixation","html-keyboard-response","272","1049834","0.0-6.0-0.38","3104542","co38014","norming","","","","","","",""
"null","../img/tt/1066tt.jpg","null","mooney1","image-keyboard-response","273","1052835","0.0-6.0-1.38","3104542","co38014","norming","","","","","","",""
"9139.820000000065","","","post_mooney1_questions","survey-likert","274","1061972","0.0-6.0-2.38","3104542","co38014","norming","","","{""curiosity"":0,""confidence"":6}","[0,1]","../img/tt/1066tt.jpg","",""
"2789.594999999972","","","recognition","survey-text","275","1064764","0.0-6.0-3.38","3104542","co38014","norming","","","{""guess"":""bus""}","","../img/tt/1066tt.jpg","",""
"null","../img/gs/1066gs.jpg","null","reveal","image-keyboard-response","276","1066765","0.0-6.0-4.38","3104542","co38014","norming","","","","","","",""
"null","../img/tt/1066tt.jpg","null","mooney2","image-keyboard-response","277","1068766","0.0-6.0-5.38","3104542","co38014","norming","","","","","","",""
"1476.8349999999627","","","post_reveal_questions","survey-likert","278","1070244","0.0-6.0-6.38","3104542","co38014","norming","","","{""aha"":0}","[0]","../img/tt/1066tt.jpg","",""
"null","<div style=""font-size:60px;""> </div>","null","fixation","html-keyboard-response","279","1070449","0.0-6.0-0.39","3104542","co38014","norming","","","","","","",""
"null","../img/tt/091tt.jpg","null","mooney1","image-keyboard-response","280","1073453","0.0-6.0-1.39","3104542","co38014","norming","","","","","","",""
"4461.795000000158","","","post_mooney1_questions","survey-likert","281","1077916","0.0-6.0-2.39","3104542","co38014","norming","","","{""curiosity"":1,""confidence"":0}","[0,1]","../img/tt/091tt.jpg","",""
"917.535000000149","","","recognition","survey-text","282","1078836","0.0-6.0-3.39","3104542","co38014","norming","","","{""guess"":""""}","","../img/tt/091tt.jpg","",""
"null","../img/gs/091gs.jpg","null","reveal","image-keyboard-response","283","1080838","0.0-6.0-4.39","3104542","co38014","norming","","","","","","",""
"null","../img/tt/091tt.jpg","null","mooney2","image-keyboard-response","284","1082840","0.0-6.0-5.39","3104542","co38014","norming","","","","","","",""
"3203.179999999935","","","post_reveal_questions","survey-likert","285","1086044","0.0-6.0-6.39","3104542","co38014","norming","","","{""aha"":2}","[0]","../img/tt/091tt.jpg","",""
"null","<div style=""font-size:60px;""> </div>","null","fixation","html-keyboard-response","286","1086248","0.0-6.0-0.40","3104542","co38014","norming","","","","","","",""
"null","../img/tt/1130tt.jpg","null","mooney1","image-keyboard-response","287","1089250","0.0-6.0-1.40","3104542","co38014","norming","","","","","","",""
"5792.649999999907","","","post_mooney1_questions","survey-likert","288","1095044","0.0-6.0-2.40","3104542","co38014","norming","","","{""curiosity"":0,""confidence"":6}","[0,1]","../img/tt/1130tt.jpg","",""
"3069.9200000001583","","","recognition","survey-text","289","1098116","0.0-6.0-3.40","3104542","co38014","norming","","","{""guess"":""fietser""}","","../img/tt/1130tt.jpg","",""
"null","../img/gs/1130gs.jpg","null","reveal","image-keyboard-response","290","1100121","0.0-6.0-4.40","3104542","co38014","norming","","","","","","",""
"null","../img/tt/1130tt.jpg","null","mooney2","image-keyboard-response","291","1102126","0.0-6.0-5.40","3104542","co38014","norming","","","","","","",""
"2515.8649999999907","","","post_reveal_questions","survey-likert","292","1104644","0.0-6.0-6.40","3104542","co38014","norming","","","{""aha"":1}","[0]","../img/tt/1130tt.jpg","",""
"null","<div style=""font-size:60px;""> </div>","null","fixation","html-keyboard-response","293","1104846","0.0-6.0-0.41","3104542","co38014","norming","","","","","","",""
"null","../img/tt/1272tt.jpg","null","mooney1","image-keyboard-response","294","1107858","0.0-6.0-1.41","3104542","co38014","norming","","","","","","",""
"6127.844999999972","","","post_mooney1_questions","survey-likert","295","1113988","0.0-6.0-2.41","3104542","co38014","norming","","","{""curiosity"":3,""confidence"":1}","[0,1]","../img/tt/1272tt.jpg","",""
"2941.820000000065","","","recognition","survey-text","296","1116932","0.0-6.0-3.41","3104542","co38014","norming","","","{""guess"":""granaat""}","","../img/tt/1272tt.jpg","",""
"null","../img/gs/1272gs.jpg","null","reveal","image-keyboard-response","297","1118940","0.0-6.0-4.41","3104542","co38014","norming","","","","","","",""
"null","../img/tt/1272tt.jpg","null","mooney2","image-keyboard-response","298","1120942","0.0-6.0-5.41","3104542","co38014","norming","","","","","","",""
"1844.1200000001118","","","post_reveal_questions","survey-likert","299","1122796","0.0-6.0-6.41","3104542","co38014","norming","","","{""aha"":4}","[0]","../img/tt/1272tt.jpg","",""
"null","<div style=""font-size:60px;""> </div>","null","fixation","html-keyboard-response","300","1122999","0.0-6.0-0.42","3104542","co38014","norming","","","","","","",""
"null","../img/tt/507tt.jpg","null","mooney1","image-keyboard-response","301","1126007","0.0-6.0-1.42","3104542","co38014","norming","","","","","","",""
"3450.274999999907","","","post_mooney1_questions","survey-likert","302","1129460","0.0-6.0-2.42","3104542","co38014","norming","","","{""curiosity"":2,""confidence"":1}","[0,1]","../img/tt/507tt.jpg","",""
"3917.9499999997206","","","recognition","survey-text","303","1133379","0.0-6.0-3.42","3104542","co38014","norming","","","{""guess"":""non""}","","../img/tt/507tt.jpg","",""
"null","../img/gs/507gs.jpg","null","reveal","image-keyboard-response","304","1135386","0.0-6.0-4.42","3104542","co38014","norming","","","","","","",""
"null","../img/tt/507tt.jpg","null","mooney2","image-keyboard-response","305","1137397","0.0-6.0-5.42","3104542","co38014","norming","","","","","","",""
"1850.8999999999069","","","post_reveal_questions","survey-likert","306","1139252","0.0-6.0-6.42","3104542","co38014","norming","","","{""aha"":3}","[0]","../img/tt/507tt.jpg","",""
"null","<div style=""font-size:60px;""> </div>","null","fixation","html-keyboard-response","307","1139454","0.0-6.0-0.43","3104542","co38014","norming","","","","","","",""
"null","../img/tt/1097tt.jpg","null","mooney1","image-keyboard-response","308","1142460","0.0-6.0-1.43","3104542","co38014","norming","","","","","","",""
"9341.639999999898","","","post_mooney1_questions","survey-likert","309","1151804","0.0-6.0-2.43","3104542","co38014","norming","","","{""curiosity"":2,""confidence"":1}","[0,1]","../img/tt/1097tt.jpg","",""
"5718.014999999898","","","recognition","survey-text","310","1157524","0.0-6.0-3.43","3104542","co38014","norming","","","{""guess"":""strand""}","","../img/tt/1097tt.jpg","",""
"null","../img/gs/1097gs.jpg","null","reveal","image-keyboard-response","311","1159526","0.0-6.0-4.43","3104542","co38014","norming","","","","","","",""
"null","../img/tt/1097tt.jpg","null","mooney2","image-keyboard-response","312","1161529","0.0-6.0-5.43","3104542","co38014","norming","","","","","","",""
"2360.5400000000373","","","post_reveal_questions","survey-likert","313","1163892","0.0-6.0-6.43","3104542","co38014","norming","","","{""aha"":4}","[0]","../img/tt/1097tt.jpg","",""
"null","<div style=""font-size:60px;""> </div>","null","fixation","html-keyboard-response","314","1164098","0.0-6.0-0.44","3104542","co38014","norming","","","","","","",""
"null","../img/tt/1055tt.jpg","null","mooney1","image-keyboard-response","315","1167102","0.0-6.0-1.44","3104542","co38014","norming","","","","","","",""
"7561.51500000013","","","post_mooney1_questions","survey-likert","316","1174668","0.0-6.0-2.44","3104542","co38014","norming","","","{""curiosity"":2,""confidence"":0}","[0,1]","../img/tt/1055tt.jpg","",""
"8102.020000000019","","","recognition","survey-text","317","1182772","0.0-6.0-3.44","3104542","co38014","norming","","","{""guess"":""zonsopgang""}","","../img/tt/1055tt.jpg","",""
"null","../img/gs/1055gs.jpg","null","reveal","image-keyboard-response","318","1184775","0.0-6.0-4.44","3104542","co38014","norming","","","","","","",""
"null","../img/tt/1055tt.jpg","null","mooney2","image-keyboard-response","319","1186776","0.0-6.0-5.44","3104542","co38014","norming","","","","","","",""
"1769.2650000001304","","","post_reveal_questions","survey-likert","320","1188548","0.0-6.0-6.44","3104542","co38014","norming","","","{""aha"":3}","[0]","../img/tt/1055tt.jpg","",""
"null","<div style=""font-size:60px;""> </div>","null","fixation","html-keyboard-response","321","1188755","0.0-6.0-0.45","3104542","co38014","norming","","","","","","",""
"null","../img/tt/1261tt.jpg","null","mooney1","image-keyboard-response","322","1191762","0.0-6.0-1.45","3104542","co38014","norming","","","","","","",""
"2799.0749999999534","","","post_mooney1_questions","survey-likert","323","1194564","0.0-6.0-2.45","3104542","co38014","norming","","","{""curiosity"":1,""confidence"":1}","[0,1]","../img/tt/1261tt.jpg","",""
"4242.229999999981","","","recognition","survey-text","324","1198812","0.0-6.0-3.45","3104542","co38014","norming","","","{""guess"":""boxing ring""}","","../img/tt/1261tt.jpg","",""
"null","../img/gs/1261gs.jpg","null","reveal","image-keyboard-response","325","1200822","0.0-6.0-4.45","3104542","co38014","norming","","","","","","",""
"null","../img/tt/1261tt.jpg","null","mooney2","image-keyboard-response","326","1202824","0.0-6.0-5.45","3104542","co38014","norming","","","","","","",""
"6713.040000000037","","","post_reveal_questions","survey-likert","327","1209540","0.0-6.0-6.45","3104542","co38014","norming","","","{""aha"":3}","[0]","../img/tt/1261tt.jpg","",""
"null","<div style=""font-size:60px;""> </div>","null","fixation","html-keyboard-response","328","1209741","0.0-6.0-0.46","3104542","co38014","norming","","","","","","",""
"null","../img/tt/584tt.jpg","null","mooney1","image-keyboard-response","329","1212751","0.0-6.0-1.46","3104542","co38014","norming","","","","","","",""
"4867.135000000009","","","post_mooney1_questions","survey-likert","330","1217620","0.0-6.0-2.46","3104542","co38014","norming","","","{""curiosity"":2,""confidence"":1}","[0,1]","../img/tt/584tt.jpg","",""
"3950.0100000000093","","","recognition","survey-text","331","1221572","0.0-6.0-3.46","3104542","co38014","norming","","","{""guess"":""handen""}","","../img/tt/584tt.jpg","",""
"null","../img/gs/584gs.jpg","null","reveal","image-keyboard-response","332","1223573","0.0-6.0-4.46","3104542","co38014","norming","","","","","","",""
"null","../img/tt/584tt.jpg","null","mooney2","image-keyboard-response","333","1225581","0.0-6.0-5.46","3104542","co38014","norming","","","","","","",""
"6228.094999999972","","","post_reveal_questions","survey-likert","334","1231812","0.0-6.0-6.46","3104542","co38014","norming","","","{""aha"":2}","[0]","../img/tt/584tt.jpg","",""
"null","<div style=""font-size:60px;""> </div>","null","fixation","html-keyboard-response","335","1232015","0.0-6.0-0.47","3104542","co38014","norming","","","","","","",""
"null","../img/tt/1290tt.jpg","null","mooney1","image-keyboard-response","336","1235023","0.0-6.0-1.47","3104542","co38014","norming","","","","","","",""
"3394.1350000000093","","","post_mooney1_questions","survey-likert","337","1238420","0.0-6.0-2.47","3104542","co38014","norming","","","{""curiosity"":2,""confidence"":1}","[0,1]","../img/tt/1290tt.jpg","",""
"3117.494999999879","","","recognition","survey-text","338","1241540","0.0-6.0-3.47","3104542","co38014","norming","","","{""guess"":""granaat""}","","../img/tt/1290tt.jpg","",""
"null","../img/gs/1290gs.jpg","null","reveal","image-keyboard-response","339","1243541","0.0-6.0-4.47","3104542","co38014","norming","","","","","","",""
"null","../img/tt/1290tt.jpg","null","mooney2","image-keyboard-response","340","1245549","0.0-6.0-5.47","3104542","co38014","norming","","","","","","",""
"3084.844999999972","","","post_reveal_questions","survey-likert","341","1248636","0.0-6.0-6.47","3104542","co38014","norming","","","{""aha"":6}","[0]","../img/tt/1290tt.jpg","",""
"null","<div style=""font-size:60px;""> </div>","null","fixation","html-keyboard-response","342","1248839","0.0-6.0-0.48","3104542","co38014","norming","","","","","","",""
"null","../img/tt/1362tt.jpg","null","mooney1","image-keyboard-response","343","1251849","0.0-6.0-1.48","3104542","co38014","norming","","","","","","",""
"6064.510000000242","","","post_mooney1_questions","survey-likert","344","1257917","0.0-6.0-2.48","3104542","co38014","norming","","","{""curiosity"":1,""confidence"":2}","[0,1]","../img/tt/1362tt.jpg","",""
"4557.964999999851","","","recognition","survey-text","345","1262476","0.0-6.0-3.48","3104542","co38014","norming","","","{""guess"":""keuken""}","","../img/tt/1362tt.jpg","",""
"null","../img/gs/1362gs.jpg","null","reveal","image-keyboard-response","346","1264479","0.0-6.0-4.48","3104542","co38014","norming","","","","","","",""
"null","../img/tt/1362tt.jpg","null","mooney2","image-keyboard-response","347","1266490","0.0-6.0-5.48","3104542","co38014","norming","","","","","","",""
"2088.655000000028","","","post_reveal_questions","survey-likert","348","1268580","0.0-6.0-6.48","3104542","co38014","norming","","","{""aha"":1}","[0]","../img/tt/1362tt.jpg","",""
"null","<div style=""font-size:60px;""> </div>","null","fixation","html-keyboard-response","349","1268785","0.0-6.0-0.49","3104542","co38014","norming","","","","","","",""
"null","../img/tt/559tt.jpg","null","mooney1","image-keyboard-response","350","1271788","0.0-6.0-1.49","3104542","co38014","norming","","","","","","",""
"6133.755000000121","","","post_mooney1_questions","survey-likert","351","1277925","0.0-6.0-2.49","3104542","co38014","norming","","","{""curiosity"":0,""confidence"":2}","[0,1]","../img/tt/559tt.jpg","",""
"3941.8349999999627","","","recognition","survey-text","352","1281868","0.0-6.0-3.49","3104542","co38014","norming","","","{""guess"":""naaimachine""}","","../img/tt/559tt.jpg","",""
"null","../img/gs/559gs.jpg","null","reveal","image-keyboard-response","353","1283873","0.0-6.0-4.49","3104542","co38014","norming","","","","","","",""
"null","../img/tt/559tt.jpg","null","mooney2","image-keyboard-response","354","1285877","0.0-6.0-5.49","3104542","co38014","norming","","","","","","",""
"1317.2849999999162","","","post_reveal_questions","survey-likert","355","1287196","0.0-6.0-6.49","3104542","co38014","norming","","","{""aha"":4}","[0]","../img/tt/559tt.jpg","",""
"null","<div style=""font-size:60px;""> </div>","null","fixation","html-keyboard-response","356","1287400","0.0-6.0-0.50","3104542","co38014","norming","","","","","","",""
"null","../img/tt/270tt.jpg","null","mooney1","image-keyboard-response","357","1290409","0.0-6.0-1.50","3104542","co38014","norming","","","","","","",""
"3065.1700000001583","","","post_mooney1_questions","survey-likert","358","1293477","0.0-6.0-2.50","3104542","co38014","norming","","","{""curiosity"":0,""confidence"":1}","[0,1]","../img/tt/270tt.jpg","",""
"4149.809999999823","","","recognition","survey-text","359","1297628","0.0-6.0-3.50","3104542","co38014","norming","","","{""guess"":""cowboy""}","","../img/tt/270tt.jpg","",""
"null","../img/gs/270gs.jpg","null","reveal","image-keyboard-response","360","1299636","0.0-6.0-4.50","3104542","co38014","norming","","","","","","",""
"null","../img/tt/270tt.jpg","null","mooney2","image-keyboard-response","361","1301637","0.0-6.0-5.50","3104542","co38014","norming","","","","","","",""
"981.1350000000093","","","post_reveal_questions","survey-likert","362","1302621","0.0-6.0-6.50","3104542","co38014","norming","","","{""aha"":4}","[0]","../img/tt/270tt.jpg","",""
"null","<div style=""font-size:60px;""> </div>","null","fixation","html-keyboard-response","363","1302822","0.0-6.0-0.51","3104542","co38014","norming","","","","","","",""
"null","../img/tt/126tt.jpg","null","mooney1","image-keyboard-response","364","1305832","0.0-6.0-1.51","3104542","co38014","norming","","","","","","",""
"3410.125000000233","","","post_mooney1_questions","survey-likert","365","1309245","0.0-6.0-2.51","3104542","co38014","norming","","","{""curiosity"":0,""confidence"":0}","[0,1]","../img/tt/126tt.jpg","",""
"4742.004999999888","","","recognition","survey-text","366","1313988","0.0-6.0-3.51","3104542","co38014","norming","","","{""guess"":""woestijn""}","","../img/tt/126tt.jpg","",""
"null","../img/gs/126gs.jpg","null","reveal","image-keyboard-response","367","1315994","0.0-6.0-4.51","3104542","co38014","norming","","","","","","",""
"null","../img/tt/126tt.jpg","null","mooney2","image-keyboard-response","368","1317996","0.0-6.0-5.51","3104542","co38014","norming","","","","","","",""
"1229.9450000000652","","","post_reveal_questions","survey-likert","369","1319228","0.0-6.0-6.51","3104542","co38014","norming","","","{""aha"":4}","[0]","../img/tt/126tt.jpg","",""
"null","<div style=""font-size:60px;""> </div>","null","fixation","html-keyboard-response","370","1319434","0.0-6.0-0.52","3104542","co38014","norming","","","","","","",""
"null","../img/tt/105tt.jpg","null","mooney1","image-keyboard-response","371","1322443","0.0-6.0-1.52","3104542","co38014","norming","","","","","","",""
"4654.214999999851","","","post_mooney1_questions","survey-likert","372","1327100","0.0-6.0-2.52","3104542","co38014","norming","","","{""curiosity"":0,""confidence"":0}","[0,1]","../img/tt/105tt.jpg","",""
"3710.3199999998324","","","recognition","survey-text","373","1330812","0.0-6.0-3.52","3104542","co38014","norming","","","{""guess"":""worsten""}","","../img/tt/105tt.jpg","",""
"null","../img/gs/105gs.jpg","null","reveal","image-keyboard-response","374","1332820","0.0-6.0-4.52","3104542","co38014","norming","","","","","","",""
"null","../img/tt/105tt.jpg","null","mooney2","image-keyboard-response","375","1334822","0.0-6.0-5.52","3104542","co38014","norming","","","","","","",""
"2236.1800000001676","","","post_reveal_questions","survey-likert","376","1337060","0.0-6.0-6.52","3104542","co38014","norming","","","{""aha"":4}","[0]","../img/tt/105tt.jpg","",""
"null","<div style=""font-size:60px;""> </div>","null","fixation","html-keyboard-response","377","1337261","0.0-6.0-0.53","3104542","co38014","norming","","","","","","",""
"null","../img/tt/032tt.jpg","null","mooney1","image-keyboard-response","378","1340264","0.0-6.0-1.53","3104542","co38014","norming","","","","","","",""
"4787.485000000102","","","post_mooney1_questions","survey-likert","379","1345053","0.0-6.0-2.53","3104542","co38014","norming","","","{""curiosity"":0,""confidence"":1}","[0,1]","../img/tt/032tt.jpg","",""
"3773.9599999999627","","","recognition","survey-text","380","1348828","0.0-6.0-3.53","3104542","co38014","norming","","","{""guess"":""cowboy""}","","../img/tt/032tt.jpg","",""
"null","../img/gs/032gs.jpg","null","reveal","image-keyboard-response","381","1350835","0.0-6.0-4.53","3104542","co38014","norming","","","","","","",""
"null","../img/tt/032tt.jpg","null","mooney2","image-keyboard-response","382","1352836","0.0-6.0-5.53","3104542","co38014","norming","","","","","","",""
"2518.1049999999814","","","post_reveal_questions","survey-likert","383","1355357","0.0-6.0-6.53","3104542","co38014","norming","","","{""aha"":5}","[0]","../img/tt/032tt.jpg","",""
"null","<div style=""font-size:60px;""> </div>","null","fixation","html-keyboard-response","384","1355560","0.0-6.0-0.54","3104542","co38014","norming","","","","","","",""
"null","../img/tt/1118tt.jpg","null","mooney1","image-keyboard-response","385","1358569","0.0-6.0-1.54","3104542","co38014","norming","","","","","","",""
"5000.914999999804","","","post_mooney1_questions","survey-likert","386","1363573","0.0-6.0-2.54","3104542","co38014","norming","","","{""curiosity"":0,""confidence"":1}","[0,1]","../img/tt/1118tt.jpg","",""
"3805.929999999935","","","recognition","survey-text","387","1367377","0.0-6.0-3.54","3104542","co38014","norming","","","{""guess"":""racecar""}","","../img/tt/1118tt.jpg","",""
"null","../img/gs/1118gs.jpg","null","reveal","image-keyboard-response","388","1369380","0.0-6.0-4.54","3104542","co38014","norming","","","","","","",""
"null","../img/tt/1118tt.jpg","null","mooney2","image-keyboard-response","389","1371382","0.0-6.0-5.54","3104542","co38014","norming","","","","","","",""
"1863.845000000205","","","post_reveal_questions","survey-likert","390","1373249","0.0-6.0-6.54","3104542","co38014","norming","","","{""aha"":5}","[0]","../img/tt/1118tt.jpg","",""
"null","<div style=""font-size:60px;""> </div>","null","fixation","html-keyboard-response","391","1373454","0.0-6.0-0.55","3104542","co38014","norming","","","","","","",""
"null","../img/tt/082tt.jpg","null","mooney1","image-keyboard-response","392","1376465","0.0-6.0-1.55","3104542","co38014","norming","","","","","","",""
"3301.1800000001676","","","post_mooney1_questions","survey-likert","393","1379769","0.0-6.0-2.55","3104542","co38014","norming","","","{""curiosity"":0,""confidence"":2}","[0,1]","../img/tt/082tt.jpg","",""
"4941.875","","","recognition","survey-text","394","1384713","0.0-6.0-3.55","3104542","co38014","norming","","","{""guess"":""papegaai""}","","../img/tt/082tt.jpg","",""
"null","../img/gs/082gs.jpg","null","reveal","image-keyboard-response","395","1386715","0.0-6.0-4.55","3104542","co38014","norming","","","","","","",""
"null","../img/tt/082tt.jpg","null","mooney2","image-keyboard-response","396","1388717","0.0-6.0-5.55","3104542","co38014","norming","","","","","","",""
"1241.7450000001118","","","post_reveal_questions","survey-likert","397","1389961","0.0-6.0-6.55","3104542","co38014","norming","","","{""aha"":1}","[0]","../img/tt/082tt.jpg","",""
"null","<div style=""font-size:60px;""> </div>","null","fixation","html-keyboard-response","398","1390163","0.0-6.0-0.56","3104542","co38014","norming","","","","","","",""
"null","../img/tt/080tt.jpg","null","mooney1","image-keyboard-response","399","1393165","0.0-6.0-1.56","3104542","co38014","norming","","","","","","",""
"8177.639999999898","","","post_mooney1_questions","survey-likert","400","1401345","0.0-6.0-2.56","3104542","co38014","norming","","","{""curiosity"":0,""confidence"":1}","[0,1]","../img/tt/080tt.jpg","",""
"4853.784999999916","","","recognition","survey-text","401","1406201","0.0-6.0-3.56","3104542","co38014","norming","","","{""guess"":""paddenstoel""}","","../img/tt/080tt.jpg","",""
"null","../img/gs/080gs.jpg","null","reveal","image-keyboard-response","402","1408211","0.0-6.0-4.56","3104542","co38014","norming","","","","","","",""
"null","../img/tt/080tt.jpg","null","mooney2","image-keyboard-response","403","1410213","0.0-6.0-5.56","3104542","co38014","norming","","","","","","",""
"1731.2700000000186","","","post_reveal_questions","survey-likert","404","1411945","0.0-6.0-6.56","3104542","co38014","norming","","","{""aha"":5}","[0]","../img/tt/080tt.jpg","",""
"null","<div style=""font-size:60px;""> </div>","null","fixation","html-keyboard-response","405","1412146","0.0-6.0-0.57","3104542","co38014","norming","","","","","","",""
"null","../img/tt/279tt.jpg","null","mooney1","image-keyboard-response","406","1415157","0.0-6.0-1.57","3104542","co38014","norming","","","","","","",""
"2708.195000000065","","","post_mooney1_questions","survey-likert","407","1417873","0.0-6.0-2.57","3104542","co38014","norming","","","{""curiosity"":0,""confidence"":0}","[0,1]","../img/tt/279tt.jpg","",""
"734.0750000001863","","","recognition","survey-text","408","1418609","0.0-6.0-3.57","3104542","co38014","norming","","","{""guess"":""""}","","../img/tt/279tt.jpg","",""
"null","../img/gs/279gs.jpg","null","reveal","image-keyboard-response","409","1420612","0.0-6.0-4.57","3104542","co38014","norming","","","","","","",""
"null","../img/tt/279tt.jpg","null","mooney2","image-keyboard-response","410","1422615","0.0-6.0-5.57","3104542","co38014","norming","","","","","","",""
"2224.1099999998696","","","post_reveal_questions","survey-likert","411","1424841","0.0-6.0-6.57","3104542","co38014","norming","","","{""aha"":3}","[0]","../img/tt/279tt.jpg","",""
"null","<div style=""font-size:60px;""> </div>","null","fixation","html-keyboard-response","412","1425051","0.0-6.0-0.58","3104542","co38014","norming","","","","","","",""
"null","../img/tt/1227tt.jpg","null","mooney1","image-keyboard-response","413","1428060","0.0-6.0-1.58","3104542","co38014","norming","","","","","","",""
"3655.6750000002794","","","post_mooney1_questions","survey-likert","414","1431717","0.0-6.0-2.58","3104542","co38014","norming","","","{""curiosity"":0,""confidence"":1}","[0,1]","../img/tt/1227tt.jpg","",""
"15382.034999999683","","","recognition","survey-text","415","1447101","0.0-6.0-3.58","3104542","co38014","norming","","","{""guess"":""4""}","","../img/tt/1227tt.jpg","",""
"null","../img/gs/1227gs.jpg","null","reveal","image-keyboard-response","416","1449102","0.0-6.0-4.58","3104542","co38014","norming","","","","","","",""
"null","../img/tt/1227tt.jpg","null","mooney2","image-keyboard-response","417","1451103","0.0-6.0-5.58","3104542","co38014","norming","","","","","","",""
"3043.0449999999255","","","post_reveal_questions","survey-likert","418","1454149","0.0-6.0-6.58","3104542","co38014","norming","","","{""aha"":4}","[0]","../img/tt/1227tt.jpg","",""
"null","<div style=""font-size:60px;""> </div>","null","fixation","html-keyboard-response","419","1454356","0.0-6.0-0.59","3104542","co38014","norming","","","","","","",""
"null","../img/tt/496tt.jpg","null","mooney1","image-keyboard-response","420","1457358","0.0-6.0-1.59","3104542","co38014","norming","","","","","","",""
"4139.995000000112","","","post_mooney1_questions","survey-likert","421","1461501","0.0-6.0-2.59","3104542","co38014","norming","","","{""curiosity"":0,""confidence"":0}","[0,1]","../img/tt/496tt.jpg","",""
"4334.024999999907","","","recognition","survey-text","422","1465837","0.0-6.0-3.59","3104542","co38014","norming","","","{""guess"":""gezicht""}","","../img/tt/496tt.jpg","",""
"null","../img/gs/496gs.jpg","null","reveal","image-keyboard-response","423","1467842","0.0-6.0-4.59","3104542","co38014","norming","","","","","","",""
"null","../img/tt/496tt.jpg","null","mooney2","image-keyboard-response","424","1469851","0.0-6.0-5.59","3104542","co38014","norming","","","","","","",""
"1679.6750000000466","","","post_reveal_questions","survey-likert","425","1471533","0.0-6.0-6.59","3104542","co38014","norming","","","{""aha"":4}","[0]","../img/tt/496tt.jpg","",""
"null","<div style=""font-size:60px;""> </div>","null","fixation","html-keyboard-response","426","1471740","0.0-6.0-0.60","3104542","co38014","norming","","","","","","",""
"null","../img/tt/1151tt.jpg","null","mooney1","image-keyboard-response","427","1474742","0.0-6.0-1.60","3104542","co38014","norming","","","","","","",""
"7891.84999999986","","","post_mooney1_questions","survey-likert","428","1482637","0.0-6.0-2.60","3104542","co38014","norming","","","{""curiosity"":0,""confidence"":0}","[0,1]","../img/tt/1151tt.jpg","",""
"2461.8549999999814","","","recognition","survey-text","429","1485101","0.0-6.0-3.60","3104542","co38014","norming","","","{""guess"":""paard""}","","../img/tt/1151tt.jpg","",""
"null","../img/gs/1151gs.jpg","null","reveal","image-keyboard-response","430","1487109","0.0-6.0-4.60","3104542","co38014","norming","","","","","","",""
"null","../img/tt/1151tt.jpg","null","mooney2","image-keyboard-response","431","1489111","0.0-6.0-5.60","3104542","co38014","norming","","","","","","",""
"6467.235000000102","","","post_reveal_questions","survey-likert","432","1495581","0.0-6.0-6.60","3104542","co38014","norming","","","{""aha"":2}","[0]","../img/tt/1151tt.jpg","",""
"null","<div style=""font-size:60px;""> </div>","null","fixation","html-keyboard-response","433","1495787","0.0-6.0-0.61","3104542","co38014","norming","","","","","","",""
"null","../img/tt/357tt.jpg","null","mooney1","image-keyboard-response","434","1498794","0.0-6.0-1.61","3104542","co38014","norming","","","","","","",""
"4287.374999999767","","","post_mooney1_questions","survey-likert","435","1503085","0.0-6.0-2.61","3104542","co38014","norming","","","{""curiosity"":1,""confidence"":1}","[0,1]","../img/tt/357tt.jpg","",""
"5389.915000000037","","","recognition","survey-text","436","1508477","0.0-6.0-3.61","3104542","co38014","norming","","","{""guess"":""maskolf""}","","../img/tt/357tt.jpg","",""
"null","../img/gs/357gs.jpg","null","reveal","image-keyboard-response","437","1510486","0.0-6.0-4.61","3104542","co38014","norming","","","","","","",""
"null","../img/tt/357tt.jpg","null","mooney2","image-keyboard-response","438","1512496","0.0-6.0-5.61","3104542","co38014","norming","","","","","","",""
"1570.0099999997765","","","post_reveal_questions","survey-likert","439","1514069","0.0-6.0-6.61","3104542","co38014","norming","","","{""aha"":2}","[0]","../img/tt/357tt.jpg","",""
"null","<div style=""font-size:60px;""> </div>","null","fixation","html-keyboard-response","440","1514271","0.0-6.0-0.62","3104542","co38014","norming","","","","","","",""
"null","../img/tt/1101tt.jpg","null","mooney1","image-keyboard-response","441","1517277","0.0-6.0-1.62","3104542","co38014","norming","","","","","","",""
"3180.5399999998044","","","post_mooney1_questions","survey-likert","442","1520461","0.0-6.0-2.62","3104542","co38014","norming","","","{""curiosity"":0,""confidence"":2}","[0,1]","../img/tt/1101tt.jpg","",""
"4062.130000000121","","","recognition","survey-text","443","1524525","0.0-6.0-3.62","3104542","co38014","norming","","","{""guess"":""hockey""}","","../img/tt/1101tt.jpg","",""
"null","../img/gs/1101gs.jpg","null","reveal","image-keyboard-response","444","1526526","0.0-6.0-4.62","3104542","co38014","norming","","","","","","",""
"null","../img/tt/1101tt.jpg","null","mooney2","image-keyboard-response","445","1528536","0.0-6.0-5.62","3104542","co38014","norming","","","","","","",""
"2162.8300000000745","","","post_reveal_questions","survey-likert","446","1530701","0.0-6.0-6.62","3104542","co38014","norming","","","{""aha"":5}","[0]","../img/tt/1101tt.jpg","",""
"null","<div style=""font-size:60px;""> </div>","null","fixation","html-keyboard-response","447","1530908","0.0-6.0-0.63","3104542","co38014","norming","","","","","","",""
"null","../img/tt/1234tt.jpg","null","mooney1","image-keyboard-response","448","1533912","0.0-6.0-1.63","3104542","co38014","norming","","","","","","",""
"5361.869999999879","","","post_mooney1_questions","survey-likert","449","1539277","0.0-6.0-2.63","3104542","co38014","norming","","","{""curiosity"":0,""confidence"":0}","[0,1]","../img/tt/1234tt.jpg","",""
"4109.899999999907","","","recognition","survey-text","450","1543389","0.0-6.0-3.63","3104542","co38014","norming","","","{""guess"":""lion king""}","","../img/tt/1234tt.jpg","",""
"null","../img/gs/1234gs.jpg","null","reveal","image-keyboard-response","451","1545390","0.0-6.0-4.63","3104542","co38014","norming","","","","","","",""
"null","../img/tt/1234tt.jpg","null","mooney2","image-keyboard-response","452","1547400","0.0-6.0-5.63","3104542","co38014","norming","","","","","","",""
"2251.6149999999907","","","post_reveal_questions","survey-likert","453","1549645","0.0-6.0-6.63","3104542","co38014","norming","","","{""aha"":4}","[0]","../img/tt/1234tt.jpg","",""
"null","<div style=""font-size:60px;""> </div>","null","fixation","html-keyboard-response","454","1549855","0.0-6.0-0.64","3104542","co38014","norming","","","","","","",""
"null","../img/tt/118tt.jpg","null","mooney1","image-keyboard-response","455","1552867","0.0-6.0-1.64","3104542","co38014","norming","","","","","","",""
"4310.124999999767","","","post_mooney1_questions","survey-likert","456","1557181","0.0-6.0-2.64","3104542","co38014","norming","","","{""curiosity"":0,""confidence"":1}","[0,1]","../img/tt/118tt.jpg","",""
"8445.939999999944","","","recognition","survey-text","457","1565629","0.0-6.0-3.64","3104542","co38014","norming","","","{""guess"":""fietsslot""}","","../img/tt/118tt.jpg","",""
"null","../img/gs/118gs.jpg","null","reveal","image-keyboard-response","458","1567639","0.0-6.0-4.64","3104542","co38014","norming","","","","","","",""
"null","../img/tt/118tt.jpg","null","mooney2","image-keyboard-response","459","1569641","0.0-6.0-5.64","3104542","co38014","norming","","","","","","",""
"1032.7700000000186","","","post_reveal_questions","survey-likert","460","1570677","0.0-6.0-6.64","3104542","co38014","norming","","","{""aha"":3}","[0]","../img/tt/118tt.jpg","",""
"null","<div style=""font-size:60px;""> </div>","null","fixation","html-keyboard-response","461","1570878","0.0-6.0-0.65","3104542","co38014","norming","","","","","","",""
"null","../img/tt/418tt.jpg","null","mooney1","image-keyboard-response","462","1573880","0.0-6.0-1.65","3104542","co38014","norming","","","","","","",""
"3657.3850000000093","","","post_mooney1_questions","survey-likert","463","1577541","0.0-6.0-2.65","3104542","co38014","norming","","","{""curiosity"":0,""confidence"":1}","[0,1]","../img/tt/418tt.jpg","",""
"8926.115000000224","","","recognition","survey-text","464","1586468","0.0-6.0-3.65","3104542","co38014","norming","","","{""guess"":""(bowling)bal""}","","../img/tt/418tt.jpg","",""
"null","../img/gs/418gs.jpg","null","reveal","image-keyboard-response","465","1588472","0.0-6.0-4.65","3104542","co38014","norming","","","","","","",""
"null","../img/tt/418tt.jpg","null","mooney2","image-keyboard-response","466","1590475","0.0-6.0-5.65","3104542","co38014","norming","","","","","","",""
"3863.7949999999255","","","post_reveal_questions","survey-likert","467","1594341","0.0-6.0-6.65","3104542","co38014","norming","","","{""aha"":3}","[0]","../img/tt/418tt.jpg","",""
"null","<div style=""font-size:60px;""> </div>","null","fixation","html-keyboard-response","468","1594546","0.0-6.0-0.66","3104542","co38014","norming","","","","","","",""
"null","../img/tt/044tt.jpg","null","mooney1","image-keyboard-response","469","1597557","0.0-6.0-1.66","3104542","co38014","norming","","","","","","",""
"4132.260000000009","","","post_mooney1_questions","survey-likert","470","1601693","0.0-6.0-2.66","3104542","co38014","norming","","","{""curiosity"":0,""confidence"":3}","[0,1]","../img/tt/044tt.jpg","",""
"4254.0449999999255","","","recognition","survey-text","471","1605949","0.0-6.0-3.66","3104542","co38014","norming","","","{""guess"":""typmachine""}","","../img/tt/044tt.jpg","",""
"null","../img/gs/044gs.jpg","null","reveal","image-keyboard-response","472","1607956","0.0-6.0-4.66","3104542","co38014","norming","","","","","","",""
"null","../img/tt/044tt.jpg","null","mooney2","image-keyboard-response","473","1609968","0.0-6.0-5.66","3104542","co38014","norming","","","","","","",""
"1858.4499999999534","","","post_reveal_questions","survey-likert","474","1611829","0.0-6.0-6.66","3104542","co38014","norming","","","{""aha"":5}","[0]","../img/tt/044tt.jpg","",""
"null","<div style=""font-size:60px;""> </div>","null","fixation","html-keyboard-response","475","1612038","0.0-6.0-0.67","3104542","co38014","norming","","","","","","",""
"null","../img/tt/1033tt.jpg","null","mooney1","image-keyboard-response","476","1615044","0.0-6.0-1.67","3104542","co38014","norming","","","","","","",""
"6229.540000000037","","","post_mooney1_questions","survey-likert","477","1621277","0.0-6.0-2.67","3104542","co38014","norming","","","{""curiosity"":3,""confidence"":1}","[0,1]","../img/tt/1033tt.jpg","",""
"3334.1850000002887","","","recognition","survey-text","478","1624613","0.0-6.0-3.67","3104542","co38014","norming","","","{""guess"":""kayak""}","","../img/tt/1033tt.jpg","",""
"null","../img/gs/1033gs.jpg","null","reveal","image-keyboard-response","479","1626614","0.0-6.0-4.67","3104542","co38014","norming","","","","","","",""
"null","../img/tt/1033tt.jpg","null","mooney2","image-keyboard-response","480","1628619","0.0-6.0-5.67","3104542","co38014","norming","","","","","","",""
"2280.0749999999534","","","post_reveal_questions","survey-likert","481","1630901","0.0-6.0-6.67","3104542","co38014","norming","","","{""aha"":5}","[0]","../img/tt/1033tt.jpg","",""
"null","<div style=""font-size:60px;""> </div>","null","fixation","html-keyboard-response","482","1631106","0.0-6.0-0.68","3104542","co38014","norming","","","","","","",""
"null","../img/tt/481tt.jpg","null","mooney1","image-keyboard-response","483","1634118","0.0-6.0-1.68","3104542","co38014","norming","","","","","","",""
"4547.434999999823","","","post_mooney1_questions","survey-likert","484","1638669","0.0-6.0-2.68","3104542","co38014","norming","","","{""curiosity"":0,""confidence"":1}","[0,1]","../img/tt/481tt.jpg","",""
"4782.154999999795","","","recognition","survey-text","485","1643453","0.0-6.0-3.68","3104542","co38014","norming","","","{""guess"":""fruitmand""}","","../img/tt/481tt.jpg","",""
"null","../img/gs/481gs.jpg","null","reveal","image-keyboard-response","486","1645463","0.0-6.0-4.68","3104542","co38014","norming","","","","","","",""
"null","../img/tt/481tt.jpg","null","mooney2","image-keyboard-response","487","1647466","0.0-6.0-5.68","3104542","co38014","norming","","","","","","",""
"2320.340000000084","","","post_reveal_questions","survey-likert","488","1649789","0.0-6.0-6.68","3104542","co38014","norming","","","{""aha"":2}","[0]","../img/tt/481tt.jpg","",""
"null","<div style=""font-size:60px;""> </div>","null","fixation","html-keyboard-response","489","1649990","0.0-6.0-0.69","3104542","co38014","norming","","","","","","",""
"null","../img/tt/552tt.jpg","null","mooney1","image-keyboard-response","490","1653002","0.0-6.0-1.69","3104542","co38014","norming","","","","","","",""
"5471.574999999721","","","post_mooney1_questions","survey-likert","491","1658477","0.0-6.0-2.69","3104542","co38014","norming","","","{""curiosity"":0,""confidence"":0}","[0,1]","../img/tt/552tt.jpg","",""
"670.1499999999069","","","recognition","survey-text","492","1659149","0.0-6.0-3.69","3104542","co38014","norming","","","{""guess"":""""}","","../img/tt/552tt.jpg","",""
"null","../img/gs/552gs.jpg","null","reveal","image-keyboard-response","493","1661151","0.0-6.0-4.69","3104542","co38014","norming","","","","","","",""
"null","../img/tt/552tt.jpg","null","mooney2","image-keyboard-response","494","1663159","0.0-6.0-5.69","3104542","co38014","norming","","","","","","",""
"1580.6149999999907","","","post_reveal_questions","survey-likert","495","1664741","0.0-6.0-6.69","3104542","co38014","norming","","","{""aha"":1}","[0]","../img/tt/552tt.jpg","",""
"null","<div style=""font-size:60px;""> </div>","null","fixation","html-keyboard-response","496","1664946","0.0-6.0-0.70","3104542","co38014","norming","","","","","","",""
"null","../img/tt/1002tt.jpg","null","mooney1","image-keyboard-response","497","1667949","0.0-6.0-1.70","3104542","co38014","norming","","","","","","",""
"2846.8249999999534","","","post_mooney1_questions","survey-likert","498","1670795","0.0-6.0-2.70","3104542","co38014","norming","","","{""curiosity"":0,""confidence"":1}","[0,1]","../img/tt/1002tt.jpg","",""
"12014.314999999944","","","recognition","survey-text","499","1682811","0.0-6.0-3.70","3104542","co38014","norming","","","{""guess"":""miereneter""}","","../img/tt/1002tt.jpg","",""
"null","../img/gs/1002gs.jpg","null","reveal","image-keyboard-response","500","1684815","0.0-6.0-4.70","3104542","co38014","norming","","","","","","",""
"null","../img/tt/1002tt.jpg","null","mooney2","image-keyboard-response","501","1686818","0.0-6.0-5.70","3104542","co38014","norming","","","","","","",""
"1526.4499999999534","","","post_reveal_questions","survey-likert","502","1688347","0.0-6.0-6.70","3104542","co38014","norming","","","{""aha"":2}","[0]","../img/tt/1002tt.jpg","",""
"null","<div style=""font-size:60px;""> </div>","null","fixation","html-keyboard-response","503","1688554","0.0-6.0-0.71","3104542","co38014","norming","","","","","","",""
"null","../img/tt/060tt.jpg","null","mooney1","image-keyboard-response","504","1691556","0.0-6.0-1.71","3104542","co38014","norming","","","","","","",""
"3243.820000000065","","","post_mooney1_questions","survey-likert","505","1694803","0.0-6.0-2.71","3104542","co38014","norming","","","{""curiosity"":0,""confidence"":1}","[0,1]","../img/tt/060tt.jpg","",""
"4294.060000000056","","","recognition","survey-text","506","1699099","0.0-6.0-3.71","3104542","co38014","norming","","","{""guess"":""paddenstoel""}","","../img/tt/060tt.jpg","",""
"null","../img/gs/060gs.jpg","null","reveal","image-keyboard-response","507","1701100","0.0-6.0-4.71","3104542","co38014","norming","","","","","","",""
"null","../img/tt/060tt.jpg","null","mooney2","image-keyboard-response","508","1703104","0.0-6.0-5.71","3104542","co38014","norming","","","","","","",""
"1809.1149999999907","","","post_reveal_questions","survey-likert","509","1704915","0.0-6.0-6.71","3104542","co38014","norming","","","{""aha"":2}","[0]","../img/tt/060tt.jpg","",""
"null","<div style=""font-size:60px;""> </div>","null","fixation","html-keyboard-response","510","1705123","0.0-6.0-0.72","3104542","co38014","norming","","","","","","",""
"null","../img/tt/1069tt.jpg","null","mooney1","image-keyboard-response","511","1708128","0.0-6.0-1.72","3104542","co38014","norming","","","","","","",""
"3576.280000000028","","","post_mooney1_questions","survey-likert","512","1711708","0.0-6.0-2.72","3104542","co38014","norming","","","{""curiosity"":0,""confidence"":5}","[0,1]","../img/tt/1069tt.jpg","",""
"5357.480000000214","","","recognition","survey-text","513","1717067","0.0-6.0-3.72","3104542","co38014","norming","","","{""guess"":""berggeit""}","","../img/tt/1069tt.jpg","",""
"null","../img/gs/1069gs.jpg","null","reveal","image-keyboard-response","514","1719068","0.0-6.0-4.72","3104542","co38014","norming","","","","","","",""
"null","../img/tt/1069tt.jpg","null","mooney2","image-keyboard-response","515","1721070","0.0-6.0-5.72","3104542","co38014","norming","","","","","","",""
"3634.9150000000373","","","post_reveal_questions","survey-likert","516","1724707","0.0-6.0-6.72","3104542","co38014","norming","","","{""aha"":0}","[0]","../img/tt/1069tt.jpg","",""
"null","<div style=""font-size:60px;""> </div>","null","fixation","html-keyboard-response","517","1724912","0.0-6.0-0.73","3104542","co38014","norming","","","","","","",""
"null","../img/tt/094tt.jpg","null","mooney1","image-keyboard-response","518","1727923","0.0-6.0-1.73","3104542","co38014","norming","","","","","","",""
"6919.489999999991","","","post_mooney1_questions","survey-likert","519","1734838","0.0-6.0-2.73","3104542","co38014","norming","","","{""curiosity"":0,""confidence"":1}","[0,1]","../img/tt/094tt.jpg","",""
"3389.7700000000186","","","recognition","survey-text","520","1738230","0.0-6.0-3.73","3104542","co38014","norming","","","{""guess"":""walvis""}","","../img/tt/094tt.jpg","",""
"null","../img/gs/094gs.jpg","null","reveal","image-keyboard-response","521","1740236","0.0-6.0-4.73","3104542","co38014","norming","","","","","","",""
"null","../img/tt/094tt.jpg","null","mooney2","image-keyboard-response","522","1742240","0.0-6.0-5.73","3104542","co38014","norming","","","","","","",""
"1796.594999999972","","","post_reveal_questions","survey-likert","523","1744038","0.0-6.0-6.73","3104542","co38014","norming","","","{""aha"":3}","[0]","../img/tt/094tt.jpg","",""
"null","<div style=""font-size:60px;""> </div>","null","fixation","html-keyboard-response","524","1744242","0.0-6.0-0.74","3104542","co38014","norming","","","","","","",""
"null","../img/tt/524tt.jpg","null","mooney1","image-keyboard-response","525","1747243","0.0-6.0-1.74","3104542","co38014","norming","","","","","","",""
"3233.124999999767","","","post_mooney1_questions","survey-likert","526","1750480","0.0-6.0-2.74","3104542","co38014","norming","","","{""curiosity"":0,""confidence"":4}","[0,1]","../img/tt/524tt.jpg","",""
"3100.3950000000186","","","recognition","survey-text","527","1753582","0.0-6.0-3.74","3104542","co38014","norming","","","{""guess"":""olifant""}","","../img/tt/524tt.jpg","",""
"null","../img/gs/524gs.jpg","null","reveal","image-keyboard-response","528","1755587","0.0-6.0-4.74","3104542","co38014","norming","","","","","","",""
"null","../img/tt/524tt.jpg","null","mooney2","image-keyboard-response","529","1757596","0.0-6.0-5.74","3104542","co38014","norming","","","","","","",""
"1687.6150000002235","","","post_reveal_questions","survey-likert","530","1759286","0.0-6.0-6.74","3104542","co38014","norming","","","{""aha"":6}","[0]","../img/tt/524tt.jpg","",""
"null","<div style=""font-size:60px;""> </div>","null","fixation","html-keyboard-response","531","1759491","0.0-6.0-0.75","3104542","co38014","norming","","","","","","",""
"null","../img/tt/084tt.jpg","null","mooney1","image-keyboard-response","532","1762497","0.0-6.0-1.75","3104542","co38014","norming","","","","","","",""
"4537.785000000149","","","post_mooney1_questions","survey-likert","533","1767038","0.0-6.0-2.75","3104542","co38014","norming","","","{""curiosity"":0,""confidence"":1}","[0,1]","../img/tt/084tt.jpg","",""
"3134.0499999998137","","","recognition","survey-text","534","1770174","0.0-6.0-3.75","3104542","co38014","norming","","","{""guess"":""vogel""}","","../img/tt/084tt.jpg","",""
"null","../img/gs/084gs.jpg","null","reveal","image-keyboard-response","535","1772182","0.0-6.0-4.75","3104542","co38014","norming","","","","","","",""
"null","../img/tt/084tt.jpg","null","mooney2","image-keyboard-response","536","1774185","0.0-6.0-5.75","3104542","co38014","norming","","","","","","",""
"1762.7399999997579","","","post_reveal_questions","survey-likert","537","1775950","0.0-6.0-6.75","3104542","co38014","norming","","","{""aha"":2}","[0]","../img/tt/084tt.jpg","",""
"null","<div style=""font-size:60px;""> </div>","null","fixation","html-keyboard-response","538","1776153","0.0-6.0-0.76","3104542","co38014","norming","","","","","","",""
"null","../img/tt/1091tt.jpg","null","mooney1","image-keyboard-response","539","1779159","0.0-6.0-1.76","3104542","co38014","norming","","","","","","",""
"4106.3950000002515","","","post_mooney1_questions","survey-likert","540","1783270","0.0-6.0-2.76","3104542","co38014","norming","","","{""curiosity"":0,""confidence"":3}","[0,1]","../img/tt/1091tt.jpg","",""
"3021.804999999702","","","recognition","survey-text","541","1786294","0.0-6.0-3.76","3104542","co38014","norming","","","{""guess"":""paard""}","","../img/tt/1091tt.jpg","",""
"null","../img/gs/1091gs.jpg","null","reveal","image-keyboard-response","542","1788295","0.0-6.0-4.76","3104542","co38014","norming","","","","","","",""
"null","../img/tt/1091tt.jpg","null","mooney2","image-keyboard-response","543","1790298","0.0-6.0-5.76","3104542","co38014","norming","","","","","","",""
"2658.5649999997113","","","post_reveal_questions","survey-likert","544","1792965","0.0-6.0-6.76","3104542","co38014","norming","","","{""aha"":0}","[0]","../img/tt/1091tt.jpg","",""
"null","<div style=""font-size:60px;""> </div>","null","fixation","html-keyboard-response","545","1793170","0.0-6.0-0.77","3104542","co38014","norming","","","","","","",""
"null","../img/tt/1122tt.jpg","null","mooney1","image-keyboard-response","546","1796173","0.0-6.0-1.77","3104542","co38014","norming","","","","","","",""
"3876.339999999851","","","post_mooney1_questions","survey-likert","547","1800053","0.0-6.0-2.77","3104542","co38014","norming","","","{""curiosity"":0,""confidence"":2}","[0,1]","../img/tt/1122tt.jpg","",""
"7390.219999999739","","","recognition","survey-text","548","1807445","0.0-6.0-3.77","3104542","co38014","norming","","","{""guess"":""haven/boten""}","","../img/tt/1122tt.jpg","",""
"null","../img/gs/1122gs.jpg","null","reveal","image-keyboard-response","549","1809447","0.0-6.0-4.77","3104542","co38014","norming","","","","","","",""
"null","../img/tt/1122tt.jpg","null","mooney2","image-keyboard-response","550","1811449","0.0-6.0-5.77","3104542","co38014","norming","","","","","","",""
"1593.4899999997579","","","post_reveal_questions","survey-likert","551","1813045","0.0-6.0-6.77","3104542","co38014","norming","","","{""aha"":1}","[0]","../img/tt/1122tt.jpg","",""
