"rt","stimulus","key_press","test_part","trial_type","trial_index","time_elapsed","internal_node_id","totalTime","subject","experiment_name","button_pressed","success","responses","question_order","currentStim","old","correct"
"11177.324999999997","Welcome to the experiment. This is an online experiment so please don't close the tab/window until we say goodbye.  Press any key to begin.","78","instructions","html-keyboard-response","0","11191","0.0-0.0","2975437","co38728","norming","","","","","","",""
"42942.759999999995","<div style='word-wrap: break-word; width: 900px'><h3>Please consider this information carefully before deciding whether to participate in this research</h3><ul style='text-align: left; font-size: .8em;'><li><b>Purpose of the research</b>: To examine how people process images.</li><li><b>What you will do in this research</b>:  Stimuli (images) will be presented on the computer and you will be asked different questions about them.</li><li><b>Time required</b>: Participation will take between 45 and 60 minutes to complete.</li><li><b>Risks</b>:  There are no anticipated risks associated with participating in this study. The effects of participating should be comparable to those you would experience from viewing a computer monitor for 30 minutes and using a mouse or keyboard.</li><li><b>Benefits</b>:  This study provides no benefits to you individually except for the credit. The study provides important information about the nature of perception and learning.</li><li><b>Confidentiality</b>:  Your participation in this study will remain confidential. No personally identifiable information will be associated with your data. Your de-identified data may be shared with other researchers and used in future projects.</li><li><b>Participation and withdrawal</b>:  Your participation in this study is completely voluntary and you may refuse to participate or you may choose to withdraw at any time without penalty.</li><li><b>How to contact the researchers</b>: If you have questions or concerns about your participation or payment, or want to request a summary of research findings, please contact Sander Van de Cruys (KU Leuven), at sander.vandecruys@kuleuven.be.</li></ul><p>The nature and purpose of this research have been sufficiently explained and I agree to participate in this study.  I understand that I am free to withdraw at any time without incurring any penalty.</p><p>Please consent by clicking the button below to continue. Otherwise, please exit the study at this time.</p></div>","","instructions","html-button-response","1","54128","0.0-1.0","2975437","co38728","norming","0","","","","","",""
"","","","instructions","fullscreen","2","59524","0.0-2.0","2975437","co38728","norming","","true","","","","",""
"79171.09499999997","","","sona","survey-html-form","3","138706","0.0-3.0","2975437","co38728","norming","","","[{""name"":""sonaid"",""value"":""38728""},{""name"":""debrief"",""value"":""yes""},{""name"":""datajoin"",""value"":""yes""}]","","","",""
"94641.67500000002","<div style='word-wrap: break-word; width: 900px'><h3>Instructions</h3><p>This experiment will have 3 parts. In the first part you will see a series of distorted images like the one below on the left. As you can see in the righthand image, the distorted images are derived from actual photographs. In what follows, you will <strong>briefly</strong> be presented with <strong>only</strong> the distorted image.</p> <div style='float: left; margin-right: 20px;'><img src='../img/018tt.jpg' height='250' width='250'></img></div><div style='float: right; margin-left: 20px;'><img src='../img/018gs.jpg' height='250' width='250'></img></div><p>Subsequently you will be asked a few questions about the image: One question on how <strong>curious</strong> you are about the solution and one on how <strong>confident</strong> you are that you know the solution.</p>Next, we ask you to make a guess on what is in the image. Note that it is OK to name just the <strong>basic level category</strong>. For example when you see a parrot in the image, 'parrot' will obviously be a correct answer but also correct is 'bird'. However, 'animal' will <strong>not</strong> be counted as a correct response. For the example above, 'rose' would be correct or 'flower', but not 'plant'. When soccer players are depicted, 'soccer', 'football', 'soccer players' will be correct, but not 'humans', 'outdoors', or 'sports'. You do not need to describe the image in full, just name the main object in it <strong>in one or two words</strong>. All images depict objects from one of the following broad level categories: animals, inanimate objects, plants, sports, vehicles, and food. Recognizing means knowing <strong>more</strong> than these broad labels for a given image. But we always encourage you to <strong>make a guess</strong> if you can. Note that you are allowed to use <strong>Dutch and English</strong> in your answers, whatever comes easiest for you.</p><p>Press any key to continue.</p></div>","32","instructions","html-keyboard-response","4","233342","0.0-4.0","2975437","co38728","norming","","","","","","",""
"96368.61000000004","<div style='word-wrap: break-word; width: 900px'><h3>Instructions</h3> <p>Next, the solution image will be revealed to you and you'll be asked to indicate how strong your <strong>aha-experience</strong> was after seeing the solution. This describes the positive feeling of the 'click' you sometimes experience, when the pieces of the 'puzzle' fall together and you suddenly have 'insight' in the image.</p><img src='aha.jpg' height='188' width='250'></img><p>Note that there are no right or wrong answers. We are interested in what <strong>you</strong> see in the image and how <strong>you</strong> feel about it.</p><p>Press any key to start the experiment.</p></div>","32","instructions","html-keyboard-response","5","329684","0.0-5.0","2975437","co38728","norming","","","","","","",""
"null","<div style=""font-size:60px;""> </div>","null","fixation","html-keyboard-response","6","329886","0.0-6.0-0.0","2975437","co38728","norming","","","","","","",""
"null","../img/tt/1196tt.jpg","null","mooney1","image-keyboard-response","7","332895","0.0-6.0-1.0","2975437","co38728","norming","","","","","","",""
"11856.875000000058","","","post_mooney1_questions","survey-likert","8","344756","0.0-6.0-2.0","2975437","co38728","norming","","","{""curiosity"":5,""confidence"":0}","[0,1]","../img/tt/1196tt.jpg","",""
"10893.51999999996","","","recognition","survey-text","9","355651","0.0-6.0-3.0","2975437","co38728","norming","","","{""guess"":""""}","","../img/tt/1196tt.jpg","",""
"null","../img/gs/1196gs.jpg","null","reveal","image-keyboard-response","10","357653","0.0-6.0-4.0","2975437","co38728","norming","","","","","","",""
"null","../img/tt/1196tt.jpg","null","mooney2","image-keyboard-response","11","359661","0.0-6.0-5.0","2975437","co38728","norming","","","","","","",""
"6339.6350000000675","","","post_reveal_questions","survey-likert","12","366003","0.0-6.0-6.0","2975437","co38728","norming","","","{""aha"":3}","[0]","../img/tt/1196tt.jpg","",""
"null","<div style=""font-size:60px;""> </div>","null","fixation","html-keyboard-response","13","366211","0.0-6.0-0.1","2975437","co38728","norming","","","","","","",""
"null","../img/tt/1159tt.jpg","null","mooney1","image-keyboard-response","14","369220","0.0-6.0-1.1","2975437","co38728","norming","","","","","","",""
"4212.804999999993","","","post_mooney1_questions","survey-likert","15","373435","0.0-6.0-2.1","2975437","co38728","norming","","","{""curiosity"":4,""confidence"":3}","[0,1]","../img/tt/1159tt.jpg","",""
"3734.4349999999395","","","recognition","survey-text","16","377171","0.0-6.0-3.1","2975437","co38728","norming","","","{""guess"":""een boot""}","","../img/tt/1159tt.jpg","",""
"null","../img/gs/1159gs.jpg","null","reveal","image-keyboard-response","17","379173","0.0-6.0-4.1","2975437","co38728","norming","","","","","","",""
"null","../img/tt/1159tt.jpg","null","mooney2","image-keyboard-response","18","381176","0.0-6.0-5.1","2975437","co38728","norming","","","","","","",""
"2856.7150000000256","","","post_reveal_questions","survey-likert","19","384035","0.0-6.0-6.1","2975437","co38728","norming","","","{""aha"":5}","[0]","../img/tt/1159tt.jpg","",""
"null","<div style=""font-size:60px;""> </div>","null","fixation","html-keyboard-response","20","384236","0.0-6.0-0.2","2975437","co38728","norming","","","","","","",""
"null","../img/tt/319tt.jpg","null","mooney1","image-keyboard-response","21","387245","0.0-6.0-1.2","2975437","co38728","norming","","","","","","",""
"4043.8549999999814","","","post_mooney1_questions","survey-likert","22","391285","0.0-6.0-2.2","2975437","co38728","norming","","","{""curiosity"":4,""confidence"":2}","[0,1]","../img/tt/319tt.jpg","",""
"3606.2299999999814","","","recognition","survey-text","23","394893","0.0-6.0-3.2","2975437","co38728","norming","","","{""guess"":""een skelet""}","","../img/tt/319tt.jpg","",""
"null","../img/gs/319gs.jpg","null","reveal","image-keyboard-response","24","396895","0.0-6.0-4.2","2975437","co38728","norming","","","","","","",""
"null","../img/tt/319tt.jpg","null","mooney2","image-keyboard-response","25","398897","0.0-6.0-5.2","2975437","co38728","norming","","","","","","",""
"1562.4799999999814","","","post_reveal_questions","survey-likert","26","400461","0.0-6.0-6.2","2975437","co38728","norming","","","{""aha"":5}","[0]","../img/tt/319tt.jpg","",""
"null","<div style=""font-size:60px;""> </div>","null","fixation","html-keyboard-response","27","400668","0.0-6.0-0.3","2975437","co38728","norming","","","","","","",""
"null","../img/tt/1033tt.jpg","null","mooney1","image-keyboard-response","28","403672","0.0-6.0-1.3","2975437","co38728","norming","","","","","","",""
"4770.574999999953","","","post_mooney1_questions","survey-likert","29","408445","0.0-6.0-2.3","2975437","co38728","norming","","","{""curiosity"":4,""confidence"":3}","[0,1]","../img/tt/1033tt.jpg","",""
"2974.2350000000442","","","recognition","survey-text","30","411421","0.0-6.0-3.3","2975437","co38728","norming","","","{""guess"":""2 mannen""}","","../img/tt/1033tt.jpg","",""
"null","../img/gs/1033gs.jpg","null","reveal","image-keyboard-response","31","413423","0.0-6.0-4.3","2975437","co38728","norming","","","","","","",""
"null","../img/tt/1033tt.jpg","null","mooney2","image-keyboard-response","32","415426","0.0-6.0-5.3","2975437","co38728","norming","","","","","","",""
"1584.960000000021","","","post_reveal_questions","survey-likert","33","417013","0.0-6.0-6.3","2975437","co38728","norming","","","{""aha"":3}","[0]","../img/tt/1033tt.jpg","",""
"null","<div style=""font-size:60px;""> </div>","null","fixation","html-keyboard-response","34","417214","0.0-6.0-0.4","2975437","co38728","norming","","","","","","",""
"null","../img/tt/1128tt.jpg","null","mooney1","image-keyboard-response","35","420222","0.0-6.0-1.4","2975437","co38728","norming","","","","","","",""
"4748.1350000000675","","","post_mooney1_questions","survey-likert","36","424973","0.0-6.0-2.4","2975437","co38728","norming","","","{""curiosity"":4,""confidence"":3}","[0,1]","../img/tt/1128tt.jpg","",""
"4190.175000000047","","","recognition","survey-text","37","429165","0.0-6.0-3.4","2975437","co38728","norming","","","{""guess"":""een vrouw ""}","","../img/tt/1128tt.jpg","",""
"null","../img/gs/1128gs.jpg","null","reveal","image-keyboard-response","38","431167","0.0-6.0-4.4","2975437","co38728","norming","","","","","","",""
"null","../img/tt/1128tt.jpg","null","mooney2","image-keyboard-response","39","433178","0.0-6.0-5.4","2975437","co38728","norming","","","","","","",""
"1456.6200000000536","","","post_reveal_questions","survey-likert","40","434637","0.0-6.0-6.4","2975437","co38728","norming","","","{""aha"":2}","[0]","../img/tt/1128tt.jpg","",""
"null","<div style=""font-size:60px;""> </div>","null","fixation","html-keyboard-response","41","434838","0.0-6.0-0.5","2975437","co38728","norming","","","","","","",""
"null","../img/tt/1084tt.jpg","null","mooney1","image-keyboard-response","42","437839","0.0-6.0-1.5","2975437","co38728","norming","","","","","","",""
"4228.765000000072","","","post_mooney1_questions","survey-likert","43","442069","0.0-6.0-2.5","2975437","co38728","norming","","","{""curiosity"":2,""confidence"":4}","[0,1]","../img/tt/1084tt.jpg","",""
"5110.210000000079","","","recognition","survey-text","44","447181","0.0-6.0-3.5","2975437","co38728","norming","","","{""guess"":""een stuk taart""}","","../img/tt/1084tt.jpg","",""
"null","../img/gs/1084gs.jpg","null","reveal","image-keyboard-response","45","449190","0.0-6.0-4.5","2975437","co38728","norming","","","","","","",""
"null","../img/tt/1084tt.jpg","null","mooney2","image-keyboard-response","46","451180","0.0-6.0-5.5","2975437","co38728","norming","","","","","","",""
"3713.4400000000023","","","post_reveal_questions","survey-likert","47","454895","0.0-6.0-6.5","2975437","co38728","norming","","","{""aha"":0}","[0]","../img/tt/1084tt.jpg","",""
"null","<div style=""font-size:60px;""> </div>","null","fixation","html-keyboard-response","48","455096","0.0-6.0-0.6","2975437","co38728","norming","","","","","","",""
"null","../img/tt/1247tt.jpg","null","mooney1","image-keyboard-response","49","458105","0.0-6.0-1.6","2975437","co38728","norming","","","","","","",""
"3907.249999999942","","","post_mooney1_questions","survey-likert","50","462015","0.0-6.0-2.6","2975437","co38728","norming","","","{""curiosity"":4,""confidence"":2}","[0,1]","../img/tt/1247tt.jpg","",""
"1918.405000000028","","","recognition","survey-text","51","463934","0.0-6.0-3.6","2975437","co38728","norming","","","{""guess"":""leeuw""}","","../img/tt/1247tt.jpg","",""
"null","../img/gs/1247gs.jpg","null","reveal","image-keyboard-response","52","465937","0.0-6.0-4.6","2975437","co38728","norming","","","","","","",""
"null","../img/tt/1247tt.jpg","null","mooney2","image-keyboard-response","53","467939","0.0-6.0-5.6","2975437","co38728","norming","","","","","","",""
"1697.6200000000536","","","post_reveal_questions","survey-likert","54","469639","0.0-6.0-6.6","2975437","co38728","norming","","","{""aha"":0}","[0]","../img/tt/1247tt.jpg","",""
"null","<div style=""font-size:60px;""> </div>","null","fixation","html-keyboard-response","55","469840","0.0-6.0-0.7","2975437","co38728","norming","","","","","","",""
"null","../img/tt/1211tt.jpg","null","mooney1","image-keyboard-response","56","472844","0.0-6.0-1.7","2975437","co38728","norming","","","","","","",""
"4487.89000000013","","","post_mooney1_questions","survey-likert","57","477335","0.0-6.0-2.7","2975437","co38728","norming","","","{""curiosity"":3,""confidence"":3}","[0,1]","../img/tt/1211tt.jpg","",""
"3974.079999999958","","","recognition","survey-text","58","481311","0.0-6.0-3.7","2975437","co38728","norming","","","{""guess"":""vechtende mannen""}","","../img/tt/1211tt.jpg","",""
"null","../img/gs/1211gs.jpg","null","reveal","image-keyboard-response","59","483315","0.0-6.0-4.7","2975437","co38728","norming","","","","","","",""
"null","../img/tt/1211tt.jpg","null","mooney2","image-keyboard-response","60","485316","0.0-6.0-5.7","2975437","co38728","norming","","","","","","",""
"1641.609999999986","","","post_reveal_questions","survey-likert","61","486959","0.0-6.0-6.7","2975437","co38728","norming","","","{""aha"":4}","[0]","../img/tt/1211tt.jpg","",""
"null","<div style=""font-size:60px;""> </div>","null","fixation","html-keyboard-response","62","487161","0.0-6.0-0.8","2975437","co38728","norming","","","","","","",""
"null","../img/tt/318tt.jpg","null","mooney1","image-keyboard-response","63","490167","0.0-6.0-1.8","2975437","co38728","norming","","","","","","",""
"4365.719999999856","","","post_mooney1_questions","survey-likert","64","494535","0.0-6.0-2.8","2975437","co38728","norming","","","{""curiosity"":5,""confidence"":0}","[0,1]","../img/tt/318tt.jpg","",""
"677.8550000000396","","","recognition","survey-text","65","495214","0.0-6.0-3.8","2975437","co38728","norming","","","{""guess"":""""}","","../img/tt/318tt.jpg","",""
"null","../img/gs/318gs.jpg","null","reveal","image-keyboard-response","66","497224","0.0-6.0-4.8","2975437","co38728","norming","","","","","","",""
"null","../img/tt/318tt.jpg","null","mooney2","image-keyboard-response","67","499235","0.0-6.0-5.8","2975437","co38728","norming","","","","","","",""
"3537.6849999999977","","","post_reveal_questions","survey-likert","68","502775","0.0-6.0-6.8","2975437","co38728","norming","","","{""aha"":4}","[0]","../img/tt/318tt.jpg","",""
"null","<div style=""font-size:60px;""> </div>","null","fixation","html-keyboard-response","69","502981","0.0-6.0-0.9","2975437","co38728","norming","","","","","","",""
"null","../img/tt/1227tt.jpg","null","mooney1","image-keyboard-response","70","505984","0.0-6.0-1.9","2975437","co38728","norming","","","","","","",""
"11172.405000000028","","","post_mooney1_questions","survey-likert","71","517134","0.0-6.0-2.9","2975437","co38728","norming","","","{""curiosity"":4,""confidence"":0}","[0,1]","../img/tt/1227tt.jpg","",""
"11030.26999999996","","","recognition","survey-text","72","528166","0.0-6.0-3.9","2975437","co38728","norming","","","{""guess"":""struiken""}","","../img/tt/1227tt.jpg","",""
"null","../img/gs/1227gs.jpg","null","reveal","image-keyboard-response","73","530167","0.0-6.0-4.9","2975437","co38728","norming","","","","","","",""
"null","../img/tt/1227tt.jpg","null","mooney2","image-keyboard-response","74","532170","0.0-6.0-5.9","2975437","co38728","norming","","","","","","",""
"1153.4800000000978","","","post_reveal_questions","survey-likert","75","533326","0.0-6.0-6.9","2975437","co38728","norming","","","{""aha"":4}","[0]","../img/tt/1227tt.jpg","",""
"null","<div style=""font-size:60px;""> </div>","null","fixation","html-keyboard-response","76","533528","0.0-6.0-0.10","2975437","co38728","norming","","","","","","",""
"null","../img/tt/603tt.jpg","null","mooney1","image-keyboard-response","77","536531","0.0-6.0-1.10","2975437","co38728","norming","","","","","","",""
"5144.5","","","post_mooney1_questions","survey-likert","78","541678","0.0-6.0-2.10","2975437","co38728","norming","","","{""curiosity"":5,""confidence"":0}","[0,1]","../img/tt/603tt.jpg","",""
"774.0100000001257","","","recognition","survey-text","79","542454","0.0-6.0-3.10","2975437","co38728","norming","","","{""guess"":""""}","","../img/tt/603tt.jpg","",""
"null","../img/gs/603gs.jpg","null","reveal","image-keyboard-response","80","544460","0.0-6.0-4.10","2975437","co38728","norming","","","","","","",""
"null","../img/tt/603tt.jpg","null","mooney2","image-keyboard-response","81","546462","0.0-6.0-5.10","2975437","co38728","norming","","","","","","",""
"2038.0700000000652","","","post_reveal_questions","survey-likert","82","548502","0.0-6.0-6.10","2975437","co38728","norming","","","{""aha"":4}","[0]","../img/tt/603tt.jpg","",""
"null","<div style=""font-size:60px;""> </div>","null","fixation","html-keyboard-response","83","548713","0.0-6.0-0.11","2975437","co38728","norming","","","","","","",""
"null","../img/tt/1362tt.jpg","null","mooney1","image-keyboard-response","84","551718","0.0-6.0-1.11","2975437","co38728","norming","","","","","","",""
"8606.154999999912","","","post_mooney1_questions","survey-likert","85","560326","0.0-6.0-2.11","2975437","co38728","norming","","","{""curiosity"":4,""confidence"":2}","[0,1]","../img/tt/1362tt.jpg","",""
"8750.390000000014","","","recognition","survey-text","86","569078","0.0-6.0-3.11","2975437","co38728","norming","","","{""guess"":""potten en pannen""}","","../img/tt/1362tt.jpg","",""
"null","../img/gs/1362gs.jpg","null","reveal","image-keyboard-response","87","571085","0.0-6.0-4.11","2975437","co38728","norming","","","","","","",""
"null","../img/tt/1362tt.jpg","null","mooney2","image-keyboard-response","88","573095","0.0-6.0-5.11","2975437","co38728","norming","","","","","","",""
"2228.5250000000233","","","post_reveal_questions","survey-likert","89","575323","0.0-6.0-6.11","2975437","co38728","norming","","","{""aha"":0}","[0]","../img/tt/1362tt.jpg","",""
"null","<div style=""font-size:60px;""> </div>","null","fixation","html-keyboard-response","90","575526","0.0-6.0-0.12","2975437","co38728","norming","","","","","","",""
"null","../img/tt/301tt.jpg","null","mooney1","image-keyboard-response","91","578535","0.0-6.0-1.12","2975437","co38728","norming","","","","","","",""
"3865.8399999999674","","","post_mooney1_questions","survey-likert","92","582403","0.0-6.0-2.12","2975437","co38728","norming","","","{""curiosity"":5,""confidence"":0}","[0,1]","../img/tt/301tt.jpg","",""
"758.2399999999907","","","recognition","survey-text","93","583163","0.0-6.0-3.12","2975437","co38728","norming","","","{""guess"":""""}","","../img/tt/301tt.jpg","",""
"null","../img/gs/301gs.jpg","null","reveal","image-keyboard-response","94","585166","0.0-6.0-4.12","2975437","co38728","norming","","","","","","",""
"null","../img/tt/301tt.jpg","null","mooney2","image-keyboard-response","95","587167","0.0-6.0-5.12","2975437","co38728","norming","","","","","","",""
"1249.8400000000838","","","post_reveal_questions","survey-likert","96","588419","0.0-6.0-6.12","2975437","co38728","norming","","","{""aha"":3}","[0]","../img/tt/301tt.jpg","",""
"null","<div style=""font-size:60px;""> </div>","null","fixation","html-keyboard-response","97","588630","0.0-6.0-0.13","2975437","co38728","norming","","","","","","",""
"null","../img/tt/1097tt.jpg","null","mooney1","image-keyboard-response","98","591642","0.0-6.0-1.13","2975437","co38728","norming","","","","","","",""
"5647.155000000028","","","post_mooney1_questions","survey-likert","99","597291","0.0-6.0-2.13","2975437","co38728","norming","","","{""curiosity"":3,""confidence"":4}","[0,1]","../img/tt/1097tt.jpg","",""
"3910.2850000000326","","","recognition","survey-text","100","601203","0.0-6.0-3.13","2975437","co38728","norming","","","{""guess"":""een boer op het veld""}","","../img/tt/1097tt.jpg","",""
"null","../img/gs/1097gs.jpg","null","reveal","image-keyboard-response","101","603208","0.0-6.0-4.13","2975437","co38728","norming","","","","","","",""
"null","../img/tt/1097tt.jpg","null","mooney2","image-keyboard-response","102","605219","0.0-6.0-5.13","2975437","co38728","norming","","","","","","",""
"1918.1849999999395","","","post_reveal_questions","survey-likert","103","607139","0.0-6.0-6.13","2975437","co38728","norming","","","{""aha"":5}","[0]","../img/tt/1097tt.jpg","",""
"null","<div style=""font-size:60px;""> </div>","null","fixation","html-keyboard-response","104","607340","0.0-6.0-0.14","2975437","co38728","norming","","","","","","",""
"null","../img/tt/194tt.jpg","null","mooney1","image-keyboard-response","105","610344","0.0-6.0-1.14","2975437","co38728","norming","","","","","","",""
"4418.494999999995","","","post_mooney1_questions","survey-likert","106","614763","0.0-6.0-2.14","2975437","co38728","norming","","","{""curiosity"":4,""confidence"":3}","[0,1]","../img/tt/194tt.jpg","",""
"6278.199999999953","","","recognition","survey-text","107","621043","0.0-6.0-3.14","2975437","co38728","norming","","","{""guess"":""een vrouw met instrument""}","","../img/tt/194tt.jpg","",""
"null","../img/gs/194gs.jpg","null","reveal","image-keyboard-response","108","623049","0.0-6.0-4.14","2975437","co38728","norming","","","","","","",""
"null","../img/tt/194tt.jpg","null","mooney2","image-keyboard-response","109","625052","0.0-6.0-5.14","2975437","co38728","norming","","","","","","",""
"3476.545000000042","","","post_reveal_questions","survey-likert","110","628531","0.0-6.0-6.14","2975437","co38728","norming","","","{""aha"":0}","[0]","../img/tt/194tt.jpg","",""
"null","<div style=""font-size:60px;""> </div>","null","fixation","html-keyboard-response","111","628733","0.0-6.0-0.15","2975437","co38728","norming","","","","","","",""
"null","../img/tt/1107tt.jpg","null","mooney1","image-keyboard-response","112","631737","0.0-6.0-1.15","2975437","co38728","norming","","","","","","",""
"4895.410000000033","","","post_mooney1_questions","survey-likert","113","636644","0.0-6.0-2.15","2975437","co38728","norming","","","{""curiosity"":5,""confidence"":0}","[0,1]","../img/tt/1107tt.jpg","",""
"1134.4299999999348","","","recognition","survey-text","114","637780","0.0-6.0-3.15","2975437","co38728","norming","","","{""guess"":""""}","","../img/tt/1107tt.jpg","",""
"null","../img/gs/1107gs.jpg","null","reveal","image-keyboard-response","115","639781","0.0-6.0-4.15","2975437","co38728","norming","","","","","","",""
"null","../img/tt/1107tt.jpg","null","mooney2","image-keyboard-response","116","641783","0.0-6.0-5.15","2975437","co38728","norming","","","","","","",""
"1378.8349999999627","","","post_reveal_questions","survey-likert","117","643164","0.0-6.0-6.15","2975437","co38728","norming","","","{""aha"":4}","[0]","../img/tt/1107tt.jpg","",""
"null","<div style=""font-size:60px;""> </div>","null","fixation","html-keyboard-response","118","643366","0.0-6.0-0.16","2975437","co38728","norming","","","","","","",""
"null","../img/tt/1171tt.jpg","null","mooney1","image-keyboard-response","119","646373","0.0-6.0-1.16","2975437","co38728","norming","","","","","","",""
"3142.3850000000093","","","post_mooney1_questions","survey-likert","120","649516","0.0-6.0-2.16","2975437","co38728","norming","","","{""curiosity"":5,""confidence"":0}","[0,1]","../img/tt/1171tt.jpg","",""
"909.8350000000792","","","recognition","survey-text","121","650428","0.0-6.0-3.16","2975437","co38728","norming","","","{""guess"":""""}","","../img/tt/1171tt.jpg","",""
"null","../img/gs/1171gs.jpg","null","reveal","image-keyboard-response","122","652429","0.0-6.0-4.16","2975437","co38728","norming","","","","","","",""
"null","../img/tt/1171tt.jpg","null","mooney2","image-keyboard-response","123","654430","0.0-6.0-5.16","2975437","co38728","norming","","","","","","",""
"2725.42499999993","","","post_reveal_questions","survey-likert","124","657156","0.0-6.0-6.16","2975437","co38728","norming","","","{""aha"":5}","[0]","../img/tt/1171tt.jpg","",""
"null","<div style=""font-size:60px;""> </div>","null","fixation","html-keyboard-response","125","657357","0.0-6.0-0.17","2975437","co38728","norming","","","","","","",""
"null","../img/tt/353tt.jpg","null","mooney1","image-keyboard-response","126","660362","0.0-6.0-1.17","2975437","co38728","norming","","","","","","",""
"5401.5800000000745","","","post_mooney1_questions","survey-likert","127","665764","0.0-6.0-2.17","2975437","co38728","norming","","","{""curiosity"":3,""confidence"":4}","[0,1]","../img/tt/353tt.jpg","",""
"3989.9100000000326","","","recognition","survey-text","128","669756","0.0-6.0-3.17","2975437","co38728","norming","","","{""guess"":""een pinguin ""}","","../img/tt/353tt.jpg","",""
"null","../img/gs/353gs.jpg","null","reveal","image-keyboard-response","129","671759","0.0-6.0-4.17","2975437","co38728","norming","","","","","","",""
"null","../img/tt/353tt.jpg","null","mooney2","image-keyboard-response","130","673761","0.0-6.0-5.17","2975437","co38728","norming","","","","","","",""
"3393.180000000051","","","post_reveal_questions","survey-likert","131","677156","0.0-6.0-6.17","2975437","co38728","norming","","","{""aha"":0}","[0]","../img/tt/353tt.jpg","",""
"null","<div style=""font-size:60px;""> </div>","null","fixation","html-keyboard-response","132","677357","0.0-6.0-0.18","2975437","co38728","norming","","","","","","",""
"null","../img/tt/1307tt.jpg","null","mooney1","image-keyboard-response","133","680360","0.0-6.0-1.18","2975437","co38728","norming","","","","","","",""
"5714.6900000000605","","","post_mooney1_questions","survey-likert","134","686076","0.0-6.0-2.18","2975437","co38728","norming","","","{""curiosity"":0,""confidence"":6}","[0,1]","../img/tt/1307tt.jpg","",""
"6846.0299999999115","","","recognition","survey-text","135","692924","0.0-6.0-3.18","2975437","co38728","norming","","","{""guess"":""een luchtballon""}","","../img/tt/1307tt.jpg","",""
"null","../img/gs/1307gs.jpg","null","reveal","image-keyboard-response","136","694930","0.0-6.0-4.18","2975437","co38728","norming","","","","","","",""
"null","../img/tt/1307tt.jpg","null","mooney2","image-keyboard-response","137","696940","0.0-6.0-5.18","2975437","co38728","norming","","","","","","",""
"2909.380000000121","","","post_reveal_questions","survey-likert","138","699852","0.0-6.0-6.18","2975437","co38728","norming","","","{""aha"":0}","[0]","../img/tt/1307tt.jpg","",""
"null","<div style=""font-size:60px;""> </div>","null","fixation","html-keyboard-response","139","700060","0.0-6.0-0.19","2975437","co38728","norming","","","","","","",""
"null","../img/tt/279tt.jpg","null","mooney1","image-keyboard-response","140","703063","0.0-6.0-1.19","2975437","co38728","norming","","","","","","",""
"4578.209999999963","","","post_mooney1_questions","survey-likert","141","707644","0.0-6.0-2.19","2975437","co38728","norming","","","{""curiosity"":0,""confidence"":6}","[0,1]","../img/tt/279tt.jpg","",""
"2558.2050000000745","","","recognition","survey-text","142","710204","0.0-6.0-3.19","2975437","co38728","norming","","","{""guess"":""een koala""}","","../img/tt/279tt.jpg","",""
"null","../img/gs/279gs.jpg","null","reveal","image-keyboard-response","143","712205","0.0-6.0-4.19","2975437","co38728","norming","","","","","","",""
"null","../img/tt/279tt.jpg","null","mooney2","image-keyboard-response","144","714207","0.0-6.0-5.19","2975437","co38728","norming","","","","","","",""
"1610.7999999999302","","","post_reveal_questions","survey-likert","145","715820","0.0-6.0-6.19","2975437","co38728","norming","","","{""aha"":0}","[0]","../img/tt/279tt.jpg","",""
"null","<div style=""font-size:60px;""> </div>","null","fixation","html-keyboard-response","146","716021","0.0-6.0-0.20","2975437","co38728","norming","","","","","","",""
"null","../img/tt/1027tt.jpg","null","mooney1","image-keyboard-response","147","719030","0.0-6.0-1.20","2975437","co38728","norming","","","","","","",""
"3971.1750000000466","","","post_mooney1_questions","survey-likert","148","723004","0.0-6.0-2.20","2975437","co38728","norming","","","{""curiosity"":3,""confidence"":4}","[0,1]","../img/tt/1027tt.jpg","",""
"15454.099999999977","","","recognition","survey-text","149","738460","0.0-6.0-3.20","2975437","co38728","norming","","","{""guess"":""koe ""}","","../img/tt/1027tt.jpg","",""
"null","../img/gs/1027gs.jpg","null","reveal","image-keyboard-response","150","740465","0.0-6.0-4.20","2975437","co38728","norming","","","","","","",""
"null","../img/tt/1027tt.jpg","null","mooney2","image-keyboard-response","151","742466","0.0-6.0-5.20","2975437","co38728","norming","","","","","","",""
"1984.704999999958","","","post_reveal_questions","survey-likert","152","744452","0.0-6.0-6.20","2975437","co38728","norming","","","{""aha"":0}","[0]","../img/tt/1027tt.jpg","",""
"null","<div style=""font-size:60px;""> </div>","null","fixation","html-keyboard-response","153","744660","0.0-6.0-0.21","2975437","co38728","norming","","","","","","",""
"null","../img/tt/534tt.jpg","null","mooney1","image-keyboard-response","154","747664","0.0-6.0-1.21","2975437","co38728","norming","","","","","","",""
"3592.769999999902","","","post_mooney1_questions","survey-likert","155","751259","0.0-6.0-2.21","2975437","co38728","norming","","","{""curiosity"":1,""confidence"":5}","[0,1]","../img/tt/534tt.jpg","",""
"2414.435000000056","","","recognition","survey-text","156","753676","0.0-6.0-3.21","2975437","co38728","norming","","","{""guess"":""cactus ""}","","../img/tt/534tt.jpg","",""
"null","../img/gs/534gs.jpg","null","reveal","image-keyboard-response","157","755677","0.0-6.0-4.21","2975437","co38728","norming","","","","","","",""
"null","../img/tt/534tt.jpg","null","mooney2","image-keyboard-response","158","757679","0.0-6.0-5.21","2975437","co38728","norming","","","","","","",""
"1698.0499999999302","","","post_reveal_questions","survey-likert","159","759380","0.0-6.0-6.21","2975437","co38728","norming","","","{""aha"":0}","[0]","../img/tt/534tt.jpg","",""
"null","<div style=""font-size:60px;""> </div>","null","fixation","html-keyboard-response","160","759583","0.0-6.0-0.22","2975437","co38728","norming","","","","","","",""
"null","../img/tt/329tt.jpg","null","mooney1","image-keyboard-response","161","762588","0.0-6.0-1.22","2975437","co38728","norming","","","","","","",""
"4917.210000000079","","","post_mooney1_questions","survey-likert","162","767508","0.0-6.0-2.22","2975437","co38728","norming","","","{""curiosity"":5,""confidence"":1}","[0,1]","../img/tt/329tt.jpg","",""
"6614.239999999991","","","recognition","survey-text","163","774124","0.0-6.0-3.22","2975437","co38728","norming","","","{""guess"":""een mexicaan ""}","","../img/tt/329tt.jpg","",""
"null","../img/gs/329gs.jpg","null","reveal","image-keyboard-response","164","776130","0.0-6.0-4.22","2975437","co38728","norming","","","","","","",""
"null","../img/tt/329tt.jpg","null","mooney2","image-keyboard-response","165","778132","0.0-6.0-5.22","2975437","co38728","norming","","","","","","",""
"2229.4349999999395","","","post_reveal_questions","survey-likert","166","780363","0.0-6.0-6.22","2975437","co38728","norming","","","{""aha"":4}","[0]","../img/tt/329tt.jpg","",""
"null","<div style=""font-size:60px;""> </div>","null","fixation","html-keyboard-response","167","780565","0.0-6.0-0.23","2975437","co38728","norming","","","","","","",""
"null","../img/tt/1096tt.jpg","null","mooney1","image-keyboard-response","168","783573","0.0-6.0-1.23","2975437","co38728","norming","","","","","","",""
"5211.964999999967","","","post_mooney1_questions","survey-likert","169","788788","0.0-6.0-2.23","2975437","co38728","norming","","","{""curiosity"":5,""confidence"":1}","[0,1]","../img/tt/1096tt.jpg","",""
"3590.0050000000047","","","recognition","survey-text","170","792379","0.0-6.0-3.23","2975437","co38728","norming","","","{""guess"":""een stal""}","","../img/tt/1096tt.jpg","",""
"null","../img/gs/1096gs.jpg","null","reveal","image-keyboard-response","171","794388","0.0-6.0-4.23","2975437","co38728","norming","","","","","","",""
"null","../img/tt/1096tt.jpg","null","mooney2","image-keyboard-response","172","796391","0.0-6.0-5.23","2975437","co38728","norming","","","","","","",""
"2195.805000000051","","","post_reveal_questions","survey-likert","173","798588","0.0-6.0-6.23","2975437","co38728","norming","","","{""aha"":1}","[0]","../img/tt/1096tt.jpg","",""
"null","<div style=""font-size:60px;""> </div>","null","fixation","html-keyboard-response","174","798789","0.0-6.0-0.24","2975437","co38728","norming","","","","","","",""
"null","../img/tt/040tt.jpg","null","mooney1","image-keyboard-response","175","801799","0.0-6.0-1.24","2975437","co38728","norming","","","","","","",""
"3330","","","post_mooney1_questions","survey-likert","176","805132","0.0-6.0-2.24","2975437","co38728","norming","","","{""curiosity"":5,""confidence"":0}","[0,1]","../img/tt/040tt.jpg","",""
"630.1999999999534","","","recognition","survey-text","177","805763","0.0-6.0-3.24","2975437","co38728","norming","","","{""guess"":""""}","","../img/tt/040tt.jpg","",""
"null","../img/gs/040gs.jpg","null","reveal","image-keyboard-response","178","807765","0.0-6.0-4.24","2975437","co38728","norming","","","","","","",""
"null","../img/tt/040tt.jpg","null","mooney2","image-keyboard-response","179","809768","0.0-6.0-5.24","2975437","co38728","norming","","","","","","",""
"1561.3999999999069","","","post_reveal_questions","survey-likert","180","811331","0.0-6.0-6.24","2975437","co38728","norming","","","{""aha"":5}","[0]","../img/tt/040tt.jpg","",""
"null","<div style=""font-size:60px;""> </div>","null","fixation","html-keyboard-response","181","811534","0.0-6.0-0.25","2975437","co38728","norming","","","","","","",""
"null","../img/tt/140tt.jpg","null","mooney1","image-keyboard-response","182","814545","0.0-6.0-1.25","2975437","co38728","norming","","","","","","",""
"5087.625","","","post_mooney1_questions","survey-likert","183","819636","0.0-6.0-2.25","2975437","co38728","norming","","","{""curiosity"":0,""confidence"":5}","[0,1]","../img/tt/140tt.jpg","",""
"5749.960000000079","","","recognition","survey-text","184","825387","0.0-6.0-3.25","2975437","co38728","norming","","","{""guess"":""2 vorken in elkaar""}","","../img/tt/140tt.jpg","",""
"null","../img/gs/140gs.jpg","null","reveal","image-keyboard-response","185","827389","0.0-6.0-4.25","2975437","co38728","norming","","","","","","",""
"null","../img/tt/140tt.jpg","null","mooney2","image-keyboard-response","186","829391","0.0-6.0-5.25","2975437","co38728","norming","","","","","","",""
"2122.625","","","post_reveal_questions","survey-likert","187","831515","0.0-6.0-6.25","2975437","co38728","norming","","","{""aha"":0}","[0]","../img/tt/140tt.jpg","",""
"null","<div style=""font-size:60px;""> </div>","null","fixation","html-keyboard-response","188","831724","0.0-6.0-0.26","2975437","co38728","norming","","","","","","",""
"null","../img/tt/1148tt.jpg","null","mooney1","image-keyboard-response","189","834734","0.0-6.0-1.26","2975437","co38728","norming","","","","","","",""
"3787.2600000001257","","","post_mooney1_questions","survey-likert","190","838524","0.0-6.0-2.26","2975437","co38728","norming","","","{""curiosity"":5,""confidence"":2}","[0,1]","../img/tt/1148tt.jpg","",""
"2734.305000000051","","","recognition","survey-text","191","841259","0.0-6.0-3.26","2975437","co38728","norming","","","{""guess"":""een stal""}","","../img/tt/1148tt.jpg","",""
"null","../img/gs/1148gs.jpg","null","reveal","image-keyboard-response","192","843266","0.0-6.0-4.26","2975437","co38728","norming","","","","","","",""
"null","../img/tt/1148tt.jpg","null","mooney2","image-keyboard-response","193","845268","0.0-6.0-5.26","2975437","co38728","norming","","","","","","",""
"1477.5449999999255","","","post_reveal_questions","survey-likert","194","846747","0.0-6.0-6.26","2975437","co38728","norming","","","{""aha"":5}","[0]","../img/tt/1148tt.jpg","",""
"null","<div style=""font-size:60px;""> </div>","null","fixation","html-keyboard-response","195","846948","0.0-6.0-0.27","2975437","co38728","norming","","","","","","",""
"null","../img/tt/300tt.jpg","null","mooney1","image-keyboard-response","196","849953","0.0-6.0-1.27","2975437","co38728","norming","","","","","","",""
"3744.2249999999767","","","post_mooney1_questions","survey-likert","197","853700","0.0-6.0-2.27","2975437","co38728","norming","","","{""curiosity"":3,""confidence"":3}","[0,1]","../img/tt/300tt.jpg","",""
"2150.0899999999674","","","recognition","survey-text","198","855851","0.0-6.0-3.27","2975437","co38728","norming","","","{""guess"":""een aapje""}","","../img/tt/300tt.jpg","",""
"null","../img/gs/300gs.jpg","null","reveal","image-keyboard-response","199","857852","0.0-6.0-4.27","2975437","co38728","norming","","","","","","",""
"null","../img/tt/300tt.jpg","null","mooney2","image-keyboard-response","200","859856","0.0-6.0-5.27","2975437","co38728","norming","","","","","","",""
"2385.3800000000047","","","post_reveal_questions","survey-likert","201","862243","0.0-6.0-6.27","2975437","co38728","norming","","","{""aha"":5}","[0]","../img/tt/300tt.jpg","",""
"null","<div style=""font-size:60px;""> </div>","null","fixation","html-keyboard-response","202","862451","0.0-6.0-0.28","2975437","co38728","norming","","","","","","",""
"null","../img/tt/496tt.jpg","null","mooney1","image-keyboard-response","203","865459","0.0-6.0-1.28","2975437","co38728","norming","","","","","","",""
"7317.875","","","post_mooney1_questions","survey-likert","204","872779","0.0-6.0-2.28","2975437","co38728","norming","","","{""curiosity"":5,""confidence"":0}","[0,1]","../img/tt/496tt.jpg","",""
"846.1100000001024","","","recognition","survey-text","205","873627","0.0-6.0-3.28","2975437","co38728","norming","","","{""guess"":""""}","","../img/tt/496tt.jpg","",""
"null","../img/gs/496gs.jpg","null","reveal","image-keyboard-response","206","875629","0.0-6.0-4.28","2975437","co38728","norming","","","","","","",""
"null","../img/tt/496tt.jpg","null","mooney2","image-keyboard-response","207","877631","0.0-6.0-5.28","2975437","co38728","norming","","","","","","",""
"4010.215000000084","","","post_reveal_questions","survey-likert","208","881643","0.0-6.0-6.28","2975437","co38728","norming","","","{""aha"":5}","[0]","../img/tt/496tt.jpg","",""
"null","<div style=""font-size:60px;""> </div>","null","fixation","html-keyboard-response","209","881852","0.0-6.0-0.29","2975437","co38728","norming","","","","","","",""
"null","../img/tt/108tt.jpg","null","mooney1","image-keyboard-response","210","884860","0.0-6.0-1.29","2975437","co38728","norming","","","","","","",""
"17221.234999999986","","","post_mooney1_questions","survey-likert","211","902083","0.0-6.0-2.29","2975437","co38728","norming","","","{""curiosity"":6,""confidence"":1}","[0,1]","../img/tt/108tt.jpg","",""
"629.9550000001909","","","recognition","survey-text","212","902715","0.0-6.0-3.29","2975437","co38728","norming","","","{""guess"":""""}","","../img/tt/108tt.jpg","",""
"null","../img/gs/108gs.jpg","null","reveal","image-keyboard-response","213","904718","0.0-6.0-4.29","2975437","co38728","norming","","","","","","",""
"null","../img/tt/108tt.jpg","null","mooney2","image-keyboard-response","214","906728","0.0-6.0-5.29","2975437","co38728","norming","","","","","","",""
"1928.3649999999907","","","post_reveal_questions","survey-likert","215","908658","0.0-6.0-6.29","2975437","co38728","norming","","","{""aha"":1}","[0]","../img/tt/108tt.jpg","",""
"null","<div style=""font-size:60px;""> </div>","null","fixation","html-keyboard-response","216","908869","0.0-6.0-0.30","2975437","co38728","norming","","","","","","",""
"null","../img/tt/1232tt.jpg","null","mooney1","image-keyboard-response","217","911870","0.0-6.0-1.30","2975437","co38728","norming","","","","","","",""
"4155.174999999814","","","post_mooney1_questions","survey-likert","218","916027","0.0-6.0-2.30","2975437","co38728","norming","","","{""curiosity"":2,""confidence"":5}","[0,1]","../img/tt/1232tt.jpg","",""
"3565.6350000000093","","","recognition","survey-text","219","919594","0.0-6.0-3.30","2975437","co38728","norming","","","{""guess"":""een aquarium ""}","","../img/tt/1232tt.jpg","",""
"null","../img/gs/1232gs.jpg","null","reveal","image-keyboard-response","220","921602","0.0-6.0-4.30","2975437","co38728","norming","","","","","","",""
"null","../img/tt/1232tt.jpg","null","mooney2","image-keyboard-response","221","923604","0.0-6.0-5.30","2975437","co38728","norming","","","","","","",""
"1365.595000000205","","","post_reveal_questions","survey-likert","222","924970","0.0-6.0-6.30","2975437","co38728","norming","","","{""aha"":6}","[0]","../img/tt/1232tt.jpg","",""
"null","<div style=""font-size:60px;""> </div>","null","fixation","html-keyboard-response","223","925173","0.0-6.0-0.31","2975437","co38728","norming","","","","","","",""
"null","../img/tt/380tt.jpg","null","mooney1","image-keyboard-response","224","928182","0.0-6.0-1.31","2975437","co38728","norming","","","","","","",""
"3643.234999999986","","","post_mooney1_questions","survey-likert","225","931827","0.0-6.0-2.31","2975437","co38728","norming","","","{""curiosity"":6,""confidence"":0}","[0,1]","../img/tt/380tt.jpg","",""
"661.9399999999441","","","recognition","survey-text","226","932490","0.0-6.0-3.31","2975437","co38728","norming","","","{""guess"":""""}","","../img/tt/380tt.jpg","",""
"null","../img/gs/380gs.jpg","null","reveal","image-keyboard-response","227","934498","0.0-6.0-4.31","2975437","co38728","norming","","","","","","",""
"null","../img/tt/380tt.jpg","null","mooney2","image-keyboard-response","228","936500","0.0-6.0-5.31","2975437","co38728","norming","","","","","","",""
"3557.710000000079","","","post_reveal_questions","survey-likert","229","940059","0.0-6.0-6.31","2975437","co38728","norming","","","{""aha"":4}","[0]","../img/tt/380tt.jpg","",""
"null","<div style=""font-size:60px;""> </div>","null","fixation","html-keyboard-response","230","940260","0.0-6.0-0.32","2975437","co38728","norming","","","","","","",""
"null","../img/tt/111tt.jpg","null","mooney1","image-keyboard-response","231","943270","0.0-6.0-1.32","2975437","co38728","norming","","","","","","",""
"4260.050000000047","","","post_mooney1_questions","survey-likert","232","947531","0.0-6.0-2.32","2975437","co38728","norming","","","{""curiosity"":0,""confidence"":6}","[0,1]","../img/tt/111tt.jpg","",""
"2941.4899999999907","","","recognition","survey-text","233","950475","0.0-6.0-3.32","2975437","co38728","norming","","","{""guess"":""een douche""}","","../img/tt/111tt.jpg","",""
"null","../img/gs/111gs.jpg","null","reveal","image-keyboard-response","234","952483","0.0-6.0-4.32","2975437","co38728","norming","","","","","","",""
"null","../img/tt/111tt.jpg","null","mooney2","image-keyboard-response","235","954488","0.0-6.0-5.32","2975437","co38728","norming","","","","","","",""
"1537.3400000000838","","","post_reveal_questions","survey-likert","236","956027","0.0-6.0-6.32","2975437","co38728","norming","","","{""aha"":0}","[0]","../img/tt/111tt.jpg","",""
"null","<div style=""font-size:60px;""> </div>","null","fixation","html-keyboard-response","237","956237","0.0-6.0-0.33","2975437","co38728","norming","","","","","","",""
"null","../img/tt/1102tt.jpg","null","mooney1","image-keyboard-response","238","959241","0.0-6.0-1.33","2975437","co38728","norming","","","","","","",""
"4504.040000000037","","","post_mooney1_questions","survey-likert","239","963747","0.0-6.0-2.33","2975437","co38728","norming","","","{""curiosity"":2,""confidence"":4}","[0,1]","../img/tt/1102tt.jpg","",""
"3174.0250000000233","","","recognition","survey-text","240","966923","0.0-6.0-3.33","2975437","co38728","norming","","","{""guess"":""een palmboom""}","","../img/tt/1102tt.jpg","",""
"null","../img/gs/1102gs.jpg","null","reveal","image-keyboard-response","241","968925","0.0-6.0-4.33","2975437","co38728","norming","","","","","","",""
"null","../img/tt/1102tt.jpg","null","mooney2","image-keyboard-response","242","970926","0.0-6.0-5.33","2975437","co38728","norming","","","","","","",""
"2514.730000000098","","","post_reveal_questions","survey-likert","243","973443","0.0-6.0-6.33","2975437","co38728","norming","","","{""aha"":6}","[0]","../img/tt/1102tt.jpg","",""
"null","<div style=""font-size:60px;""> </div>","null","fixation","html-keyboard-response","244","973645","0.0-6.0-0.34","2975437","co38728","norming","","","","","","",""
"null","../img/tt/1272tt.jpg","null","mooney1","image-keyboard-response","245","976653","0.0-6.0-1.34","2975437","co38728","norming","","","","","","",""
"7739.02500000014","","","post_mooney1_questions","survey-likert","246","984395","0.0-6.0-2.34","2975437","co38728","norming","","","{""curiosity"":6,""confidence"":1}","[0,1]","../img/tt/1272tt.jpg","",""
"2462.414999999921","","","recognition","survey-text","247","986859","0.0-6.0-3.34","2975437","co38728","norming","","","{""guess"":""ananas""}","","../img/tt/1272tt.jpg","",""
"null","../img/gs/1272gs.jpg","null","reveal","image-keyboard-response","248","988864","0.0-6.0-4.34","2975437","co38728","norming","","","","","","",""
"null","../img/tt/1272tt.jpg","null","mooney2","image-keyboard-response","249","990865","0.0-6.0-5.34","2975437","co38728","norming","","","","","","",""
"3247.2350000001024","","","post_reveal_questions","survey-likert","250","994115","0.0-6.0-6.34","2975437","co38728","norming","","","{""aha"":5}","[0]","../img/tt/1272tt.jpg","",""
"null","<div style=""font-size:60px;""> </div>","null","fixation","html-keyboard-response","251","994316","0.0-6.0-0.35","2975437","co38728","norming","","","","","","",""
"null","../img/tt/184tt.jpg","null","mooney1","image-keyboard-response","252","997327","0.0-6.0-1.35","2975437","co38728","norming","","","","","","",""
"4848.740000000107","","","post_mooney1_questions","survey-likert","253","1002176","0.0-6.0-2.35","2975437","co38728","norming","","","{""curiosity"":6,""confidence"":0}","[0,1]","../img/tt/184tt.jpg","",""
"1454.0949999998556","","","recognition","survey-text","254","1003632","0.0-6.0-3.35","2975437","co38728","norming","","","{""guess"":""""}","","../img/tt/184tt.jpg","",""
"null","../img/gs/184gs.jpg","null","reveal","image-keyboard-response","255","1005636","0.0-6.0-4.35","2975437","co38728","norming","","","","","","",""
"null","../img/tt/184tt.jpg","null","mooney2","image-keyboard-response","256","1007638","0.0-6.0-5.35","2975437","co38728","norming","","","","","","",""
"1247.1499999999069","","","post_reveal_questions","survey-likert","257","1008888","0.0-6.0-6.35","2975437","co38728","norming","","","{""aha"":3}","[0]","../img/tt/184tt.jpg","",""
"null","<div style=""font-size:60px;""> </div>","null","fixation","html-keyboard-response","258","1009089","0.0-6.0-0.36","2975437","co38728","norming","","","","","","",""
"null","../img/tt/357tt.jpg","null","mooney1","image-keyboard-response","259","1012092","0.0-6.0-1.36","2975437","co38728","norming","","","","","","",""
"2817.719999999972","","","post_mooney1_questions","survey-likert","260","1014912","0.0-6.0-2.36","2975437","co38728","norming","","","{""curiosity"":6,""confidence"":1}","[0,1]","../img/tt/357tt.jpg","",""
"1990.2749999999069","","","recognition","survey-text","261","1016904","0.0-6.0-3.36","2975437","co38728","norming","","","{""guess"":""een duif""}","","../img/tt/357tt.jpg","",""
"null","../img/gs/357gs.jpg","null","reveal","image-keyboard-response","262","1018914","0.0-6.0-4.36","2975437","co38728","norming","","","","","","",""
"null","../img/tt/357tt.jpg","null","mooney2","image-keyboard-response","263","1020916","0.0-6.0-5.36","2975437","co38728","norming","","","","","","",""
"2081.6299999998882","","","post_reveal_questions","survey-likert","264","1023000","0.0-6.0-6.36","2975437","co38728","norming","","","{""aha"":5}","[0]","../img/tt/357tt.jpg","",""
"null","<div style=""font-size:60px;""> </div>","null","fixation","html-keyboard-response","265","1023202","0.0-6.0-0.37","2975437","co38728","norming","","","","","","",""
"null","../img/tt/080tt.jpg","null","mooney1","image-keyboard-response","266","1026209","0.0-6.0-1.37","2975437","co38728","norming","","","","","","",""
"3948.1399999998976","","","post_mooney1_questions","survey-likert","267","1030160","0.0-6.0-2.37","2975437","co38728","norming","","","{""curiosity"":4,""confidence"":4}","[0,1]","../img/tt/080tt.jpg","",""
"3510.0949999998556","","","recognition","survey-text","268","1033672","0.0-6.0-3.37","2975437","co38728","norming","","","{""guess"":""een paddestoel""}","","../img/tt/080tt.jpg","",""
"null","../img/gs/080gs.jpg","null","reveal","image-keyboard-response","269","1035680","0.0-6.0-4.37","2975437","co38728","norming","","","","","","",""
"null","../img/tt/080tt.jpg","null","mooney2","image-keyboard-response","270","1037683","0.0-6.0-5.37","2975437","co38728","norming","","","","","","",""
"1457.8899999998976","","","post_reveal_questions","survey-likert","271","1039144","0.0-6.0-6.37","2975437","co38728","norming","","","{""aha"":4}","[0]","../img/tt/080tt.jpg","",""
"null","<div style=""font-size:60px;""> </div>","null","fixation","html-keyboard-response","272","1039345","0.0-6.0-0.38","2975437","co38728","norming","","","","","","",""
"null","../img/tt/1069tt.jpg","null","mooney1","image-keyboard-response","273","1042349","0.0-6.0-1.38","2975437","co38728","norming","","","","","","",""
"9330.050000000047","","","post_mooney1_questions","survey-likert","274","1051680","0.0-6.0-2.38","2975437","co38728","norming","","","{""curiosity"":5,""confidence"":2}","[0,1]","../img/tt/1069tt.jpg","",""
"1894.7249999998603","","","recognition","survey-text","275","1053576","0.0-6.0-3.38","2975437","co38728","norming","","","{""guess"":""een kikker""}","","../img/tt/1069tt.jpg","",""
"null","../img/gs/1069gs.jpg","null","reveal","image-keyboard-response","276","1055578","0.0-6.0-4.38","2975437","co38728","norming","","","","","","",""
"null","../img/tt/1069tt.jpg","null","mooney2","image-keyboard-response","277","1057580","0.0-6.0-5.38","2975437","co38728","norming","","","","","","",""
"1617.3349999999627","","","post_reveal_questions","survey-likert","278","1059200","0.0-6.0-6.38","2975437","co38728","norming","","","{""aha"":5}","[0]","../img/tt/1069tt.jpg","",""
"null","<div style=""font-size:60px;""> </div>","null","fixation","html-keyboard-response","279","1059401","0.0-6.0-0.39","2975437","co38728","norming","","","","","","",""
"null","../img/tt/064tt.jpg","null","mooney1","image-keyboard-response","280","1062414","0.0-6.0-1.39","2975437","co38728","norming","","","","","","",""
"13466.004999999888","","","post_mooney1_questions","survey-likert","281","1075881","0.0-6.0-2.39","2975437","co38728","norming","","","{""curiosity"":5,""confidence"":0}","[0,1]","../img/tt/064tt.jpg","",""
"773.9200000001583","","","recognition","survey-text","282","1076656","0.0-6.0-3.39","2975437","co38728","norming","","","{""guess"":""""}","","../img/tt/064tt.jpg","",""
"null","../img/gs/064gs.jpg","null","reveal","image-keyboard-response","283","1078663","0.0-6.0-4.39","2975437","co38728","norming","","","","","","",""
"null","../img/tt/064tt.jpg","null","mooney2","image-keyboard-response","284","1080666","0.0-6.0-5.39","2975437","co38728","norming","","","","","","",""
"1492.6750000000466","","","post_reveal_questions","survey-likert","285","1082161","0.0-6.0-6.39","2975437","co38728","norming","","","{""aha"":4}","[0]","../img/tt/064tt.jpg","",""
"null","<div style=""font-size:60px;""> </div>","null","fixation","html-keyboard-response","286","1082362","0.0-6.0-0.40","2975437","co38728","norming","","","","","","",""
"null","../img/tt/1279tt.jpg","null","mooney1","image-keyboard-response","287","1085371","0.0-6.0-1.40","2975437","co38728","norming","","","","","","",""
"3730.635000000242","","","post_mooney1_questions","survey-likert","288","1089104","0.0-6.0-2.40","2975437","co38728","norming","","","{""curiosity"":6,""confidence"":1}","[0,1]","../img/tt/1279tt.jpg","",""
"1982.1949999998324","","","recognition","survey-text","289","1091089","0.0-6.0-3.40","2975437","co38728","norming","","","{""guess"":""een hert""}","","../img/tt/1279tt.jpg","",""
"null","../img/gs/1279gs.jpg","null","reveal","image-keyboard-response","290","1093090","0.0-6.0-4.40","2975437","co38728","norming","","","","","","",""
"null","../img/tt/1279tt.jpg","null","mooney2","image-keyboard-response","291","1095091","0.0-6.0-5.40","2975437","co38728","norming","","","","","","",""
"3324.939999999944","","","post_reveal_questions","survey-likert","292","1098417","0.0-6.0-6.40","2975437","co38728","norming","","","{""aha"":2}","[0]","../img/tt/1279tt.jpg","",""
"null","<div style=""font-size:60px;""> </div>","null","fixation","html-keyboard-response","293","1098617","0.0-6.0-0.41","2975437","co38728","norming","","","","","","",""
"null","../img/tt/1181tt.jpg","null","mooney1","image-keyboard-response","294","1101620","0.0-6.0-1.41","2975437","co38728","norming","","","","","","",""
"5403.260000000242","","","post_mooney1_questions","survey-likert","295","1107024","0.0-6.0-2.41","2975437","co38728","norming","","","{""curiosity"":5,""confidence"":2}","[0,1]","../img/tt/1181tt.jpg","",""
"8974.310000000056","","","recognition","survey-text","296","1116000","0.0-6.0-3.41","2975437","co38728","norming","","","{""guess"":""knuffelende mensen""}","","../img/tt/1181tt.jpg","",""
"null","../img/gs/1181gs.jpg","null","reveal","image-keyboard-response","297","1118010","0.0-6.0-4.41","2975437","co38728","norming","","","","","","",""
"null","../img/tt/1181tt.jpg","null","mooney2","image-keyboard-response","298","1120012","0.0-6.0-5.41","2975437","co38728","norming","","","","","","",""
"2099.5200000000186","","","post_reveal_questions","survey-likert","299","1122112","0.0-6.0-6.41","2975437","co38728","norming","","","{""aha"":4}","[0]","../img/tt/1181tt.jpg","",""
"null","<div style=""font-size:60px;""> </div>","null","fixation","html-keyboard-response","300","1122320","0.0-6.0-0.42","2975437","co38728","norming","","","","","","",""
"null","../img/tt/1175tt.jpg","null","mooney1","image-keyboard-response","301","1125324","0.0-6.0-1.42","2975437","co38728","norming","","","","","","",""
"3766.375","","","post_mooney1_questions","survey-likert","302","1129092","0.0-6.0-2.42","2975437","co38728","norming","","","{""curiosity"":6,""confidence"":0}","[0,1]","../img/tt/1175tt.jpg","",""
"846.0800000000745","","","recognition","survey-text","303","1129939","0.0-6.0-3.42","2975437","co38728","norming","","","{""guess"":""""}","","../img/tt/1175tt.jpg","",""
"null","../img/gs/1175gs.jpg","null","reveal","image-keyboard-response","304","1131941","0.0-6.0-4.42","2975437","co38728","norming","","","","","","",""
"null","../img/tt/1175tt.jpg","null","mooney2","image-keyboard-response","305","1133950","0.0-6.0-5.42","2975437","co38728","norming","","","","","","",""
"1951.7599999997765","","","post_reveal_questions","survey-likert","306","1135907","0.0-6.0-6.42","2975437","co38728","norming","","","{""aha"":4}","[0]","../img/tt/1175tt.jpg","",""
"null","<div style=""font-size:60px;""> </div>","null","fixation","html-keyboard-response","307","1136108","0.0-6.0-0.43","2975437","co38728","norming","","","","","","",""
"null","../img/tt/599tt.jpg","null","mooney1","image-keyboard-response","308","1139114","0.0-6.0-1.43","2975437","co38728","norming","","","","","","",""
"3199.845000000205","","","post_mooney1_questions","survey-likert","309","1142315","0.0-6.0-2.43","2975437","co38728","norming","","","{""curiosity"":4,""confidence"":2}","[0,1]","../img/tt/599tt.jpg","",""
"1862.1999999999534","","","recognition","survey-text","310","1144179","0.0-6.0-3.43","2975437","co38728","norming","","","{""guess"":""een uil""}","","../img/tt/599tt.jpg","",""
"null","../img/gs/599gs.jpg","null","reveal","image-keyboard-response","311","1146185","0.0-6.0-4.43","2975437","co38728","norming","","","","","","",""
"null","../img/tt/599tt.jpg","null","mooney2","image-keyboard-response","312","1148187","0.0-6.0-5.43","2975437","co38728","norming","","","","","","",""
"2342.7050000000745","","","post_reveal_questions","survey-likert","313","1150531","0.0-6.0-6.43","2975437","co38728","norming","","","{""aha"":1}","[0]","../img/tt/599tt.jpg","",""
"null","<div style=""font-size:60px;""> </div>","null","fixation","html-keyboard-response","314","1150734","0.0-6.0-0.44","2975437","co38728","norming","","","","","","",""
"null","../img/tt/1061tt.jpg","null","mooney1","image-keyboard-response","315","1153737","0.0-6.0-1.44","2975437","co38728","norming","","","","","","",""
"7736.875","","","post_mooney1_questions","survey-likert","316","1161475","0.0-6.0-2.44","2975437","co38728","norming","","","{""curiosity"":3,""confidence"":3}","[0,1]","../img/tt/1061tt.jpg","",""
"2797.905000000028","","","recognition","survey-text","317","1164275","0.0-6.0-3.44","2975437","co38728","norming","","","{""guess"":""voetballers""}","","../img/tt/1061tt.jpg","",""
"null","../img/gs/1061gs.jpg","null","reveal","image-keyboard-response","318","1166276","0.0-6.0-4.44","2975437","co38728","norming","","","","","","",""
"null","../img/tt/1061tt.jpg","null","mooney2","image-keyboard-response","319","1168281","0.0-6.0-5.44","2975437","co38728","norming","","","","","","",""
"2793.0200000000186","","","post_reveal_questions","survey-likert","320","1171075","0.0-6.0-6.44","2975437","co38728","norming","","","{""aha"":3}","[0]","../img/tt/1061tt.jpg","",""
"null","<div style=""font-size:60px;""> </div>","null","fixation","html-keyboard-response","321","1171277","0.0-6.0-0.45","2975437","co38728","norming","","","","","","",""
"null","../img/tt/010tt.jpg","null","mooney1","image-keyboard-response","322","1174283","0.0-6.0-1.45","2975437","co38728","norming","","","","","","",""
"4807.604999999981","","","post_mooney1_questions","survey-likert","323","1179091","0.0-6.0-2.45","2975437","co38728","norming","","","{""curiosity"":6,""confidence"":0}","[0,1]","../img/tt/010tt.jpg","",""
"717.9899999999907","","","recognition","survey-text","324","1179811","0.0-6.0-3.45","2975437","co38728","norming","","","{""guess"":""""}","","../img/tt/010tt.jpg","",""
"null","../img/gs/010gs.jpg","null","reveal","image-keyboard-response","325","1181815","0.0-6.0-4.45","2975437","co38728","norming","","","","","","",""
"null","../img/tt/010tt.jpg","null","mooney2","image-keyboard-response","326","1183816","0.0-6.0-5.45","2975437","co38728","norming","","","","","","",""
"2537.744999999879","","","post_reveal_questions","survey-likert","327","1186351","0.0-6.0-6.45","2975437","co38728","norming","","","{""aha"":1}","[0]","../img/tt/010tt.jpg","",""
"null","<div style=""font-size:60px;""> </div>","null","fixation","html-keyboard-response","328","1186553","0.0-6.0-0.46","2975437","co38728","norming","","","","","","",""
"null","../img/tt/442tt.jpg","null","mooney1","image-keyboard-response","329","1189556","0.0-6.0-1.46","2975437","co38728","norming","","","","","","",""
"4242.170000000158","","","post_mooney1_questions","survey-likert","330","1193799","0.0-6.0-2.46","2975437","co38728","norming","","","{""curiosity"":5,""confidence"":1}","[0,1]","../img/tt/442tt.jpg","",""
"3958.0800000000745","","","recognition","survey-text","331","1197759","0.0-6.0-3.46","2975437","co38728","norming","","","{""guess"":""een isnsect""}","","../img/tt/442tt.jpg","",""
"null","../img/gs/442gs.jpg","null","reveal","image-keyboard-response","332","1199761","0.0-6.0-4.46","2975437","co38728","norming","","","","","","",""
"null","../img/tt/442tt.jpg","null","mooney2","image-keyboard-response","333","1201769","0.0-6.0-5.46","2975437","co38728","norming","","","","","","",""
"1964.4350000000559","","","post_reveal_questions","survey-likert","334","1203735","0.0-6.0-6.46","2975437","co38728","norming","","","{""aha"":3}","[0]","../img/tt/442tt.jpg","",""
"null","<div style=""font-size:60px;""> </div>","null","fixation","html-keyboard-response","335","1203937","0.0-6.0-0.47","2975437","co38728","norming","","","","","","",""
"null","../img/tt/1234tt.jpg","null","mooney1","image-keyboard-response","336","1206944","0.0-6.0-1.47","2975437","co38728","norming","","","","","","",""
"3389.2900000000373","","","post_mooney1_questions","survey-likert","337","1210335","0.0-6.0-2.47","2975437","co38728","norming","","","{""curiosity"":5,""confidence"":1}","[0,1]","../img/tt/1234tt.jpg","",""
"5549.645000000019","","","recognition","survey-text","338","1215887","0.0-6.0-3.47","2975437","co38728","norming","","","{""guess"":""een bootje ""}","","../img/tt/1234tt.jpg","",""
"null","../img/gs/1234gs.jpg","null","reveal","image-keyboard-response","339","1217889","0.0-6.0-4.47","2975437","co38728","norming","","","","","","",""
"null","../img/tt/1234tt.jpg","null","mooney2","image-keyboard-response","340","1219891","0.0-6.0-5.47","2975437","co38728","norming","","","","","","",""
"1898.7750000001397","","","post_reveal_questions","survey-likert","341","1221791","0.0-6.0-6.47","2975437","co38728","norming","","","{""aha"":4}","[0]","../img/tt/1234tt.jpg","",""
"null","<div style=""font-size:60px;""> </div>","null","fixation","html-keyboard-response","342","1221995","0.0-6.0-0.48","2975437","co38728","norming","","","","","","",""
"null","../img/tt/036tt.jpg","null","mooney1","image-keyboard-response","343","1224997","0.0-6.0-1.48","2975437","co38728","norming","","","","","","",""
"3816.2050000000745","","","post_mooney1_questions","survey-likert","344","1228815","0.0-6.0-2.48","2975437","co38728","norming","","","{""curiosity"":5,""confidence"":2}","[0,1]","../img/tt/036tt.jpg","",""
"3374.1200000001118","","","recognition","survey-text","345","1232191","0.0-6.0-3.48","2975437","co38728","norming","","","{""guess"":""bliksem""}","","../img/tt/036tt.jpg","",""
"null","../img/gs/036gs.jpg","null","reveal","image-keyboard-response","346","1234199","0.0-6.0-4.48","2975437","co38728","norming","","","","","","",""
"null","../img/tt/036tt.jpg","null","mooney2","image-keyboard-response","347","1236201","0.0-6.0-5.48","2975437","co38728","norming","","","","","","",""
"1989.2100000001956","","","post_reveal_questions","survey-likert","348","1238191","0.0-6.0-6.48","2975437","co38728","norming","","","{""aha"":0}","[0]","../img/tt/036tt.jpg","",""
"null","<div style=""font-size:60px;""> </div>","null","fixation","html-keyboard-response","349","1238392","0.0-6.0-0.49","2975437","co38728","norming","","","","","","",""
"null","../img/tt/222tt.jpg","null","mooney1","image-keyboard-response","350","1241393","0.0-6.0-1.49","2975437","co38728","norming","","","","","","",""
"4091.529999999795","","","post_mooney1_questions","survey-likert","351","1245487","0.0-6.0-2.49","2975437","co38728","norming","","","{""curiosity"":5,""confidence"":2}","[0,1]","../img/tt/222tt.jpg","",""
"1950.089999999851","","","recognition","survey-text","352","1247439","0.0-6.0-3.49","2975437","co38728","norming","","","{""guess"":""een boot""}","","../img/tt/222tt.jpg","",""
"null","../img/gs/222gs.jpg","null","reveal","image-keyboard-response","353","1249441","0.0-6.0-4.49","2975437","co38728","norming","","","","","","",""
"null","../img/tt/222tt.jpg","null","mooney2","image-keyboard-response","354","1251451","0.0-6.0-5.49","2975437","co38728","norming","","","","","","",""
"1762.6499999999069","","","post_reveal_questions","survey-likert","355","1253215","0.0-6.0-6.49","2975437","co38728","norming","","","{""aha"":5}","[0]","../img/tt/222tt.jpg","",""
"null","<div style=""font-size:60px;""> </div>","null","fixation","html-keyboard-response","356","1253423","0.0-6.0-0.50","2975437","co38728","norming","","","","","","",""
"null","../img/tt/189tt.jpg","null","mooney1","image-keyboard-response","357","1256431","0.0-6.0-1.50","2975437","co38728","norming","","","","","","",""
"4959.074999999953","","","post_mooney1_questions","survey-likert","358","1261391","0.0-6.0-2.50","2975437","co38728","norming","","","{""curiosity"":5,""confidence"":3}","[0,1]","../img/tt/189tt.jpg","",""
"3565.785000000149","","","recognition","survey-text","359","1264959","0.0-6.0-3.50","2975437","co38728","norming","","","{""guess"":""een zittende vrouw ""}","","../img/tt/189tt.jpg","",""
"null","../img/gs/189gs.jpg","null","reveal","image-keyboard-response","360","1266962","0.0-6.0-4.50","2975437","co38728","norming","","","","","","",""
"null","../img/tt/189tt.jpg","null","mooney2","image-keyboard-response","361","1268962","0.0-6.0-5.50","2975437","co38728","norming","","","","","","",""
"3123.5049999998882","","","post_reveal_questions","survey-likert","362","1272087","0.0-6.0-6.50","2975437","co38728","norming","","","{""aha"":3}","[0]","../img/tt/189tt.jpg","",""
"null","<div style=""font-size:60px;""> </div>","null","fixation","html-keyboard-response","363","1272288","0.0-6.0-0.51","2975437","co38728","norming","","","","","","",""
"null","../img/tt/1199tt.jpg","null","mooney1","image-keyboard-response","364","1275298","0.0-6.0-1.51","2975437","co38728","norming","","","","","","",""
"3339.8349999999627","","","post_mooney1_questions","survey-likert","365","1278639","0.0-6.0-2.51","2975437","co38728","norming","","","{""curiosity"":2,""confidence"":4}","[0,1]","../img/tt/1199tt.jpg","",""
"4334.01500000013","","","recognition","survey-text","366","1282975","0.0-6.0-3.51","2975437","co38728","norming","","","{""guess"":""iemand die turnt""}","","../img/tt/1199tt.jpg","",""
"null","../img/gs/1199gs.jpg","null","reveal","image-keyboard-response","367","1284978","0.0-6.0-4.51","2975437","co38728","norming","","","","","","",""
"null","../img/tt/1199tt.jpg","null","mooney2","image-keyboard-response","368","1286980","0.0-6.0-5.51","2975437","co38728","norming","","","","","","",""
"1633.3199999998324","","","post_reveal_questions","survey-likert","369","1288615","0.0-6.0-6.51","2975437","co38728","norming","","","{""aha"":0}","[0]","../img/tt/1199tt.jpg","",""
"null","<div style=""font-size:60px;""> </div>","null","fixation","html-keyboard-response","370","1288817","0.0-6.0-0.52","2975437","co38728","norming","","","","","","",""
"null","../img/tt/1217tt.jpg","null","mooney1","image-keyboard-response","371","1291818","0.0-6.0-1.52","2975437","co38728","norming","","","","","","",""
"3755.715000000084","","","post_mooney1_questions","survey-likert","372","1295575","0.0-6.0-2.52","2975437","co38728","norming","","","{""curiosity"":2,""confidence"":3}","[0,1]","../img/tt/1217tt.jpg","",""
"14838.20999999973","","","recognition","survey-text","373","1310423","0.0-6.0-3.52","2975437","co38728","norming","","","{""guess"":""football spelers ""}","","../img/tt/1217tt.jpg","",""
"null","../img/gs/1217gs.jpg","null","reveal","image-keyboard-response","374","1312427","0.0-6.0-4.52","2975437","co38728","norming","","","","","","",""
"null","../img/tt/1217tt.jpg","null","mooney2","image-keyboard-response","375","1314428","0.0-6.0-5.52","2975437","co38728","norming","","","","","","",""
"1425.8950000000186","","","post_reveal_questions","survey-likert","376","1315855","0.0-6.0-6.52","2975437","co38728","norming","","","{""aha"":0}","[0]","../img/tt/1217tt.jpg","",""
"null","<div style=""font-size:60px;""> </div>","null","fixation","html-keyboard-response","377","1316056","0.0-6.0-0.53","2975437","co38728","norming","","","","","","",""
"null","../img/tt/1118tt.jpg","null","mooney1","image-keyboard-response","378","1319057","0.0-6.0-1.53","2975437","co38728","norming","","","","","","",""
"3396.964999999851","","","post_mooney1_questions","survey-likert","379","1322455","0.0-6.0-2.53","2975437","co38728","norming","","","{""curiosity"":4,""confidence"":1}","[0,1]","../img/tt/1118tt.jpg","",""
"2286.1700000001583","","","recognition","survey-text","380","1324743","0.0-6.0-3.53","2975437","co38728","norming","","","{""guess"":""een brug""}","","../img/tt/1118tt.jpg","",""
"null","../img/gs/1118gs.jpg","null","reveal","image-keyboard-response","381","1326745","0.0-6.0-4.53","2975437","co38728","norming","","","","","","",""
"null","../img/tt/1118tt.jpg","null","mooney2","image-keyboard-response","382","1328747","0.0-6.0-5.53","2975437","co38728","norming","","","","","","",""
"2595.409999999916","","","post_reveal_questions","survey-likert","383","1331343","0.0-6.0-6.53","2975437","co38728","norming","","","{""aha"":5}","[0]","../img/tt/1118tt.jpg","",""
"null","<div style=""font-size:60px;""> </div>","null","fixation","html-keyboard-response","384","1331551","0.0-6.0-0.54","2975437","co38728","norming","","","","","","",""
"null","../img/tt/296tt.jpg","null","mooney1","image-keyboard-response","385","1334552","0.0-6.0-1.54","2975437","co38728","norming","","","","","","",""
"3405.9250000000466","","","post_mooney1_questions","survey-likert","386","1337959","0.0-6.0-2.54","2975437","co38728","norming","","","{""curiosity"":2,""confidence"":5}","[0,1]","../img/tt/296tt.jpg","",""
"3821.554999999935","","","recognition","survey-text","387","1341783","0.0-6.0-3.54","2975437","co38728","norming","","","{""guess"":""een dokterspraktijk""}","","../img/tt/296tt.jpg","",""
"null","../img/gs/296gs.jpg","null","reveal","image-keyboard-response","388","1343793","0.0-6.0-4.54","2975437","co38728","norming","","","","","","",""
"null","../img/tt/296tt.jpg","null","mooney2","image-keyboard-response","389","1345795","0.0-6.0-5.54","2975437","co38728","norming","","","","","","",""
"1346.4500000001863","","","post_reveal_questions","survey-likert","390","1347143","0.0-6.0-6.54","2975437","co38728","norming","","","{""aha"":1}","[0]","../img/tt/296tt.jpg","",""
"null","<div style=""font-size:60px;""> </div>","null","fixation","html-keyboard-response","391","1347344","0.0-6.0-0.55","2975437","co38728","norming","","","","","","",""
"null","../img/tt/1250tt.jpg","null","mooney1","image-keyboard-response","392","1350345","0.0-6.0-1.55","2975437","co38728","norming","","","","","","",""
"2685.489999999758","","","post_mooney1_questions","survey-likert","393","1353031","0.0-6.0-2.55","2975437","co38728","norming","","","{""curiosity"":3,""confidence"":4}","[0,1]","../img/tt/1250tt.jpg","",""
"3230.1850000002887","","","recognition","survey-text","394","1356263","0.0-6.0-3.55","2975437","co38728","norming","","","{""guess"":""een liggende beer""}","","../img/tt/1250tt.jpg","",""
"null","../img/gs/1250gs.jpg","null","reveal","image-keyboard-response","395","1358272","0.0-6.0-4.55","2975437","co38728","norming","","","","","","",""
"null","../img/tt/1250tt.jpg","null","mooney2","image-keyboard-response","396","1360273","0.0-6.0-5.55","2975437","co38728","norming","","","","","","",""
"1556.7900000000373","","","post_reveal_questions","survey-likert","397","1361831","0.0-6.0-6.55","2975437","co38728","norming","","","{""aha"":0}","[0]","../img/tt/1250tt.jpg","",""
"null","<div style=""font-size:60px;""> </div>","null","fixation","html-keyboard-response","398","1362036","0.0-6.0-0.56","2975437","co38728","norming","","","","","","",""
"null","../img/tt/1037tt.jpg","null","mooney1","image-keyboard-response","399","1365036","0.0-6.0-1.56","2975437","co38728","norming","","","","","","",""
"3641.589999999851","","","post_mooney1_questions","survey-likert","400","1368674","0.0-6.0-2.56","2975437","co38728","norming","","","{""curiosity"":5,""confidence"":1}","[0,1]","../img/tt/1037tt.jpg","",""
"2638.315000000177","","","recognition","survey-text","401","1371314","0.0-6.0-3.56","2975437","co38728","norming","","","{""guess"":""een dier""}","","../img/tt/1037tt.jpg","",""
"null","../img/gs/1037gs.jpg","null","reveal","image-keyboard-response","402","1373316","0.0-6.0-4.56","2975437","co38728","norming","","","","","","",""
"null","../img/tt/1037tt.jpg","null","mooney2","image-keyboard-response","403","1375319","0.0-6.0-5.56","2975437","co38728","norming","","","","","","",""
"1489.875","","","post_reveal_questions","survey-likert","404","1376810","0.0-6.0-6.56","2975437","co38728","norming","","","{""aha"":5}","[0]","../img/tt/1037tt.jpg","",""
"null","<div style=""font-size:60px;""> </div>","null","fixation","html-keyboard-response","405","1377020","0.0-6.0-0.57","2975437","co38728","norming","","","","","","",""
"null","../img/tt/1049tt.jpg","null","mooney1","image-keyboard-response","406","1380021","0.0-6.0-1.57","2975437","co38728","norming","","","","","","",""
"3595.5800000000745","","","post_mooney1_questions","survey-likert","407","1383618","0.0-6.0-2.57","2975437","co38728","norming","","","{""curiosity"":5,""confidence"":0}","[0,1]","../img/tt/1049tt.jpg","",""
"630.1149999997579","","","recognition","survey-text","408","1384249","0.0-6.0-3.57","2975437","co38728","norming","","","{""guess"":""""}","","../img/tt/1049tt.jpg","",""
"null","../img/gs/1049gs.jpg","null","reveal","image-keyboard-response","409","1386255","0.0-6.0-4.57","2975437","co38728","norming","","","","","","",""
"null","../img/tt/1049tt.jpg","null","mooney2","image-keyboard-response","410","1388261","0.0-6.0-5.57","2975437","co38728","norming","","","","","","",""
"2059.0399999998044","","","post_reveal_questions","survey-likert","411","1390322","0.0-6.0-6.57","2975437","co38728","norming","","","{""aha"":5}","[0]","../img/tt/1049tt.jpg","",""
"null","<div style=""font-size:60px;""> </div>","null","fixation","html-keyboard-response","412","1390524","0.0-6.0-0.58","2975437","co38728","norming","","","","","","",""
"null","../img/tt/001tt.jpg","null","mooney1","image-keyboard-response","413","1393526","0.0-6.0-1.58","2975437","co38728","norming","","","","","","",""
"2689.9849999998696","","","post_mooney1_questions","survey-likert","414","1396218","0.0-6.0-2.58","2975437","co38728","norming","","","{""curiosity"":6,""confidence"":0}","[0,1]","../img/tt/001tt.jpg","",""
"622.160000000149","","","recognition","survey-text","415","1396842","0.0-6.0-3.58","2975437","co38728","norming","","","{""guess"":""""}","","../img/tt/001tt.jpg","",""
"null","../img/gs/001gs.jpg","null","reveal","image-keyboard-response","416","1398849","0.0-6.0-4.58","2975437","co38728","norming","","","","","","",""
"null","../img/tt/001tt.jpg","null","mooney2","image-keyboard-response","417","1400851","0.0-6.0-5.58","2975437","co38728","norming","","","","","","",""
"2805.089999999851","","","post_reveal_questions","survey-likert","418","1403657","0.0-6.0-6.58","2975437","co38728","norming","","","{""aha"":3}","[0]","../img/tt/001tt.jpg","",""
"null","<div style=""font-size:60px;""> </div>","null","fixation","html-keyboard-response","419","1403859","0.0-6.0-0.59","2975437","co38728","norming","","","","","","",""
"null","../img/tt/358tt.jpg","null","mooney1","image-keyboard-response","420","1406861","0.0-6.0-1.59","2975437","co38728","norming","","","","","","",""
"3419.4499999999534","","","post_mooney1_questions","survey-likert","421","1410282","0.0-6.0-2.59","2975437","co38728","norming","","","{""curiosity"":6,""confidence"":0}","[0,1]","../img/tt/358tt.jpg","",""
"734.1350000000093","","","recognition","survey-text","422","1411017","0.0-6.0-3.59","2975437","co38728","norming","","","{""guess"":""""}","","../img/tt/358tt.jpg","",""
"null","../img/gs/358gs.jpg","null","reveal","image-keyboard-response","423","1413024","0.0-6.0-4.59","2975437","co38728","norming","","","","","","",""
"null","../img/tt/358tt.jpg","null","mooney2","image-keyboard-response","424","1415031","0.0-6.0-5.59","2975437","co38728","norming","","","","","","",""
"1520.9950000001118","","","post_reveal_questions","survey-likert","425","1416553","0.0-6.0-6.59","2975437","co38728","norming","","","{""aha"":5}","[0]","../img/tt/358tt.jpg","",""
"null","<div style=""font-size:60px;""> </div>","null","fixation","html-keyboard-response","426","1416756","0.0-6.0-0.60","2975437","co38728","norming","","","","","","",""
"null","../img/tt/405tt.jpg","null","mooney1","image-keyboard-response","427","1419757","0.0-6.0-1.60","2975437","co38728","norming","","","","","","",""
"5098.979999999981","","","post_mooney1_questions","survey-likert","428","1424858","0.0-6.0-2.60","2975437","co38728","norming","","","{""curiosity"":1,""confidence"":5}","[0,1]","../img/tt/405tt.jpg","",""
"2373.6149999999907","","","recognition","survey-text","429","1427232","0.0-6.0-3.60","2975437","co38728","norming","","","{""guess"":""een koala""}","","../img/tt/405tt.jpg","",""
"null","../img/gs/405gs.jpg","null","reveal","image-keyboard-response","430","1429233","0.0-6.0-4.60","2975437","co38728","norming","","","","","","",""
"null","../img/tt/405tt.jpg","null","mooney2","image-keyboard-response","431","1431235","0.0-6.0-5.60","2975437","co38728","norming","","","","","","",""
"2020.1799999999348","","","post_reveal_questions","survey-likert","432","1433256","0.0-6.0-6.60","2975437","co38728","norming","","","{""aha"":0}","[0]","../img/tt/405tt.jpg","",""
"null","<div style=""font-size:60px;""> </div>","null","fixation","html-keyboard-response","433","1433458","0.0-6.0-0.61","2975437","co38728","norming","","","","","","",""
"null","../img/tt/456tt.jpg","null","mooney1","image-keyboard-response","434","1436461","0.0-6.0-1.61","2975437","co38728","norming","","","","","","",""
"3370.8349999999627","","","post_mooney1_questions","survey-likert","435","1439833","0.0-6.0-2.61","2975437","co38728","norming","","","{""curiosity"":5,""confidence"":2}","[0,1]","../img/tt/456tt.jpg","",""
"1877.405000000028","","","recognition","survey-text","436","1441712","0.0-6.0-3.61","2975437","co38728","norming","","","{""guess"":""een dier""}","","../img/tt/456tt.jpg","",""
"null","../img/gs/456gs.jpg","null","reveal","image-keyboard-response","437","1443716","0.0-6.0-4.61","2975437","co38728","norming","","","","","","",""
"null","../img/tt/456tt.jpg","null","mooney2","image-keyboard-response","438","1445718","0.0-6.0-5.61","2975437","co38728","norming","","","","","","",""
"2536.465000000084","","","post_reveal_questions","survey-likert","439","1448256","0.0-6.0-6.61","2975437","co38728","norming","","","{""aha"":5}","[0]","../img/tt/456tt.jpg","",""
"null","<div style=""font-size:60px;""> </div>","null","fixation","html-keyboard-response","440","1448458","0.0-6.0-0.62","2975437","co38728","norming","","","","","","",""
"null","../img/tt/406tt.jpg","null","mooney1","image-keyboard-response","441","1451467","0.0-6.0-1.62","2975437","co38728","norming","","","","","","",""
"3115.6650000000373","","","post_mooney1_questions","survey-likert","442","1454584","0.0-6.0-2.62","2975437","co38728","norming","","","{""curiosity"":6,""confidence"":0}","[0,1]","../img/tt/406tt.jpg","",""
"701.6250000002328","","","recognition","survey-text","443","1455288","0.0-6.0-3.62","2975437","co38728","norming","","","{""guess"":""""}","","../img/tt/406tt.jpg","",""
"null","../img/gs/406gs.jpg","null","reveal","image-keyboard-response","444","1457290","0.0-6.0-4.62","2975437","co38728","norming","","","","","","",""
"null","../img/tt/406tt.jpg","null","mooney2","image-keyboard-response","445","1459292","0.0-6.0-5.62","2975437","co38728","norming","","","","","","",""
"1658.8249999999534","","","post_reveal_questions","survey-likert","446","1460952","0.0-6.0-6.62","2975437","co38728","norming","","","{""aha"":5}","[0]","../img/tt/406tt.jpg","",""
"null","<div style=""font-size:60px;""> </div>","null","fixation","html-keyboard-response","447","1461160","0.0-6.0-0.63","2975437","co38728","norming","","","","","","",""
"null","../img/tt/598tt.jpg","null","mooney1","image-keyboard-response","448","1464162","0.0-6.0-1.63","2975437","co38728","norming","","","","","","",""
"3149.6699999999255","","","post_mooney1_questions","survey-likert","449","1467313","0.0-6.0-2.63","2975437","co38728","norming","","","{""curiosity"":6,""confidence"":1}","[0,1]","../img/tt/598tt.jpg","",""
"3501.619999999879","","","recognition","survey-text","450","1470816","0.0-6.0-3.63","2975437","co38728","norming","","","{""guess"":""en kokosnoot""}","","../img/tt/598tt.jpg","",""
"null","../img/gs/598gs.jpg","null","reveal","image-keyboard-response","451","1472819","0.0-6.0-4.63","2975437","co38728","norming","","","","","","",""
"null","../img/tt/598tt.jpg","null","mooney2","image-keyboard-response","452","1474828","0.0-6.0-5.63","2975437","co38728","norming","","","","","","",""
"2995.3250000001863","","","post_reveal_questions","survey-likert","453","1477824","0.0-6.0-6.63","2975437","co38728","norming","","","{""aha"":5}","[0]","../img/tt/598tt.jpg","",""
"null","<div style=""font-size:60px;""> </div>","null","fixation","html-keyboard-response","454","1478025","0.0-6.0-0.64","2975437","co38728","norming","","","","","","",""
"null","../img/tt/1188tt.jpg","null","mooney1","image-keyboard-response","455","1481026","0.0-6.0-1.64","2975437","co38728","norming","","","","","","",""
"3596.159999999916","","","post_mooney1_questions","survey-likert","456","1484624","0.0-6.0-2.64","2975437","co38728","norming","","","{""curiosity"":4,""confidence"":1}","[0,1]","../img/tt/1188tt.jpg","",""
"6478.380000000121","","","recognition","survey-text","457","1491105","0.0-6.0-3.64","2975437","co38728","norming","","","{""guess"":""een portrerfoto van iemand""}","","../img/tt/1188tt.jpg","",""
"null","../img/gs/1188gs.jpg","null","reveal","image-keyboard-response","458","1493113","0.0-6.0-4.64","2975437","co38728","norming","","","","","","",""
"null","../img/tt/1188tt.jpg","null","mooney2","image-keyboard-response","459","1495114","0.0-6.0-5.64","2975437","co38728","norming","","","","","","",""
"1901.5","","","post_reveal_questions","survey-likert","460","1497017","0.0-6.0-6.64","2975437","co38728","norming","","","{""aha"":5}","[0]","../img/tt/1188tt.jpg","",""
"null","<div style=""font-size:60px;""> </div>","null","fixation","html-keyboard-response","461","1497219","0.0-6.0-0.65","2975437","co38728","norming","","","","","","",""
"null","../img/tt/055tt.jpg","null","mooney1","image-keyboard-response","462","1500223","0.0-6.0-1.65","2975437","co38728","norming","","","","","","",""
"4424.774999999907","","","post_mooney1_questions","survey-likert","463","1504649","0.0-6.0-2.65","2975437","co38728","norming","","","{""curiosity"":6,""confidence"":1}","[0,1]","../img/tt/055tt.jpg","",""
"2165.7900000000373","","","recognition","survey-text","464","1506817","0.0-6.0-3.65","2975437","co38728","norming","","","{""guess"":""een zadel""}","","../img/tt/055tt.jpg","",""
"null","../img/gs/055gs.jpg","null","reveal","image-keyboard-response","465","1508819","0.0-6.0-4.65","2975437","co38728","norming","","","","","","",""
"null","../img/tt/055tt.jpg","null","mooney2","image-keyboard-response","466","1510821","0.0-6.0-5.65","2975437","co38728","norming","","","","","","",""
"3626.894999999786","","","post_reveal_questions","survey-likert","467","1514449","0.0-6.0-6.65","2975437","co38728","norming","","","{""aha"":0}","[0]","../img/tt/055tt.jpg","",""
"null","<div style=""font-size:60px;""> </div>","null","fixation","html-keyboard-response","468","1514651","0.0-6.0-0.66","2975437","co38728","norming","","","","","","",""
"null","../img/tt/1226tt.jpg","null","mooney1","image-keyboard-response","469","1517658","0.0-6.0-1.66","2975437","co38728","norming","","","","","","",""
"4269.514999999898","","","post_mooney1_questions","survey-likert","470","1521929","0.0-6.0-2.66","2975437","co38728","norming","","","{""curiosity"":3,""confidence"":4}","[0,1]","../img/tt/1226tt.jpg","",""
"3525.8700000001118","","","recognition","survey-text","471","1525457","0.0-6.0-3.66","2975437","co38728","norming","","","{""guess"":""eenden/ganzen""}","","../img/tt/1226tt.jpg","",""
"null","../img/gs/1226gs.jpg","null","reveal","image-keyboard-response","472","1527467","0.0-6.0-4.66","2975437","co38728","norming","","","","","","",""
"null","../img/tt/1226tt.jpg","null","mooney2","image-keyboard-response","473","1529473","0.0-6.0-5.66","2975437","co38728","norming","","","","","","",""
"3374.7649999998976","","","post_reveal_questions","survey-likert","474","1532849","0.0-6.0-6.66","2975437","co38728","norming","","","{""aha"":3}","[0]","../img/tt/1226tt.jpg","",""
"null","<div style=""font-size:60px;""> </div>","null","fixation","html-keyboard-response","475","1533051","0.0-6.0-0.67","2975437","co38728","norming","","","","","","",""
"null","../img/tt/1156tt.jpg","null","mooney1","image-keyboard-response","476","1536052","0.0-6.0-1.67","2975437","co38728","norming","","","","","","",""
"4971.425000000047","","","post_mooney1_questions","survey-likert","477","1541025","0.0-6.0-2.67","2975437","co38728","norming","","","{""curiosity"":3,""confidence"":4}","[0,1]","../img/tt/1156tt.jpg","",""
"7022.034999999916","","","recognition","survey-text","478","1548055","0.0-6.0-3.67","2975437","co38728","norming","","","{""guess"":""een vrouw in bikini""}","","../img/tt/1156tt.jpg","",""
"null","../img/gs/1156gs.jpg","null","reveal","image-keyboard-response","479","1550057","0.0-6.0-4.67","2975437","co38728","norming","","","","","","",""
"null","../img/tt/1156tt.jpg","null","mooney2","image-keyboard-response","480","1552058","0.0-6.0-5.67","2975437","co38728","norming","","","","","","",""
"1564.0600000000559","","","post_reveal_questions","survey-likert","481","1553623","0.0-6.0-6.67","2975437","co38728","norming","","","{""aha"":1}","[0]","../img/tt/1156tt.jpg","",""
"null","<div style=""font-size:60px;""> </div>","null","fixation","html-keyboard-response","482","1553824","0.0-6.0-0.68","2975437","co38728","norming","","","","","","",""
"null","../img/tt/096tt.jpg","null","mooney1","image-keyboard-response","483","1556825","0.0-6.0-1.68","2975437","co38728","norming","","","","","","",""
"3148.964999999851","","","post_mooney1_questions","survey-likert","484","1559975","0.0-6.0-2.68","2975437","co38728","norming","","","{""curiosity"":4,""confidence"":4}","[0,1]","../img/tt/096tt.jpg","",""
"4574.060000000056","","","recognition","survey-text","485","1564551","0.0-6.0-3.68","2975437","co38728","norming","","","{""guess"":""een nietjesmachine""}","","../img/tt/096tt.jpg","",""
"null","../img/gs/096gs.jpg","null","reveal","image-keyboard-response","486","1566556","0.0-6.0-4.68","2975437","co38728","norming","","","","","","",""
"null","../img/tt/096tt.jpg","null","mooney2","image-keyboard-response","487","1568566","0.0-6.0-5.68","2975437","co38728","norming","","","","","","",""
"2120.344999999972","","","post_reveal_questions","survey-likert","488","1570687","0.0-6.0-6.68","2975437","co38728","norming","","","{""aha"":2}","[0]","../img/tt/096tt.jpg","",""
"null","<div style=""font-size:60px;""> </div>","null","fixation","html-keyboard-response","489","1570888","0.0-6.0-0.69","2975437","co38728","norming","","","","","","",""
"null","../img/tt/1243tt.jpg","null","mooney1","image-keyboard-response","490","1573889","0.0-6.0-1.69","2975437","co38728","norming","","","","","","",""
"3668.9199999996927","","","post_mooney1_questions","survey-likert","491","1577559","0.0-6.0-2.69","2975437","co38728","norming","","","{""curiosity"":2,""confidence"":4}","[0,1]","../img/tt/1243tt.jpg","",""
"11613.84999999986","","","recognition","survey-text","492","1589175","0.0-6.0-3.69","2975437","co38728","norming","","","{""guess"":""een aap in kooi""}","","../img/tt/1243tt.jpg","",""
"null","../img/gs/1243gs.jpg","null","reveal","image-keyboard-response","493","1591181","0.0-6.0-4.69","2975437","co38728","norming","","","","","","",""
"null","../img/tt/1243tt.jpg","null","mooney2","image-keyboard-response","494","1593186","0.0-6.0-5.69","2975437","co38728","norming","","","","","","",""
"3027.589999999851","","","post_reveal_questions","survey-likert","495","1596215","0.0-6.0-6.69","2975437","co38728","norming","","","{""aha"":4}","[0]","../img/tt/1243tt.jpg","",""
"null","<div style=""font-size:60px;""> </div>","null","fixation","html-keyboard-response","496","1596417","0.0-6.0-0.70","2975437","co38728","norming","","","","","","",""
"null","../img/tt/1276tt.jpg","null","mooney1","image-keyboard-response","497","1599423","0.0-6.0-1.70","2975437","co38728","norming","","","","","","",""
"4262.559999999823","","","post_mooney1_questions","survey-likert","498","1603687","0.0-6.0-2.70","2975437","co38728","norming","","","{""curiosity"":6,""confidence"":0}","[0,1]","../img/tt/1276tt.jpg","",""
"989.8649999999907","","","recognition","survey-text","499","1604679","0.0-6.0-3.70","2975437","co38728","norming","","","{""guess"":""""}","","../img/tt/1276tt.jpg","",""
"null","../img/gs/1276gs.jpg","null","reveal","image-keyboard-response","500","1606684","0.0-6.0-4.70","2975437","co38728","norming","","","","","","",""
"null","../img/tt/1276tt.jpg","null","mooney2","image-keyboard-response","501","1608688","0.0-6.0-5.70","2975437","co38728","norming","","","","","","",""
"2111.589999999851","","","post_reveal_questions","survey-likert","502","1610800","0.0-6.0-6.70","2975437","co38728","norming","","","{""aha"":4}","[0]","../img/tt/1276tt.jpg","",""
"null","<div style=""font-size:60px;""> </div>","null","fixation","html-keyboard-response","503","1611011","0.0-6.0-0.71","2975437","co38728","norming","","","","","","",""
"null","../img/tt/1366tt.jpg","null","mooney1","image-keyboard-response","504","1614012","0.0-6.0-1.71","2975437","co38728","norming","","","","","","",""
"4171.5800000000745","","","post_mooney1_questions","survey-likert","505","1618184","0.0-6.0-2.71","2975437","co38728","norming","","","{""curiosity"":4,""confidence"":3}","[0,1]","../img/tt/1366tt.jpg","",""
"3277.909999999916","","","recognition","survey-text","506","1621464","0.0-6.0-3.71","2975437","co38728","norming","","","{""guess"":""een tortilla""}","","../img/tt/1366tt.jpg","",""
"null","../img/gs/1366gs.jpg","null","reveal","image-keyboard-response","507","1623471","0.0-6.0-4.71","2975437","co38728","norming","","","","","","",""
"null","../img/tt/1366tt.jpg","null","mooney2","image-keyboard-response","508","1625472","0.0-6.0-5.71","2975437","co38728","norming","","","","","","",""
"1391.0400000000373","","","post_reveal_questions","survey-likert","509","1626864","0.0-6.0-6.71","2975437","co38728","norming","","","{""aha"":0}","[0]","../img/tt/1366tt.jpg","",""
"null","<div style=""font-size:60px;""> </div>","null","fixation","html-keyboard-response","510","1627065","0.0-6.0-0.72","2975437","co38728","norming","","","","","","",""
"null","../img/tt/435tt.jpg","null","mooney1","image-keyboard-response","511","1630072","0.0-6.0-1.72","2975437","co38728","norming","","","","","","",""
"6927.559999999823","","","post_mooney1_questions","survey-likert","512","1637001","0.0-6.0-2.72","2975437","co38728","norming","","","{""curiosity"":4,""confidence"":2}","[0,1]","../img/tt/435tt.jpg","",""
"8205.10999999987","","","recognition","survey-text","513","1645208","0.0-6.0-3.72","2975437","co38728","norming","","","{""guess"":""uitzicht vanuit autoraam""}","","../img/tt/435tt.jpg","",""
"null","../img/gs/435gs.jpg","null","reveal","image-keyboard-response","514","1647217","0.0-6.0-4.72","2975437","co38728","norming","","","","","","",""
"null","../img/tt/435tt.jpg","null","mooney2","image-keyboard-response","515","1649218","0.0-6.0-5.72","2975437","co38728","norming","","","","","","",""
"1821.4350000000559","","","post_reveal_questions","survey-likert","516","1651040","0.0-6.0-6.72","2975437","co38728","norming","","","{""aha"":6}","[0]","../img/tt/435tt.jpg","",""
"null","<div style=""font-size:60px;""> </div>","null","fixation","html-keyboard-response","517","1651247","0.0-6.0-0.73","2975437","co38728","norming","","","","","","",""
"null","../img/tt/1154tt.jpg","null","mooney1","image-keyboard-response","518","1654256","0.0-6.0-1.73","2975437","co38728","norming","","","","","","",""
"5652.5","","","post_mooney1_questions","survey-likert","519","1659912","0.0-6.0-2.73","2975437","co38728","norming","","","{""curiosity"":4,""confidence"":2}","[0,1]","../img/tt/1154tt.jpg","",""
"4190.010000000009","","","recognition","survey-text","520","1664104","0.0-6.0-3.73","2975437","co38728","norming","","","{""guess"":""kajak""}","","../img/tt/1154tt.jpg","",""
"null","../img/gs/1154gs.jpg","null","reveal","image-keyboard-response","521","1666111","0.0-6.0-4.73","2975437","co38728","norming","","","","","","",""
"null","../img/tt/1154tt.jpg","null","mooney2","image-keyboard-response","522","1668113","0.0-6.0-5.73","2975437","co38728","norming","","","","","","",""
"1782.3799999998882","","","post_reveal_questions","survey-likert","523","1669896","0.0-6.0-6.73","2975437","co38728","norming","","","{""aha"":0}","[0]","../img/tt/1154tt.jpg","",""
"null","<div style=""font-size:60px;""> </div>","null","fixation","html-keyboard-response","524","1670106","0.0-6.0-0.74","2975437","co38728","norming","","","","","","",""
"null","../img/tt/1189tt.jpg","null","mooney1","image-keyboard-response","525","1673107","0.0-6.0-1.74","2975437","co38728","norming","","","","","","",""
"3892.494999999879","","","post_mooney1_questions","survey-likert","526","1677000","0.0-6.0-2.74","2975437","co38728","norming","","","{""curiosity"":6,""confidence"":0}","[0,1]","../img/tt/1189tt.jpg","",""
"886.4699999999721","","","recognition","survey-text","527","1677889","0.0-6.0-3.74","2975437","co38728","norming","","","{""guess"":""""}","","../img/tt/1189tt.jpg","",""
"null","../img/gs/1189gs.jpg","null","reveal","image-keyboard-response","528","1679895","0.0-6.0-4.74","2975437","co38728","norming","","","","","","",""
"null","../img/tt/1189tt.jpg","null","mooney2","image-keyboard-response","529","1681898","0.0-6.0-5.74","2975437","co38728","norming","","","","","","",""
"2116.434999999823","","","post_reveal_questions","survey-likert","530","1684016","0.0-6.0-6.74","2975437","co38728","norming","","","{""aha"":2}","[0]","../img/tt/1189tt.jpg","",""
"null","<div style=""font-size:60px;""> </div>","null","fixation","html-keyboard-response","531","1684217","0.0-6.0-0.75","2975437","co38728","norming","","","","","","",""
"null","../img/tt/273tt.jpg","null","mooney1","image-keyboard-response","532","1687219","0.0-6.0-1.75","2975437","co38728","norming","","","","","","",""
"4635.659999999916","","","post_mooney1_questions","survey-likert","533","1691856","0.0-6.0-2.75","2975437","co38728","norming","","","{""curiosity"":4,""confidence"":1}","[0,1]","../img/tt/273tt.jpg","",""
"2630.010000000242","","","recognition","survey-text","534","1694488","0.0-6.0-3.75","2975437","co38728","norming","","","{""guess"":""een arm""}","","../img/tt/273tt.jpg","",""
"null","../img/gs/273gs.jpg","null","reveal","image-keyboard-response","535","1696496","0.0-6.0-4.75","2975437","co38728","norming","","","","","","",""
"null","../img/tt/273tt.jpg","null","mooney2","image-keyboard-response","536","1698497","0.0-6.0-5.75","2975437","co38728","norming","","","","","","",""
"2126.274999999907","","","post_reveal_questions","survey-likert","537","1700624","0.0-6.0-6.75","2975437","co38728","norming","","","{""aha"":6}","[0]","../img/tt/273tt.jpg","",""
"null","<div style=""font-size:60px;""> </div>","null","fixation","html-keyboard-response","538","1700835","0.0-6.0-0.76","2975437","co38728","norming","","","","","","",""
"null","../img/tt/1186tt.jpg","null","mooney1","image-keyboard-response","539","1703839","0.0-6.0-1.76","2975437","co38728","norming","","","","","","",""
"3983.9249999998137","","","post_mooney1_questions","survey-likert","540","1707824","0.0-6.0-2.76","2975437","co38728","norming","","","{""curiosity"":4,""confidence"":2}","[0,1]","../img/tt/1186tt.jpg","",""
"8070.199999999953","","","recognition","survey-text","541","1715896","0.0-6.0-3.76","2975437","co38728","norming","","","{""guess"":""rollerblaiden""}","","../img/tt/1186tt.jpg","",""
"null","../img/gs/1186gs.jpg","null","reveal","image-keyboard-response","542","1717905","0.0-6.0-4.76","2975437","co38728","norming","","","","","","",""
"null","../img/tt/1186tt.jpg","null","mooney2","image-keyboard-response","543","1719907","0.0-6.0-5.76","2975437","co38728","norming","","","","","","",""
"2067.4500000001863","","","post_reveal_questions","survey-likert","544","1721976","0.0-6.0-6.76","2975437","co38728","norming","","","{""aha"":0}","[0]","../img/tt/1186tt.jpg","",""
"null","<div style=""font-size:60px;""> </div>","null","fixation","html-keyboard-response","545","1722186","0.0-6.0-0.77","2975437","co38728","norming","","","","","","",""
"null","../img/tt/1089tt.jpg","null","mooney1","image-keyboard-response","546","1725190","0.0-6.0-1.77","2975437","co38728","norming","","","","","","",""
"4383.485000000102","","","post_mooney1_questions","survey-likert","547","1729574","0.0-6.0-2.77","2975437","co38728","norming","","","{""curiosity"":4,""confidence"":2}","[0,1]","../img/tt/1089tt.jpg","",""
"1390.1100000001024","","","recognition","survey-text","548","1730966","0.0-6.0-3.77","2975437","co38728","norming","","","{""guess"":""koe""}","","../img/tt/1089tt.jpg","",""
"null","../img/gs/1089gs.jpg","null","reveal","image-keyboard-response","549","1732968","0.0-6.0-4.77","2975437","co38728","norming","","","","","","",""
"null","../img/tt/1089tt.jpg","null","mooney2","image-keyboard-response","550","1734971","0.0-6.0-5.77","2975437","co38728","norming","","","","","","",""
