"rt","stimulus","key_press","test_part","trial_type","trial_index","time_elapsed","internal_node_id","totalTime","subject","experiment_name","button_pressed","success","responses","question_order","currentStim","old","correct"
"9243.634999999984","Welcome to the experiment. This is an online experiment so please don't close the tab/window until we say goodbye.  Press any key to begin.","32","instructions","html-keyboard-response","0","9260","0.0-0.0","3011036","co38611","norming","","","","","","",""
"64070.64500000002","<div style='word-wrap: break-word; width: 900px'><h3>Please consider this information carefully before deciding whether to participate in this research</h3><ul style='text-align: left; font-size: .8em;'><li><b>Purpose of the research</b>: To examine how people process images.</li><li><b>What you will do in this research</b>:  Stimuli (images) will be presented on the computer and you will be asked different questions about them.</li><li><b>Time required</b>: Participation will take between 45 and 60 minutes to complete.</li><li><b>Risks</b>:  There are no anticipated risks associated with participating in this study. The effects of participating should be comparable to those you would experience from viewing a computer monitor for 30 minutes and using a mouse or keyboard.</li><li><b>Benefits</b>:  This study provides no benefits to you individually except for the credit. The study provides important information about the nature of perception and learning.</li><li><b>Confidentiality</b>:  Your participation in this study will remain confidential. No personally identifiable information will be associated with your data. Your de-identified data may be shared with other researchers and used in future projects.</li><li><b>Participation and withdrawal</b>:  Your participation in this study is completely voluntary and you may refuse to participate or you may choose to withdraw at any time without penalty.</li><li><b>How to contact the researchers</b>: If you have questions or concerns about your participation or payment, or want to request a summary of research findings, please contact Sander Van de Cruys (KU Leuven), at sander.vandecruys@kuleuven.be.</li></ul><p>The nature and purpose of this research have been sufficiently explained and I agree to participate in this study.  I understand that I am free to withdraw at any time without incurring any penalty.</p><p>Please consent by clicking the button below to continue. Otherwise, please exit the study at this time.</p></div>","","instructions","html-button-response","1","73331","0.0-1.0","3011036","co38611","norming","0","","","","","",""
"","","","instructions","fullscreen","2","76651","0.0-2.0","3011036","co38611","norming","","true","","","","",""
"27965.770000000033","","","sona","survey-html-form","3","104619","0.0-3.0","3011036","co38611","norming","","","[{""name"":""sonaid"",""value"":""38611""},{""name"":""debrief"",""value"":""yes""},{""name"":""datajoin"",""value"":""yes""}]","","","",""
"79262.36500000005","<div style='word-wrap: break-word; width: 900px'><h3>Instructions</h3><p>This experiment will have 3 parts. In the first part you will see a series of distorted images like the one below on the left. As you can see in the righthand image, the distorted images are derived from actual photographs. In what follows, you will <strong>briefly</strong> be presented with <strong>only</strong> the distorted image.</p> <div style='float: left; margin-right: 20px;'><img src='../img/018tt.jpg' height='250' width='250'></img></div><div style='float: right; margin-left: 20px;'><img src='../img/018gs.jpg' height='250' width='250'></img></div><p>Subsequently you will be asked a few questions about the image: One question on how <strong>curious</strong> you are about the solution and one on how <strong>confident</strong> you are that you know the solution.</p>Next, we ask you to make a guess on what is in the image. Note that it is OK to name just the <strong>basic level category</strong>. For example when you see a parrot in the image, 'parrot' will obviously be a correct answer but also correct is 'bird'. However, 'animal' will <strong>not</strong> be counted as a correct response. For the example above, 'rose' would be correct or 'flower', but not 'plant'. When soccer players are depicted, 'soccer', 'football', 'soccer players' will be correct, but not 'humans', 'outdoors', or 'sports'. You do not need to describe the image in full, just name the main object in it <strong>in one or two words</strong>. All images depict objects from one of the following broad level categories: animals, inanimate objects, plants, sports, vehicles, and food. Recognizing means knowing <strong>more</strong> than these broad labels for a given image. But we always encourage you to <strong>make a guess</strong> if you can. Note that you are allowed to use <strong>Dutch and English</strong> in your answers, whatever comes easiest for you.</p><p>Press any key to continue.</p></div>","32","instructions","html-keyboard-response","4","183869","0.0-4.0","3011036","co38611","norming","","","","","","",""
"60239.58999999997","<div style='word-wrap: break-word; width: 900px'><h3>Instructions</h3> <p>Next, the solution image will be revealed to you and you'll be asked to indicate how strong your <strong>aha-experience</strong> was after seeing the solution. This describes the positive feeling of the 'click' you sometimes experience, when the pieces of the 'puzzle' fall together and you suddenly have 'insight' in the image.</p><img src='aha.jpg' height='188' width='250'></img><p>Note that there are no right or wrong answers. We are interested in what <strong>you</strong> see in the image and how <strong>you</strong> feel about it.</p><p>Press any key to start the experiment.</p></div>","32","instructions","html-keyboard-response","5","244072","0.0-5.0","3011036","co38611","norming","","","","","","",""
"null","<div style=""font-size:60px;""> </div>","null","fixation","html-keyboard-response","6","244278","0.0-6.0-0.0","3011036","co38611","norming","","","","","","",""
"null","../img/tt/040tt.jpg","null","mooney1","image-keyboard-response","7","247284","0.0-6.0-1.0","3011036","co38611","norming","","","","","","",""
"10026.48000000001","","","post_mooney1_questions","survey-likert","8","257316","0.0-6.0-2.0","3011036","co38611","norming","","","{""curiosity"":5,""confidence"":1}","[0,1]","../img/tt/040tt.jpg","",""
"6240.369999999995","","","recognition","survey-text","9","263560","0.0-6.0-3.0","3011036","co38611","norming","","","{""guess"":""koala""}","","../img/tt/040tt.jpg","",""
"null","../img/gs/040gs.jpg","null","reveal","image-keyboard-response","10","265565","0.0-6.0-4.0","3011036","co38611","norming","","","","","","",""
"null","../img/tt/040tt.jpg","null","mooney2","image-keyboard-response","11","267573","0.0-6.0-5.0","3011036","co38611","norming","","","","","","",""
"10025.640000000014","","","post_reveal_questions","survey-likert","12","277600","0.0-6.0-6.0","3011036","co38611","norming","","","{""aha"":6}","[0]","../img/tt/040tt.jpg","",""
"null","<div style=""font-size:60px;""> </div>","null","fixation","html-keyboard-response","13","277804","0.0-6.0-0.1","3011036","co38611","norming","","","","","","",""
"null","../img/tt/1235tt.jpg","null","mooney1","image-keyboard-response","14","280809","0.0-6.0-1.1","3011036","co38611","norming","","","","","","",""
"5734.429999999993","","","post_mooney1_questions","survey-likert","15","286547","0.0-6.0-2.1","3011036","co38611","norming","","","{""curiosity"":5,""confidence"":0}","[0,1]","../img/tt/1235tt.jpg","",""
"8191.689999999944","","","recognition","survey-text","16","294746","0.0-6.0-3.1","3011036","co38611","norming","","","{""guess"":""grass""}","","../img/tt/1235tt.jpg","",""
"null","../img/gs/1235gs.jpg","null","reveal","image-keyboard-response","17","296758","0.0-6.0-4.1","3011036","co38611","norming","","","","","","",""
"null","../img/tt/1235tt.jpg","null","mooney2","image-keyboard-response","18","298768","0.0-6.0-5.1","3011036","co38611","norming","","","","","","",""
"3270.835000000021","","","post_reveal_questions","survey-likert","19","302042","0.0-6.0-6.1","3011036","co38611","norming","","","{""aha"":6}","[0]","../img/tt/1235tt.jpg","",""
"null","<div style=""font-size:60px;""> </div>","null","fixation","html-keyboard-response","20","302249","0.0-6.0-0.2","3011036","co38611","norming","","","","","","",""
"null","../img/tt/1290tt.jpg","null","mooney1","image-keyboard-response","21","305229","0.0-6.0-1.2","3011036","co38611","norming","","","","","","",""
"6255.755000000063","","","post_mooney1_questions","survey-likert","22","311488","0.0-6.0-2.2","3011036","co38611","norming","","","{""curiosity"":4,""confidence"":1}","[0,1]","../img/tt/1290tt.jpg","",""
"3624.9500000000116","","","recognition","survey-text","23","315119","0.0-6.0-3.2","3011036","co38611","norming","","","{""guess"":""bomb""}","","../img/tt/1290tt.jpg","",""
"null","../img/gs/1290gs.jpg","null","reveal","image-keyboard-response","24","317130","0.0-6.0-4.2","3011036","co38611","norming","","","","","","",""
"null","../img/tt/1290tt.jpg","null","mooney2","image-keyboard-response","25","319141","0.0-6.0-5.2","3011036","co38611","norming","","","","","","",""
"3320.304999999935","","","post_reveal_questions","survey-likert","26","322464","0.0-6.0-6.2","3011036","co38611","norming","","","{""aha"":6}","[0]","../img/tt/1290tt.jpg","",""
"null","<div style=""font-size:60px;""> </div>","null","fixation","html-keyboard-response","27","322669","0.0-6.0-0.3","3011036","co38611","norming","","","","","","",""
"null","../img/tt/497tt.jpg","null","mooney1","image-keyboard-response","28","325672","0.0-6.0-1.3","3011036","co38611","norming","","","","","","",""
"8517.219999999972","","","post_mooney1_questions","survey-likert","29","334193","0.0-6.0-2.3","3011036","co38611","norming","","","{""curiosity"":3,""confidence"":3}","[0,1]","../img/tt/497tt.jpg","",""
"8433.015000000072","","","recognition","survey-text","30","342631","0.0-6.0-3.3","3011036","co38611","norming","","","{""guess"":""vuurtje""}","","../img/tt/497tt.jpg","",""
"null","../img/gs/497gs.jpg","null","reveal","image-keyboard-response","31","344640","0.0-6.0-4.3","3011036","co38611","norming","","","","","","",""
"null","../img/tt/497tt.jpg","null","mooney2","image-keyboard-response","32","346645","0.0-6.0-5.3","3011036","co38611","norming","","","","","","",""
"3400.4150000000955","","","post_reveal_questions","survey-likert","33","350048","0.0-6.0-6.3","3011036","co38611","norming","","","{""aha"":2}","[0]","../img/tt/497tt.jpg","",""
"null","<div style=""font-size:60px;""> </div>","null","fixation","html-keyboard-response","34","350250","0.0-6.0-0.4","3011036","co38611","norming","","","","","","",""
"null","../img/tt/405tt.jpg","null","mooney1","image-keyboard-response","35","353255","0.0-6.0-1.4","3011036","co38611","norming","","","","","","",""
"5333.039999999979","","","post_mooney1_questions","survey-likert","36","358592","0.0-6.0-2.4","3011036","co38611","norming","","","{""curiosity"":4,""confidence"":2}","[0,1]","../img/tt/405tt.jpg","",""
"3290.085000000021","","","recognition","survey-text","37","361887","0.0-6.0-3.4","3011036","co38611","norming","","","{""guess"":""koala""}","","../img/tt/405tt.jpg","",""
"null","../img/gs/405gs.jpg","null","reveal","image-keyboard-response","38","363897","0.0-6.0-4.4","3011036","co38611","norming","","","","","","",""
"null","../img/tt/405tt.jpg","null","mooney2","image-keyboard-response","39","365870","0.0-6.0-5.4","3011036","co38611","norming","","","","","","",""
"3943.0200000000186","","","post_reveal_questions","survey-likert","40","369816","0.0-6.0-6.4","3011036","co38611","norming","","","{""aha"":1}","[0]","../img/tt/405tt.jpg","",""
"null","<div style=""font-size:60px;""> </div>","null","fixation","html-keyboard-response","41","370022","0.0-6.0-0.5","3011036","co38611","norming","","","","","","",""
"null","../img/tt/1070tt.jpg","null","mooney1","image-keyboard-response","42","373031","0.0-6.0-1.5","3011036","co38611","norming","","","","","","",""
"4662.02999999997","","","post_mooney1_questions","survey-likert","43","377697","0.0-6.0-2.5","3011036","co38611","norming","","","{""curiosity"":4,""confidence"":2}","[0,1]","../img/tt/1070tt.jpg","",""
"3175.5849999999627","","","recognition","survey-text","44","380878","0.0-6.0-3.5","3011036","co38611","norming","","","{""guess"":""pie""}","","../img/tt/1070tt.jpg","",""
"null","../img/gs/1070gs.jpg","null","reveal","image-keyboard-response","45","382880","0.0-6.0-4.5","3011036","co38611","norming","","","","","","",""
"null","../img/tt/1070tt.jpg","null","mooney2","image-keyboard-response","46","384888","0.0-6.0-5.5","3011036","co38611","norming","","","","","","",""
"2893.534999999916","","","post_reveal_questions","survey-likert","47","387783","0.0-6.0-6.5","3011036","co38611","norming","","","{""aha"":1}","[0]","../img/tt/1070tt.jpg","",""
"null","<div style=""font-size:60px;""> </div>","null","fixation","html-keyboard-response","48","387991","0.0-6.0-0.6","3011036","co38611","norming","","","","","","",""
"null","../img/tt/055tt.jpg","null","mooney1","image-keyboard-response","49","390999","0.0-6.0-1.6","3011036","co38611","norming","","","","","","",""
"6197.749999999942","","","post_mooney1_questions","survey-likert","50","397200","0.0-6.0-2.6","3011036","co38611","norming","","","{""curiosity"":3,""confidence"":0}","[0,1]","../img/tt/055tt.jpg","",""
"6585.695000000007","","","recognition","survey-text","51","403791","0.0-6.0-3.6","3011036","co38611","norming","","","{""guess"":""boot""}","","../img/tt/055tt.jpg","",""
"null","../img/gs/055gs.jpg","null","reveal","image-keyboard-response","52","405802","0.0-6.0-4.6","3011036","co38611","norming","","","","","","",""
"null","../img/tt/055tt.jpg","null","mooney2","image-keyboard-response","53","407805","0.0-6.0-5.6","3011036","co38611","norming","","","","","","",""
"6175.335000000021","","","post_reveal_questions","survey-likert","54","413984","0.0-6.0-6.6","3011036","co38611","norming","","","{""aha"":3}","[0]","../img/tt/055tt.jpg","",""
"null","<div style=""font-size:60px;""> </div>","null","fixation","html-keyboard-response","55","414195","0.0-6.0-0.7","3011036","co38611","norming","","","","","","",""
"null","../img/tt/060tt.jpg","null","mooney1","image-keyboard-response","56","417202","0.0-6.0-1.7","3011036","co38611","norming","","","","","","",""
"4739.024999999965","","","post_mooney1_questions","survey-likert","57","421944","0.0-6.0-2.7","3011036","co38611","norming","","","{""curiosity"":4,""confidence"":1}","[0,1]","../img/tt/060tt.jpg","",""
"2849.4899999999325","","","recognition","survey-text","58","424797","0.0-6.0-3.7","3011036","co38611","norming","","","{""guess"":""bread""}","","../img/tt/060tt.jpg","",""
"null","../img/gs/060gs.jpg","null","reveal","image-keyboard-response","59","426775","0.0-6.0-4.7","3011036","co38611","norming","","","","","","",""
"null","../img/tt/060tt.jpg","null","mooney2","image-keyboard-response","60","428783","0.0-6.0-5.7","3011036","co38611","norming","","","","","","",""
"5381.425000000047","","","post_reveal_questions","survey-likert","61","434168","0.0-6.0-6.7","3011036","co38611","norming","","","{""aha"":3}","[0]","../img/tt/060tt.jpg","",""
"null","<div style=""font-size:60px;""> </div>","null","fixation","html-keyboard-response","62","434372","0.0-6.0-0.8","3011036","co38611","norming","","","","","","",""
"null","../img/tt/1089tt.jpg","null","mooney1","image-keyboard-response","63","437379","0.0-6.0-1.8","3011036","co38611","norming","","","","","","",""
"6850.0800000000745","","","post_mooney1_questions","survey-likert","64","444233","0.0-6.0-2.8","3011036","co38611","norming","","","{""curiosity"":5,""confidence"":1}","[0,1]","../img/tt/1089tt.jpg","",""
"3648.960000000021","","","recognition","survey-text","65","447887","0.0-6.0-3.8","3011036","co38611","norming","","","{""guess"":""lobster""}","","../img/tt/1089tt.jpg","",""
"null","../img/gs/1089gs.jpg","null","reveal","image-keyboard-response","66","449890","0.0-6.0-4.8","3011036","co38611","norming","","","","","","",""
"null","../img/tt/1089tt.jpg","null","mooney2","image-keyboard-response","67","451893","0.0-6.0-5.8","3011036","co38611","norming","","","","","","",""
"6183.724999999977","","","post_reveal_questions","survey-likert","68","458080","0.0-6.0-6.8","3011036","co38611","norming","","","{""aha"":6}","[0]","../img/tt/1089tt.jpg","",""
"null","<div style=""font-size:60px;""> </div>","null","fixation","html-keyboard-response","69","458287","0.0-6.0-0.9","3011036","co38611","norming","","","","","","",""
"null","../img/tt/111tt.jpg","null","mooney1","image-keyboard-response","70","461290","0.0-6.0-1.9","3011036","co38611","norming","","","","","","",""
"10547.409999999974","","","post_mooney1_questions","survey-likert","71","471841","0.0-6.0-2.9","3011036","co38611","norming","","","{""curiosity"":5,""confidence"":1}","[0,1]","../img/tt/111tt.jpg","",""
"6432.604999999923","","","recognition","survey-text","72","478279","0.0-6.0-3.9","3011036","co38611","norming","","","{""guess"":""record player""}","","../img/tt/111tt.jpg","",""
"null","../img/gs/111gs.jpg","null","reveal","image-keyboard-response","73","480287","0.0-6.0-4.9","3011036","co38611","norming","","","","","","",""
"null","../img/tt/111tt.jpg","null","mooney2","image-keyboard-response","74","482298","0.0-6.0-5.9","3011036","co38611","norming","","","","","","",""
"2667","","","post_reveal_questions","survey-likert","75","484968","0.0-6.0-6.9","3011036","co38611","norming","","","{""aha"":6}","[0]","../img/tt/111tt.jpg","",""
"null","<div style=""font-size:60px;""> </div>","null","fixation","html-keyboard-response","76","485178","0.0-6.0-0.10","3011036","co38611","norming","","","","","","",""
"null","../img/tt/584tt.jpg","null","mooney1","image-keyboard-response","77","488169","0.0-6.0-1.10","3011036","co38611","norming","","","","","","",""
"5989.120000000054","","","post_mooney1_questions","survey-likert","78","494162","0.0-6.0-2.10","3011036","co38611","norming","","","{""curiosity"":3,""confidence"":3}","[0,1]","../img/tt/584tt.jpg","",""
"8120.930000000051","","","recognition","survey-text","79","502288","0.0-6.0-3.10","3011036","co38611","norming","","","{""guess"":""werk gereedschap""}","","../img/tt/584tt.jpg","",""
"null","../img/gs/584gs.jpg","null","reveal","image-keyboard-response","80","504296","0.0-6.0-4.10","3011036","co38611","norming","","","","","","",""
"null","../img/tt/584tt.jpg","null","mooney2","image-keyboard-response","81","506301","0.0-6.0-5.10","3011036","co38611","norming","","","","","","",""
"4880.604999999923","","","post_reveal_questions","survey-likert","82","511185","0.0-6.0-6.10","3011036","co38611","norming","","","{""aha"":0}","[0]","../img/tt/584tt.jpg","",""
"null","<div style=""font-size:60px;""> </div>","null","fixation","html-keyboard-response","83","511394","0.0-6.0-0.11","3011036","co38611","norming","","","","","","",""
"null","../img/tt/1247tt.jpg","null","mooney1","image-keyboard-response","84","514402","0.0-6.0-1.11","3011036","co38611","norming","","","","","","",""
"4083.8099999998813","","","post_mooney1_questions","survey-likert","85","518490","0.0-6.0-2.11","3011036","co38611","norming","","","{""curiosity"":6,""confidence"":1}","[0,1]","../img/tt/1247tt.jpg","",""
"3313.0549999998766","","","recognition","survey-text","86","521809","0.0-6.0-3.11","3011036","co38611","norming","","","{""guess"":""kat""}","","../img/tt/1247tt.jpg","",""
"null","../img/gs/1247gs.jpg","null","reveal","image-keyboard-response","87","523818","0.0-6.0-4.11","3011036","co38611","norming","","","","","","",""
"null","../img/tt/1247tt.jpg","null","mooney2","image-keyboard-response","88","525824","0.0-6.0-5.11","3011036","co38611","norming","","","","","","",""
"4844.205000000191","","","post_reveal_questions","survey-likert","89","530671","0.0-6.0-6.11","3011036","co38611","norming","","","{""aha"":4}","[0]","../img/tt/1247tt.jpg","",""
"null","<div style=""font-size:60px;""> </div>","null","fixation","html-keyboard-response","90","530881","0.0-6.0-0.12","3011036","co38611","norming","","","","","","",""
"null","../img/tt/063tt.jpg","null","mooney1","image-keyboard-response","91","533888","0.0-6.0-1.12","3011036","co38611","norming","","","","","","",""
"5046.164999999921","","","post_mooney1_questions","survey-likert","92","538938","0.0-6.0-2.12","3011036","co38611","norming","","","{""curiosity"":5,""confidence"":2}","[0,1]","../img/tt/063tt.jpg","",""
"4785.405000000028","","","recognition","survey-text","93","543729","0.0-6.0-3.12","3011036","co38611","norming","","","{""guess"":""typmachine""}","","../img/tt/063tt.jpg","",""
"null","../img/gs/063gs.jpg","null","reveal","image-keyboard-response","94","545731","0.0-6.0-4.12","3011036","co38611","norming","","","","","","",""
"null","../img/tt/063tt.jpg","null","mooney2","image-keyboard-response","95","547740","0.0-6.0-5.12","3011036","co38611","norming","","","","","","",""
"2618.6399999998976","","","post_reveal_questions","survey-likert","96","550361","0.0-6.0-6.12","3011036","co38611","norming","","","{""aha"":5}","[0]","../img/tt/063tt.jpg","",""
"null","<div style=""font-size:60px;""> </div>","null","fixation","html-keyboard-response","97","550570","0.0-6.0-0.13","3011036","co38611","norming","","","","","","",""
"null","../img/tt/524tt.jpg","null","mooney1","image-keyboard-response","98","553580","0.0-6.0-1.13","3011036","co38611","norming","","","","","","",""
"7771.214999999967","","","post_mooney1_questions","survey-likert","99","561353","0.0-6.0-2.13","3011036","co38611","norming","","","{""curiosity"":6,""confidence"":0}","[0,1]","../img/tt/524tt.jpg","",""
"1425.009999999893","","","recognition","survey-text","100","562784","0.0-6.0-3.13","3011036","co38611","norming","","","{""guess"":""""}","","../img/tt/524tt.jpg","",""
"null","../img/gs/524gs.jpg","null","reveal","image-keyboard-response","101","564796","0.0-6.0-4.13","3011036","co38611","norming","","","","","","",""
"null","../img/tt/524tt.jpg","null","mooney2","image-keyboard-response","102","566800","0.0-6.0-5.13","3011036","co38611","norming","","","","","","",""
"4357.134999999893","","","post_reveal_questions","survey-likert","103","571160","0.0-6.0-6.13","3011036","co38611","norming","","","{""aha"":6}","[0]","../img/tt/524tt.jpg","",""
"null","<div style=""font-size:60px;""> </div>","null","fixation","html-keyboard-response","104","571363","0.0-6.0-0.14","3011036","co38611","norming","","","","","","",""
"null","../img/tt/094tt.jpg","null","mooney1","image-keyboard-response","105","574368","0.0-6.0-1.14","3011036","co38611","norming","","","","","","",""
"3429.414999999921","","","post_mooney1_questions","survey-likert","106","577801","0.0-6.0-2.14","3011036","co38611","norming","","","{""curiosity"":6,""confidence"":0}","[0,1]","../img/tt/094tt.jpg","",""
"3737.0100000001257","","","recognition","survey-text","107","581544","0.0-6.0-3.14","3011036","co38611","norming","","","{""guess"":""hyena""}","","../img/tt/094tt.jpg","",""
"null","../img/gs/094gs.jpg","null","reveal","image-keyboard-response","108","583548","0.0-6.0-4.14","3011036","co38611","norming","","","","","","",""
"null","../img/tt/094tt.jpg","null","mooney2","image-keyboard-response","109","585553","0.0-6.0-5.14","3011036","co38611","norming","","","","","","",""
"3141.774999999907","","","post_reveal_questions","survey-likert","110","588697","0.0-6.0-6.14","3011036","co38611","norming","","","{""aha"":5}","[0]","../img/tt/094tt.jpg","",""
"null","<div style=""font-size:60px;""> </div>","null","fixation","html-keyboard-response","111","588899","0.0-6.0-0.15","3011036","co38611","norming","","","","","","",""
"null","../img/tt/1078tt.jpg","null","mooney1","image-keyboard-response","112","591902","0.0-6.0-1.15","3011036","co38611","norming","","","","","","",""
"7622.34999999986","","","post_mooney1_questions","survey-likert","113","599527","0.0-6.0-2.15","3011036","co38611","norming","","","{""curiosity"":3,""confidence"":1}","[0,1]","../img/tt/1078tt.jpg","",""
"5006.895000000019","","","recognition","survey-text","114","604536","0.0-6.0-3.15","3011036","co38611","norming","","","{""guess"":""hangjongeren""}","","../img/tt/1078tt.jpg","",""
"null","../img/gs/1078gs.jpg","null","reveal","image-keyboard-response","115","606541","0.0-6.0-4.15","3011036","co38611","norming","","","","","","",""
"null","../img/tt/1078tt.jpg","null","mooney2","image-keyboard-response","116","608545","0.0-6.0-5.15","3011036","co38611","norming","","","","","","",""
"3084.7650000001304","","","post_reveal_questions","survey-likert","117","611631","0.0-6.0-6.15","3011036","co38611","norming","","","{""aha"":3}","[0]","../img/tt/1078tt.jpg","",""
"null","<div style=""font-size:60px;""> </div>","null","fixation","html-keyboard-response","118","611842","0.0-6.0-0.16","3011036","co38611","norming","","","","","","",""
"null","../img/tt/020tt.jpg","null","mooney1","image-keyboard-response","119","614845","0.0-6.0-1.16","3011036","co38611","norming","","","","","","",""
"4152.45000000007","","","post_mooney1_questions","survey-likert","120","618999","0.0-6.0-2.16","3011036","co38611","norming","","","{""curiosity"":6,""confidence"":0}","[0,1]","../img/tt/020tt.jpg","",""
"1018.6349999998929","","","recognition","survey-text","121","620022","0.0-6.0-3.16","3011036","co38611","norming","","","{""guess"":""""}","","../img/tt/020tt.jpg","",""
"null","../img/gs/020gs.jpg","null","reveal","image-keyboard-response","122","622027","0.0-6.0-4.16","3011036","co38611","norming","","","","","","",""
"null","../img/tt/020tt.jpg","null","mooney2","image-keyboard-response","123","624030","0.0-6.0-5.16","3011036","co38611","norming","","","","","","",""
"2318.1499999997905","","","post_reveal_questions","survey-likert","124","626351","0.0-6.0-6.16","3011036","co38611","norming","","","{""aha"":3}","[0]","../img/tt/020tt.jpg","",""
"null","<div style=""font-size:60px;""> </div>","null","fixation","html-keyboard-response","125","626555","0.0-6.0-0.17","3011036","co38611","norming","","","","","","",""
"null","../img/tt/1043tt.jpg","null","mooney1","image-keyboard-response","126","629560","0.0-6.0-1.17","3011036","co38611","norming","","","","","","",""
"4342.04999999993","","","post_mooney1_questions","survey-likert","127","633904","0.0-6.0-2.17","3011036","co38611","norming","","","{""curiosity"":6,""confidence"":1}","[0,1]","../img/tt/1043tt.jpg","",""
"4690.699999999837","","","recognition","survey-text","128","638599","0.0-6.0-3.17","3011036","co38611","norming","","","{""guess"":""avondmaal""}","","../img/tt/1043tt.jpg","",""
"null","../img/gs/1043gs.jpg","null","reveal","image-keyboard-response","129","640608","0.0-6.0-4.17","3011036","co38611","norming","","","","","","",""
"null","../img/tt/1043tt.jpg","null","mooney2","image-keyboard-response","130","642612","0.0-6.0-5.17","3011036","co38611","norming","","","","","","",""
"2280.600000000093","","","post_reveal_questions","survey-likert","131","644895","0.0-6.0-6.17","3011036","co38611","norming","","","{""aha"":3}","[0]","../img/tt/1043tt.jpg","",""
"null","<div style=""font-size:60px;""> </div>","null","fixation","html-keyboard-response","132","645105","0.0-6.0-0.18","3011036","co38611","norming","","","","","","",""
"null","../img/tt/080tt.jpg","null","mooney1","image-keyboard-response","133","648114","0.0-6.0-1.18","3011036","co38611","norming","","","","","","",""
"6922.430000000051","","","post_mooney1_questions","survey-likert","134","655040","0.0-6.0-2.18","3011036","co38611","norming","","","{""curiosity"":6,""confidence"":1}","[0,1]","../img/tt/080tt.jpg","",""
"4986.229999999981","","","recognition","survey-text","135","660031","0.0-6.0-3.18","3011036","co38611","norming","","","{""guess"":""paddenstoel""}","","../img/tt/080tt.jpg","",""
"null","../img/gs/080gs.jpg","null","reveal","image-keyboard-response","136","662034","0.0-6.0-4.18","3011036","co38611","norming","","","","","","",""
"null","../img/tt/080tt.jpg","null","mooney2","image-keyboard-response","137","664042","0.0-6.0-5.18","3011036","co38611","norming","","","","","","",""
"5529.220000000205","","","post_reveal_questions","survey-likert","138","669574","0.0-6.0-6.18","3011036","co38611","norming","","","{""aha"":4}","[0]","../img/tt/080tt.jpg","",""
"null","<div style=""font-size:60px;""> </div>","null","fixation","html-keyboard-response","139","669784","0.0-6.0-0.19","3011036","co38611","norming","","","","","","",""
"null","../img/tt/1279tt.jpg","null","mooney1","image-keyboard-response","140","672785","0.0-6.0-1.19","3011036","co38611","norming","","","","","","",""
"3558.829999999958","","","post_mooney1_questions","survey-likert","141","676347","0.0-6.0-2.19","3011036","co38611","norming","","","{""curiosity"":6,""confidence"":0}","[0,1]","../img/tt/1279tt.jpg","",""
"721.4949999999953","","","recognition","survey-text","142","677074","0.0-6.0-3.19","3011036","co38611","norming","","","{""guess"":""""}","","../img/tt/1279tt.jpg","",""
"null","../img/gs/1279gs.jpg","null","reveal","image-keyboard-response","143","679077","0.0-6.0-4.19","3011036","co38611","norming","","","","","","",""
"null","../img/tt/1279tt.jpg","null","mooney2","image-keyboard-response","144","681083","0.0-6.0-5.19","3011036","co38611","norming","","","","","","",""
"2148.944999999949","","","post_reveal_questions","survey-likert","145","683235","0.0-6.0-6.19","3011036","co38611","norming","","","{""aha"":3}","[0]","../img/tt/1279tt.jpg","",""
"null","<div style=""font-size:60px;""> </div>","null","fixation","html-keyboard-response","146","683438","0.0-6.0-0.20","3011036","co38611","norming","","","","","","",""
"null","../img/tt/1126tt.jpg","null","mooney1","image-keyboard-response","147","686445","0.0-6.0-1.20","3011036","co38611","norming","","","","","","",""
"3803.574999999837","","","post_mooney1_questions","survey-likert","148","690252","0.0-6.0-2.20","3011036","co38611","norming","","","{""curiosity"":6,""confidence"":0}","[0,1]","../img/tt/1126tt.jpg","",""
"793.375","","","recognition","survey-text","149","691050","0.0-6.0-3.20","3011036","co38611","norming","","","{""guess"":""""}","","../img/tt/1126tt.jpg","",""
"null","../img/gs/1126gs.jpg","null","reveal","image-keyboard-response","150","693061","0.0-6.0-4.20","3011036","co38611","norming","","","","","","",""
"null","../img/tt/1126tt.jpg","null","mooney2","image-keyboard-response","151","695070","0.0-6.0-5.20","3011036","co38611","norming","","","","","","",""
"2282.850000000093","","","post_reveal_questions","survey-likert","152","697355","0.0-6.0-6.20","3011036","co38611","norming","","","{""aha"":3}","[0]","../img/tt/1126tt.jpg","",""
"null","<div style=""font-size:60px;""> </div>","null","fixation","html-keyboard-response","153","697565","0.0-6.0-0.21","3011036","co38611","norming","","","","","","",""
"null","../img/tt/378tt.jpg","null","mooney1","image-keyboard-response","154","700574","0.0-6.0-1.21","3011036","co38611","norming","","","","","","",""
"4681.939999999944","","","post_mooney1_questions","survey-likert","155","705259","0.0-6.0-2.21","3011036","co38611","norming","","","{""curiosity"":6,""confidence"":1}","[0,1]","../img/tt/378tt.jpg","",""
"3082.689999999944","","","recognition","survey-text","156","708347","0.0-6.0-3.21","3011036","co38611","norming","","","{""guess"":""kat""}","","../img/tt/378tt.jpg","",""
"null","../img/gs/378gs.jpg","null","reveal","image-keyboard-response","157","710354","0.0-6.0-4.21","3011036","co38611","norming","","","","","","",""
"null","../img/tt/378tt.jpg","null","mooney2","image-keyboard-response","158","712365","0.0-6.0-5.21","3011036","co38611","norming","","","","","","",""
"2851.159999999916","","","post_reveal_questions","survey-likert","159","715219","0.0-6.0-6.21","3011036","co38611","norming","","","{""aha"":3}","[0]","../img/tt/378tt.jpg","",""
"null","<div style=""font-size:60px;""> </div>","null","fixation","html-keyboard-response","160","715431","0.0-6.0-0.22","3011036","co38611","norming","","","","","","",""
"null","../img/tt/124tt.jpg","null","mooney1","image-keyboard-response","161","718438","0.0-6.0-1.22","3011036","co38611","norming","","","","","","",""
"5337.820000000182","","","post_mooney1_questions","survey-likert","162","723780","0.0-6.0-2.22","3011036","co38611","norming","","","{""curiosity"":4,""confidence"":1}","[0,1]","../img/tt/124tt.jpg","",""
"5441.164999999921","","","recognition","survey-text","163","729227","0.0-6.0-3.22","3011036","co38611","norming","","","{""guess"":""gorilla""}","","../img/tt/124tt.jpg","",""
"null","../img/gs/124gs.jpg","null","reveal","image-keyboard-response","164","731230","0.0-6.0-4.22","3011036","co38611","norming","","","","","","",""
"null","../img/tt/124tt.jpg","null","mooney2","image-keyboard-response","165","733246","0.0-6.0-5.22","3011036","co38611","norming","","","","","","",""
"2447.4250000000466","","","post_reveal_questions","survey-likert","166","735697","0.0-6.0-6.22","3011036","co38611","norming","","","{""aha"":3}","[0]","../img/tt/124tt.jpg","",""
"null","<div style=""font-size:60px;""> </div>","null","fixation","html-keyboard-response","167","735905","0.0-6.0-0.23","3011036","co38611","norming","","","","","","",""
"null","../img/tt/1191tt.jpg","null","mooney1","image-keyboard-response","168","738909","0.0-6.0-1.23","3011036","co38611","norming","","","","","","",""
"4176.8099999999395","","","post_mooney1_questions","survey-likert","169","743089","0.0-6.0-2.23","3011036","co38611","norming","","","{""curiosity"":6,""confidence"":1}","[0,1]","../img/tt/1191tt.jpg","",""
"8074.560000000056","","","recognition","survey-text","170","751168","0.0-6.0-3.23","3011036","co38611","norming","","","{""guess"":""discuswerpers""}","","../img/tt/1191tt.jpg","",""
"null","../img/gs/1191gs.jpg","null","reveal","image-keyboard-response","171","753179","0.0-6.0-4.23","3011036","co38611","norming","","","","","","",""
"null","../img/tt/1191tt.jpg","null","mooney2","image-keyboard-response","172","755183","0.0-6.0-5.23","3011036","co38611","norming","","","","","","",""
"2542.250000000233","","","post_reveal_questions","survey-likert","173","757729","0.0-6.0-6.23","3011036","co38611","norming","","","{""aha"":5}","[0]","../img/tt/1191tt.jpg","",""
"null","<div style=""font-size:60px;""> </div>","null","fixation","html-keyboard-response","174","757932","0.0-6.0-0.24","3011036","co38611","norming","","","","","","",""
"null","../img/tt/1084tt.jpg","null","mooney1","image-keyboard-response","175","760940","0.0-6.0-1.24","3011036","co38611","norming","","","","","","",""
"3265.0400000000373","","","post_mooney1_questions","survey-likert","176","764209","0.0-6.0-2.24","3011036","co38611","norming","","","{""curiosity"":6,""confidence"":0}","[0,1]","../img/tt/1084tt.jpg","",""
"682.0449999999255","","","recognition","survey-text","177","764896","0.0-6.0-3.24","3011036","co38611","norming","","","{""guess"":""""}","","../img/tt/1084tt.jpg","",""
"null","../img/gs/1084gs.jpg","null","reveal","image-keyboard-response","178","766902","0.0-6.0-4.24","3011036","co38611","norming","","","","","","",""
"null","../img/tt/1084tt.jpg","null","mooney2","image-keyboard-response","179","768904","0.0-6.0-5.24","3011036","co38611","norming","","","","","","",""
"3237.984999999986","","","post_reveal_questions","survey-likert","180","772145","0.0-6.0-6.24","3011036","co38611","norming","","","{""aha"":3}","[0]","../img/tt/1084tt.jpg","",""
"null","<div style=""font-size:60px;""> </div>","null","fixation","html-keyboard-response","181","772354","0.0-6.0-0.25","3011036","co38611","norming","","","","","","",""
"null","../img/tt/1241tt.jpg","null","mooney1","image-keyboard-response","182","775357","0.0-6.0-1.25","3011036","co38611","norming","","","","","","",""
"3928.485000000219","","","post_mooney1_questions","survey-likert","183","779289","0.0-6.0-2.25","3011036","co38611","norming","","","{""curiosity"":6,""confidence"":2}","[0,1]","../img/tt/1241tt.jpg","",""
"2239.350000000093","","","recognition","survey-text","184","781535","0.0-6.0-3.25","3011036","co38611","norming","","","{""guess"":""cat""}","","../img/tt/1241tt.jpg","",""
"null","../img/gs/1241gs.jpg","null","reveal","image-keyboard-response","185","783536","0.0-6.0-4.25","3011036","co38611","norming","","","","","","",""
"null","../img/tt/1241tt.jpg","null","mooney2","image-keyboard-response","186","785537","0.0-6.0-5.25","3011036","co38611","norming","","","","","","",""
"2149.75","","","post_reveal_questions","survey-likert","187","787689","0.0-6.0-6.25","3011036","co38611","norming","","","{""aha"":3}","[0]","../img/tt/1241tt.jpg","",""
"null","<div style=""font-size:60px;""> </div>","null","fixation","html-keyboard-response","188","787892","0.0-6.0-0.26","3011036","co38611","norming","","","","","","",""
"null","../img/tt/1268tt.jpg","null","mooney1","image-keyboard-response","189","790900","0.0-6.0-1.26","3011036","co38611","norming","","","","","","",""
"4124.255000000005","","","post_mooney1_questions","survey-likert","190","795024","0.0-6.0-2.26","3011036","co38611","norming","","","{""curiosity"":4,""confidence"":1}","[0,1]","../img/tt/1268tt.jpg","",""
"3848.4550000000745","","","recognition","survey-text","191","798878","0.0-6.0-3.26","3011036","co38611","norming","","","{""guess"":""eekhoorn""}","","../img/tt/1268tt.jpg","",""
"null","../img/gs/1268gs.jpg","null","reveal","image-keyboard-response","192","800888","0.0-6.0-4.26","3011036","co38611","norming","","","","","","",""
"null","../img/tt/1268tt.jpg","null","mooney2","image-keyboard-response","193","802890","0.0-6.0-5.26","3011036","co38611","norming","","","","","","",""
"2609.329999999958","","","post_reveal_questions","survey-likert","194","805502","0.0-6.0-6.26","3011036","co38611","norming","","","{""aha"":3}","[0]","../img/tt/1268tt.jpg","",""
"null","<div style=""font-size:60px;""> </div>","null","fixation","html-keyboard-response","195","805709","0.0-6.0-0.27","3011036","co38611","norming","","","","","","",""
"null","../img/tt/318tt.jpg","null","mooney1","image-keyboard-response","196","808713","0.0-6.0-1.27","3011036","co38611","norming","","","","","","",""
"4563.429999999935","","","post_mooney1_questions","survey-likert","197","813280","0.0-6.0-2.27","3011036","co38611","norming","","","{""curiosity"":6,""confidence"":1}","[0,1]","../img/tt/318tt.jpg","",""
"2873.160000000149","","","recognition","survey-text","198","816158","0.0-6.0-3.27","3011036","co38611","norming","","","{""guess"":""auto""}","","../img/tt/318tt.jpg","",""
"null","../img/gs/318gs.jpg","null","reveal","image-keyboard-response","199","818164","0.0-6.0-4.27","3011036","co38611","norming","","","","","","",""
"null","../img/tt/318tt.jpg","null","mooney2","image-keyboard-response","200","820175","0.0-6.0-5.27","3011036","co38611","norming","","","","","","",""
"4052.855000000098","","","post_reveal_questions","survey-likert","201","824231","0.0-6.0-6.27","3011036","co38611","norming","","","{""aha"":0}","[0]","../img/tt/318tt.jpg","",""
"null","<div style=""font-size:60px;""> </div>","null","fixation","html-keyboard-response","202","824443","0.0-6.0-0.28","3011036","co38611","norming","","","","","","",""
"null","../img/tt/580tt.jpg","null","mooney1","image-keyboard-response","203","827448","0.0-6.0-1.28","3011036","co38611","norming","","","","","","",""
"5804.674999999814","","","post_mooney1_questions","survey-likert","204","833256","0.0-6.0-2.28","3011036","co38611","norming","","","{""curiosity"":6,""confidence"":1}","[0,1]","../img/tt/580tt.jpg","",""
"2592.7250000002095","","","recognition","survey-text","205","835854","0.0-6.0-3.28","3011036","co38611","norming","","","{""guess"":""rups""}","","../img/tt/580tt.jpg","",""
"null","../img/gs/580gs.jpg","null","reveal","image-keyboard-response","206","837865","0.0-6.0-4.28","3011036","co38611","norming","","","","","","",""
"null","../img/tt/580tt.jpg","null","mooney2","image-keyboard-response","207","839873","0.0-6.0-5.28","3011036","co38611","norming","","","","","","",""
"2234.559999999823","","","post_reveal_questions","survey-likert","208","842111","0.0-6.0-6.28","3011036","co38611","norming","","","{""aha"":3}","[0]","../img/tt/580tt.jpg","",""
"null","<div style=""font-size:60px;""> </div>","null","fixation","html-keyboard-response","209","842316","0.0-6.0-0.29","3011036","co38611","norming","","","","","","",""
"null","../img/tt/1049tt.jpg","null","mooney1","image-keyboard-response","210","845319","0.0-6.0-1.29","3011036","co38611","norming","","","","","","",""
"6268.255000000005","","","post_mooney1_questions","survey-likert","211","851590","0.0-6.0-2.29","3011036","co38611","norming","","","{""curiosity"":3,""confidence"":0}","[0,1]","../img/tt/1049tt.jpg","",""
"2963.469999999972","","","recognition","survey-text","212","854553","0.0-6.0-3.29","3011036","co38611","norming","","","{""guess"":""vogels""}","","../img/tt/1049tt.jpg","",""
"null","../img/gs/1049gs.jpg","null","reveal","image-keyboard-response","213","856554","0.0-6.0-4.29","3011036","co38611","norming","","","","","","",""
"null","../img/tt/1049tt.jpg","null","mooney2","image-keyboard-response","214","858555","0.0-6.0-5.29","3011036","co38611","norming","","","","","","",""
"2372.8050000001676","","","post_reveal_questions","survey-likert","215","860931","0.0-6.0-6.29","3011036","co38611","norming","","","{""aha"":3}","[0]","../img/tt/1049tt.jpg","",""
"null","<div style=""font-size:60px;""> </div>","null","fixation","html-keyboard-response","216","861135","0.0-6.0-0.30","3011036","co38611","norming","","","","","","",""
"null","../img/tt/1027tt.jpg","null","mooney1","image-keyboard-response","217","864147","0.0-6.0-1.30","3011036","co38611","norming","","","","","","",""
"4244.770000000019","","","post_mooney1_questions","survey-likert","218","868396","0.0-6.0-2.30","3011036","co38611","norming","","","{""curiosity"":3,""confidence"":2}","[0,1]","../img/tt/1027tt.jpg","",""
"3576.2500000001164","","","recognition","survey-text","219","871978","0.0-6.0-3.30","3011036","co38611","norming","","","{""guess"":""koeien""}","","../img/tt/1027tt.jpg","",""
"null","../img/gs/1027gs.jpg","null","reveal","image-keyboard-response","220","873986","0.0-6.0-4.30","3011036","co38611","norming","","","","","","",""
"null","../img/tt/1027tt.jpg","null","mooney2","image-keyboard-response","221","875990","0.0-6.0-5.30","3011036","co38611","norming","","","","","","",""
"2353.890000000014","","","post_reveal_questions","survey-likert","222","878346","0.0-6.0-6.30","3011036","co38611","norming","","","{""aha"":3}","[0]","../img/tt/1027tt.jpg","",""
"null","<div style=""font-size:60px;""> </div>","null","fixation","html-keyboard-response","223","878551","0.0-6.0-0.31","3011036","co38611","norming","","","","","","",""
"null","../img/tt/1269tt.jpg","null","mooney1","image-keyboard-response","224","881558","0.0-6.0-1.31","3011036","co38611","norming","","","","","","",""
"4947.504999999772","","","post_mooney1_questions","survey-likert","225","886507","0.0-6.0-2.31","3011036","co38611","norming","","","{""curiosity"":6,""confidence"":3}","[0,1]","../img/tt/1269tt.jpg","",""
"5625.244999999879","","","recognition","survey-text","226","892138","0.0-6.0-3.31","3011036","co38611","norming","","","{""guess"":""eekhoorn""}","","../img/tt/1269tt.jpg","",""
"null","../img/gs/1269gs.jpg","null","reveal","image-keyboard-response","227","894147","0.0-6.0-4.31","3011036","co38611","norming","","","","","","",""
"null","../img/tt/1269tt.jpg","null","mooney2","image-keyboard-response","228","896156","0.0-6.0-5.31","3011036","co38611","norming","","","","","","",""
"2084.070000000065","","","post_reveal_questions","survey-likert","229","898243","0.0-6.0-6.31","3011036","co38611","norming","","","{""aha"":3}","[0]","../img/tt/1269tt.jpg","",""
"null","<div style=""font-size:60px;""> </div>","null","fixation","html-keyboard-response","230","898445","0.0-6.0-0.32","3011036","co38611","norming","","","","","","",""
"null","../img/tt/032tt.jpg","null","mooney1","image-keyboard-response","231","901456","0.0-6.0-1.32","3011036","co38611","norming","","","","","","",""
"3423.380000000121","","","post_mooney1_questions","survey-likert","232","904881","0.0-6.0-2.32","3011036","co38611","norming","","","{""curiosity"":3,""confidence"":0}","[0,1]","../img/tt/032tt.jpg","",""
"3110.055000000051","","","recognition","survey-text","233","907992","0.0-6.0-3.32","3011036","co38611","norming","","","{""guess"":""vogel""}","","../img/tt/032tt.jpg","",""
"null","../img/gs/032gs.jpg","null","reveal","image-keyboard-response","234","909998","0.0-6.0-4.32","3011036","co38611","norming","","","","","","",""
"null","../img/tt/032tt.jpg","null","mooney2","image-keyboard-response","235","912007","0.0-6.0-5.32","3011036","co38611","norming","","","","","","",""
"1928.7750000001397","","","post_reveal_questions","survey-likert","236","913941","0.0-6.0-6.32","3011036","co38611","norming","","","{""aha"":3}","[0]","../img/tt/032tt.jpg","",""
"null","<div style=""font-size:60px;""> </div>","null","fixation","html-keyboard-response","237","914146","0.0-6.0-0.33","3011036","co38611","norming","","","","","","",""
"null","../img/tt/1072tt.jpg","null","mooney1","image-keyboard-response","238","917152","0.0-6.0-1.33","3011036","co38611","norming","","","","","","",""
"3595.8600000001024","","","post_mooney1_questions","survey-likert","239","920749","0.0-6.0-2.33","3011036","co38611","norming","","","{""curiosity"":4,""confidence"":1}","[0,1]","../img/tt/1072tt.jpg","",""
"3150.8050000001676","","","recognition","survey-text","240","923902","0.0-6.0-3.33","3011036","co38611","norming","","","{""guess"":""bank""}","","../img/tt/1072tt.jpg","",""
"null","../img/gs/1072gs.jpg","null","reveal","image-keyboard-response","241","925906","0.0-6.0-4.33","3011036","co38611","norming","","","","","","",""
"null","../img/tt/1072tt.jpg","null","mooney2","image-keyboard-response","242","927913","0.0-6.0-5.33","3011036","co38611","norming","","","","","","",""
"2145.54999999993","","","post_reveal_questions","survey-likert","243","930061","0.0-6.0-6.33","3011036","co38611","norming","","","{""aha"":3}","[0]","../img/tt/1072tt.jpg","",""
"null","<div style=""font-size:60px;""> </div>","null","fixation","html-keyboard-response","244","930266","0.0-6.0-0.34","3011036","co38611","norming","","","","","","",""
"null","../img/tt/056tt.jpg","null","mooney1","image-keyboard-response","245","933268","0.0-6.0-1.34","3011036","co38611","norming","","","","","","",""
"5351.829999999842","","","post_mooney1_questions","survey-likert","246","938621","0.0-6.0-2.34","3011036","co38611","norming","","","{""curiosity"":6,""confidence"":0}","[0,1]","../img/tt/056tt.jpg","",""
"1318.2249999999767","","","recognition","survey-text","247","939941","0.0-6.0-3.34","3011036","co38611","norming","","","{""guess"":""""}","","../img/tt/056tt.jpg","",""
"null","../img/gs/056gs.jpg","null","reveal","image-keyboard-response","248","941949","0.0-6.0-4.34","3011036","co38611","norming","","","","","","",""
"null","../img/tt/056tt.jpg","null","mooney2","image-keyboard-response","249","943960","0.0-6.0-5.34","3011036","co38611","norming","","","","","","",""
"1892.2249999998603","","","post_reveal_questions","survey-likert","250","945853","0.0-6.0-6.34","3011036","co38611","norming","","","{""aha"":3}","[0]","../img/tt/056tt.jpg","",""
"null","<div style=""font-size:60px;""> </div>","null","fixation","html-keyboard-response","251","946059","0.0-6.0-0.35","3011036","co38611","norming","","","","","","",""
"null","../img/tt/1200tt.jpg","null","mooney1","image-keyboard-response","252","949067","0.0-6.0-1.35","3011036","co38611","norming","","","","","","",""
"3688.5999999999767","","","post_mooney1_questions","survey-likert","253","952757","0.0-6.0-2.35","3011036","co38611","norming","","","{""curiosity"":6,""confidence"":1}","[0,1]","../img/tt/1200tt.jpg","",""
"2741.7350000001024","","","recognition","survey-text","254","955500","0.0-6.0-3.35","3011036","co38611","norming","","","{""guess"":""bank""}","","../img/tt/1200tt.jpg","",""
"null","../img/gs/1200gs.jpg","null","reveal","image-keyboard-response","255","957511","0.0-6.0-4.35","3011036","co38611","norming","","","","","","",""
"null","../img/tt/1200tt.jpg","null","mooney2","image-keyboard-response","256","959513","0.0-6.0-5.35","3011036","co38611","norming","","","","","","",""
"2619.0450000001583","","","post_reveal_questions","survey-likert","257","962133","0.0-6.0-6.35","3011036","co38611","norming","","","{""aha"":3}","[0]","../img/tt/1200tt.jpg","",""
"null","<div style=""font-size:60px;""> </div>","null","fixation","html-keyboard-response","258","962334","0.0-6.0-0.36","3011036","co38611","norming","","","","","","",""
"null","../img/tt/1002tt.jpg","null","mooney1","image-keyboard-response","259","965339","0.0-6.0-1.36","3011036","co38611","norming","","","","","","",""
"5138.2200000000885","","","post_mooney1_questions","survey-likert","260","970479","0.0-6.0-2.36","3011036","co38611","norming","","","{""curiosity"":6,""confidence"":3}","[0,1]","../img/tt/1002tt.jpg","",""
"3335.835000000079","","","recognition","survey-text","261","973821","0.0-6.0-3.36","3011036","co38611","norming","","","{""guess"":""bear""}","","../img/tt/1002tt.jpg","",""
"null","../img/gs/1002gs.jpg","null","reveal","image-keyboard-response","262","975832","0.0-6.0-4.36","3011036","co38611","norming","","","","","","",""
"null","../img/tt/1002tt.jpg","null","mooney2","image-keyboard-response","263","977834","0.0-6.0-5.36","3011036","co38611","norming","","","","","","",""
"2503.5250000000233","","","post_reveal_questions","survey-likert","264","980340","0.0-6.0-6.36","3011036","co38611","norming","","","{""aha"":3}","[0]","../img/tt/1002tt.jpg","",""
"null","<div style=""font-size:60px;""> </div>","null","fixation","html-keyboard-response","265","980547","0.0-6.0-0.37","3011036","co38611","norming","","","","","","",""
"null","../img/tt/112tt.jpg","null","mooney1","image-keyboard-response","266","983554","0.0-6.0-1.37","3011036","co38611","norming","","","","","","",""
"3344.4599999999627","","","post_mooney1_questions","survey-likert","267","986901","0.0-6.0-2.37","3011036","co38611","norming","","","{""curiosity"":6,""confidence"":0}","[0,1]","../img/tt/112tt.jpg","",""
"640.6499999997905","","","recognition","survey-text","268","987547","0.0-6.0-3.37","3011036","co38611","norming","","","{""guess"":""""}","","../img/tt/112tt.jpg","",""
"null","../img/gs/112gs.jpg","null","reveal","image-keyboard-response","269","989556","0.0-6.0-4.37","3011036","co38611","norming","","","","","","",""
"null","../img/tt/112tt.jpg","null","mooney2","image-keyboard-response","270","991563","0.0-6.0-5.37","3011036","co38611","norming","","","","","","",""
"2262.105000000098","","","post_reveal_questions","survey-likert","271","993827","0.0-6.0-6.37","3011036","co38611","norming","","","{""aha"":3}","[0]","../img/tt/112tt.jpg","",""
"null","<div style=""font-size:60px;""> </div>","null","fixation","html-keyboard-response","272","994033","0.0-6.0-0.38","3011036","co38611","norming","","","","","","",""
"null","../img/tt/1151tt.jpg","null","mooney1","image-keyboard-response","273","997044","0.0-6.0-1.38","3011036","co38611","norming","","","","","","",""
"3140.9500000001863","","","post_mooney1_questions","survey-likert","274","1000188","0.0-6.0-2.38","3011036","co38611","norming","","","{""curiosity"":6,""confidence"":0}","[0,1]","../img/tt/1151tt.jpg","",""
"905.3300000000745","","","recognition","survey-text","275","1001099","0.0-6.0-3.38","3011036","co38611","norming","","","{""guess"":""""}","","../img/tt/1151tt.jpg","",""
"null","../img/gs/1151gs.jpg","null","reveal","image-keyboard-response","276","1003107","0.0-6.0-4.38","3011036","co38611","norming","","","","","","",""
"null","../img/tt/1151tt.jpg","null","mooney2","image-keyboard-response","277","1005118","0.0-6.0-5.38","3011036","co38611","norming","","","","","","",""
"2026.6449999999022","","","post_reveal_questions","survey-likert","278","1007148","0.0-6.0-6.38","3011036","co38611","norming","","","{""aha"":3}","[0]","../img/tt/1151tt.jpg","",""
"null","<div style=""font-size:60px;""> </div>","null","fixation","html-keyboard-response","279","1007353","0.0-6.0-0.39","3011036","co38611","norming","","","","","","",""
"null","../img/tt/1055tt.jpg","null","mooney1","image-keyboard-response","280","1010355","0.0-6.0-1.39","3011036","co38611","norming","","","","","","",""
"5389.52500000014","","","post_mooney1_questions","survey-likert","281","1015748","0.0-6.0-2.39","3011036","co38611","norming","","","{""curiosity"":3,""confidence"":0}","[0,1]","../img/tt/1055tt.jpg","",""
"2065.0650000000605","","","recognition","survey-text","282","1017819","0.0-6.0-3.39","3011036","co38611","norming","","","{""guess"":""""}","","../img/tt/1055tt.jpg","",""
"null","../img/gs/1055gs.jpg","null","reveal","image-keyboard-response","283","1019829","0.0-6.0-4.39","3011036","co38611","norming","","","","","","",""
"null","../img/tt/1055tt.jpg","null","mooney2","image-keyboard-response","284","1021831","0.0-6.0-5.39","3011036","co38611","norming","","","","","","",""
"1993.7449999999953","","","post_reveal_questions","survey-likert","285","1023828","0.0-6.0-6.39","3011036","co38611","norming","","","{""aha"":3}","[0]","../img/tt/1055tt.jpg","",""
"null","<div style=""font-size:60px;""> </div>","null","fixation","html-keyboard-response","286","1024035","0.0-6.0-0.40","3011036","co38611","norming","","","","","","",""
"null","../img/tt/412tt.jpg","null","mooney1","image-keyboard-response","287","1027043","0.0-6.0-1.40","3011036","co38611","norming","","","","","","",""
"9677.795000000042","","","post_mooney1_questions","survey-likert","288","1036723","0.0-6.0-2.40","3011036","co38611","norming","","","{""curiosity"":6,""confidence"":0}","[0,1]","../img/tt/412tt.jpg","",""
"624.7000000000698","","","recognition","survey-text","289","1037353","0.0-6.0-3.40","3011036","co38611","norming","","","{""guess"":""""}","","../img/tt/412tt.jpg","",""
"null","../img/gs/412gs.jpg","null","reveal","image-keyboard-response","290","1039361","0.0-6.0-4.40","3011036","co38611","norming","","","","","","",""
"null","../img/tt/412tt.jpg","null","mooney2","image-keyboard-response","291","1041372","0.0-6.0-5.40","3011036","co38611","norming","","","","","","",""
"2531.42499999993","","","post_reveal_questions","survey-likert","292","1043906","0.0-6.0-6.40","3011036","co38611","norming","","","{""aha"":3}","[0]","../img/tt/412tt.jpg","",""
"null","<div style=""font-size:60px;""> </div>","null","fixation","html-keyboard-response","293","1044111","0.0-6.0-0.41","3011036","co38611","norming","","","","","","",""
"null","../img/tt/1107tt.jpg","null","mooney1","image-keyboard-response","294","1047121","0.0-6.0-1.41","3011036","co38611","norming","","","","","","",""
"4158.685000000172","","","post_mooney1_questions","survey-likert","295","1051283","0.0-6.0-2.41","3011036","co38611","norming","","","{""curiosity"":6,""confidence"":1}","[0,1]","../img/tt/1107tt.jpg","",""
"3223.4250000000466","","","recognition","survey-text","296","1054512","0.0-6.0-3.41","3011036","co38611","norming","","","{""guess"":""rugzak""}","","../img/tt/1107tt.jpg","",""
"null","../img/gs/1107gs.jpg","null","reveal","image-keyboard-response","297","1056517","0.0-6.0-4.41","3011036","co38611","norming","","","","","","",""
"null","../img/tt/1107tt.jpg","null","mooney2","image-keyboard-response","298","1058521","0.0-6.0-5.41","3011036","co38611","norming","","","","","","",""
"2774.5149999998976","","","post_reveal_questions","survey-likert","299","1061298","0.0-6.0-6.41","3011036","co38611","norming","","","{""aha"":3}","[0]","../img/tt/1107tt.jpg","",""
"null","<div style=""font-size:60px;""> </div>","null","fixation","html-keyboard-response","300","1061510","0.0-6.0-0.42","3011036","co38611","norming","","","","","","",""
"null","../img/tt/008tt.jpg","null","mooney1","image-keyboard-response","301","1064517","0.0-6.0-1.42","3011036","co38611","norming","","","","","","",""
"3546.570000000065","","","post_mooney1_questions","survey-likert","302","1068067","0.0-6.0-2.42","3011036","co38611","norming","","","{""curiosity"":6,""confidence"":0}","[0,1]","../img/tt/008tt.jpg","",""
"3722.5400000000373","","","recognition","survey-text","303","1071794","0.0-6.0-3.42","3011036","co38611","norming","","","{""guess"":""pinguin""}","","../img/tt/008tt.jpg","",""
"null","../img/gs/008gs.jpg","null","reveal","image-keyboard-response","304","1073804","0.0-6.0-4.42","3011036","co38611","norming","","","","","","",""
"null","../img/tt/008tt.jpg","null","mooney2","image-keyboard-response","305","1075813","0.0-6.0-5.42","3011036","co38611","norming","","","","","","",""
"2401.590000000084","","","post_reveal_questions","survey-likert","306","1078218","0.0-6.0-6.42","3011036","co38611","norming","","","{""aha"":3}","[0]","../img/tt/008tt.jpg","",""
"null","<div style=""font-size:60px;""> </div>","null","fixation","html-keyboard-response","307","1078432","0.0-6.0-0.43","3011036","co38611","norming","","","","","","",""
"null","../img/tt/315tt.jpg","null","mooney1","image-keyboard-response","308","1081438","0.0-6.0-1.43","3011036","co38611","norming","","","","","","",""
"4495.989999999991","","","post_mooney1_questions","survey-likert","309","1085937","0.0-6.0-2.43","3011036","co38611","norming","","","{""curiosity"":6,""confidence"":2}","[0,1]","../img/tt/315tt.jpg","",""
"2077.8950000002515","","","recognition","survey-text","310","1088018","0.0-6.0-3.43","3011036","co38611","norming","","","{""guess"":""uil""}","","../img/tt/315tt.jpg","",""
"null","../img/gs/315gs.jpg","null","reveal","image-keyboard-response","311","1090024","0.0-6.0-4.43","3011036","co38611","norming","","","","","","",""
"null","../img/tt/315tt.jpg","null","mooney2","image-keyboard-response","312","1092026","0.0-6.0-5.43","3011036","co38611","norming","","","","","","",""
"3989.0250000001397","","","post_reveal_questions","survey-likert","313","1096018","0.0-6.0-6.43","3011036","co38611","norming","","","{""aha"":6}","[0]","../img/tt/315tt.jpg","",""
"null","<div style=""font-size:60px;""> </div>","null","fixation","html-keyboard-response","314","1096221","0.0-6.0-0.44","3011036","co38611","norming","","","","","","",""
"null","../img/tt/1270tt.jpg","null","mooney1","image-keyboard-response","315","1099231","0.0-6.0-1.44","3011036","co38611","norming","","","","","","",""
"4342.364999999991","","","post_mooney1_questions","survey-likert","316","1103577","0.0-6.0-2.44","3011036","co38611","norming","","","{""curiosity"":6,""confidence"":1}","[0,1]","../img/tt/1270tt.jpg","",""
"2438.225000000093","","","recognition","survey-text","317","1106018","0.0-6.0-3.44","3011036","co38611","norming","","","{""guess"":""kat""}","","../img/tt/1270tt.jpg","",""
"null","../img/gs/1270gs.jpg","null","reveal","image-keyboard-response","318","1108024","0.0-6.0-4.44","3011036","co38611","norming","","","","","","",""
"null","../img/tt/1270tt.jpg","null","mooney2","image-keyboard-response","319","1110026","0.0-6.0-5.44","3011036","co38611","norming","","","","","","",""
"2221","","","post_reveal_questions","survey-likert","320","1112250","0.0-6.0-6.44","3011036","co38611","norming","","","{""aha"":3}","[0]","../img/tt/1270tt.jpg","",""
"null","<div style=""font-size:60px;""> </div>","null","fixation","html-keyboard-response","321","1112453","0.0-6.0-0.45","3011036","co38611","norming","","","","","","",""
"null","../img/tt/1175tt.jpg","null","mooney1","image-keyboard-response","322","1115458","0.0-6.0-1.45","3011036","co38611","norming","","","","","","",""
"4763.25","","","post_mooney1_questions","survey-likert","323","1120224","0.0-6.0-2.45","3011036","co38611","norming","","","{""curiosity"":6,""confidence"":0}","[0,1]","../img/tt/1175tt.jpg","",""
"654.7949999999255","","","recognition","survey-text","324","1120881","0.0-6.0-3.45","3011036","co38611","norming","","","{""guess"":""""}","","../img/tt/1175tt.jpg","",""
"null","../img/gs/1175gs.jpg","null","reveal","image-keyboard-response","325","1122888","0.0-6.0-4.45","3011036","co38611","norming","","","","","","",""
"null","../img/tt/1175tt.jpg","null","mooney2","image-keyboard-response","326","1124891","0.0-6.0-5.45","3011036","co38611","norming","","","","","","",""
"2220.344999999972","","","post_reveal_questions","survey-likert","327","1127114","0.0-6.0-6.45","3011036","co38611","norming","","","{""aha"":3}","[0]","../img/tt/1175tt.jpg","",""
"null","<div style=""font-size:60px;""> </div>","null","fixation","html-keyboard-response","328","1127318","0.0-6.0-0.46","3011036","co38611","norming","","","","","","",""
"null","../img/tt/456tt.jpg","null","mooney1","image-keyboard-response","329","1130322","0.0-6.0-1.46","3011036","co38611","norming","","","","","","",""
"5221.454999999842","","","post_mooney1_questions","survey-likert","330","1135546","0.0-6.0-2.46","3011036","co38611","norming","","","{""curiosity"":6,""confidence"":0}","[0,1]","../img/tt/456tt.jpg","",""
"3713.814999999944","","","recognition","survey-text","331","1139266","0.0-6.0-3.46","3011036","co38611","norming","","","{""guess"":""slak""}","","../img/tt/456tt.jpg","",""
"null","../img/gs/456gs.jpg","null","reveal","image-keyboard-response","332","1141278","0.0-6.0-4.46","3011036","co38611","norming","","","","","","",""
"null","../img/tt/456tt.jpg","null","mooney2","image-keyboard-response","333","1143280","0.0-6.0-5.46","3011036","co38611","norming","","","","","","",""
"1607.0049999998882","","","post_reveal_questions","survey-likert","334","1144890","0.0-6.0-6.46","3011036","co38611","norming","","","{""aha"":6}","[0]","../img/tt/456tt.jpg","",""
"null","<div style=""font-size:60px;""> </div>","null","fixation","html-keyboard-response","335","1145102","0.0-6.0-0.47","3011036","co38611","norming","","","","","","",""
"null","../img/tt/105tt.jpg","null","mooney1","image-keyboard-response","336","1148111","0.0-6.0-1.47","3011036","co38611","norming","","","","","","",""
"3184.065000000177","","","post_mooney1_questions","survey-likert","337","1151299","0.0-6.0-2.47","3011036","co38611","norming","","","{""curiosity"":6,""confidence"":2}","[0,1]","../img/tt/105tt.jpg","",""
"3223.7600000000093","","","recognition","survey-text","338","1154530","0.0-6.0-3.47","3011036","co38611","norming","","","{""guess"":""vlinders""}","","../img/tt/105tt.jpg","",""
"null","../img/gs/105gs.jpg","null","reveal","image-keyboard-response","339","1156542","0.0-6.0-4.47","3011036","co38611","norming","","","","","","",""
"null","../img/tt/105tt.jpg","null","mooney2","image-keyboard-response","340","1158544","0.0-6.0-5.47","3011036","co38611","norming","","","","","","",""
"3951.185000000056","","","post_reveal_questions","survey-likert","341","1162498","0.0-6.0-6.47","3011036","co38611","norming","","","{""aha"":6}","[0]","../img/tt/105tt.jpg","",""
"null","<div style=""font-size:60px;""> </div>","null","fixation","html-keyboard-response","342","1162709","0.0-6.0-0.48","3011036","co38611","norming","","","","","","",""
"null","../img/tt/1118tt.jpg","null","mooney1","image-keyboard-response","343","1165713","0.0-6.0-1.48","3011036","co38611","norming","","","","","","",""
"5270.220000000205","","","post_mooney1_questions","survey-likert","344","1170987","0.0-6.0-2.48","3011036","co38611","norming","","","{""curiosity"":3,""confidence"":0}","[0,1]","../img/tt/1118tt.jpg","",""
"1009.2049999998417","","","recognition","survey-text","345","1172002","0.0-6.0-3.48","3011036","co38611","norming","","","{""guess"":""""}","","../img/tt/1118tt.jpg","",""
"null","../img/gs/1118gs.jpg","null","reveal","image-keyboard-response","346","1174005","0.0-6.0-4.48","3011036","co38611","norming","","","","","","",""
"null","../img/tt/1118tt.jpg","null","mooney2","image-keyboard-response","347","1176009","0.0-6.0-5.48","3011036","co38611","norming","","","","","","",""
"3535","","","post_reveal_questions","survey-likert","348","1179546","0.0-6.0-6.48","3011036","co38611","norming","","","{""aha"":6}","[0]","../img/tt/1118tt.jpg","",""
"null","<div style=""font-size:60px;""> </div>","null","fixation","html-keyboard-response","349","1179748","0.0-6.0-0.49","3011036","co38611","norming","","","","","","",""
"null","../img/tt/406tt.jpg","null","mooney1","image-keyboard-response","350","1182756","0.0-6.0-1.49","3011036","co38611","norming","","","","","","",""
"3874.3050000001676","","","post_mooney1_questions","survey-likert","351","1186635","0.0-6.0-2.49","3011036","co38611","norming","","","{""curiosity"":6,""confidence"":0}","[0,1]","../img/tt/406tt.jpg","",""
"1128.9550000003073","","","recognition","survey-text","352","1187769","0.0-6.0-3.49","3011036","co38611","norming","","","{""guess"":""""}","","../img/tt/406tt.jpg","",""
"null","../img/gs/406gs.jpg","null","reveal","image-keyboard-response","353","1189774","0.0-6.0-4.49","3011036","co38611","norming","","","","","","",""
"null","../img/tt/406tt.jpg","null","mooney2","image-keyboard-response","354","1191776","0.0-6.0-5.49","3011036","co38611","norming","","","","","","",""
"2047.1000000000931","","","post_reveal_questions","survey-likert","355","1193826","0.0-6.0-6.49","3011036","co38611","norming","","","{""aha"":6}","[0]","../img/tt/406tt.jpg","",""
"null","<div style=""font-size:60px;""> </div>","null","fixation","html-keyboard-response","356","1194038","0.0-6.0-0.50","3011036","co38611","norming","","","","","","",""
"null","../img/tt/1159tt.jpg","null","mooney1","image-keyboard-response","357","1197049","0.0-6.0-1.50","3011036","co38611","norming","","","","","","",""
"4982.564999999711","","","post_mooney1_questions","survey-likert","358","1202035","0.0-6.0-2.50","3011036","co38611","norming","","","{""curiosity"":5,""confidence"":0}","[0,1]","../img/tt/1159tt.jpg","",""
"986.1199999998789","","","recognition","survey-text","359","1203025","0.0-6.0-3.50","3011036","co38611","norming","","","{""guess"":""""}","","../img/tt/1159tt.jpg","",""
"null","../img/gs/1159gs.jpg","null","reveal","image-keyboard-response","360","1205029","0.0-6.0-4.50","3011036","co38611","norming","","","","","","",""
"null","../img/tt/1159tt.jpg","null","mooney2","image-keyboard-response","361","1207034","0.0-6.0-5.50","3011036","co38611","norming","","","","","","",""
"2340.9200000001583","","","post_reveal_questions","survey-likert","362","1209378","0.0-6.0-6.50","3011036","co38611","norming","","","{""aha"":3}","[0]","../img/tt/1159tt.jpg","",""
"null","<div style=""font-size:60px;""> </div>","null","fixation","html-keyboard-response","363","1209584","0.0-6.0-0.51","3011036","co38611","norming","","","","","","",""
"null","../img/tt/477tt.jpg","null","mooney1","image-keyboard-response","364","1212586","0.0-6.0-1.51","3011036","co38611","norming","","","","","","",""
"3533.2450000001118","","","post_mooney1_questions","survey-likert","365","1216122","0.0-6.0-2.51","3011036","co38611","norming","","","{""curiosity"":6,""confidence"":2}","[0,1]","../img/tt/477tt.jpg","",""
"3049.7000000001863","","","recognition","survey-text","366","1219170","0.0-6.0-3.51","3011036","co38611","norming","","","{""guess"":""pandas""}","","../img/tt/477tt.jpg","",""
"null","../img/gs/477gs.jpg","null","reveal","image-keyboard-response","367","1221174","0.0-6.0-4.51","3011036","co38611","norming","","","","","","",""
"null","../img/tt/477tt.jpg","null","mooney2","image-keyboard-response","368","1223182","0.0-6.0-5.51","3011036","co38611","norming","","","","","","",""
"3265.3899999998976","","","post_reveal_questions","survey-likert","369","1226451","0.0-6.0-6.51","3011036","co38611","norming","","","{""aha"":6}","[0]","../img/tt/477tt.jpg","",""
"null","<div style=""font-size:60px;""> </div>","null","fixation","html-keyboard-response","370","1226659","0.0-6.0-0.52","3011036","co38611","norming","","","","","","",""
"null","../img/tt/1186tt.jpg","null","mooney1","image-keyboard-response","371","1229662","0.0-6.0-1.52","3011036","co38611","norming","","","","","","",""
"3650.155000000028","","","post_mooney1_questions","survey-likert","372","1233315","0.0-6.0-2.52","3011036","co38611","norming","","","{""curiosity"":6,""confidence"":2}","[0,1]","../img/tt/1186tt.jpg","",""
"11480.804999999935","","","recognition","survey-text","373","1244802","0.0-6.0-3.52","3011036","co38611","norming","","","{""guess"":""roller skater""}","","../img/tt/1186tt.jpg","",""
"null","../img/gs/1186gs.jpg","null","reveal","image-keyboard-response","374","1246806","0.0-6.0-4.52","3011036","co38611","norming","","","","","","",""
"null","../img/tt/1186tt.jpg","null","mooney2","image-keyboard-response","375","1248814","0.0-6.0-5.52","3011036","co38611","norming","","","","","","",""
"2760.350000000093","","","post_reveal_questions","survey-likert","376","1251576","0.0-6.0-6.52","3011036","co38611","norming","","","{""aha"":2}","[0]","../img/tt/1186tt.jpg","",""
"null","<div style=""font-size:60px;""> </div>","null","fixation","html-keyboard-response","377","1251782","0.0-6.0-0.53","3011036","co38611","norming","","","","","","",""
"null","../img/tt/1309tt.jpg","null","mooney1","image-keyboard-response","378","1254790","0.0-6.0-1.53","3011036","co38611","norming","","","","","","",""
"3353.689999999944","","","post_mooney1_questions","survey-likert","379","1258147","0.0-6.0-2.53","3011036","co38611","norming","","","{""curiosity"":6,""confidence"":1}","[0,1]","../img/tt/1309tt.jpg","",""
"2842.4550000000745","","","recognition","survey-text","380","1260994","0.0-6.0-3.53","3011036","co38611","norming","","","{""guess"":""jeep""}","","../img/tt/1309tt.jpg","",""
"null","../img/gs/1309gs.jpg","null","reveal","image-keyboard-response","381","1262998","0.0-6.0-4.53","3011036","co38611","norming","","","","","","",""
"null","../img/tt/1309tt.jpg","null","mooney2","image-keyboard-response","382","1265000","0.0-6.0-5.53","3011036","co38611","norming","","","","","","",""
"2104.2450000001118","","","post_reveal_questions","survey-likert","383","1267107","0.0-6.0-6.53","3011036","co38611","norming","","","{""aha"":3}","[0]","../img/tt/1309tt.jpg","",""
"null","<div style=""font-size:60px;""> </div>","null","fixation","html-keyboard-response","384","1267309","0.0-6.0-0.54","3011036","co38611","norming","","","","","","",""
"null","../img/tt/1188tt.jpg","null","mooney1","image-keyboard-response","385","1270314","0.0-6.0-1.54","3011036","co38611","norming","","","","","","",""
"2909.024999999907","","","post_mooney1_questions","survey-likert","386","1273227","0.0-6.0-2.54","3011036","co38611","norming","","","{""curiosity"":6,""confidence"":1}","[0,1]","../img/tt/1188tt.jpg","",""
"4657.909999999916","","","recognition","survey-text","387","1277898","0.0-6.0-3.54","3011036","co38611","norming","","","{""guess"":""rugby speler""}","","../img/tt/1188tt.jpg","",""
"null","../img/gs/1188gs.jpg","null","reveal","image-keyboard-response","388","1279906","0.0-6.0-4.54","3011036","co38611","norming","","","","","","",""
"null","../img/tt/1188tt.jpg","null","mooney2","image-keyboard-response","389","1281909","0.0-6.0-5.54","3011036","co38611","norming","","","","","","",""
"2442.9799999999814","","","post_reveal_questions","survey-likert","390","1284354","0.0-6.0-6.54","3011036","co38611","norming","","","{""aha"":3}","[0]","../img/tt/1188tt.jpg","",""
"null","<div style=""font-size:60px;""> </div>","null","fixation","html-keyboard-response","391","1284566","0.0-6.0-0.55","3011036","co38611","norming","","","","","","",""
"null","../img/tt/1243tt.jpg","null","mooney1","image-keyboard-response","392","1287573","0.0-6.0-1.55","3011036","co38611","norming","","","","","","",""
"3172.899999999907","","","post_mooney1_questions","survey-likert","393","1290748","0.0-6.0-2.55","3011036","co38611","norming","","","{""curiosity"":6,""confidence"":1}","[0,1]","../img/tt/1243tt.jpg","",""
"2361.0400000000373","","","recognition","survey-text","394","1293114","0.0-6.0-3.55","3011036","co38611","norming","","","{""guess"":""tegels""}","","../img/tt/1243tt.jpg","",""
"null","../img/gs/1243gs.jpg","null","reveal","image-keyboard-response","395","1295118","0.0-6.0-4.55","3011036","co38611","norming","","","","","","",""
"null","../img/tt/1243tt.jpg","null","mooney2","image-keyboard-response","396","1297120","0.0-6.0-5.55","3011036","co38611","norming","","","","","","",""
"2319.684999999823","","","post_reveal_questions","survey-likert","397","1299443","0.0-6.0-6.55","3011036","co38611","norming","","","{""aha"":3}","[0]","../img/tt/1243tt.jpg","",""
"null","<div style=""font-size:60px;""> </div>","null","fixation","html-keyboard-response","398","1299645","0.0-6.0-0.56","3011036","co38611","norming","","","","","","",""
"null","../img/tt/1205tt.jpg","null","mooney1","image-keyboard-response","399","1302652","0.0-6.0-1.56","3011036","co38611","norming","","","","","","",""
"3395.804999999935","","","post_mooney1_questions","survey-likert","400","1306051","0.0-6.0-2.56","3011036","co38611","norming","","","{""curiosity"":6,""confidence"":1}","[0,1]","../img/tt/1205tt.jpg","",""
"12418.409999999916","","","recognition","survey-text","401","1318474","0.0-6.0-3.56","3011036","co38611","norming","","","{""guess"":""sumo worstelaars""}","","../img/tt/1205tt.jpg","",""
"null","../img/gs/1205gs.jpg","null","reveal","image-keyboard-response","402","1320483","0.0-6.0-4.56","3011036","co38611","norming","","","","","","",""
"null","../img/tt/1205tt.jpg","null","mooney2","image-keyboard-response","403","1322486","0.0-6.0-5.56","3011036","co38611","norming","","","","","","",""
"2289.369999999879","","","post_reveal_questions","survey-likert","404","1324778","0.0-6.0-6.56","3011036","co38611","norming","","","{""aha"":3}","[0]","../img/tt/1205tt.jpg","",""
"null","<div style=""font-size:60px;""> </div>","null","fixation","html-keyboard-response","405","1324988","0.0-6.0-0.57","3011036","co38611","norming","","","","","","",""
"null","../img/tt/1217tt.jpg","null","mooney1","image-keyboard-response","406","1328000","0.0-6.0-1.57","3011036","co38611","norming","","","","","","",""
"3247.730000000214","","","post_mooney1_questions","survey-likert","407","1331252","0.0-6.0-2.57","3011036","co38611","norming","","","{""curiosity"":6,""confidence"":1}","[0,1]","../img/tt/1217tt.jpg","",""
"7455.319999999832","","","recognition","survey-text","408","1338710","0.0-6.0-3.57","3011036","co38611","norming","","","{""guess"":""basketbal spelers""}","","../img/tt/1217tt.jpg","",""
"null","../img/gs/1217gs.jpg","null","reveal","image-keyboard-response","409","1340717","0.0-6.0-4.57","3011036","co38611","norming","","","","","","",""
"null","../img/tt/1217tt.jpg","null","mooney2","image-keyboard-response","410","1342723","0.0-6.0-5.57","3011036","co38611","norming","","","","","","",""
"2236.344999999972","","","post_reveal_questions","survey-likert","411","1344961","0.0-6.0-6.57","3011036","co38611","norming","","","{""aha"":3}","[0]","../img/tt/1217tt.jpg","",""
"null","<div style=""font-size:60px;""> </div>","null","fixation","html-keyboard-response","412","1345171","0.0-6.0-0.58","3011036","co38611","norming","","","","","","",""
"null","../img/tt/1275tt.jpg","null","mooney1","image-keyboard-response","413","1348180","0.0-6.0-1.58","3011036","co38611","norming","","","","","","",""
"2745.465000000084","","","post_mooney1_questions","survey-likert","414","1350930","0.0-6.0-2.58","3011036","co38611","norming","","","{""curiosity"":6,""confidence"":1}","[0,1]","../img/tt/1275tt.jpg","",""
"1938.4250000000466","","","recognition","survey-text","415","1352872","0.0-6.0-3.58","3011036","co38611","norming","","","{""guess"":""egels""}","","../img/tt/1275tt.jpg","",""
"null","../img/gs/1275gs.jpg","null","reveal","image-keyboard-response","416","1354884","0.0-6.0-4.58","3011036","co38611","norming","","","","","","",""
"null","../img/tt/1275tt.jpg","null","mooney2","image-keyboard-response","417","1356886","0.0-6.0-5.58","3011036","co38611","norming","","","","","","",""
"3047.8850000000093","","","post_reveal_questions","survey-likert","418","1359937","0.0-6.0-6.58","3011036","co38611","norming","","","{""aha"":6}","[0]","../img/tt/1275tt.jpg","",""
"null","<div style=""font-size:60px;""> </div>","null","fixation","html-keyboard-response","419","1360142","0.0-6.0-0.59","3011036","co38611","norming","","","","","","",""
"null","../img/tt/515tt.jpg","null","mooney1","image-keyboard-response","420","1363150","0.0-6.0-1.59","3011036","co38611","norming","","","","","","",""
"3423.5400000000373","","","post_mooney1_questions","survey-likert","421","1366578","0.0-6.0-2.59","3011036","co38611","norming","","","{""curiosity"":6,""confidence"":1}","[0,1]","../img/tt/515tt.jpg","",""
"1952.625","","","recognition","survey-text","422","1368537","0.0-6.0-3.59","3011036","co38611","norming","","","{""guess"":""duif""}","","../img/tt/515tt.jpg","",""
"null","../img/gs/515gs.jpg","null","reveal","image-keyboard-response","423","1370549","0.0-6.0-4.59","3011036","co38611","norming","","","","","","",""
"null","../img/tt/515tt.jpg","null","mooney2","image-keyboard-response","424","1372556","0.0-6.0-5.59","3011036","co38611","norming","","","","","","",""
"2122.179999999935","","","post_reveal_questions","survey-likert","425","1374681","0.0-6.0-6.59","3011036","co38611","norming","","","{""aha"":3}","[0]","../img/tt/515tt.jpg","",""
"null","<div style=""font-size:60px;""> </div>","null","fixation","html-keyboard-response","426","1374889","0.0-6.0-0.60","3011036","co38611","norming","","","","","","",""
"null","../img/tt/1224tt.jpg","null","mooney1","image-keyboard-response","427","1377900","0.0-6.0-1.60","3011036","co38611","norming","","","","","","",""
"4937.97499999986","","","post_mooney1_questions","survey-likert","428","1382842","0.0-6.0-2.60","3011036","co38611","norming","","","{""curiosity"":6,""confidence"":1}","[0,1]","../img/tt/1224tt.jpg","",""
"4536.839999999851","","","recognition","survey-text","429","1387385","0.0-6.0-3.60","3011036","co38611","norming","","","{""guess"":""boxers""}","","../img/tt/1224tt.jpg","",""
"null","../img/gs/1224gs.jpg","null","reveal","image-keyboard-response","430","1389389","0.0-6.0-4.60","3011036","co38611","norming","","","","","","",""
"null","../img/tt/1224tt.jpg","null","mooney2","image-keyboard-response","431","1391398","0.0-6.0-5.60","3011036","co38611","norming","","","","","","",""
"2959.8449999997392","","","post_reveal_questions","survey-likert","432","1394361","0.0-6.0-6.60","3011036","co38611","norming","","","{""aha"":4}","[0]","../img/tt/1224tt.jpg","",""
"null","<div style=""font-size:60px;""> </div>","null","fixation","html-keyboard-response","433","1394567","0.0-6.0-0.61","3011036","co38611","norming","","","","","","",""
"null","../img/tt/1040tt.jpg","null","mooney1","image-keyboard-response","434","1397576","0.0-6.0-1.61","3011036","co38611","norming","","","","","","",""
"3745.054999999935","","","post_mooney1_questions","survey-likert","435","1401323","0.0-6.0-2.61","3011036","co38611","norming","","","{""curiosity"":6,""confidence"":0}","[0,1]","../img/tt/1040tt.jpg","",""
"3545.684999999823","","","recognition","survey-text","436","1404874","0.0-6.0-3.61","3011036","co38611","norming","","","{""guess"":""krokodil""}","","../img/tt/1040tt.jpg","",""
"null","../img/gs/1040gs.jpg","null","reveal","image-keyboard-response","437","1406884","0.0-6.0-4.61","3011036","co38611","norming","","","","","","",""
"null","../img/tt/1040tt.jpg","null","mooney2","image-keyboard-response","438","1408891","0.0-6.0-5.61","3011036","co38611","norming","","","","","","",""
"2611.0849999999627","","","post_reveal_questions","survey-likert","439","1411504","0.0-6.0-6.61","3011036","co38611","norming","","","{""aha"":6}","[0]","../img/tt/1040tt.jpg","",""
"null","<div style=""font-size:60px;""> </div>","null","fixation","html-keyboard-response","440","1411711","0.0-6.0-0.62","3011036","co38611","norming","","","","","","",""
"null","../img/tt/1232tt.jpg","null","mooney1","image-keyboard-response","441","1414715","0.0-6.0-1.62","3011036","co38611","norming","","","","","","",""
"3100.625000000233","","","post_mooney1_questions","survey-likert","442","1417819","0.0-6.0-2.62","3011036","co38611","norming","","","{""curiosity"":6,""confidence"":3}","[0,1]","../img/tt/1232tt.jpg","",""
"2713.054999999935","","","recognition","survey-text","443","1420538","0.0-6.0-3.62","3011036","co38611","norming","","","{""guess"":""vogel""}","","../img/tt/1232tt.jpg","",""
"null","../img/gs/1232gs.jpg","null","reveal","image-keyboard-response","444","1422546","0.0-6.0-4.62","3011036","co38611","norming","","","","","","",""
"null","../img/tt/1232tt.jpg","null","mooney2","image-keyboard-response","445","1424549","0.0-6.0-5.62","3011036","co38611","norming","","","","","","",""
"2977.8449999997392","","","post_reveal_questions","survey-likert","446","1427530","0.0-6.0-6.62","3011036","co38611","norming","","","{""aha"":3}","[0]","../img/tt/1232tt.jpg","",""
"null","<div style=""font-size:60px;""> </div>","null","fixation","html-keyboard-response","447","1427738","0.0-6.0-0.63","3011036","co38611","norming","","","","","","",""
"null","../img/tt/1202tt.jpg","null","mooney1","image-keyboard-response","448","1430748","0.0-6.0-1.63","3011036","co38611","norming","","","","","","",""
"4587.795000000158","","","post_mooney1_questions","survey-likert","449","1435339","0.0-6.0-2.63","3011036","co38611","norming","","","{""curiosity"":4,""confidence"":0}","[0,1]","../img/tt/1202tt.jpg","",""
"920.839999999851","","","recognition","survey-text","450","1436266","0.0-6.0-3.63","3011036","co38611","norming","","","{""guess"":""""}","","../img/tt/1202tt.jpg","",""
"null","../img/gs/1202gs.jpg","null","reveal","image-keyboard-response","451","1438273","0.0-6.0-4.63","3011036","co38611","norming","","","","","","",""
"null","../img/tt/1202tt.jpg","null","mooney2","image-keyboard-response","452","1440276","0.0-6.0-5.63","3011036","co38611","norming","","","","","","",""
"2795.195000000065","","","post_reveal_questions","survey-likert","453","1443075","0.0-6.0-6.63","3011036","co38611","norming","","","{""aha"":3}","[0]","../img/tt/1202tt.jpg","",""
"null","<div style=""font-size:60px;""> </div>","null","fixation","html-keyboard-response","454","1443286","0.0-6.0-0.64","3011036","co38611","norming","","","","","","",""
"null","../img/tt/1012tt.jpg","null","mooney1","image-keyboard-response","455","1446289","0.0-6.0-1.64","3011036","co38611","norming","","","","","","",""
"3596.815000000177","","","post_mooney1_questions","survey-likert","456","1449888","0.0-6.0-2.64","3011036","co38611","norming","","","{""curiosity"":6,""confidence"":0}","[0,1]","../img/tt/1012tt.jpg","",""
"679.4250000000466","","","recognition","survey-text","457","1450570","0.0-6.0-3.64","3011036","co38611","norming","","","{""guess"":""""}","","../img/tt/1012tt.jpg","",""
"null","../img/gs/1012gs.jpg","null","reveal","image-keyboard-response","458","1452582","0.0-6.0-4.64","3011036","co38611","norming","","","","","","",""
"null","../img/tt/1012tt.jpg","null","mooney2","image-keyboard-response","459","1454585","0.0-6.0-5.64","3011036","co38611","norming","","","","","","",""
"5806.194999999832","","","post_reveal_questions","survey-likert","460","1460394","0.0-6.0-6.64","3011036","co38611","norming","","","{""aha"":6}","[0]","../img/tt/1012tt.jpg","",""
"null","<div style=""font-size:60px;""> </div>","null","fixation","html-keyboard-response","461","1460601","0.0-6.0-0.65","3011036","co38611","norming","","","","","","",""
"null","../img/tt/440tt.jpg","null","mooney1","image-keyboard-response","462","1463608","0.0-6.0-1.65","3011036","co38611","norming","","","","","","",""
"3849.3600000001024","","","post_mooney1_questions","survey-likert","463","1467459","0.0-6.0-2.65","3011036","co38611","norming","","","{""curiosity"":6,""confidence"":0}","[0,1]","../img/tt/440tt.jpg","",""
"1040.4799999999814","","","recognition","survey-text","464","1468506","0.0-6.0-3.65","3011036","co38611","norming","","","{""guess"":""""}","","../img/tt/440tt.jpg","",""
"null","../img/gs/440gs.jpg","null","reveal","image-keyboard-response","465","1470510","0.0-6.0-4.65","3011036","co38611","norming","","","","","","",""
"null","../img/tt/440tt.jpg","null","mooney2","image-keyboard-response","466","1472512","0.0-6.0-5.65","3011036","co38611","norming","","","","","","",""
"1863.1399999998976","","","post_reveal_questions","survey-likert","467","1474378","0.0-6.0-6.65","3011036","co38611","norming","","","{""aha"":6}","[0]","../img/tt/440tt.jpg","",""
"null","<div style=""font-size:60px;""> </div>","null","fixation","html-keyboard-response","468","1474590","0.0-6.0-0.66","3011036","co38611","norming","","","","","","",""
"null","../img/tt/306tt.jpg","null","mooney1","image-keyboard-response","469","1477601","0.0-6.0-1.66","3011036","co38611","norming","","","","","","",""
"3072.4199999999255","","","post_mooney1_questions","survey-likert","470","1480675","0.0-6.0-2.66","3011036","co38611","norming","","","{""curiosity"":6,""confidence"":1}","[0,1]","../img/tt/306tt.jpg","",""
"2259.255000000121","","","recognition","survey-text","471","1482938","0.0-6.0-3.66","3011036","co38611","norming","","","{""guess"":""kikker""}","","../img/tt/306tt.jpg","",""
"null","../img/gs/306gs.jpg","null","reveal","image-keyboard-response","472","1484948","0.0-6.0-4.66","3011036","co38611","norming","","","","","","",""
"null","../img/tt/306tt.jpg","null","mooney2","image-keyboard-response","473","1486949","0.0-6.0-5.66","3011036","co38611","norming","","","","","","",""
"2689.070000000065","","","post_reveal_questions","survey-likert","474","1489641","0.0-6.0-6.66","3011036","co38611","norming","","","{""aha"":1}","[0]","../img/tt/306tt.jpg","",""
"null","<div style=""font-size:60px;""> </div>","null","fixation","html-keyboard-response","475","1489843","0.0-6.0-0.67","3011036","co38611","norming","","","","","","",""
"null","../img/tt/522tt.jpg","null","mooney1","image-keyboard-response","476","1492846","0.0-6.0-1.67","3011036","co38611","norming","","","","","","",""
"3761.309999999823","","","post_mooney1_questions","survey-likert","477","1496611","0.0-6.0-2.67","3011036","co38611","norming","","","{""curiosity"":6,""confidence"":0}","[0,1]","../img/tt/522tt.jpg","",""
"1234.9199999999255","","","recognition","survey-text","478","1497850","0.0-6.0-3.67","3011036","co38611","norming","","","{""guess"":""""}","","../img/tt/522tt.jpg","",""
"null","../img/gs/522gs.jpg","null","reveal","image-keyboard-response","479","1499856","0.0-6.0-4.67","3011036","co38611","norming","","","","","","",""
"null","../img/tt/522tt.jpg","null","mooney2","image-keyboard-response","480","1501860","0.0-6.0-5.67","3011036","co38611","norming","","","","","","",""
"2267.7900000000373","","","post_reveal_questions","survey-likert","481","1504130","0.0-6.0-6.67","3011036","co38611","norming","","","{""aha"":3}","[0]","../img/tt/522tt.jpg","",""
"null","<div style=""font-size:60px;""> </div>","null","fixation","html-keyboard-response","482","1504340","0.0-6.0-0.68","3011036","co38611","norming","","","","","","",""
"null","../img/tt/1196tt.jpg","null","mooney1","image-keyboard-response","483","1507344","0.0-6.0-1.68","3011036","co38611","norming","","","","","","",""
"7135.2400000002235","","","post_mooney1_questions","survey-likert","484","1514483","0.0-6.0-2.68","3011036","co38611","norming","","","{""curiosity"":6,""confidence"":0}","[0,1]","../img/tt/1196tt.jpg","",""
"975.4650000000838","","","recognition","survey-text","485","1515464","0.0-6.0-3.68","3011036","co38611","norming","","","{""guess"":""""}","","../img/tt/1196tt.jpg","",""
"null","../img/gs/1196gs.jpg","null","reveal","image-keyboard-response","486","1517471","0.0-6.0-4.68","3011036","co38611","norming","","","","","","",""
"null","../img/tt/1196tt.jpg","null","mooney2","image-keyboard-response","487","1519478","0.0-6.0-5.68","3011036","co38611","norming","","","","","","",""
"1801.4650000000838","","","post_reveal_questions","survey-likert","488","1521282","0.0-6.0-6.68","3011036","co38611","norming","","","{""aha"":3}","[0]","../img/tt/1196tt.jpg","",""
"null","<div style=""font-size:60px;""> </div>","null","fixation","html-keyboard-response","489","1521488","0.0-6.0-0.69","3011036","co38611","norming","","","","","","",""
"null","../img/tt/1362tt.jpg","null","mooney1","image-keyboard-response","490","1524491","0.0-6.0-1.69","3011036","co38611","norming","","","","","","",""
"4020.2350000001024","","","post_mooney1_questions","survey-likert","491","1528515","0.0-6.0-2.69","3011036","co38611","norming","","","{""curiosity"":6,""confidence"":1}","[0,1]","../img/tt/1362tt.jpg","",""
"5730.22499999986","","","recognition","survey-text","492","1534250","0.0-6.0-3.69","3011036","co38611","norming","","","{""guess"":""breakfast""}","","../img/tt/1362tt.jpg","",""
"null","../img/gs/1362gs.jpg","null","reveal","image-keyboard-response","493","1536259","0.0-6.0-4.69","3011036","co38611","norming","","","","","","",""
"null","../img/tt/1362tt.jpg","null","mooney2","image-keyboard-response","494","1538263","0.0-6.0-5.69","3011036","co38611","norming","","","","","","",""
"2415.994999999879","","","post_reveal_questions","survey-likert","495","1540682","0.0-6.0-6.69","3011036","co38611","norming","","","{""aha"":3}","[0]","../img/tt/1362tt.jpg","",""
"null","<div style=""font-size:60px;""> </div>","null","fixation","html-keyboard-response","496","1540894","0.0-6.0-0.70","3011036","co38611","norming","","","","","","",""
"null","../img/tt/1237tt.jpg","null","mooney1","image-keyboard-response","497","1543906","0.0-6.0-1.70","3011036","co38611","norming","","","","","","",""
"4317.350000000093","","","post_mooney1_questions","survey-likert","498","1548227","0.0-6.0-2.70","3011036","co38611","norming","","","{""curiosity"":6,""confidence"":1}","[0,1]","../img/tt/1237tt.jpg","",""
"3856.2600000000093","","","recognition","survey-text","499","1552089","0.0-6.0-3.70","3011036","co38611","norming","","","{""guess"":""eend""}","","../img/tt/1237tt.jpg","",""
"null","../img/gs/1237gs.jpg","null","reveal","image-keyboard-response","500","1554094","0.0-6.0-4.70","3011036","co38611","norming","","","","","","",""
"null","../img/tt/1237tt.jpg","null","mooney2","image-keyboard-response","501","1556101","0.0-6.0-5.70","3011036","co38611","norming","","","","","","",""
"3217.8850000000093","","","post_reveal_questions","survey-likert","502","1559322","0.0-6.0-6.70","3011036","co38611","norming","","","{""aha"":1}","[0]","../img/tt/1237tt.jpg","",""
"null","<div style=""font-size:60px;""> </div>","null","fixation","html-keyboard-response","503","1559529","0.0-6.0-0.71","3011036","co38611","norming","","","","","","",""
"null","../img/tt/1125tt.jpg","null","mooney1","image-keyboard-response","504","1562531","0.0-6.0-1.71","3011036","co38611","norming","","","","","","",""
"4132.104999999981","","","post_mooney1_questions","survey-likert","505","1566667","0.0-6.0-2.71","3011036","co38611","norming","","","{""curiosity"":6,""confidence"":0}","[0,1]","../img/tt/1125tt.jpg","",""
"2506.2450000001118","","","recognition","survey-text","506","1569178","0.0-6.0-3.71","3011036","co38611","norming","","","{""guess"":""zanger""}","","../img/tt/1125tt.jpg","",""
"null","../img/gs/1125gs.jpg","null","reveal","image-keyboard-response","507","1571181","0.0-6.0-4.71","3011036","co38611","norming","","","","","","",""
"null","../img/tt/1125tt.jpg","null","mooney2","image-keyboard-response","508","1573191","0.0-6.0-5.71","3011036","co38611","norming","","","","","","",""
"4800.200000000186","","","post_reveal_questions","survey-likert","509","1577994","0.0-6.0-6.71","3011036","co38611","norming","","","{""aha"":6}","[0]","../img/tt/1125tt.jpg","",""
"null","<div style=""font-size:60px;""> </div>","null","fixation","html-keyboard-response","510","1578203","0.0-6.0-0.72","3011036","co38611","norming","","","","","","",""
"null","../img/tt/1004tt.jpg","null","mooney1","image-keyboard-response","511","1581216","0.0-6.0-1.72","3011036","co38611","norming","","","","","","",""
"3373.399999999907","","","post_mooney1_questions","survey-likert","512","1584592","0.0-6.0-2.72","3011036","co38611","norming","","","{""curiosity"":6,""confidence"":0}","[0,1]","../img/tt/1004tt.jpg","",""
"1335.6650000000373","","","recognition","survey-text","513","1585930","0.0-6.0-3.72","3011036","co38611","norming","","","{""guess"":""""}","","../img/tt/1004tt.jpg","",""
"null","../img/gs/1004gs.jpg","null","reveal","image-keyboard-response","514","1587940","0.0-6.0-4.72","3011036","co38611","norming","","","","","","",""
"null","../img/tt/1004tt.jpg","null","mooney2","image-keyboard-response","515","1589942","0.0-6.0-5.72","3011036","co38611","norming","","","","","","",""
"1911.7099999999627","","","post_reveal_questions","survey-likert","516","1591856","0.0-6.0-6.72","3011036","co38611","norming","","","{""aha"":3}","[0]","../img/tt/1004tt.jpg","",""
"null","<div style=""font-size:60px;""> </div>","null","fixation","html-keyboard-response","517","1592062","0.0-6.0-0.73","3011036","co38611","norming","","","","","","",""
"null","../img/tt/296tt.jpg","null","mooney1","image-keyboard-response","518","1595070","0.0-6.0-1.73","3011036","co38611","norming","","","","","","",""
"4201.26500000013","","","post_mooney1_questions","survey-likert","519","1599275","0.0-6.0-2.73","3011036","co38611","norming","","","{""curiosity"":6,""confidence"":0}","[0,1]","../img/tt/296tt.jpg","",""
"5192.964999999851","","","recognition","survey-text","520","1604474","0.0-6.0-3.73","3011036","co38611","norming","","","{""guess"":""doodskist""}","","../img/tt/296tt.jpg","",""
"null","../img/gs/296gs.jpg","null","reveal","image-keyboard-response","521","1606480","0.0-6.0-4.73","3011036","co38611","norming","","","","","","",""
"null","../img/tt/296tt.jpg","null","mooney2","image-keyboard-response","522","1608483","0.0-6.0-5.73","3011036","co38611","norming","","","","","","",""
"3587.2249999998603","","","post_reveal_questions","survey-likert","523","1612072","0.0-6.0-6.73","3011036","co38611","norming","","","{""aha"":5}","[0]","../img/tt/296tt.jpg","",""
"null","<div style=""font-size:60px;""> </div>","null","fixation","html-keyboard-response","524","1612277","0.0-6.0-0.74","3011036","co38611","norming","","","","","","",""
"null","../img/tt/081tt.jpg","null","mooney1","image-keyboard-response","525","1615280","0.0-6.0-1.74","3011036","co38611","norming","","","","","","",""
"3175.909999999916","","","post_mooney1_questions","survey-likert","526","1618459","0.0-6.0-2.74","3011036","co38611","norming","","","{""curiosity"":6,""confidence"":1}","[0,1]","../img/tt/081tt.jpg","",""
"2265.529999999795","","","recognition","survey-text","527","1620730","0.0-6.0-3.74","3011036","co38611","norming","","","{""guess"":""kikker""}","","../img/tt/081tt.jpg","",""
"null","../img/gs/081gs.jpg","null","reveal","image-keyboard-response","528","1622738","0.0-6.0-4.74","3011036","co38611","norming","","","","","","",""
"null","../img/tt/081tt.jpg","null","mooney2","image-keyboard-response","529","1624740","0.0-6.0-5.74","3011036","co38611","norming","","","","","","",""
"3811.375","","","post_reveal_questions","survey-likert","530","1628554","0.0-6.0-6.74","3011036","co38611","norming","","","{""aha"":1}","[0]","../img/tt/081tt.jpg","",""
"null","<div style=""font-size:60px;""> </div>","null","fixation","html-keyboard-response","531","1628761","0.0-6.0-0.75","3011036","co38611","norming","","","","","","",""
"null","../img/tt/1080tt.jpg","null","mooney1","image-keyboard-response","532","1631765","0.0-6.0-1.75","3011036","co38611","norming","","","","","","",""
"3465.804999999935","","","post_mooney1_questions","survey-likert","533","1635235","0.0-6.0-2.75","3011036","co38611","norming","","","{""curiosity"":6,""confidence"":0}","[0,1]","../img/tt/1080tt.jpg","",""
"2584.994999999879","","","recognition","survey-text","534","1637826","0.0-6.0-3.75","3011036","co38611","norming","","","{""guess"":""""}","","../img/tt/1080tt.jpg","",""
"null","../img/gs/1080gs.jpg","null","reveal","image-keyboard-response","535","1639833","0.0-6.0-4.75","3011036","co38611","norming","","","","","","",""
"null","../img/tt/1080tt.jpg","null","mooney2","image-keyboard-response","536","1641840","0.0-6.0-5.75","3011036","co38611","norming","","","","","","",""
"2279.4500000001863","","","post_reveal_questions","survey-likert","537","1644122","0.0-6.0-6.75","3011036","co38611","norming","","","{""aha"":3}","[0]","../img/tt/1080tt.jpg","",""
"null","<div style=""font-size:60px;""> </div>","null","fixation","html-keyboard-response","538","1644332","0.0-6.0-0.76","3011036","co38611","norming","","","","","","",""
"null","../img/tt/1227tt.jpg","null","mooney1","image-keyboard-response","539","1647343","0.0-6.0-1.76","3011036","co38611","norming","","","","","","",""
"3464.064999999944","","","post_mooney1_questions","survey-likert","540","1650811","0.0-6.0-2.76","3011036","co38611","norming","","","{""curiosity"":6,""confidence"":0}","[0,1]","../img/tt/1227tt.jpg","",""
"2809.7900000000373","","","recognition","survey-text","541","1653624","0.0-6.0-3.76","3011036","co38611","norming","","","{""guess"":""schapen""}","","../img/tt/1227tt.jpg","",""
"null","../img/gs/1227gs.jpg","null","reveal","image-keyboard-response","542","1655635","0.0-6.0-4.76","3011036","co38611","norming","","","","","","",""
"null","../img/tt/1227tt.jpg","null","mooney2","image-keyboard-response","543","1657636","0.0-6.0-5.76","3011036","co38611","norming","","","","","","",""
"1987.4450000000652","","","post_reveal_questions","survey-likert","544","1659626","0.0-6.0-6.76","3011036","co38611","norming","","","{""aha"":6}","[0]","../img/tt/1227tt.jpg","",""
"null","<div style=""font-size:60px;""> </div>","null","fixation","html-keyboard-response","545","1659830","0.0-6.0-0.77","3011036","co38611","norming","","","","","","",""
"null","../img/tt/049tt.jpg","null","mooney1","image-keyboard-response","546","1662840","0.0-6.0-1.77","3011036","co38611","norming","","","","","","",""
"3279.6349999997765","","","post_mooney1_questions","survey-likert","547","1666123","0.0-6.0-2.77","3011036","co38611","norming","","","{""curiosity"":6,""confidence"":0}","[0,1]","../img/tt/049tt.jpg","",""
"4217.255000000121","","","recognition","survey-text","548","1670346","0.0-6.0-3.77","3011036","co38611","norming","","","{""guess"":""egel""}","","../img/tt/049tt.jpg","",""
"null","../img/gs/049gs.jpg","null","reveal","image-keyboard-response","549","1672352","0.0-6.0-4.77","3011036","co38611","norming","","","","","","",""
"null","../img/tt/049tt.jpg","null","mooney2","image-keyboard-response","550","1674362","0.0-6.0-5.77","3011036","co38611","norming","","","","","","",""
"3621.005000000121","","","post_reveal_questions","survey-likert","551","1677986","0.0-6.0-6.77","3011036","co38611","norming","","","{""aha"":6}","[0]","../img/tt/049tt.jpg","",""
"null","<div style=""font-size:60px;""> </div>","null","fixation","html-keyboard-response","552","1678197","0.0-6.0-0.78","3011036","co38611","norming","","","","","","",""
