"rt","stimulus","key_press","test_part","trial_type","trial_index","time_elapsed","internal_node_id","totalTime","subject","experiment_name","button_pressed","success","responses","question_order","currentStim","old","correct"
"6702.830000000005","Welcome to the experiment. This is an online experiment so please don't close the tab/window until we say goodbye.  Press any key to begin.","32","instructions","html-keyboard-response","0","6707","0.0-0.0","2676579","co38146","norming","","","","","","",""
"57801.49499999999","<div style='word-wrap: break-word; width: 900px'><h3>Please consider this information carefully before deciding whether to participate in this research</h3><ul style='text-align: left; font-size: .8em;'><li><b>Purpose of the research</b>: To examine how people process images.</li><li><b>What you will do in this research</b>:  Stimuli (images) will be presented on the computer and you will be asked different questions about them.</li><li><b>Time required</b>: Participation will take between 45 and 60 minutes to complete.</li><li><b>Risks</b>:  There are no anticipated risks associated with participating in this study. The effects of participating should be comparable to those you would experience from viewing a computer monitor for 30 minutes and using a mouse or keyboard.</li><li><b>Benefits</b>:  This study provides no benefits to you individually except for the credit. The study provides important information about the nature of perception and learning.</li><li><b>Confidentiality</b>:  Your participation in this study will remain confidential. No personally identifiable information will be associated with your data. Your de-identified data may be shared with other researchers and used in future projects.</li><li><b>Participation and withdrawal</b>:  Your participation in this study is completely voluntary and you may refuse to participate or you may choose to withdraw at any time without penalty.</li><li><b>How to contact the researchers</b>: If you have questions or concerns about your participation or payment, or want to request a summary of research findings, please contact Sander Van de Cruys (KU Leuven), at sander.vandecruys@kuleuven.be.</li></ul><p>The nature and purpose of this research have been sufficiently explained and I agree to participate in this study.  I understand that I am free to withdraw at any time without incurring any penalty.</p><p>Please consent by clicking the button below to continue. Otherwise, please exit the study at this time.</p></div>","","instructions","html-button-response","1","64509","0.0-1.0","2676579","co38146","norming","0","","","","","",""
"","","","instructions","fullscreen","2","68622","0.0-2.0","2676579","co38146","norming","","true","","","","",""
"39683.47999999997","","","sona","survey-html-form","3","108310","0.0-3.0","2676579","co38146","norming","","","[{""name"":""sonaid"",""value"":""38146""},{""name"":""debrief"",""value"":""no""},{""name"":""datajoin"",""value"":""yes""}]","","","",""
"52407.03000000007","<div style='word-wrap: break-word; width: 900px'><h3>Instructions</h3><p>This experiment will have 3 parts. In the first part you will see a series of distorted images like the one below on the left. As you can see in the righthand image, the distorted images are derived from actual photographs. In what follows, you will <strong>briefly</strong> be presented with <strong>only</strong> the distorted image.</p> <div style='float: left; margin-right: 20px;'><img src='../img/018tt.jpg' height='250' width='250'></img></div><div style='float: right; margin-left: 20px;'><img src='../img/018gs.jpg' height='250' width='250'></img></div><p>Subsequently you will be asked a few questions about the image: One question on how <strong>curious</strong> you are about the solution and one on how <strong>confident</strong> you are that you know the solution.</p>Next, we ask you to make a guess on what is in the image. Note that it is OK to name just the <strong>basic level category</strong>. For example when you see a parrot in the image, 'parrot' will obviously be a correct answer but also correct is 'bird'. However, 'animal' will <strong>not</strong> be counted as a correct response. For the example above, 'rose' would be correct or 'flower', but not 'plant'. When soccer players are depicted, 'soccer', 'football', 'soccer players' will be correct, but not 'humans', 'outdoors', or 'sports'. You do not need to describe the image in full, just name the main object in it <strong>in one or two words</strong>. All images depict objects from one of the following broad level categories: animals, inanimate objects, plants, sports, vehicles, and food. Recognizing means knowing <strong>more</strong> than these broad labels for a given image. But we always encourage you to <strong>make a guess</strong> if you can. Note that you are allowed to use <strong>Dutch and English</strong> in your answers, whatever comes easiest for you.</p><p>Press any key to continue.</p></div>","32","instructions","html-keyboard-response","4","160720","0.0-4.0","2676579","co38146","norming","","","","","","",""
"8109.035000000062","<div style='word-wrap: break-word; width: 900px'><h3>Instructions</h3> <p>Next, the solution image will be revealed to you and you'll be asked to indicate how strong your <strong>aha-experience</strong> was after seeing the solution. This describes the positive feeling of the 'click' you sometimes experience, when the pieces of the 'puzzle' fall together and you suddenly have 'insight' in the image.</p><img src='aha.jpg' height='188' width='250'></img><p>Note that there are no right or wrong answers. We are interested in what <strong>you</strong> see in the image and how <strong>you</strong> feel about it.</p><p>Press any key to start the experiment.</p></div>","32","instructions","html-keyboard-response","5","168831","0.0-5.0","2676579","co38146","norming","","","","","","",""
"null","<div style=""font-size:60px;""> </div>","null","fixation","html-keyboard-response","6","169033","0.0-6.0-0.0","2676579","co38146","norming","","","","","","",""
"null","../img/tt/121tt.jpg","null","mooney1","image-keyboard-response","7","172040","0.0-6.0-1.0","2676579","co38146","norming","","","","","","",""
"10939.610000000015","","","post_mooney1_questions","survey-likert","8","182984","0.0-6.0-2.0","2676579","co38146","norming","","","{""curiosity"":2,""confidence"":2}","[0,1]","../img/tt/121tt.jpg","",""
"5877.505000000034","","","recognition","survey-text","9","188863","0.0-6.0-3.0","2676579","co38146","norming","","","{""guess"":""""}","","../img/tt/121tt.jpg","",""
"null","../img/gs/121gs.jpg","null","reveal","image-keyboard-response","10","190871","0.0-6.0-4.0","2676579","co38146","norming","","","","","","",""
"null","../img/tt/121tt.jpg","null","mooney2","image-keyboard-response","11","192873","0.0-6.0-5.0","2676579","co38146","norming","","","","","","",""
"5676.114999999991","","","post_reveal_questions","survey-likert","12","198551","0.0-6.0-6.0","2676579","co38146","norming","","","{""aha"":3}","[0]","../img/tt/121tt.jpg","",""
"null","<div style=""font-size:60px;""> </div>","null","fixation","html-keyboard-response","13","198756","0.0-6.0-0.1","2676579","co38146","norming","","","","","","",""
"null","../img/tt/194tt.jpg","null","mooney1","image-keyboard-response","14","201760","0.0-6.0-1.1","2676579","co38146","norming","","","","","","",""
"15742.140000000072","","","post_mooney1_questions","survey-likert","15","217503","0.0-6.0-2.1","2676579","co38146","norming","","","{""curiosity"":1,""confidence"":4}","[0,1]","../img/tt/194tt.jpg","",""
"8302.130000000034","","","recognition","survey-text","16","225806","0.0-6.0-3.1","2676579","co38146","norming","","","{""guess"":""girl""}","","../img/tt/194tt.jpg","",""
"null","../img/gs/194gs.jpg","null","reveal","image-keyboard-response","17","227810","0.0-6.0-4.1","2676579","co38146","norming","","","","","","",""
"null","../img/tt/194tt.jpg","null","mooney2","image-keyboard-response","18","229820","0.0-6.0-5.1","2676579","co38146","norming","","","","","","",""
"4424.319999999978","","","post_reveal_questions","survey-likert","19","234246","0.0-6.0-6.1","2676579","co38146","norming","","","{""aha"":1}","[0]","../img/tt/194tt.jpg","",""
"null","<div style=""font-size:60px;""> </div>","null","fixation","html-keyboard-response","20","234449","0.0-6.0-0.2","2676579","co38146","norming","","","","","","",""
"null","../img/tt/1261tt.jpg","null","mooney1","image-keyboard-response","21","237453","0.0-6.0-1.2","2676579","co38146","norming","","","","","","",""
"6008.4599999999045","","","post_mooney1_questions","survey-likert","22","243462","0.0-6.0-2.2","2676579","co38146","norming","","","{""curiosity"":4,""confidence"":0}","[0,1]","../img/tt/1261tt.jpg","",""
"2013.9950000000244","","","recognition","survey-text","23","245478","0.0-6.0-3.2","2676579","co38146","norming","","","{""guess"":""""}","","../img/tt/1261tt.jpg","",""
"null","../img/gs/1261gs.jpg","null","reveal","image-keyboard-response","24","247486","0.0-6.0-4.2","2676579","co38146","norming","","","","","","",""
"null","../img/tt/1261tt.jpg","null","mooney2","image-keyboard-response","25","249496","0.0-6.0-5.2","2676579","co38146","norming","","","","","","",""
"3349.38499999998","","","post_reveal_questions","survey-likert","26","252846","0.0-6.0-6.2","2676579","co38146","norming","","","{""aha"":6}","[0]","../img/tt/1261tt.jpg","",""
"null","<div style=""font-size:60px;""> </div>","null","fixation","html-keyboard-response","27","253051","0.0-6.0-0.3","2676579","co38146","norming","","","","","","",""
"null","../img/tt/1251tt.jpg","null","mooney1","image-keyboard-response","28","256055","0.0-6.0-1.3","2676579","co38146","norming","","","","","","",""
"8868.775000000052","","","post_mooney1_questions","survey-likert","29","264926","0.0-6.0-2.3","2676579","co38146","norming","","","{""curiosity"":4,""confidence"":0}","[0,1]","../img/tt/1251tt.jpg","",""
"1829.9950000000536","","","recognition","survey-text","30","266758","0.0-6.0-3.3","2676579","co38146","norming","","","{""guess"":""""}","","../img/tt/1251tt.jpg","",""
"null","../img/gs/1251gs.jpg","null","reveal","image-keyboard-response","31","268766","0.0-6.0-4.3","2676579","co38146","norming","","","","","","",""
"null","../img/tt/1251tt.jpg","null","mooney2","image-keyboard-response","32","270778","0.0-6.0-5.3","2676579","co38146","norming","","","","","","",""
"2721.82500000007","","","post_reveal_questions","survey-likert","33","273502","0.0-6.0-6.3","2676579","co38146","norming","","","{""aha"":5}","[0]","../img/tt/1251tt.jpg","",""
"null","<div style=""font-size:60px;""> </div>","null","fixation","html-keyboard-response","34","273708","0.0-6.0-0.4","2676579","co38146","norming","","","","","","",""
"null","../img/tt/084tt.jpg","null","mooney1","image-keyboard-response","35","276717","0.0-6.0-1.4","2676579","co38146","norming","","","","","","",""
"5263.7949999999255","","","post_mooney1_questions","survey-likert","36","281982","0.0-6.0-2.4","2676579","co38146","norming","","","{""curiosity"":3,""confidence"":3}","[0,1]","../img/tt/084tt.jpg","",""
"4302.09500000003","","","recognition","survey-text","37","286278","0.0-6.0-3.4","2676579","co38146","norming","","","{""guess"":""duck""}","","../img/tt/084tt.jpg","",""
"null","../img/gs/084gs.jpg","null","reveal","image-keyboard-response","38","288283","0.0-6.0-4.4","2676579","co38146","norming","","","","","","",""
"null","../img/tt/084tt.jpg","null","mooney2","image-keyboard-response","39","290293","0.0-6.0-5.4","2676579","co38146","norming","","","","","","",""
"2088.579999999958","","","post_reveal_questions","survey-likert","40","292382","0.0-6.0-6.4","2676579","co38146","norming","","","{""aha"":0}","[0]","../img/tt/084tt.jpg","",""
"null","<div style=""font-size:60px;""> </div>","null","fixation","html-keyboard-response","41","292593","0.0-6.0-0.5","2676579","co38146","norming","","","","","","",""
"null","../img/tt/1270tt.jpg","null","mooney1","image-keyboard-response","42","295605","0.0-6.0-1.5","2676579","co38146","norming","","","","","","",""
"3783.585000000021","","","post_mooney1_questions","survey-likert","43","299390","0.0-6.0-2.5","2676579","co38146","norming","","","{""curiosity"":3,""confidence"":3}","[0,1]","../img/tt/1270tt.jpg","",""
"4502.119999999995","","","recognition","survey-text","44","303894","0.0-6.0-3.5","2676579","co38146","norming","","","{""guess"":""elephant""}","","../img/tt/1270tt.jpg","",""
"null","../img/gs/1270gs.jpg","null","reveal","image-keyboard-response","45","305904","0.0-6.0-4.5","2676579","co38146","norming","","","","","","",""
"null","../img/tt/1270tt.jpg","null","mooney2","image-keyboard-response","46","307905","0.0-6.0-5.5","2676579","co38146","norming","","","","","","",""
"2307.030000000028","","","post_reveal_questions","survey-likert","47","310214","0.0-6.0-6.5","2676579","co38146","norming","","","{""aha"":6}","[0]","../img/tt/1270tt.jpg","",""
"null","<div style=""font-size:60px;""> </div>","null","fixation","html-keyboard-response","48","310418","0.0-6.0-0.6","2676579","co38146","norming","","","","","","",""
"null","../img/tt/270tt.jpg","null","mooney1","image-keyboard-response","49","313424","0.0-6.0-1.6","2676579","co38146","norming","","","","","","",""
"4195.415000000037","","","post_mooney1_questions","survey-likert","50","317623","0.0-6.0-2.6","2676579","co38146","norming","","","{""curiosity"":4,""confidence"":0}","[0,1]","../img/tt/270tt.jpg","",""
"1045.8800000000047","","","recognition","survey-text","51","318670","0.0-6.0-3.6","2676579","co38146","norming","","","{""guess"":""""}","","../img/tt/270tt.jpg","",""
"null","../img/gs/270gs.jpg","null","reveal","image-keyboard-response","52","320677","0.0-6.0-4.6","2676579","co38146","norming","","","","","","",""
"null","../img/tt/270tt.jpg","null","mooney2","image-keyboard-response","53","322679","0.0-6.0-5.6","2676579","co38146","norming","","","","","","",""
"2220.4400000000605","","","post_reveal_questions","survey-likert","54","324902","0.0-6.0-6.6","2676579","co38146","norming","","","{""aha"":5}","[0]","../img/tt/270tt.jpg","",""
"null","<div style=""font-size:60px;""> </div>","null","fixation","html-keyboard-response","55","325107","0.0-6.0-0.7","2676579","co38146","norming","","","","","","",""
"null","../img/tt/1227tt.jpg","null","mooney1","image-keyboard-response","56","328115","0.0-6.0-1.7","2676579","co38146","norming","","","","","","",""
"4528.479999999981","","","post_mooney1_questions","survey-likert","57","332646","0.0-6.0-2.7","2676579","co38146","norming","","","{""curiosity"":5,""confidence"":0}","[0,1]","../img/tt/1227tt.jpg","",""
"630.1949999999488","","","recognition","survey-text","58","333278","0.0-6.0-3.7","2676579","co38146","norming","","","{""guess"":""""}","","../img/tt/1227tt.jpg","",""
"null","../img/gs/1227gs.jpg","null","reveal","image-keyboard-response","59","335283","0.0-6.0-4.7","2676579","co38146","norming","","","","","","",""
"null","../img/tt/1227tt.jpg","null","mooney2","image-keyboard-response","60","337290","0.0-6.0-5.7","2676579","co38146","norming","","","","","","",""
"2001.539999999979","","","post_reveal_questions","survey-likert","61","339294","0.0-6.0-6.7","2676579","co38146","norming","","","{""aha"":6}","[0]","../img/tt/1227tt.jpg","",""
"null","<div style=""font-size:60px;""> </div>","null","fixation","html-keyboard-response","62","339495","0.0-6.0-0.8","2676579","co38146","norming","","","","","","",""
"null","../img/tt/1027tt.jpg","null","mooney1","image-keyboard-response","63","342503","0.0-6.0-1.8","2676579","co38146","norming","","","","","","",""
"4500.125","","","post_mooney1_questions","survey-likert","64","347011","0.0-6.0-2.8","2676579","co38146","norming","","","{""curiosity"":5,""confidence"":2}","[0,1]","../img/tt/1027tt.jpg","",""
"3486.2350000001024","","","recognition","survey-text","65","350499","0.0-6.0-3.8","2676579","co38146","norming","","","{""guess"":""cow""}","","../img/tt/1027tt.jpg","",""
"null","../img/gs/1027gs.jpg","null","reveal","image-keyboard-response","66","352507","0.0-6.0-4.8","2676579","co38146","norming","","","","","","",""
"null","../img/tt/1027tt.jpg","null","mooney2","image-keyboard-response","67","354510","0.0-6.0-5.8","2676579","co38146","norming","","","","","","",""
"4234.8150000000605","","","post_reveal_questions","survey-likert","68","358747","0.0-6.0-6.8","2676579","co38146","norming","","","{""aha"":0}","[0]","../img/tt/1027tt.jpg","",""
"null","<div style=""font-size:60px;""> </div>","null","fixation","html-keyboard-response","69","358954","0.0-6.0-0.9","2676579","co38146","norming","","","","","","",""
"null","../img/tt/055tt.jpg","null","mooney1","image-keyboard-response","70","361963","0.0-6.0-1.9","2676579","co38146","norming","","","","","","",""
"3700.929999999993","","","post_mooney1_questions","survey-likert","71","365667","0.0-6.0-2.9","2676579","co38146","norming","","","{""curiosity"":5,""confidence"":0}","[0,1]","../img/tt/055tt.jpg","",""
"942.2900000000955","","","recognition","survey-text","72","366611","0.0-6.0-3.9","2676579","co38146","norming","","","{""guess"":""""}","","../img/tt/055tt.jpg","",""
"null","../img/gs/055gs.jpg","null","reveal","image-keyboard-response","73","368619","0.0-6.0-4.9","2676579","co38146","norming","","","","","","",""
"null","../img/tt/055tt.jpg","null","mooney2","image-keyboard-response","74","370630","0.0-6.0-5.9","2676579","co38146","norming","","","","","","",""
"2010.420000000042","","","post_reveal_questions","survey-likert","75","372643","0.0-6.0-6.9","2676579","co38146","norming","","","{""aha"":5}","[0]","../img/tt/055tt.jpg","",""
"null","<div style=""font-size:60px;""> </div>","null","fixation","html-keyboard-response","76","372847","0.0-6.0-0.10","2676579","co38146","norming","","","","","","",""
"null","../img/tt/1091tt.jpg","null","mooney1","image-keyboard-response","77","375857","0.0-6.0-1.10","2676579","co38146","norming","","","","","","",""
"5335.144999999902","","","post_mooney1_questions","survey-likert","78","381195","0.0-6.0-2.10","2676579","co38146","norming","","","{""curiosity"":5,""confidence"":0}","[0,1]","../img/tt/1091tt.jpg","",""
"908.5950000000303","","","recognition","survey-text","79","382107","0.0-6.0-3.10","2676579","co38146","norming","","","{""guess"":""""}","","../img/tt/1091tt.jpg","",""
"null","../img/gs/1091gs.jpg","null","reveal","image-keyboard-response","80","384114","0.0-6.0-4.10","2676579","co38146","norming","","","","","","",""
"null","../img/tt/1091tt.jpg","null","mooney2","image-keyboard-response","81","386119","0.0-6.0-5.10","2676579","co38146","norming","","","","","","",""
"1697.9199999999837","","","post_reveal_questions","survey-likert","82","387819","0.0-6.0-6.10","2676579","co38146","norming","","","{""aha"":6}","[0]","../img/tt/1091tt.jpg","",""
"null","<div style=""font-size:60px;""> </div>","null","fixation","html-keyboard-response","83","388021","0.0-6.0-0.11","2676579","co38146","norming","","","","","","",""
"null","../img/tt/358tt.jpg","null","mooney1","image-keyboard-response","84","391033","0.0-6.0-1.11","2676579","co38146","norming","","","","","","",""
"4559.634999999951","","","post_mooney1_questions","survey-likert","85","395595","0.0-6.0-2.11","2676579","co38146","norming","","","{""curiosity"":4,""confidence"":1}","[0,1]","../img/tt/358tt.jpg","",""
"4429.954999999958","","","recognition","survey-text","86","400027","0.0-6.0-3.11","2676579","co38146","norming","","","{""guess"":""horse""}","","../img/tt/358tt.jpg","",""
"null","../img/gs/358gs.jpg","null","reveal","image-keyboard-response","87","402028","0.0-6.0-4.11","2676579","co38146","norming","","","","","","",""
"null","../img/tt/358tt.jpg","null","mooney2","image-keyboard-response","88","404037","0.0-6.0-5.11","2676579","co38146","norming","","","","","","",""
"2523.4850000000442","","","post_reveal_questions","survey-likert","89","406567","0.0-6.0-6.11","2676579","co38146","norming","","","{""aha"":5}","[0]","../img/tt/358tt.jpg","",""
"null","<div style=""font-size:60px;""> </div>","null","fixation","html-keyboard-response","90","406772","0.0-6.0-0.12","2676579","co38146","norming","","","","","","",""
"null","../img/tt/1070tt.jpg","null","mooney1","image-keyboard-response","91","409782","0.0-6.0-1.12","2676579","co38146","norming","","","","","","",""
"6934.054999999993","","","post_mooney1_questions","survey-likert","92","416719","0.0-6.0-2.12","2676579","co38146","norming","","","{""curiosity"":5,""confidence"":1}","[0,1]","../img/tt/1070tt.jpg","",""
"4061.6900000000023","","","recognition","survey-text","93","420783","0.0-6.0-3.12","2676579","co38146","norming","","","{""guess"":""food""}","","../img/tt/1070tt.jpg","",""
"null","../img/gs/1070gs.jpg","null","reveal","image-keyboard-response","94","422789","0.0-6.0-4.12","2676579","co38146","norming","","","","","","",""
"null","../img/tt/1070tt.jpg","null","mooney2","image-keyboard-response","95","424799","0.0-6.0-5.12","2676579","co38146","norming","","","","","","",""
"2477.5849999999627","","","post_reveal_questions","survey-likert","96","427279","0.0-6.0-6.12","2676579","co38146","norming","","","{""aha"":4}","[0]","../img/tt/1070tt.jpg","",""
"null","<div style=""font-size:60px;""> </div>","null","fixation","html-keyboard-response","97","427482","0.0-6.0-0.13","2676579","co38146","norming","","","","","","",""
"null","../img/tt/1089tt.jpg","null","mooney1","image-keyboard-response","98","430490","0.0-6.0-1.13","2676579","co38146","norming","","","","","","",""
"5914.699999999895","","","post_mooney1_questions","survey-likert","99","436407","0.0-6.0-2.13","2676579","co38146","norming","","","{""curiosity"":3,""confidence"":2}","[0,1]","../img/tt/1089tt.jpg","",""
"4470.074999999953","","","recognition","survey-text","100","440879","0.0-6.0-3.13","2676579","co38146","norming","","","{""guess"":""elephant""}","","../img/tt/1089tt.jpg","",""
"null","../img/gs/1089gs.jpg","null","reveal","image-keyboard-response","101","442888","0.0-6.0-4.13","2676579","co38146","norming","","","","","","",""
"null","../img/tt/1089tt.jpg","null","mooney2","image-keyboard-response","102","444898","0.0-6.0-5.13","2676579","co38146","norming","","","","","","",""
"2923.1149999999325","","","post_reveal_questions","survey-likert","103","447823","0.0-6.0-6.13","2676579","co38146","norming","","","{""aha"":1}","[0]","../img/tt/1089tt.jpg","",""
"null","<div style=""font-size:60px;""> </div>","null","fixation","html-keyboard-response","104","448029","0.0-6.0-0.14","2676579","co38146","norming","","","","","","",""
"null","../img/tt/1191tt.jpg","null","mooney1","image-keyboard-response","105","451035","0.0-6.0-1.14","2676579","co38146","norming","","","","","","",""
"4817.4749999999185","","","post_mooney1_questions","survey-likert","106","455855","0.0-6.0-2.14","2676579","co38146","norming","","","{""curiosity"":4,""confidence"":0}","[0,1]","../img/tt/1191tt.jpg","",""
"790.1200000000536","","","recognition","survey-text","107","456647","0.0-6.0-3.14","2676579","co38146","norming","","","{""guess"":""""}","","../img/tt/1191tt.jpg","",""
"null","../img/gs/1191gs.jpg","null","reveal","image-keyboard-response","108","458653","0.0-6.0-4.14","2676579","co38146","norming","","","","","","",""
"null","../img/tt/1191tt.jpg","null","mooney2","image-keyboard-response","109","460656","0.0-6.0-5.14","2676579","co38146","norming","","","","","","",""
"2389.269999999902","","","post_reveal_questions","survey-likert","110","463047","0.0-6.0-6.14","2676579","co38146","norming","","","{""aha"":6}","[0]","../img/tt/1191tt.jpg","",""
"null","<div style=""font-size:60px;""> </div>","null","fixation","html-keyboard-response","111","463251","0.0-6.0-0.15","2676579","co38146","norming","","","","","","",""
"null","../img/tt/517tt.jpg","null","mooney1","image-keyboard-response","112","466255","0.0-6.0-1.15","2676579","co38146","norming","","","","","","",""
"4509.84500000003","","","post_mooney1_questions","survey-likert","113","470767","0.0-6.0-2.15","2676579","co38146","norming","","","{""curiosity"":4,""confidence"":0}","[0,1]","../img/tt/517tt.jpg","",""
"974.1500000000233","","","recognition","survey-text","114","471743","0.0-6.0-3.15","2676579","co38146","norming","","","{""guess"":""""}","","../img/tt/517tt.jpg","",""
"null","../img/gs/517gs.jpg","null","reveal","image-keyboard-response","115","473753","0.0-6.0-4.15","2676579","co38146","norming","","","","","","",""
"null","../img/tt/517tt.jpg","null","mooney2","image-keyboard-response","116","475755","0.0-6.0-5.15","2676579","co38146","norming","","","","","","",""
"2138.5599999999395","","","post_reveal_questions","survey-likert","117","477895","0.0-6.0-6.15","2676579","co38146","norming","","","{""aha"":5}","[0]","../img/tt/517tt.jpg","",""
"null","<div style=""font-size:60px;""> </div>","null","fixation","html-keyboard-response","118","478100","0.0-6.0-0.16","2676579","co38146","norming","","","","","","",""
"null","../img/tt/052tt.jpg","null","mooney1","image-keyboard-response","119","481104","0.0-6.0-1.16","2676579","co38146","norming","","","","","","",""
"4524.82500000007","","","post_mooney1_questions","survey-likert","120","485631","0.0-6.0-2.16","2676579","co38146","norming","","","{""curiosity"":6,""confidence"":0}","[0,1]","../img/tt/052tt.jpg","",""
"806.4749999999767","","","recognition","survey-text","121","486439","0.0-6.0-3.16","2676579","co38146","norming","","","{""guess"":""""}","","../img/tt/052tt.jpg","",""
"null","../img/gs/052gs.jpg","null","reveal","image-keyboard-response","122","488448","0.0-6.0-4.16","2676579","co38146","norming","","","","","","",""
"null","../img/tt/052tt.jpg","null","mooney2","image-keyboard-response","123","490452","0.0-6.0-5.16","2676579","co38146","norming","","","","","","",""
"1441.5200000000768","","","post_reveal_questions","survey-likert","124","491895","0.0-6.0-6.16","2676579","co38146","norming","","","{""aha"":6}","[0]","../img/tt/052tt.jpg","",""
"null","<div style=""font-size:60px;""> </div>","null","fixation","html-keyboard-response","125","492100","0.0-6.0-0.17","2676579","co38146","norming","","","","","","",""
"null","../img/tt/1224tt.jpg","null","mooney1","image-keyboard-response","126","495107","0.0-6.0-1.17","2676579","co38146","norming","","","","","","",""
"7634.234999999986","","","post_mooney1_questions","survey-likert","127","502743","0.0-6.0-2.17","2676579","co38146","norming","","","{""curiosity"":6,""confidence"":1}","[0,1]","../img/tt/1224tt.jpg","",""
"942.1699999999837","","","recognition","survey-text","128","503687","0.0-6.0-3.17","2676579","co38146","norming","","","{""guess"":""""}","","../img/tt/1224tt.jpg","",""
"null","../img/gs/1224gs.jpg","null","reveal","image-keyboard-response","129","505695","0.0-6.0-4.17","2676579","co38146","norming","","","","","","",""
"null","../img/tt/1224tt.jpg","null","mooney2","image-keyboard-response","130","507697","0.0-6.0-5.17","2676579","co38146","norming","","","","","","",""
"3491.5449999999837","","","post_reveal_questions","survey-likert","131","511191","0.0-6.0-6.17","2676579","co38146","norming","","","{""aha"":6}","[0]","../img/tt/1224tt.jpg","",""
"null","<div style=""font-size:60px;""> </div>","null","fixation","html-keyboard-response","132","511398","0.0-6.0-0.18","2676579","co38146","norming","","","","","","",""
"null","../img/tt/140tt.jpg","null","mooney1","image-keyboard-response","133","514409","0.0-6.0-1.18","2676579","co38146","norming","","","","","","",""
"4483.484999999928","","","post_mooney1_questions","survey-likert","134","518896","0.0-6.0-2.18","2676579","co38146","norming","","","{""curiosity"":4,""confidence"":1}","[0,1]","../img/tt/140tt.jpg","",""
"3205.8749999998836","","","recognition","survey-text","135","522103","0.0-6.0-3.18","2676579","co38146","norming","","","{""guess"":""fork""}","","../img/tt/140tt.jpg","",""
"null","../img/gs/140gs.jpg","null","reveal","image-keyboard-response","136","524105","0.0-6.0-4.18","2676579","co38146","norming","","","","","","",""
"null","../img/tt/140tt.jpg","null","mooney2","image-keyboard-response","137","526107","0.0-6.0-5.18","2676579","co38146","norming","","","","","","",""
"2497.469999999972","","","post_reveal_questions","survey-likert","138","528601","0.0-6.0-6.18","2676579","co38146","norming","","","{""aha"":1}","[0]","../img/tt/140tt.jpg","",""
"null","<div style=""font-size:60px;""> </div>","null","fixation","html-keyboard-response","139","528803","0.0-6.0-0.19","2676579","co38146","norming","","","","","","",""
"null","../img/tt/124tt.jpg","null","mooney1","image-keyboard-response","140","531813","0.0-6.0-1.19","2676579","co38146","norming","","","","","","",""
"6090.0599999999395","","","post_mooney1_questions","survey-likert","141","537906","0.0-6.0-2.19","2676579","co38146","norming","","","{""curiosity"":0,""confidence"":6}","[0,1]","../img/tt/124tt.jpg","",""
"2829.9899999999907","","","recognition","survey-text","142","540737","0.0-6.0-3.19","2676579","co38146","norming","","","{""guess"":""ape""}","","../img/tt/124tt.jpg","",""
"null","../img/gs/124gs.jpg","null","reveal","image-keyboard-response","143","542745","0.0-6.0-4.19","2676579","co38146","norming","","","","","","",""
"null","../img/tt/124tt.jpg","null","mooney2","image-keyboard-response","144","544747","0.0-6.0-5.19","2676579","co38146","norming","","","","","","",""
"2203.655000000028","","","post_reveal_questions","survey-likert","145","546953","0.0-6.0-6.19","2676579","co38146","norming","","","{""aha"":0}","[0]","../img/tt/124tt.jpg","",""
"null","<div style=""font-size:60px;""> </div>","null","fixation","html-keyboard-response","146","547164","0.0-6.0-0.20","2676579","co38146","norming","","","","","","",""
"null","../img/tt/1272tt.jpg","null","mooney1","image-keyboard-response","147","550170","0.0-6.0-1.20","2676579","co38146","norming","","","","","","",""
"2996.914999999921","","","post_mooney1_questions","survey-likert","148","553170","0.0-6.0-2.20","2676579","co38146","norming","","","{""curiosity"":6,""confidence"":0}","[0,1]","../img/tt/1272tt.jpg","",""
"758.4649999999674","","","recognition","survey-text","149","553930","0.0-6.0-3.20","2676579","co38146","norming","","","{""guess"":""""}","","../img/tt/1272tt.jpg","",""
"null","../img/gs/1272gs.jpg","null","reveal","image-keyboard-response","150","555936","0.0-6.0-4.20","2676579","co38146","norming","","","","","","",""
"null","../img/tt/1272tt.jpg","null","mooney2","image-keyboard-response","151","557946","0.0-6.0-5.20","2676579","co38146","norming","","","","","","",""
"1685.0050000000047","","","post_reveal_questions","survey-likert","152","559633","0.0-6.0-6.20","2676579","co38146","norming","","","{""aha"":6}","[0]","../img/tt/1272tt.jpg","",""
"null","<div style=""font-size:60px;""> </div>","null","fixation","html-keyboard-response","153","559841","0.0-6.0-0.21","2676579","co38146","norming","","","","","","",""
"null","../img/tt/1205tt.jpg","null","mooney1","image-keyboard-response","154","562844","0.0-6.0-1.21","2676579","co38146","norming","","","","","","",""
"3225.1950000001816","","","post_mooney1_questions","survey-likert","155","566074","0.0-6.0-2.21","2676579","co38146","norming","","","{""curiosity"":6,""confidence"":0}","[0,1]","../img/tt/1205tt.jpg","",""
"734.0799999999581","","","recognition","survey-text","156","566809","0.0-6.0-3.21","2676579","co38146","norming","","","{""guess"":""""}","","../img/tt/1205tt.jpg","",""
"null","../img/gs/1205gs.jpg","null","reveal","image-keyboard-response","157","568820","0.0-6.0-4.21","2676579","co38146","norming","","","","","","",""
"null","../img/tt/1205tt.jpg","null","mooney2","image-keyboard-response","158","570822","0.0-6.0-5.21","2676579","co38146","norming","","","","","","",""
"2521.4549999998417","","","post_reveal_questions","survey-likert","159","573345","0.0-6.0-6.21","2676579","co38146","norming","","","{""aha"":6}","[0]","../img/tt/1205tt.jpg","",""
"null","<div style=""font-size:60px;""> </div>","null","fixation","html-keyboard-response","160","573550","0.0-6.0-0.22","2676579","co38146","norming","","","","","","",""
"null","../img/tt/126tt.jpg","null","mooney1","image-keyboard-response","161","576555","0.0-6.0-1.22","2676579","co38146","norming","","","","","","",""
"3717.989999999758","","","post_mooney1_questions","survey-likert","162","580274","0.0-6.0-2.22","2676579","co38146","norming","","","{""curiosity"":6,""confidence"":0}","[0,1]","../img/tt/126tt.jpg","",""
"1142.044999999809","","","recognition","survey-text","163","581417","0.0-6.0-3.22","2676579","co38146","norming","","","{""guess"":""""}","","../img/tt/126tt.jpg","",""
"null","../img/gs/126gs.jpg","null","reveal","image-keyboard-response","164","583422","0.0-6.0-4.22","2676579","co38146","norming","","","","","","",""
"null","../img/tt/126tt.jpg","null","mooney2","image-keyboard-response","165","585431","0.0-6.0-5.22","2676579","co38146","norming","","","","","","",""
"2255.194999999949","","","post_reveal_questions","survey-likert","166","587689","0.0-6.0-6.22","2676579","co38146","norming","","","{""aha"":6}","[0]","../img/tt/126tt.jpg","",""
"null","<div style=""font-size:60px;""> </div>","null","fixation","html-keyboard-response","167","587896","0.0-6.0-0.23","2676579","co38146","norming","","","","","","",""
"null","../img/tt/442tt.jpg","null","mooney1","image-keyboard-response","168","590907","0.0-6.0-1.23","2676579","co38146","norming","","","","","","",""
"6561.130000000005","","","post_mooney1_questions","survey-likert","169","597472","0.0-6.0-2.23","2676579","co38146","norming","","","{""curiosity"":6,""confidence"":1}","[0,1]","../img/tt/442tt.jpg","",""
"1790.0899999999674","","","recognition","survey-text","170","599263","0.0-6.0-3.23","2676579","co38146","norming","","","{""guess"":""""}","","../img/tt/442tt.jpg","",""
"null","../img/gs/442gs.jpg","null","reveal","image-keyboard-response","171","601270","0.0-6.0-4.23","2676579","co38146","norming","","","","","","",""
"null","../img/tt/442tt.jpg","null","mooney2","image-keyboard-response","172","603273","0.0-6.0-5.23","2676579","co38146","norming","","","","","","",""
"1533.5549999999348","","","post_reveal_questions","survey-likert","173","604807","0.0-6.0-6.23","2676579","co38146","norming","","","{""aha"":6}","[0]","../img/tt/442tt.jpg","",""
"null","<div style=""font-size:60px;""> </div>","null","fixation","html-keyboard-response","174","605017","0.0-6.0-0.24","2676579","co38146","norming","","","","","","",""
"null","../img/tt/1002tt.jpg","null","mooney1","image-keyboard-response","175","608019","0.0-6.0-1.24","2676579","co38146","norming","","","","","","",""
"6672.645000000135","","","post_mooney1_questions","survey-likert","176","614695","0.0-6.0-2.24","2676579","co38146","norming","","","{""curiosity"":5,""confidence"":1}","[0,1]","../img/tt/1002tt.jpg","",""
"4278.29999999993","","","recognition","survey-text","177","618975","0.0-6.0-3.24","2676579","co38146","norming","","","{""guess"":""rhino""}","","../img/tt/1002tt.jpg","",""
"null","../img/gs/1002gs.jpg","null","reveal","image-keyboard-response","178","620983","0.0-6.0-4.24","2676579","co38146","norming","","","","","","",""
"null","../img/tt/1002tt.jpg","null","mooney2","image-keyboard-response","179","622985","0.0-6.0-5.24","2676579","co38146","norming","","","","","","",""
"2612.6600000000326","","","post_reveal_questions","survey-likert","180","625599","0.0-6.0-6.24","2676579","co38146","norming","","","{""aha"":6}","[0]","../img/tt/1002tt.jpg","",""
"null","<div style=""font-size:60px;""> </div>","null","fixation","html-keyboard-response","181","625801","0.0-6.0-0.25","2676579","co38146","norming","","","","","","",""
"null","../img/tt/111tt.jpg","null","mooney1","image-keyboard-response","182","628811","0.0-6.0-1.25","2676579","co38146","norming","","","","","","",""
"6465.4049999999115","","","post_mooney1_questions","survey-likert","183","635279","0.0-6.0-2.25","2676579","co38146","norming","","","{""curiosity"":1,""confidence"":5}","[0,1]","../img/tt/111tt.jpg","",""
"3269.9799999999814","","","recognition","survey-text","184","638551","0.0-6.0-3.25","2676579","co38146","norming","","","{""guess"":""shower""}","","../img/tt/111tt.jpg","",""
"null","../img/gs/111gs.jpg","null","reveal","image-keyboard-response","185","640558","0.0-6.0-4.25","2676579","co38146","norming","","","","","","",""
"null","../img/tt/111tt.jpg","null","mooney2","image-keyboard-response","186","642561","0.0-6.0-5.25","2676579","co38146","norming","","","","","","",""
"5203.619999999995","","","post_reveal_questions","survey-likert","187","647767","0.0-6.0-6.25","2676579","co38146","norming","","","{""aha"":0}","[0]","../img/tt/111tt.jpg","",""
"null","<div style=""font-size:60px;""> </div>","null","fixation","html-keyboard-response","188","647969","0.0-6.0-0.26","2676579","co38146","norming","","","","","","",""
"null","../img/tt/468tt.jpg","null","mooney1","image-keyboard-response","189","650977","0.0-6.0-1.26","2676579","co38146","norming","","","","","","",""
"3243.29999999993","","","post_mooney1_questions","survey-likert","190","654223","0.0-6.0-2.26","2676579","co38146","norming","","","{""curiosity"":6,""confidence"":0}","[0,1]","../img/tt/468tt.jpg","",""
"790.354999999865","","","recognition","survey-text","191","655015","0.0-6.0-3.26","2676579","co38146","norming","","","{""guess"":""""}","","../img/tt/468tt.jpg","",""
"null","../img/gs/468gs.jpg","null","reveal","image-keyboard-response","192","657022","0.0-6.0-4.26","2676579","co38146","norming","","","","","","",""
"null","../img/tt/468tt.jpg","null","mooney2","image-keyboard-response","193","659030","0.0-6.0-5.26","2676579","co38146","norming","","","","","","",""
"1950.7200000000885","","","post_reveal_questions","survey-likert","194","660983","0.0-6.0-6.26","2676579","co38146","norming","","","{""aha"":6}","[0]","../img/tt/468tt.jpg","",""
"null","<div style=""font-size:60px;""> </div>","null","fixation","html-keyboard-response","195","661186","0.0-6.0-0.27","2676579","co38146","norming","","","","","","",""
"null","../img/tt/1307tt.jpg","null","mooney1","image-keyboard-response","196","664193","0.0-6.0-1.27","2676579","co38146","norming","","","","","","",""
"3443.70000000007","","","post_mooney1_questions","survey-likert","197","667640","0.0-6.0-2.27","2676579","co38146","norming","","","{""curiosity"":6,""confidence"":0}","[0,1]","../img/tt/1307tt.jpg","",""
"701.8850000002421","","","recognition","survey-text","198","668343","0.0-6.0-3.27","2676579","co38146","norming","","","{""guess"":""""}","","../img/tt/1307tt.jpg","",""
"null","../img/gs/1307gs.jpg","null","reveal","image-keyboard-response","199","670344","0.0-6.0-4.27","2676579","co38146","norming","","","","","","",""
"null","../img/tt/1307tt.jpg","null","mooney2","image-keyboard-response","200","672345","0.0-6.0-5.27","2676579","co38146","norming","","","","","","",""
"1780.1500000000233","","","post_reveal_questions","survey-likert","201","674127","0.0-6.0-6.27","2676579","co38146","norming","","","{""aha"":6}","[0]","../img/tt/1307tt.jpg","",""
"null","<div style=""font-size:60px;""> </div>","null","fixation","html-keyboard-response","202","674336","0.0-6.0-0.28","2676579","co38146","norming","","","","","","",""
"null","../img/tt/096tt.jpg","null","mooney1","image-keyboard-response","203","677344","0.0-6.0-1.28","2676579","co38146","norming","","","","","","",""
"3500.359999999986","","","post_mooney1_questions","survey-likert","204","680847","0.0-6.0-2.28","2676579","co38146","norming","","","{""curiosity"":6,""confidence"":0}","[0,1]","../img/tt/096tt.jpg","",""
"1094.0999999999767","","","recognition","survey-text","205","681943","0.0-6.0-3.28","2676579","co38146","norming","","","{""guess"":""""}","","../img/tt/096tt.jpg","",""
"null","../img/gs/096gs.jpg","null","reveal","image-keyboard-response","206","683945","0.0-6.0-4.28","2676579","co38146","norming","","","","","","",""
"null","../img/tt/096tt.jpg","null","mooney2","image-keyboard-response","207","685948","0.0-6.0-5.28","2676579","co38146","norming","","","","","","",""
"1569.079999999958","","","post_reveal_questions","survey-likert","208","687519","0.0-6.0-6.28","2676579","co38146","norming","","","{""aha"":6}","[0]","../img/tt/096tt.jpg","",""
"null","<div style=""font-size:60px;""> </div>","null","fixation","html-keyboard-response","209","687722","0.0-6.0-0.29","2676579","co38146","norming","","","","","","",""
"null","../img/tt/296tt.jpg","null","mooney1","image-keyboard-response","210","690734","0.0-6.0-1.29","2676579","co38146","norming","","","","","","",""
"6109.349999999977","","","post_mooney1_questions","survey-likert","211","696848","0.0-6.0-2.29","2676579","co38146","norming","","","{""curiosity"":6,""confidence"":1}","[0,1]","../img/tt/296tt.jpg","",""
"949.8550000000978","","","recognition","survey-text","212","697799","0.0-6.0-3.29","2676579","co38146","norming","","","{""guess"":""""}","","../img/tt/296tt.jpg","",""
"null","../img/gs/296gs.jpg","null","reveal","image-keyboard-response","213","699800","0.0-6.0-4.29","2676579","co38146","norming","","","","","","",""
"null","../img/tt/296tt.jpg","null","mooney2","image-keyboard-response","214","701802","0.0-6.0-5.29","2676579","co38146","norming","","","","","","",""
"1683.079999999958","","","post_reveal_questions","survey-likert","215","703487","0.0-6.0-6.29","2676579","co38146","norming","","","{""aha"":6}","[0]","../img/tt/296tt.jpg","",""
"null","<div style=""font-size:60px;""> </div>","null","fixation","html-keyboard-response","216","703688","0.0-6.0-0.30","2676579","co38146","norming","","","","","","",""
"null","../img/tt/599tt.jpg","null","mooney1","image-keyboard-response","217","706700","0.0-6.0-1.30","2676579","co38146","norming","","","","","","",""
"4184.215000000084","","","post_mooney1_questions","survey-likert","218","710888","0.0-6.0-2.30","2676579","co38146","norming","","","{""curiosity"":4,""confidence"":2}","[0,1]","../img/tt/599tt.jpg","",""
"3438.1049999999814","","","recognition","survey-text","219","714328","0.0-6.0-3.30","2676579","co38146","norming","","","{""guess"":""owl""}","","../img/tt/599tt.jpg","",""
"null","../img/gs/599gs.jpg","null","reveal","image-keyboard-response","220","716335","0.0-6.0-4.30","2676579","co38146","norming","","","","","","",""
"null","../img/tt/599tt.jpg","null","mooney2","image-keyboard-response","221","718339","0.0-6.0-5.30","2676579","co38146","norming","","","","","","",""
"2106.780000000028","","","post_reveal_questions","survey-likert","222","720448","0.0-6.0-6.30","2676579","co38146","norming","","","{""aha"":0}","[0]","../img/tt/599tt.jpg","",""
"null","<div style=""font-size:60px;""> </div>","null","fixation","html-keyboard-response","223","720658","0.0-6.0-0.31","2676579","co38146","norming","","","","","","",""
"null","../img/tt/1211tt.jpg","null","mooney1","image-keyboard-response","224","723664","0.0-6.0-1.31","2676579","co38146","norming","","","","","","",""
"2989.3800000000047","","","post_mooney1_questions","survey-likert","225","726656","0.0-6.0-2.31","2676579","co38146","norming","","","{""curiosity"":6,""confidence"":0}","[0,1]","../img/tt/1211tt.jpg","",""
"949.7450000001118","","","recognition","survey-text","226","727607","0.0-6.0-3.31","2676579","co38146","norming","","","{""guess"":""""}","","../img/tt/1211tt.jpg","",""
"null","../img/gs/1211gs.jpg","null","reveal","image-keyboard-response","227","729610","0.0-6.0-4.31","2676579","co38146","norming","","","","","","",""
"null","../img/tt/1211tt.jpg","null","mooney2","image-keyboard-response","228","731614","0.0-6.0-5.31","2676579","co38146","norming","","","","","","",""
"1984.8149999999441","","","post_reveal_questions","survey-likert","229","733600","0.0-6.0-6.31","2676579","co38146","norming","","","{""aha"":6}","[0]","../img/tt/1211tt.jpg","",""
"null","<div style=""font-size:60px;""> </div>","null","fixation","html-keyboard-response","230","733806","0.0-6.0-0.32","2676579","co38146","norming","","","","","","",""
"null","../img/tt/1217tt.jpg","null","mooney1","image-keyboard-response","231","736808","0.0-6.0-1.32","2676579","co38146","norming","","","","","","",""
"3604.4000000001397","","","post_mooney1_questions","survey-likert","232","740416","0.0-6.0-2.32","2676579","co38146","norming","","","{""curiosity"":6,""confidence"":0}","[0,1]","../img/tt/1217tt.jpg","",""
"1190.0250000001397","","","recognition","survey-text","233","741608","0.0-6.0-3.32","2676579","co38146","norming","","","{""guess"":""""}","","../img/tt/1217tt.jpg","",""
"null","../img/gs/1217gs.jpg","null","reveal","image-keyboard-response","234","743610","0.0-6.0-4.32","2676579","co38146","norming","","","","","","",""
"null","../img/tt/1217tt.jpg","null","mooney2","image-keyboard-response","235","745615","0.0-6.0-5.32","2676579","co38146","norming","","","","","","",""
"4944.099999999977","","","post_reveal_questions","survey-likert","236","750560","0.0-6.0-6.32","2676579","co38146","norming","","","{""aha"":4}","[0]","../img/tt/1217tt.jpg","",""
"null","<div style=""font-size:60px;""> </div>","null","fixation","html-keyboard-response","237","750763","0.0-6.0-0.33","2676579","co38146","norming","","","","","","",""
"null","../img/tt/064tt.jpg","null","mooney1","image-keyboard-response","238","753768","0.0-6.0-1.33","2676579","co38146","norming","","","","","","",""
"8132.409999999916","","","post_mooney1_questions","survey-likert","239","761904","0.0-6.0-2.33","2676579","co38146","norming","","","{""curiosity"":5,""confidence"":1}","[0,1]","../img/tt/064tt.jpg","",""
"1725.6899999999441","","","recognition","survey-text","240","763631","0.0-6.0-3.33","2676579","co38146","norming","","","{""guess"":""""}","","../img/tt/064tt.jpg","",""
"null","../img/gs/064gs.jpg","null","reveal","image-keyboard-response","241","765642","0.0-6.0-4.33","2676579","co38146","norming","","","","","","",""
"null","../img/tt/064tt.jpg","null","mooney2","image-keyboard-response","242","767643","0.0-6.0-5.33","2676579","co38146","norming","","","","","","",""
"1923.964999999851","","","post_reveal_questions","survey-likert","243","769568","0.0-6.0-6.33","2676579","co38146","norming","","","{""aha"":4}","[0]","../img/tt/064tt.jpg","",""
"null","<div style=""font-size:60px;""> </div>","null","fixation","html-keyboard-response","244","769778","0.0-6.0-0.34","2676579","co38146","norming","","","","","","",""
"null","../img/tt/112tt.jpg","null","mooney1","image-keyboard-response","245","772782","0.0-6.0-1.34","2676579","co38146","norming","","","","","","",""
"7241.980000000098","","","post_mooney1_questions","survey-likert","246","780025","0.0-6.0-2.34","2676579","co38146","norming","","","{""curiosity"":1,""confidence"":5}","[0,1]","../img/tt/112tt.jpg","",""
"4101.8150000000605","","","recognition","survey-text","247","784128","0.0-6.0-3.34","2676579","co38146","norming","","","{""guess"":""fluit""}","","../img/tt/112tt.jpg","",""
"null","../img/gs/112gs.jpg","null","reveal","image-keyboard-response","248","786135","0.0-6.0-4.34","2676579","co38146","norming","","","","","","",""
"null","../img/tt/112tt.jpg","null","mooney2","image-keyboard-response","249","788139","0.0-6.0-5.34","2676579","co38146","norming","","","","","","",""
"4444.365000000107","","","post_reveal_questions","survey-likert","250","792585","0.0-6.0-6.34","2676579","co38146","norming","","","{""aha"":1}","[0]","../img/tt/112tt.jpg","",""
"null","<div style=""font-size:60px;""> </div>","null","fixation","html-keyboard-response","251","792794","0.0-6.0-0.35","2676579","co38146","norming","","","","","","",""
"null","../img/tt/1049tt.jpg","null","mooney1","image-keyboard-response","252","795800","0.0-6.0-1.35","2676579","co38146","norming","","","","","","",""
"3647.82500000007","","","post_mooney1_questions","survey-likert","253","799449","0.0-6.0-2.35","2676579","co38146","norming","","","{""curiosity"":6,""confidence"":0}","[0,1]","../img/tt/1049tt.jpg","",""
"797.765000000014","","","recognition","survey-text","254","800249","0.0-6.0-3.35","2676579","co38146","norming","","","{""guess"":""""}","","../img/tt/1049tt.jpg","",""
"null","../img/gs/1049gs.jpg","null","reveal","image-keyboard-response","255","802254","0.0-6.0-4.35","2676579","co38146","norming","","","","","","",""
"null","../img/tt/1049tt.jpg","null","mooney2","image-keyboard-response","256","804264","0.0-6.0-5.35","2676579","co38146","norming","","","","","","",""
"1775.9350000000559","","","post_reveal_questions","survey-likert","257","806041","0.0-6.0-6.35","2676579","co38146","norming","","","{""aha"":6}","[0]","../img/tt/1049tt.jpg","",""
"null","<div style=""font-size:60px;""> </div>","null","fixation","html-keyboard-response","258","806244","0.0-6.0-0.36","2676579","co38146","norming","","","","","","",""
"null","../img/tt/1189tt.jpg","null","mooney1","image-keyboard-response","259","809251","0.0-6.0-1.36","2676579","co38146","norming","","","","","","",""
"4292.989999999874","","","post_mooney1_questions","survey-likert","260","813545","0.0-6.0-2.36","2676579","co38146","norming","","","{""curiosity"":6,""confidence"":0}","[0,1]","../img/tt/1189tt.jpg","",""
"949.9450000000652","","","recognition","survey-text","261","814497","0.0-6.0-3.36","2676579","co38146","norming","","","{""guess"":""""}","","../img/tt/1189tt.jpg","",""
"null","../img/gs/1189gs.jpg","null","reveal","image-keyboard-response","262","816502","0.0-6.0-4.36","2676579","co38146","norming","","","","","","",""
"null","../img/tt/1189tt.jpg","null","mooney2","image-keyboard-response","263","818511","0.0-6.0-5.36","2676579","co38146","norming","","","","","","",""
"2072.7749999997905","","","post_reveal_questions","survey-likert","264","820585","0.0-6.0-6.36","2676579","co38146","norming","","","{""aha"":6}","[0]","../img/tt/1189tt.jpg","",""
"null","<div style=""font-size:60px;""> </div>","null","fixation","html-keyboard-response","265","820788","0.0-6.0-0.37","2676579","co38146","norming","","","","","","",""
"null","../img/tt/098tt.jpg","null","mooney1","image-keyboard-response","266","823799","0.0-6.0-1.37","2676579","co38146","norming","","","","","","",""
"3009.125","","","post_mooney1_questions","survey-likert","267","826809","0.0-6.0-2.37","2676579","co38146","norming","","","{""curiosity"":6,""confidence"":0}","[0,1]","../img/tt/098tt.jpg","",""
"1022.0050000001211","","","recognition","survey-text","268","827832","0.0-6.0-3.37","2676579","co38146","norming","","","{""guess"":""""}","","../img/tt/098tt.jpg","",""
"null","../img/gs/098gs.jpg","null","reveal","image-keyboard-response","269","829834","0.0-6.0-4.37","2676579","co38146","norming","","","","","","",""
"null","../img/tt/098tt.jpg","null","mooney2","image-keyboard-response","270","831842","0.0-6.0-5.37","2676579","co38146","norming","","","","","","",""
"6021.699999999953","","","post_reveal_questions","survey-likert","271","837858","0.0-6.0-6.37","2676579","co38146","norming","","","{""aha"":5}","[0]","../img/tt/098tt.jpg","",""
"null","<div style=""font-size:60px;""> </div>","null","fixation","html-keyboard-response","272","838060","0.0-6.0-0.38","2676579","co38146","norming","","","","","","",""
"null","../img/tt/019tt.jpg","null","mooney1","image-keyboard-response","273","841066","0.0-6.0-1.38","2676579","co38146","norming","","","","","","",""
"3711.2649999998976","","","post_mooney1_questions","survey-likert","274","844779","0.0-6.0-2.38","2676579","co38146","norming","","","{""curiosity"":6,""confidence"":0}","[0,1]","../img/tt/019tt.jpg","",""
"909.9699999999721","","","recognition","survey-text","275","845690","0.0-6.0-3.38","2676579","co38146","norming","","","{""guess"":""""}","","../img/tt/019tt.jpg","",""
"null","../img/gs/019gs.jpg","null","reveal","image-keyboard-response","276","847694","0.0-6.0-4.38","2676579","co38146","norming","","","","","","",""
"null","../img/tt/019tt.jpg","null","mooney2","image-keyboard-response","277","849697","0.0-6.0-5.38","2676579","co38146","norming","","","","","","",""
"1784.390000000014","","","post_reveal_questions","survey-likert","278","851482","0.0-6.0-6.38","2676579","co38146","norming","","","{""aha"":4}","[0]","../img/tt/019tt.jpg","",""
"null","<div style=""font-size:60px;""> </div>","null","fixation","html-keyboard-response","279","851689","0.0-6.0-0.39","2676579","co38146","norming","","","","","","",""
"null","../img/tt/1202tt.jpg","null","mooney1","image-keyboard-response","280","854696","0.0-6.0-1.39","2676579","co38146","norming","","","","","","",""
"3529.6149999998743","","","post_mooney1_questions","survey-likert","281","858227","0.0-6.0-2.39","2676579","co38146","norming","","","{""curiosity"":6,""confidence"":0}","[0,1]","../img/tt/1202tt.jpg","",""
"933.8649999999907","","","recognition","survey-text","282","859163","0.0-6.0-3.39","2676579","co38146","norming","","","{""guess"":""""}","","../img/tt/1202tt.jpg","",""
"null","../img/gs/1202gs.jpg","null","reveal","image-keyboard-response","283","861172","0.0-6.0-4.39","2676579","co38146","norming","","","","","","",""
"null","../img/tt/1202tt.jpg","null","mooney2","image-keyboard-response","284","863174","0.0-6.0-5.39","2676579","co38146","norming","","","","","","",""
"2186.055000000051","","","post_reveal_questions","survey-likert","285","865363","0.0-6.0-6.39","2676579","co38146","norming","","","{""aha"":5}","[0]","../img/tt/1202tt.jpg","",""
"null","<div style=""font-size:60px;""> </div>","null","fixation","html-keyboard-response","286","865571","0.0-6.0-0.40","2676579","co38146","norming","","","","","","",""
"null","../img/tt/063tt.jpg","null","mooney1","image-keyboard-response","287","868574","0.0-6.0-1.40","2676579","co38146","norming","","","","","","",""
"6514.284999999916","","","post_mooney1_questions","survey-likert","288","875091","0.0-6.0-2.40","2676579","co38146","norming","","","{""curiosity"":2,""confidence"":3}","[0,1]","../img/tt/063tt.jpg","",""
"5142.069999999832","","","recognition","survey-text","289","880235","0.0-6.0-3.40","2676579","co38146","norming","","","{""guess"":""instrument""}","","../img/tt/063tt.jpg","",""
"null","../img/gs/063gs.jpg","null","reveal","image-keyboard-response","290","882239","0.0-6.0-4.40","2676579","co38146","norming","","","","","","",""
"null","../img/tt/063tt.jpg","null","mooney2","image-keyboard-response","291","884246","0.0-6.0-5.40","2676579","co38146","norming","","","","","","",""
"3218.5400000000373","","","post_reveal_questions","survey-likert","292","887467","0.0-6.0-6.40","2676579","co38146","norming","","","{""aha"":1}","[0]","../img/tt/063tt.jpg","",""
"null","<div style=""font-size:60px;""> </div>","null","fixation","html-keyboard-response","293","887669","0.0-6.0-0.41","2676579","co38146","norming","","","","","","",""
"null","../img/tt/1243tt.jpg","null","mooney1","image-keyboard-response","294","890673","0.0-6.0-1.41","2676579","co38146","norming","","","","","","",""
"4902.754999999888","","","post_mooney1_questions","survey-likert","295","895579","0.0-6.0-2.41","2676579","co38146","norming","","","{""curiosity"":6,""confidence"":1}","[0,1]","../img/tt/1243tt.jpg","",""
"990.4549999998417","","","recognition","survey-text","296","896571","0.0-6.0-3.41","2676579","co38146","norming","","","{""guess"":""""}","","../img/tt/1243tt.jpg","",""
"null","../img/gs/1243gs.jpg","null","reveal","image-keyboard-response","297","898587","0.0-6.0-4.41","2676579","co38146","norming","","","","","","",""
"null","../img/tt/1243tt.jpg","null","mooney2","image-keyboard-response","298","900598","0.0-6.0-5.41","2676579","co38146","norming","","","","","","",""
"1666.2850000000326","","","post_reveal_questions","survey-likert","299","902267","0.0-6.0-6.41","2676579","co38146","norming","","","{""aha"":6}","[0]","../img/tt/1243tt.jpg","",""
"null","<div style=""font-size:60px;""> </div>","null","fixation","html-keyboard-response","300","902475","0.0-6.0-0.42","2676579","co38146","norming","","","","","","",""
"null","../img/tt/007tt.jpg","null","mooney1","image-keyboard-response","301","905480","0.0-6.0-1.42","2676579","co38146","norming","","","","","","",""
"4318.660000000149","","","post_mooney1_questions","survey-likert","302","909803","0.0-6.0-2.42","2676579","co38146","norming","","","{""curiosity"":6,""confidence"":1}","[0,1]","../img/tt/007tt.jpg","",""
"3685.955000000191","","","recognition","survey-text","303","913491","0.0-6.0-3.42","2676579","co38146","norming","","","{""guess"":""snake""}","","../img/tt/007tt.jpg","",""
"null","../img/gs/007gs.jpg","null","reveal","image-keyboard-response","304","915501","0.0-6.0-4.42","2676579","co38146","norming","","","","","","",""
"null","../img/tt/007tt.jpg","null","mooney2","image-keyboard-response","305","917511","0.0-6.0-5.42","2676579","co38146","norming","","","","","","",""
"2210.1399999998976","","","post_reveal_questions","survey-likert","306","919723","0.0-6.0-6.42","2676579","co38146","norming","","","{""aha"":6}","[0]","../img/tt/007tt.jpg","",""
"null","<div style=""font-size:60px;""> </div>","null","fixation","html-keyboard-response","307","919932","0.0-6.0-0.43","2676579","co38146","norming","","","","","","",""
"null","../img/tt/1260tt.jpg","null","mooney1","image-keyboard-response","308","922940","0.0-6.0-1.43","2676579","co38146","norming","","","","","","",""
"3076.115000000107","","","post_mooney1_questions","survey-likert","309","926019","0.0-6.0-2.43","2676579","co38146","norming","","","{""curiosity"":6,""confidence"":0}","[0,1]","../img/tt/1260tt.jpg","",""
"902.0950000000885","","","recognition","survey-text","310","926923","0.0-6.0-3.43","2676579","co38146","norming","","","{""guess"":""""}","","../img/tt/1260tt.jpg","",""
"null","../img/gs/1260gs.jpg","null","reveal","image-keyboard-response","311","928933","0.0-6.0-4.43","2676579","co38146","norming","","","","","","",""
"null","../img/tt/1260tt.jpg","null","mooney2","image-keyboard-response","312","930944","0.0-6.0-5.43","2676579","co38146","norming","","","","","","",""
"1544.5900000002002","","","post_reveal_questions","survey-likert","313","932491","0.0-6.0-6.43","2676579","co38146","norming","","","{""aha"":6}","[0]","../img/tt/1260tt.jpg","",""
"null","<div style=""font-size:60px;""> </div>","null","fixation","html-keyboard-response","314","932692","0.0-6.0-0.44","2676579","co38146","norming","","","","","","",""
"null","../img/tt/1102tt.jpg","null","mooney1","image-keyboard-response","315","935701","0.0-6.0-1.44","2676579","co38146","norming","","","","","","",""
"2932.5999999998603","","","post_mooney1_questions","survey-likert","316","938635","0.0-6.0-2.44","2676579","co38146","norming","","","{""curiosity"":6,""confidence"":0}","[0,1]","../img/tt/1102tt.jpg","",""
"814.0299999999115","","","recognition","survey-text","317","939451","0.0-6.0-3.44","2676579","co38146","norming","","","{""guess"":""""}","","../img/tt/1102tt.jpg","",""
"null","../img/gs/1102gs.jpg","null","reveal","image-keyboard-response","318","941454","0.0-6.0-4.44","2676579","co38146","norming","","","","","","",""
"null","../img/tt/1102tt.jpg","null","mooney2","image-keyboard-response","319","943457","0.0-6.0-5.44","2676579","co38146","norming","","","","","","",""
"2663.3799999998882","","","post_reveal_questions","survey-likert","320","946123","0.0-6.0-6.44","2676579","co38146","norming","","","{""aha"":4}","[0]","../img/tt/1102tt.jpg","",""
"null","<div style=""font-size:60px;""> </div>","null","fixation","html-keyboard-response","321","946324","0.0-6.0-0.45","2676579","co38146","norming","","","","","","",""
"null","../img/tt/1086tt.jpg","null","mooney1","image-keyboard-response","322","949337","0.0-6.0-1.45","2676579","co38146","norming","","","","","","",""
"3591.3349999998463","","","post_mooney1_questions","survey-likert","323","952931","0.0-6.0-2.45","2676579","co38146","norming","","","{""curiosity"":6,""confidence"":1}","[0,1]","../img/tt/1086tt.jpg","",""
"2830.655000000028","","","recognition","survey-text","324","955763","0.0-6.0-3.45","2676579","co38146","norming","","","{""guess"":""dog""}","","../img/tt/1086tt.jpg","",""
"null","../img/gs/1086gs.jpg","null","reveal","image-keyboard-response","325","957768","0.0-6.0-4.45","2676579","co38146","norming","","","","","","",""
"null","../img/tt/1086tt.jpg","null","mooney2","image-keyboard-response","326","959772","0.0-6.0-5.45","2676579","co38146","norming","","","","","","",""
"3908.429999999935","","","post_reveal_questions","survey-likert","327","963683","0.0-6.0-6.45","2676579","co38146","norming","","","{""aha"":3}","[0]","../img/tt/1086tt.jpg","",""
"null","<div style=""font-size:60px;""> </div>","null","fixation","html-keyboard-response","328","963893","0.0-6.0-0.46","2676579","co38146","norming","","","","","","",""
"null","../img/tt/273tt.jpg","null","mooney1","image-keyboard-response","329","966900","0.0-6.0-1.46","2676579","co38146","norming","","","","","","",""
"5027.619999999879","","","post_mooney1_questions","survey-likert","330","971931","0.0-6.0-2.46","2676579","co38146","norming","","","{""curiosity"":3,""confidence"":1}","[0,1]","../img/tt/273tt.jpg","",""
"3454.2200000000885","","","recognition","survey-text","331","975387","0.0-6.0-3.46","2676579","co38146","norming","","","{""guess"":""mouth""}","","../img/tt/273tt.jpg","",""
"null","../img/gs/273gs.jpg","null","reveal","image-keyboard-response","332","977398","0.0-6.0-4.46","2676579","co38146","norming","","","","","","",""
"null","../img/tt/273tt.jpg","null","mooney2","image-keyboard-response","333","979407","0.0-6.0-5.46","2676579","co38146","norming","","","","","","",""
"2193.75","","","post_reveal_questions","survey-likert","334","981603","0.0-6.0-6.46","2676579","co38146","norming","","","{""aha"":3}","[0]","../img/tt/273tt.jpg","",""
"null","<div style=""font-size:60px;""> </div>","null","fixation","html-keyboard-response","335","981811","0.0-6.0-0.47","2676579","co38146","norming","","","","","","",""
"null","../img/tt/603tt.jpg","null","mooney1","image-keyboard-response","336","984818","0.0-6.0-1.47","2676579","co38146","norming","","","","","","",""
"3005.6350000000093","","","post_mooney1_questions","survey-likert","337","987827","0.0-6.0-2.47","2676579","co38146","norming","","","{""curiosity"":6,""confidence"":0}","[0,1]","../img/tt/603tt.jpg","",""
"853.9300000000512","","","recognition","survey-text","338","988683","0.0-6.0-3.47","2676579","co38146","norming","","","{""guess"":""""}","","../img/tt/603tt.jpg","",""
"null","../img/gs/603gs.jpg","null","reveal","image-keyboard-response","339","990693","0.0-6.0-4.47","2676579","co38146","norming","","","","","","",""
"null","../img/tt/603tt.jpg","null","mooney2","image-keyboard-response","340","992703","0.0-6.0-5.47","2676579","co38146","norming","","","","","","",""
"2209.6649999998044","","","post_reveal_questions","survey-likert","341","994915","0.0-6.0-6.47","2676579","co38146","norming","","","{""aha"":6}","[0]","../img/tt/603tt.jpg","",""
"null","<div style=""font-size:60px;""> </div>","null","fixation","html-keyboard-response","342","995123","0.0-6.0-0.48","2676579","co38146","norming","","","","","","",""
"null","../img/tt/079tt.jpg","null","mooney1","image-keyboard-response","343","998131","0.0-6.0-1.48","2676579","co38146","norming","","","","","","",""
"3700.7799999999115","","","post_mooney1_questions","survey-likert","344","1001835","0.0-6.0-2.48","2676579","co38146","norming","","","{""curiosity"":6,""confidence"":0}","[0,1]","../img/tt/079tt.jpg","",""
"797.9199999999255","","","recognition","survey-text","345","1002635","0.0-6.0-3.48","2676579","co38146","norming","","","{""guess"":""""}","","../img/tt/079tt.jpg","",""
"null","../img/gs/079gs.jpg","null","reveal","image-keyboard-response","346","1004638","0.0-6.0-4.48","2676579","co38146","norming","","","","","","",""
"null","../img/tt/079tt.jpg","null","mooney2","image-keyboard-response","347","1006640","0.0-6.0-5.48","2676579","co38146","norming","","","","","","",""
"1224.1850000000559","","","post_reveal_questions","survey-likert","348","1007867","0.0-6.0-6.48","2676579","co38146","norming","","","{""aha"":5}","[0]","../img/tt/079tt.jpg","",""
"null","<div style=""font-size:60px;""> </div>","null","fixation","html-keyboard-response","349","1008077","0.0-6.0-0.49","2676579","co38146","norming","","","","","","",""
"null","../img/tt/1006tt.jpg","null","mooney1","image-keyboard-response","350","1011084","0.0-6.0-1.49","2676579","co38146","norming","","","","","","",""
"4267.220000000205","","","post_mooney1_questions","survey-likert","351","1015355","0.0-6.0-2.49","2676579","co38146","norming","","","{""curiosity"":6,""confidence"":1}","[0,1]","../img/tt/1006tt.jpg","",""
"830.2800000001444","","","recognition","survey-text","352","1016187","0.0-6.0-3.49","2676579","co38146","norming","","","{""guess"":""""}","","../img/tt/1006tt.jpg","",""
"null","../img/gs/1006gs.jpg","null","reveal","image-keyboard-response","353","1018192","0.0-6.0-4.49","2676579","co38146","norming","","","","","","",""
"null","../img/tt/1006tt.jpg","null","mooney2","image-keyboard-response","354","1020203","0.0-6.0-5.49","2676579","co38146","norming","","","","","","",""
"2180.9449999998324","","","post_reveal_questions","survey-likert","355","1022387","0.0-6.0-6.49","2676579","co38146","norming","","","{""aha"":5}","[0]","../img/tt/1006tt.jpg","",""
"null","<div style=""font-size:60px;""> </div>","null","fixation","html-keyboard-response","356","1022590","0.0-6.0-0.50","2676579","co38146","norming","","","","","","",""
"null","../img/tt/534tt.jpg","null","mooney1","image-keyboard-response","357","1025601","0.0-6.0-1.50","2676579","co38146","norming","","","","","","",""
"2865.245000000228","","","post_mooney1_questions","survey-likert","358","1028468","0.0-6.0-2.50","2676579","co38146","norming","","","{""curiosity"":6,""confidence"":0}","[0,1]","../img/tt/534tt.jpg","",""
"877.9450000001816","","","recognition","survey-text","359","1029347","0.0-6.0-3.50","2676579","co38146","norming","","","{""guess"":""""}","","../img/tt/534tt.jpg","",""
"null","../img/gs/534gs.jpg","null","reveal","image-keyboard-response","360","1031349","0.0-6.0-4.50","2676579","co38146","norming","","","","","","",""
"null","../img/tt/534tt.jpg","null","mooney2","image-keyboard-response","361","1033360","0.0-6.0-5.50","2676579","co38146","norming","","","","","","",""
"4592.255000000005","","","post_reveal_questions","survey-likert","362","1037955","0.0-6.0-6.50","2676579","co38146","norming","","","{""aha"":4}","[0]","../img/tt/534tt.jpg","",""
"null","<div style=""font-size:60px;""> </div>","null","fixation","html-keyboard-response","363","1038165","0.0-6.0-0.51","2676579","co38146","norming","","","","","","",""
"null","../img/tt/497tt.jpg","null","mooney1","image-keyboard-response","364","1041173","0.0-6.0-1.51","2676579","co38146","norming","","","","","","",""
"3114.344999999972","","","post_mooney1_questions","survey-likert","365","1044291","0.0-6.0-2.51","2676579","co38146","norming","","","{""curiosity"":6,""confidence"":0}","[0,1]","../img/tt/497tt.jpg","",""
"766.0200000000186","","","recognition","survey-text","366","1045059","0.0-6.0-3.51","2676579","co38146","norming","","","{""guess"":""""}","","../img/tt/497tt.jpg","",""
"null","../img/gs/497gs.jpg","null","reveal","image-keyboard-response","367","1047070","0.0-6.0-4.51","2676579","co38146","norming","","","","","","",""
"null","../img/tt/497tt.jpg","null","mooney2","image-keyboard-response","368","1049081","0.0-6.0-5.51","2676579","co38146","norming","","","","","","",""
"1678.779999999795","","","post_reveal_questions","survey-likert","369","1050763","0.0-6.0-6.51","2676579","co38146","norming","","","{""aha"":6}","[0]","../img/tt/497tt.jpg","",""
"null","<div style=""font-size:60px;""> </div>","null","fixation","html-keyboard-response","370","1050969","0.0-6.0-0.52","2676579","co38146","norming","","","","","","",""
"null","../img/tt/456tt.jpg","null","mooney1","image-keyboard-response","371","1053974","0.0-6.0-1.52","2676579","co38146","norming","","","","","","",""
"3482.0849999999627","","","post_mooney1_questions","survey-likert","372","1057459","0.0-6.0-2.52","2676579","co38146","norming","","","{""curiosity"":6,""confidence"":0}","[0,1]","../img/tt/456tt.jpg","",""
"838.0100000002421","","","recognition","survey-text","373","1058299","0.0-6.0-3.52","2676579","co38146","norming","","","{""guess"":""""}","","../img/tt/456tt.jpg","",""
"null","../img/gs/456gs.jpg","null","reveal","image-keyboard-response","374","1060308","0.0-6.0-4.52","2676579","co38146","norming","","","","","","",""
"null","../img/tt/456tt.jpg","null","mooney2","image-keyboard-response","375","1062312","0.0-6.0-5.52","2676579","co38146","norming","","","","","","",""
"2536.7099999999627","","","post_reveal_questions","survey-likert","376","1064851","0.0-6.0-6.52","2676579","co38146","norming","","","{""aha"":6}","[0]","../img/tt/456tt.jpg","",""
"null","<div style=""font-size:60px;""> </div>","null","fixation","html-keyboard-response","377","1065060","0.0-6.0-0.53","2676579","co38146","norming","","","","","","",""
"null","../img/tt/1161tt.jpg","null","mooney1","image-keyboard-response","378","1068067","0.0-6.0-1.53","2676579","co38146","norming","","","","","","",""
"3748.6999999999534","","","post_mooney1_questions","survey-likert","379","1071819","0.0-6.0-2.53","2676579","co38146","norming","","","{""curiosity"":6,""confidence"":1}","[0,1]","../img/tt/1161tt.jpg","",""
"790.2000000001863","","","recognition","survey-text","380","1072611","0.0-6.0-3.53","2676579","co38146","norming","","","{""guess"":""""}","","../img/tt/1161tt.jpg","",""
"null","../img/gs/1161gs.jpg","null","reveal","image-keyboard-response","381","1074619","0.0-6.0-4.53","2676579","co38146","norming","","","","","","",""
"null","../img/tt/1161tt.jpg","null","mooney2","image-keyboard-response","382","1076621","0.0-6.0-5.53","2676579","co38146","norming","","","","","","",""
"2595.2049999998417","","","post_reveal_questions","survey-likert","383","1079219","0.0-6.0-6.53","2676579","co38146","norming","","","{""aha"":4}","[0]","../img/tt/1161tt.jpg","",""
"null","<div style=""font-size:60px;""> </div>","null","fixation","html-keyboard-response","384","1079424","0.0-6.0-0.54","2676579","co38146","norming","","","","","","",""
"null","../img/tt/044tt.jpg","null","mooney1","image-keyboard-response","385","1082431","0.0-6.0-1.54","2676579","co38146","norming","","","","","","",""
"3160.8499999998603","","","post_mooney1_questions","survey-likert","386","1085596","0.0-6.0-2.54","2676579","co38146","norming","","","{""curiosity"":6,""confidence"":0}","[0,1]","../img/tt/044tt.jpg","",""
"622.0949999999721","","","recognition","survey-text","387","1086219","0.0-6.0-3.54","2676579","co38146","norming","","","{""guess"":""""}","","../img/tt/044tt.jpg","",""
"null","../img/gs/044gs.jpg","null","reveal","image-keyboard-response","388","1088226","0.0-6.0-4.54","2676579","co38146","norming","","","","","","",""
"null","../img/tt/044tt.jpg","null","mooney2","image-keyboard-response","389","1090228","0.0-6.0-5.54","2676579","co38146","norming","","","","","","",""
"2532.9449999998324","","","post_reveal_questions","survey-likert","390","1092763","0.0-6.0-6.54","2676579","co38146","norming","","","{""aha"":6}","[0]","../img/tt/044tt.jpg","",""
"null","<div style=""font-size:60px;""> </div>","null","fixation","html-keyboard-response","391","1092971","0.0-6.0-0.55","2676579","co38146","norming","","","","","","",""
"null","../img/tt/319tt.jpg","null","mooney1","image-keyboard-response","392","1095978","0.0-6.0-1.55","2676579","co38146","norming","","","","","","",""
"2965.660000000149","","","post_mooney1_questions","survey-likert","393","1098947","0.0-6.0-2.55","2676579","co38146","norming","","","{""curiosity"":6,""confidence"":0}","[0,1]","../img/tt/319tt.jpg","",""
"966.1499999999069","","","recognition","survey-text","394","1099915","0.0-6.0-3.55","2676579","co38146","norming","","","{""guess"":""""}","","../img/tt/319tt.jpg","",""
"null","../img/gs/319gs.jpg","null","reveal","image-keyboard-response","395","1101919","0.0-6.0-4.55","2676579","co38146","norming","","","","","","",""
"null","../img/tt/319tt.jpg","null","mooney2","image-keyboard-response","396","1103929","0.0-6.0-5.55","2676579","co38146","norming","","","","","","",""
"1431.3199999998324","","","post_reveal_questions","survey-likert","397","1105363","0.0-6.0-6.55","2676579","co38146","norming","","","{""aha"":6}","[0]","../img/tt/319tt.jpg","",""
"null","<div style=""font-size:60px;""> </div>","null","fixation","html-keyboard-response","398","1105565","0.0-6.0-0.56","2676579","co38146","norming","","","","","","",""
"null","../img/tt/418tt.jpg","null","mooney1","image-keyboard-response","399","1108567","0.0-6.0-1.56","2676579","co38146","norming","","","","","","",""
"3137.6400000001304","","","post_mooney1_questions","survey-likert","400","1111708","0.0-6.0-2.56","2676579","co38146","norming","","","{""curiosity"":6,""confidence"":0}","[0,1]","../img/tt/418tt.jpg","",""
"1118.0100000002421","","","recognition","survey-text","401","1112827","0.0-6.0-3.56","2676579","co38146","norming","","","{""guess"":""""}","","../img/tt/418tt.jpg","",""
"null","../img/gs/418gs.jpg","null","reveal","image-keyboard-response","402","1114837","0.0-6.0-4.56","2676579","co38146","norming","","","","","","",""
"null","../img/tt/418tt.jpg","null","mooney2","image-keyboard-response","403","1116843","0.0-6.0-5.56","2676579","co38146","norming","","","","","","",""
"1814.2399999999907","","","post_reveal_questions","survey-likert","404","1118659","0.0-6.0-6.56","2676579","co38146","norming","","","{""aha"":6}","[0]","../img/tt/418tt.jpg","",""
"null","<div style=""font-size:60px;""> </div>","null","fixation","html-keyboard-response","405","1118863","0.0-6.0-0.57","2676579","co38146","norming","","","","","","",""
"null","../img/tt/081tt.jpg","null","mooney1","image-keyboard-response","406","1121870","0.0-6.0-1.57","2676579","co38146","norming","","","","","","",""
"3593.399999999907","","","post_mooney1_questions","survey-likert","407","1125467","0.0-6.0-2.57","2676579","co38146","norming","","","{""curiosity"":6,""confidence"":0}","[0,1]","../img/tt/081tt.jpg","",""
"1198.2549999998882","","","recognition","survey-text","408","1126667","0.0-6.0-3.57","2676579","co38146","norming","","","{""guess"":""""}","","../img/tt/081tt.jpg","",""
"null","../img/gs/081gs.jpg","null","reveal","image-keyboard-response","409","1128678","0.0-6.0-4.57","2676579","co38146","norming","","","","","","",""
"null","../img/tt/081tt.jpg","null","mooney2","image-keyboard-response","410","1130690","0.0-6.0-5.57","2676579","co38146","norming","","","","","","",""
"1703.155000000028","","","post_reveal_questions","survey-likert","411","1132395","0.0-6.0-6.57","2676579","co38146","norming","","","{""aha"":6}","[0]","../img/tt/081tt.jpg","",""
"null","<div style=""font-size:60px;""> </div>","null","fixation","html-keyboard-response","412","1132600","0.0-6.0-0.58","2676579","co38146","norming","","","","","","",""
"null","../img/tt/1024tt.jpg","null","mooney1","image-keyboard-response","413","1135607","0.0-6.0-1.58","2676579","co38146","norming","","","","","","",""
"4546.810000000056","","","post_mooney1_questions","survey-likert","414","1140155","0.0-6.0-2.58","2676579","co38146","norming","","","{""curiosity"":6,""confidence"":0}","[0,1]","../img/tt/1024tt.jpg","",""
"630.0149999998976","","","recognition","survey-text","415","1140787","0.0-6.0-3.58","2676579","co38146","norming","","","{""guess"":""""}","","../img/tt/1024tt.jpg","",""
"null","../img/gs/1024gs.jpg","null","reveal","image-keyboard-response","416","1142792","0.0-6.0-4.58","2676579","co38146","norming","","","","","","",""
"null","../img/tt/1024tt.jpg","null","mooney2","image-keyboard-response","417","1144794","0.0-6.0-5.58","2676579","co38146","norming","","","","","","",""
"2214.719999999972","","","post_reveal_questions","survey-likert","418","1147011","0.0-6.0-6.58","2676579","co38146","norming","","","{""aha"":5}","[0]","../img/tt/1024tt.jpg","",""
"null","<div style=""font-size:60px;""> </div>","null","fixation","html-keyboard-response","419","1147214","0.0-6.0-0.59","2676579","co38146","norming","","","","","","",""
"null","../img/tt/1226tt.jpg","null","mooney1","image-keyboard-response","420","1150223","0.0-6.0-1.59","2676579","co38146","norming","","","","","","",""
"4185.225000000093","","","post_mooney1_questions","survey-likert","421","1154412","0.0-6.0-2.59","2676579","co38146","norming","","","{""curiosity"":6,""confidence"":1}","[0,1]","../img/tt/1226tt.jpg","",""
"782.0649999999441","","","recognition","survey-text","422","1155195","0.0-6.0-3.59","2676579","co38146","norming","","","{""guess"":""""}","","../img/tt/1226tt.jpg","",""
"null","../img/gs/1226gs.jpg","null","reveal","image-keyboard-response","423","1157200","0.0-6.0-4.59","2676579","co38146","norming","","","","","","",""
"null","../img/tt/1226tt.jpg","null","mooney2","image-keyboard-response","424","1159201","0.0-6.0-5.59","2676579","co38146","norming","","","","","","",""
"3591.1899999997113","","","post_reveal_questions","survey-likert","425","1162795","0.0-6.0-6.59","2676579","co38146","norming","","","{""aha"":3}","[0]","../img/tt/1226tt.jpg","",""
"null","<div style=""font-size:60px;""> </div>","null","fixation","html-keyboard-response","426","1163006","0.0-6.0-0.60","2676579","co38146","norming","","","","","","",""
"null","../img/tt/559tt.jpg","null","mooney1","image-keyboard-response","427","1166014","0.0-6.0-1.60","2676579","co38146","norming","","","","","","",""
"3729.689999999944","","","post_mooney1_questions","survey-likert","428","1169748","0.0-6.0-2.60","2676579","co38146","norming","","","{""curiosity"":6,""confidence"":0}","[0,1]","../img/tt/559tt.jpg","",""
"1301.9750000000931","","","recognition","survey-text","429","1171051","0.0-6.0-3.60","2676579","co38146","norming","","","{""guess"":""""}","","../img/tt/559tt.jpg","",""
"null","../img/gs/559gs.jpg","null","reveal","image-keyboard-response","430","1173054","0.0-6.0-4.60","2676579","co38146","norming","","","","","","",""
"null","../img/tt/559tt.jpg","null","mooney2","image-keyboard-response","431","1175057","0.0-6.0-5.60","2676579","co38146","norming","","","","","","",""
"2447.4850000001024","","","post_reveal_questions","survey-likert","432","1177507","0.0-6.0-6.60","2676579","co38146","norming","","","{""aha"":4}","[0]","../img/tt/559tt.jpg","",""
"null","<div style=""font-size:60px;""> </div>","null","fixation","html-keyboard-response","433","1177711","0.0-6.0-0.61","2676579","co38146","norming","","","","","","",""
"null","../img/tt/053tt.jpg","null","mooney1","image-keyboard-response","434","1180718","0.0-6.0-1.61","2676579","co38146","norming","","","","","","",""
"4491.054999999935","","","post_mooney1_questions","survey-likert","435","1185212","0.0-6.0-2.61","2676579","co38146","norming","","","{""curiosity"":6,""confidence"":0}","[0,1]","../img/tt/053tt.jpg","",""
"806.0150000001304","","","recognition","survey-text","436","1186019","0.0-6.0-3.61","2676579","co38146","norming","","","{""guess"":""""}","","../img/tt/053tt.jpg","",""
"null","../img/gs/053gs.jpg","null","reveal","image-keyboard-response","437","1188024","0.0-6.0-4.61","2676579","co38146","norming","","","","","","",""
"null","../img/tt/053tt.jpg","null","mooney2","image-keyboard-response","438","1190027","0.0-6.0-5.61","2676579","co38146","norming","","","","","","",""
"1893.785000000149","","","post_reveal_questions","survey-likert","439","1191923","0.0-6.0-6.61","2676579","co38146","norming","","","{""aha"":6}","[0]","../img/tt/053tt.jpg","",""
"null","<div style=""font-size:60px;""> </div>","null","fixation","html-keyboard-response","440","1192126","0.0-6.0-0.62","2676579","co38146","norming","","","","","","",""
"null","../img/tt/1234tt.jpg","null","mooney1","image-keyboard-response","441","1195134","0.0-6.0-1.62","2676579","co38146","norming","","","","","","",""
"3449.75","","","post_mooney1_questions","survey-likert","442","1198588","0.0-6.0-2.62","2676579","co38146","norming","","","{""curiosity"":6,""confidence"":0}","[0,1]","../img/tt/1234tt.jpg","",""
"821.9700000002049","","","recognition","survey-text","443","1199411","0.0-6.0-3.62","2676579","co38146","norming","","","{""guess"":""""}","","../img/tt/1234tt.jpg","",""
"null","../img/gs/1234gs.jpg","null","reveal","image-keyboard-response","444","1201418","0.0-6.0-4.62","2676579","co38146","norming","","","","","","",""
"null","../img/tt/1234tt.jpg","null","mooney2","image-keyboard-response","445","1203429","0.0-6.0-5.62","2676579","co38146","norming","","","","","","",""
"3820.2800000002608","","","post_reveal_questions","survey-likert","446","1207251","0.0-6.0-6.62","2676579","co38146","norming","","","{""aha"":6}","[0]","../img/tt/1234tt.jpg","",""
"null","<div style=""font-size:60px;""> </div>","null","fixation","html-keyboard-response","447","1207458","0.0-6.0-0.63","2676579","co38146","norming","","","","","","",""
"null","../img/tt/435tt.jpg","null","mooney1","image-keyboard-response","448","1210471","0.0-6.0-1.63","2676579","co38146","norming","","","","","","",""
"4793.130000000121","","","post_mooney1_questions","survey-likert","449","1215268","0.0-6.0-2.63","2676579","co38146","norming","","","{""curiosity"":6,""confidence"":1}","[0,1]","../img/tt/435tt.jpg","",""
"3053.9199999999255","","","recognition","survey-text","450","1218323","0.0-6.0-3.63","2676579","co38146","norming","","","{""guess"":""table""}","","../img/tt/435tt.jpg","",""
"null","../img/gs/435gs.jpg","null","reveal","image-keyboard-response","451","1220328","0.0-6.0-4.63","2676579","co38146","norming","","","","","","",""
"null","../img/tt/435tt.jpg","null","mooney2","image-keyboard-response","452","1222331","0.0-6.0-5.63","2676579","co38146","norming","","","","","","",""
"2574.105000000214","","","post_reveal_questions","survey-likert","453","1224907","0.0-6.0-6.63","2676579","co38146","norming","","","{""aha"":3}","[0]","../img/tt/435tt.jpg","",""
"null","<div style=""font-size:60px;""> </div>","null","fixation","html-keyboard-response","454","1225118","0.0-6.0-0.64","2676579","co38146","norming","","","","","","",""
"null","../img/tt/440tt.jpg","null","mooney1","image-keyboard-response","455","1228125","0.0-6.0-1.64","2676579","co38146","norming","","","","","","",""
"3234.560000000056","","","post_mooney1_questions","survey-likert","456","1231364","0.0-6.0-2.64","2676579","co38146","norming","","","{""curiosity"":6,""confidence"":0}","[0,1]","../img/tt/440tt.jpg","",""
"1613.9899999999907","","","recognition","survey-text","457","1232979","0.0-6.0-3.64","2676579","co38146","norming","","","{""guess"":""""}","","../img/tt/440tt.jpg","",""
"null","../img/gs/440gs.jpg","null","reveal","image-keyboard-response","458","1234984","0.0-6.0-4.64","2676579","co38146","norming","","","","","","",""
"null","../img/tt/440tt.jpg","null","mooney2","image-keyboard-response","459","1236986","0.0-6.0-5.64","2676579","co38146","norming","","","","","","",""
"1727.0849999999627","","","post_reveal_questions","survey-likert","460","1238715","0.0-6.0-6.64","2676579","co38146","norming","","","{""aha"":6}","[0]","../img/tt/440tt.jpg","",""
"null","<div style=""font-size:60px;""> </div>","null","fixation","html-keyboard-response","461","1238921","0.0-6.0-0.65","2676579","co38146","norming","","","","","","",""
"null","../img/tt/1055tt.jpg","null","mooney1","image-keyboard-response","462","1241931","0.0-6.0-1.65","2676579","co38146","norming","","","","","","",""
"4245.514999999898","","","post_mooney1_questions","survey-likert","463","1246180","0.0-6.0-2.65","2676579","co38146","norming","","","{""curiosity"":6,""confidence"":1}","[0,1]","../img/tt/1055tt.jpg","",""
"2774.0049999998882","","","recognition","survey-text","464","1248955","0.0-6.0-3.65","2676579","co38146","norming","","","{""guess"":""boat""}","","../img/tt/1055tt.jpg","",""
"null","../img/gs/1055gs.jpg","null","reveal","image-keyboard-response","465","1250966","0.0-6.0-4.65","2676579","co38146","norming","","","","","","",""
"null","../img/tt/1055tt.jpg","null","mooney2","image-keyboard-response","466","1252975","0.0-6.0-5.65","2676579","co38146","norming","","","","","","",""
"2897.3600000001024","","","post_reveal_questions","survey-likert","467","1255875","0.0-6.0-6.65","2676579","co38146","norming","","","{""aha"":4}","[0]","../img/tt/1055tt.jpg","",""
"null","<div style=""font-size:60px;""> </div>","null","fixation","html-keyboard-response","468","1256082","0.0-6.0-0.66","2676579","co38146","norming","","","","","","",""
"null","../img/tt/1363tt.jpg","null","mooney1","image-keyboard-response","469","1259090","0.0-6.0-1.66","2676579","co38146","norming","","","","","","",""
"4278.624999999767","","","post_mooney1_questions","survey-likert","470","1263372","0.0-6.0-2.66","2676579","co38146","norming","","","{""curiosity"":6,""confidence"":0}","[0,1]","../img/tt/1363tt.jpg","",""
"3037.9899999999907","","","recognition","survey-text","471","1266408","0.0-6.0-3.66","2676579","co38146","norming","","","{""guess"":""""}","","../img/tt/1363tt.jpg","",""
"null","../img/gs/1363gs.jpg","null","reveal","image-keyboard-response","472","1268413","0.0-6.0-4.66","2676579","co38146","norming","","","","","","",""
"null","../img/tt/1363tt.jpg","null","mooney2","image-keyboard-response","473","1270424","0.0-6.0-5.66","2676579","co38146","norming","","","","","","",""
"1645.5250000001397","","","post_reveal_questions","survey-likert","474","1272072","0.0-6.0-6.66","2676579","co38146","norming","","","{""aha"":5}","[0]","../img/tt/1363tt.jpg","",""
"null","<div style=""font-size:60px;""> </div>","null","fixation","html-keyboard-response","475","1272277","0.0-6.0-0.67","2676579","co38146","norming","","","","","","",""
"null","../img/tt/380tt.jpg","null","mooney1","image-keyboard-response","476","1275286","0.0-6.0-1.67","2676579","co38146","norming","","","","","","",""
"4910.475000000093","","","post_mooney1_questions","survey-likert","477","1280200","0.0-6.0-2.67","2676579","co38146","norming","","","{""curiosity"":6,""confidence"":0}","[0,1]","../img/tt/380tt.jpg","",""
"846.1850000002887","","","recognition","survey-text","478","1281048","0.0-6.0-3.67","2676579","co38146","norming","","","{""guess"":""""}","","../img/tt/380tt.jpg","",""
"null","../img/gs/380gs.jpg","null","reveal","image-keyboard-response","479","1283058","0.0-6.0-4.67","2676579","co38146","norming","","","","","","",""
"null","../img/tt/380tt.jpg","null","mooney2","image-keyboard-response","480","1285063","0.0-6.0-5.67","2676579","co38146","norming","","","","","","",""
"1446.5150000001304","","","post_reveal_questions","survey-likert","481","1286512","0.0-6.0-6.67","2676579","co38146","norming","","","{""aha"":6}","[0]","../img/tt/380tt.jpg","",""
"null","<div style=""font-size:60px;""> </div>","null","fixation","html-keyboard-response","482","1286719","0.0-6.0-0.68","2676579","co38146","norming","","","","","","",""
"null","../img/tt/1232tt.jpg","null","mooney1","image-keyboard-response","483","1289727","0.0-6.0-1.68","2676579","co38146","norming","","","","","","",""
"5061.90000000014","","","post_mooney1_questions","survey-likert","484","1294792","0.0-6.0-2.68","2676579","co38146","norming","","","{""curiosity"":6,""confidence"":0}","[0,1]","../img/tt/1232tt.jpg","",""
"997.9000000001397","","","recognition","survey-text","485","1295792","0.0-6.0-3.68","2676579","co38146","norming","","","{""guess"":""""}","","../img/tt/1232tt.jpg","",""
"null","../img/gs/1232gs.jpg","null","reveal","image-keyboard-response","486","1297801","0.0-6.0-4.68","2676579","co38146","norming","","","","","","",""
"null","../img/tt/1232tt.jpg","null","mooney2","image-keyboard-response","487","1299803","0.0-6.0-5.68","2676579","co38146","norming","","","","","","",""
"1474.3850000000093","","","post_reveal_questions","survey-likert","488","1301280","0.0-6.0-6.68","2676579","co38146","norming","","","{""aha"":6}","[0]","../img/tt/1232tt.jpg","",""
"null","<div style=""font-size:60px;""> </div>","null","fixation","html-keyboard-response","489","1301484","0.0-6.0-0.69","2676579","co38146","norming","","","","","","",""
"null","../img/tt/522tt.jpg","null","mooney1","image-keyboard-response","490","1304487","0.0-6.0-1.69","2676579","co38146","norming","","","","","","",""
"3717.344999999972","","","post_mooney1_questions","survey-likert","491","1308208","0.0-6.0-2.69","2676579","co38146","norming","","","{""curiosity"":6,""confidence"":0}","[0,1]","../img/tt/522tt.jpg","",""
"750.0749999999534","","","recognition","survey-text","492","1308960","0.0-6.0-3.69","2676579","co38146","norming","","","{""guess"":""""}","","../img/tt/522tt.jpg","",""
"null","../img/gs/522gs.jpg","null","reveal","image-keyboard-response","493","1310963","0.0-6.0-4.69","2676579","co38146","norming","","","","","","",""
"null","../img/tt/522tt.jpg","null","mooney2","image-keyboard-response","494","1312966","0.0-6.0-5.69","2676579","co38146","norming","","","","","","",""
"1831.559999999823","","","post_reveal_questions","survey-likert","495","1314800","0.0-6.0-6.69","2676579","co38146","norming","","","{""aha"":6}","[0]","../img/tt/522tt.jpg","",""
"null","<div style=""font-size:60px;""> </div>","null","fixation","html-keyboard-response","496","1315004","0.0-6.0-0.70","2676579","co38146","norming","","","","","","",""
"null","../img/tt/1122tt.jpg","null","mooney1","image-keyboard-response","497","1318008","0.0-6.0-1.70","2676579","co38146","norming","","","","","","",""
"4468.665000000037","","","post_mooney1_questions","survey-likert","498","1322480","0.0-6.0-2.70","2676579","co38146","norming","","","{""curiosity"":5,""confidence"":1}","[0,1]","../img/tt/1122tt.jpg","",""
"3558.0449999999255","","","recognition","survey-text","499","1326040","0.0-6.0-3.70","2676579","co38146","norming","","","{""guess"":""haven""}","","../img/tt/1122tt.jpg","",""
"null","../img/gs/1122gs.jpg","null","reveal","image-keyboard-response","500","1328051","0.0-6.0-4.70","2676579","co38146","norming","","","","","","",""
"null","../img/tt/1122tt.jpg","null","mooney2","image-keyboard-response","501","1330054","0.0-6.0-5.70","2676579","co38146","norming","","","","","","",""
"1634.3850000000093","","","post_reveal_questions","survey-likert","502","1331691","0.0-6.0-6.70","2676579","co38146","norming","","","{""aha"":0}","[0]","../img/tt/1122tt.jpg","",""
"null","<div style=""font-size:60px;""> </div>","null","fixation","html-keyboard-response","503","1331900","0.0-6.0-0.71","2676579","co38146","norming","","","","","","",""
"null","../img/tt/1146tt.jpg","null","mooney1","image-keyboard-response","504","1334907","0.0-6.0-1.71","2676579","co38146","norming","","","","","","",""
"2540.5699999998324","","","post_mooney1_questions","survey-likert","505","1337452","0.0-6.0-2.71","2676579","co38146","norming","","","{""curiosity"":6,""confidence"":0}","[0,1]","../img/tt/1146tt.jpg","",""
"821.9000000001397","","","recognition","survey-text","506","1338275","0.0-6.0-3.71","2676579","co38146","norming","","","{""guess"":""""}","","../img/tt/1146tt.jpg","",""
"null","../img/gs/1146gs.jpg","null","reveal","image-keyboard-response","507","1340281","0.0-6.0-4.71","2676579","co38146","norming","","","","","","",""
"null","../img/tt/1146tt.jpg","null","mooney2","image-keyboard-response","508","1342283","0.0-6.0-5.71","2676579","co38146","norming","","","","","","",""
"1845.904999999795","","","post_reveal_questions","survey-likert","509","1344131","0.0-6.0-6.71","2676579","co38146","norming","","","{""aha"":6}","[0]","../img/tt/1146tt.jpg","",""
"null","<div style=""font-size:60px;""> </div>","null","fixation","html-keyboard-response","510","1344336","0.0-6.0-0.72","2676579","co38146","norming","","","","","","",""
"null","../img/tt/1196tt.jpg","null","mooney1","image-keyboard-response","511","1347342","0.0-6.0-1.72","2676579","co38146","norming","","","","","","",""
"3081.3549999999814","","","post_mooney1_questions","survey-likert","512","1350428","0.0-6.0-2.72","2676579","co38146","norming","","","{""curiosity"":6,""confidence"":0}","[0,1]","../img/tt/1196tt.jpg","",""
"894.125","","","recognition","survey-text","513","1351323","0.0-6.0-3.72","2676579","co38146","norming","","","{""guess"":""""}","","../img/tt/1196tt.jpg","",""
"null","../img/gs/1196gs.jpg","null","reveal","image-keyboard-response","514","1353330","0.0-6.0-4.72","2676579","co38146","norming","","","","","","",""
"null","../img/tt/1196tt.jpg","null","mooney2","image-keyboard-response","515","1355337","0.0-6.0-5.72","2676579","co38146","norming","","","","","","",""
"1511.4299999999348","","","post_reveal_questions","survey-likert","516","1356851","0.0-6.0-6.72","2676579","co38146","norming","","","{""aha"":6}","[0]","../img/tt/1196tt.jpg","",""
"null","<div style=""font-size:60px;""> </div>","null","fixation","html-keyboard-response","517","1357056","0.0-6.0-0.73","2676579","co38146","norming","","","","","","",""
"null","../img/tt/1097tt.jpg","null","mooney1","image-keyboard-response","518","1360066","0.0-6.0-1.73","2676579","co38146","norming","","","","","","",""
"5101.0800000000745","","","post_mooney1_questions","survey-likert","519","1365171","0.0-6.0-2.73","2676579","co38146","norming","","","{""curiosity"":4,""confidence"":4}","[0,1]","../img/tt/1097tt.jpg","",""
"4206.114999999991","","","recognition","survey-text","520","1369379","0.0-6.0-3.73","2676579","co38146","norming","","","{""guess"":""boat""}","","../img/tt/1097tt.jpg","",""
"null","../img/gs/1097gs.jpg","null","reveal","image-keyboard-response","521","1371385","0.0-6.0-4.73","2676579","co38146","norming","","","","","","",""
"null","../img/tt/1097tt.jpg","null","mooney2","image-keyboard-response","522","1373388","0.0-6.0-5.73","2676579","co38146","norming","","","","","","",""
"3132.820000000065","","","post_reveal_questions","survey-likert","523","1376524","0.0-6.0-6.73","2676579","co38146","norming","","","{""aha"":0}","[0]","../img/tt/1097tt.jpg","",""
"null","<div style=""font-size:60px;""> </div>","null","fixation","html-keyboard-response","524","1376725","0.0-6.0-0.74","2676579","co38146","norming","","","","","","",""
"null","../img/tt/507tt.jpg","null","mooney1","image-keyboard-response","525","1379736","0.0-6.0-1.74","2676579","co38146","norming","","","","","","",""
"3072.215000000084","","","post_mooney1_questions","survey-likert","526","1382812","0.0-6.0-2.74","2676579","co38146","norming","","","{""curiosity"":6,""confidence"":0}","[0,1]","../img/tt/507tt.jpg","",""
"853.9750000000931","","","recognition","survey-text","527","1383667","0.0-6.0-3.74","2676579","co38146","norming","","","{""guess"":""""}","","../img/tt/507tt.jpg","",""
"null","../img/gs/507gs.jpg","null","reveal","image-keyboard-response","528","1385677","0.0-6.0-4.74","2676579","co38146","norming","","","","","","",""
"null","../img/tt/507tt.jpg","null","mooney2","image-keyboard-response","529","1387683","0.0-6.0-5.74","2676579","co38146","norming","","","","","","",""
"2599.394999999786","","","post_reveal_questions","survey-likert","530","1390283","0.0-6.0-6.74","2676579","co38146","norming","","","{""aha"":6}","[0]","../img/tt/507tt.jpg","",""
"null","<div style=""font-size:60px;""> </div>","null","fixation","html-keyboard-response","531","1390487","0.0-6.0-0.75","2676579","co38146","norming","","","","","","",""
"null","../img/tt/082tt.jpg","null","mooney1","image-keyboard-response","532","1393499","0.0-6.0-1.75","2676579","co38146","norming","","","","","","",""
"4131.810000000056","","","post_mooney1_questions","survey-likert","533","1397635","0.0-6.0-2.75","2676579","co38146","norming","","","{""curiosity"":5,""confidence"":1}","[0,1]","../img/tt/082tt.jpg","",""
"4445.780000000028","","","recognition","survey-text","534","1402083","0.0-6.0-3.75","2676579","co38146","norming","","","{""guess"":""bird""}","","../img/tt/082tt.jpg","",""
"null","../img/gs/082gs.jpg","null","reveal","image-keyboard-response","535","1404084","0.0-6.0-4.75","2676579","co38146","norming","","","","","","",""
"null","../img/tt/082tt.jpg","null","mooney2","image-keyboard-response","536","1406086","0.0-6.0-5.75","2676579","co38146","norming","","","","","","",""
"4794.0800000000745","","","post_reveal_questions","survey-likert","537","1410883","0.0-6.0-6.75","2676579","co38146","norming","","","{""aha"":4}","[0]","../img/tt/082tt.jpg","",""
"null","<div style=""font-size:60px;""> </div>","null","fixation","html-keyboard-response","538","1411094","0.0-6.0-0.76","2676579","co38146","norming","","","","","","",""
"null","../img/tt/1362tt.jpg","null","mooney1","image-keyboard-response","539","1414102","0.0-6.0-1.76","2676579","co38146","norming","","","","","","",""
"3721.1700000001583","","","post_mooney1_questions","survey-likert","540","1417827","0.0-6.0-2.76","2676579","co38146","norming","","","{""curiosity"":6,""confidence"":0}","[0,1]","../img/tt/1362tt.jpg","",""
"821.6899999999441","","","recognition","survey-text","541","1418651","0.0-6.0-3.76","2676579","co38146","norming","","","{""guess"":""""}","","../img/tt/1362tt.jpg","",""
"null","../img/gs/1362gs.jpg","null","reveal","image-keyboard-response","542","1420660","0.0-6.0-4.76","2676579","co38146","norming","","","","","","",""
"null","../img/tt/1362tt.jpg","null","mooney2","image-keyboard-response","543","1422663","0.0-6.0-5.76","2676579","co38146","norming","","","","","","",""
"1345.7250000000931","","","post_reveal_questions","survey-likert","544","1424011","0.0-6.0-6.76","2676579","co38146","norming","","","{""aha"":6}","[0]","../img/tt/1362tt.jpg","",""
"null","<div style=""font-size:60px;""> </div>","null","fixation","html-keyboard-response","545","1424218","0.0-6.0-0.77","2676579","co38146","norming","","","","","","",""
"null","../img/tt/1200tt.jpg","null","mooney1","image-keyboard-response","546","1427225","0.0-6.0-1.77","2676579","co38146","norming","","","","","","",""
"3446.6699999999255","","","post_mooney1_questions","survey-likert","547","1430675","0.0-6.0-2.77","2676579","co38146","norming","","","{""curiosity"":6,""confidence"":0}","[0,1]","../img/tt/1200tt.jpg","",""
"869.4500000001863","","","recognition","survey-text","548","1431547","0.0-6.0-3.77","2676579","co38146","norming","","","{""guess"":""""}","","../img/tt/1200tt.jpg","",""
"null","../img/gs/1200gs.jpg","null","reveal","image-keyboard-response","549","1433555","0.0-6.0-4.77","2676579","co38146","norming","","","","","","",""
"null","../img/tt/1200tt.jpg","null","mooney2","image-keyboard-response","550","1435563","0.0-6.0-5.77","2676579","co38146","norming","","","","","","",""
"2126.969999999972","","","post_reveal_questions","survey-likert","551","1437691","0.0-6.0-6.77","2676579","co38146","norming","","","{""aha"":6}","[0]","../img/tt/1200tt.jpg","",""
"null","<div style=""font-size:60px;""> </div>","null","fixation","html-keyboard-response","552","1437895","0.0-6.0-0.78","2676579","co38146","norming","","","","","","",""
"null","../img/tt/1276tt.jpg","null","mooney1","image-keyboard-response","553","1440902","0.0-6.0-1.78","2676579","co38146","norming","","","","","","",""
"3049.094999999972","","","post_mooney1_questions","survey-likert","554","1443955","0.0-6.0-2.78","2676579","co38146","norming","","","{""curiosity"":6,""confidence"":0}","[0,1]","../img/tt/1276tt.jpg","",""
