"rt","stimulus","key_press","test_part","trial_type","trial_index","time_elapsed","internal_node_id","totalTime","subject","experiment_name","button_pressed","success","responses","question_order","currentStim","old","correct"
"11313.795000000027","Welcome to the experiment. This is an online experiment so please don't close the tab/window until we say goodbye.  Press any key to begin.","13","instructions","html-keyboard-response","0","11328","0.0-0.0","2856253","co38476","norming","","","","","","",""
"80734.00500000014","<div style='word-wrap: break-word; width: 900px'><h3>Please consider this information carefully before deciding whether to participate in this research</h3><ul style='text-align: left; font-size: .8em;'><li><b>Purpose of the research</b>: To examine how people process images.</li><li><b>What you will do in this research</b>:  Stimuli (images) will be presented on the computer and you will be asked different questions about them.</li><li><b>Time required</b>: Participation will take between 45 and 60 minutes to complete.</li><li><b>Risks</b>:  There are no anticipated risks associated with participating in this study. The effects of participating should be comparable to those you would experience from viewing a computer monitor for 30 minutes and using a mouse or keyboard.</li><li><b>Benefits</b>:  This study provides no benefits to you individually except for the credit. The study provides important information about the nature of perception and learning.</li><li><b>Confidentiality</b>:  Your participation in this study will remain confidential. No personally identifiable information will be associated with your data. Your de-identified data may be shared with other researchers and used in future projects.</li><li><b>Participation and withdrawal</b>:  Your participation in this study is completely voluntary and you may refuse to participate or you may choose to withdraw at any time without penalty.</li><li><b>How to contact the researchers</b>: If you have questions or concerns about your participation or payment, or want to request a summary of research findings, please contact Sander Van de Cruys (KU Leuven), at sander.vandecruys@kuleuven.be.</li></ul><p>The nature and purpose of this research have been sufficiently explained and I agree to participate in this study.  I understand that I am free to withdraw at any time without incurring any penalty.</p><p>Please consent by clicking the button below to continue. Otherwise, please exit the study at this time.</p></div>","","instructions","html-button-response","1","92062","0.0-1.0","2856253","co38476","norming","0","","","","","",""
"","","","instructions","fullscreen","2","97370","0.0-2.0","2856253","co38476","norming","","true","","","","",""
"49393.22000000016","","","sona","survey-html-form","3","146766","0.0-3.0","2856253","co38476","norming","","","[{""name"":""sonaid"",""value"":""38476""},{""name"":""debrief"",""value"":""yes""},{""name"":""datajoin"",""value"":""yes""}]","","","",""
"113067.09999999998","<div style='word-wrap: break-word; width: 900px'><h3>Instructions</h3><p>This experiment will have 3 parts. In the first part you will see a series of distorted images like the one below on the left. As you can see in the righthand image, the distorted images are derived from actual photographs. In what follows, you will <strong>briefly</strong> be presented with <strong>only</strong> the distorted image.</p> <div style='float: left; margin-right: 20px;'><img src='../img/018tt.jpg' height='250' width='250'></img></div><div style='float: right; margin-left: 20px;'><img src='../img/018gs.jpg' height='250' width='250'></img></div><p>Subsequently you will be asked a few questions about the image: One question on how <strong>curious</strong> you are about the solution and one on how <strong>confident</strong> you are that you know the solution.</p>Next, we ask you to make a guess on what is in the image. Note that it is OK to name just the <strong>basic level category</strong>. For example when you see a parrot in the image, 'parrot' will obviously be a correct answer but also correct is 'bird'. However, 'animal' will <strong>not</strong> be counted as a correct response. For the example above, 'rose' would be correct or 'flower', but not 'plant'. When soccer players are depicted, 'soccer', 'football', 'soccer players' will be correct, but not 'humans', 'outdoors', or 'sports'. You do not need to describe the image in full, just name the main object in it <strong>in one or two words</strong>. All images depict objects from one of the following broad level categories: animals, inanimate objects, plants, sports, vehicles, and food. Recognizing means knowing <strong>more</strong> than these broad labels for a given image. But we always encourage you to <strong>make a guess</strong> if you can. Note that you are allowed to use <strong>Dutch and English</strong> in your answers, whatever comes easiest for you.</p><p>Press any key to continue.</p></div>","13","instructions","html-keyboard-response","4","259837","0.0-4.0","2856253","co38476","norming","","","","","","",""
"26735.09500000003","<div style='word-wrap: break-word; width: 900px'><h3>Instructions</h3> <p>Next, the solution image will be revealed to you and you'll be asked to indicate how strong your <strong>aha-experience</strong> was after seeing the solution. This describes the positive feeling of the 'click' you sometimes experience, when the pieces of the 'puzzle' fall together and you suddenly have 'insight' in the image.</p><img src='aha.jpg' height='188' width='250'></img><p>Note that there are no right or wrong answers. We are interested in what <strong>you</strong> see in the image and how <strong>you</strong> feel about it.</p><p>Press any key to start the experiment.</p></div>","13","instructions","html-keyboard-response","5","286572","0.0-5.0","2856253","co38476","norming","","","","","","",""
"null","<div style=""font-size:60px;""> </div>","null","fixation","html-keyboard-response","6","286776","0.0-6.0-0.0","2856253","co38476","norming","","","","","","",""
"null","../img/tt/1142tt.jpg","null","mooney1","image-keyboard-response","7","289780","0.0-6.0-1.0","2856253","co38476","norming","","","","","","",""
"12735.824999999953","","","post_mooney1_questions","survey-likert","8","302517","0.0-6.0-2.0","2856253","co38476","norming","","","{""curiosity"":3,""confidence"":3}","[0,1]","../img/tt/1142tt.jpg","",""
"8133.29999999993","","","recognition","survey-text","9","310653","0.0-6.0-3.0","2856253","co38476","norming","","","{""guess"":""verspringer""}","","../img/tt/1142tt.jpg","",""
"null","../img/gs/1142gs.jpg","null","reveal","image-keyboard-response","10","312658","0.0-6.0-4.0","2856253","co38476","norming","","","","","","",""
"null","../img/tt/1142tt.jpg","null","mooney2","image-keyboard-response","11","314659","0.0-6.0-5.0","2856253","co38476","norming","","","","","","",""
"4832.159999999974","","","post_reveal_questions","survey-likert","12","319492","0.0-6.0-6.0","2856253","co38476","norming","","","{""aha"":5}","[0]","../img/tt/1142tt.jpg","",""
"null","<div style=""font-size:60px;""> </div>","null","fixation","html-keyboard-response","13","319701","0.0-6.0-0.1","2856253","co38476","norming","","","","","","",""
"null","../img/tt/105tt.jpg","null","mooney1","image-keyboard-response","14","322717","0.0-6.0-1.1","2856253","co38476","norming","","","","","","",""
"9352.354999999981","","","post_mooney1_questions","survey-likert","15","332071","0.0-6.0-2.1","2856253","co38476","norming","","","{""curiosity"":6,""confidence"":0}","[0,1]","../img/tt/105tt.jpg","",""
"4662.004999999946","","","recognition","survey-text","16","336734","0.0-6.0-3.1","2856253","co38476","norming","","","{""guess"":""""}","","../img/tt/105tt.jpg","",""
"null","../img/gs/105gs.jpg","null","reveal","image-keyboard-response","17","338744","0.0-6.0-4.1","2856253","co38476","norming","","","","","","",""
"null","../img/tt/105tt.jpg","null","mooney2","image-keyboard-response","18","340767","0.0-6.0-5.1","2856253","co38476","norming","","","","","","",""
"3630.445000000007","","","post_reveal_questions","survey-likert","19","344398","0.0-6.0-6.1","2856253","co38476","norming","","","{""aha"":6}","[0]","../img/tt/105tt.jpg","",""
"null","<div style=""font-size:60px;""> </div>","null","fixation","html-keyboard-response","20","344604","0.0-6.0-0.2","2856253","co38476","norming","","","","","","",""
"null","../img/tt/405tt.jpg","null","mooney1","image-keyboard-response","21","347614","0.0-6.0-1.2","2856253","co38476","norming","","","","","","",""
"3647.384999999951","","","post_mooney1_questions","survey-likert","22","351263","0.0-6.0-2.2","2856253","co38476","norming","","","{""curiosity"":6,""confidence"":0}","[0,1]","../img/tt/405tt.jpg","",""
"830.0850000000792","","","recognition","survey-text","23","352094","0.0-6.0-3.2","2856253","co38476","norming","","","{""guess"":""""}","","../img/tt/405tt.jpg","",""
"null","../img/gs/405gs.jpg","null","reveal","image-keyboard-response","24","354100","0.0-6.0-4.2","2856253","co38476","norming","","","","","","",""
"null","../img/tt/405tt.jpg","null","mooney2","image-keyboard-response","25","356108","0.0-6.0-5.2","2856253","co38476","norming","","","","","","",""
"3025.350000000093","","","post_reveal_questions","survey-likert","26","359135","0.0-6.0-6.2","2856253","co38476","norming","","","{""aha"":6}","[0]","../img/tt/405tt.jpg","",""
"null","<div style=""font-size:60px;""> </div>","null","fixation","html-keyboard-response","27","359348","0.0-6.0-0.3","2856253","co38476","norming","","","","","","",""
"null","../img/tt/1202tt.jpg","null","mooney1","image-keyboard-response","28","362354","0.0-6.0-1.3","2856253","co38476","norming","","","","","","",""
"4244.300000000105","","","post_mooney1_questions","survey-likert","29","366599","0.0-6.0-2.3","2856253","co38476","norming","","","{""curiosity"":6,""confidence"":0}","[0,1]","../img/tt/1202tt.jpg","",""
"694.354999999865","","","recognition","survey-text","30","367295","0.0-6.0-3.3","2856253","co38476","norming","","","{""guess"":""""}","","../img/tt/1202tt.jpg","",""
"null","../img/gs/1202gs.jpg","null","reveal","image-keyboard-response","31","369300","0.0-6.0-4.3","2856253","co38476","norming","","","","","","",""
"null","../img/tt/1202tt.jpg","null","mooney2","image-keyboard-response","32","371311","0.0-6.0-5.3","2856253","co38476","norming","","","","","","",""
"2629.7700000000186","","","post_reveal_questions","survey-likert","33","373943","0.0-6.0-6.3","2856253","co38476","norming","","","{""aha"":6}","[0]","../img/tt/1202tt.jpg","",""
"null","<div style=""font-size:60px;""> </div>","null","fixation","html-keyboard-response","34","374145","0.0-6.0-0.4","2856253","co38476","norming","","","","","","",""
"null","../img/tt/1260tt.jpg","null","mooney1","image-keyboard-response","35","377154","0.0-6.0-1.4","2856253","co38476","norming","","","","","","",""
"13210.239999999874","","","post_mooney1_questions","survey-likert","36","390364","0.0-6.0-2.4","2856253","co38476","norming","","","{""curiosity"":5,""confidence"":0}","[0,1]","../img/tt/1260tt.jpg","",""
"2758.355000000214","","","recognition","survey-text","37","393124","0.0-6.0-3.4","2856253","co38476","norming","","","{""guess"":""borstel""}","","../img/tt/1260tt.jpg","",""
"null","../img/gs/1260gs.jpg","null","reveal","image-keyboard-response","38","395125","0.0-6.0-4.4","2856253","co38476","norming","","","","","","",""
"null","../img/tt/1260tt.jpg","null","mooney2","image-keyboard-response","39","397134","0.0-6.0-5.4","2856253","co38476","norming","","","","","","",""
"3027.3749999998836","","","post_reveal_questions","survey-likert","40","400164","0.0-6.0-6.4","2856253","co38476","norming","","","{""aha"":6}","[0]","../img/tt/1260tt.jpg","",""
"null","<div style=""font-size:60px;""> </div>","null","fixation","html-keyboard-response","41","400368","0.0-6.0-0.5","2856253","co38476","norming","","","","","","",""
"null","../img/tt/163tt.jpg","null","mooney1","image-keyboard-response","42","403374","0.0-6.0-1.5","2856253","co38476","norming","","","","","","",""
"4164.939999999944","","","post_mooney1_questions","survey-likert","43","407540","0.0-6.0-2.5","2856253","co38476","norming","","","{""curiosity"":6,""confidence"":0}","[0,1]","../img/tt/163tt.jpg","",""
"597.7949999999255","","","recognition","survey-text","44","408139","0.0-6.0-3.5","2856253","co38476","norming","","","{""guess"":""""}","","../img/tt/163tt.jpg","",""
"null","../img/gs/163gs.jpg","null","reveal","image-keyboard-response","45","410148","0.0-6.0-4.5","2856253","co38476","norming","","","","","","",""
"null","../img/tt/163tt.jpg","null","mooney2","image-keyboard-response","46","412151","0.0-6.0-5.5","2856253","co38476","norming","","","","","","",""
"2170.689999999944","","","post_reveal_questions","survey-likert","47","414324","0.0-6.0-6.5","2856253","co38476","norming","","","{""aha"":3}","[0]","../img/tt/163tt.jpg","",""
"null","<div style=""font-size:60px;""> </div>","null","fixation","html-keyboard-response","48","414526","0.0-6.0-0.6","2856253","co38476","norming","","","","","","",""
"null","../img/tt/552tt.jpg","null","mooney1","image-keyboard-response","49","417534","0.0-6.0-1.6","2856253","co38476","norming","","","","","","",""
"5114.729999999981","","","post_mooney1_questions","survey-likert","50","422652","0.0-6.0-2.6","2856253","co38476","norming","","","{""curiosity"":6,""confidence"":0}","[0,1]","../img/tt/552tt.jpg","",""
"605.9900000000489","","","recognition","survey-text","51","423260","0.0-6.0-3.6","2856253","co38476","norming","","","{""guess"":""""}","","../img/tt/552tt.jpg","",""
"null","../img/gs/552gs.jpg","null","reveal","image-keyboard-response","52","425268","0.0-6.0-4.6","2856253","co38476","norming","","","","","","",""
"null","../img/tt/552tt.jpg","null","mooney2","image-keyboard-response","53","427275","0.0-6.0-5.6","2856253","co38476","norming","","","","","","",""
"1701.950000000128","","","post_reveal_questions","survey-likert","54","428979","0.0-6.0-6.6","2856253","co38476","norming","","","{""aha"":6}","[0]","../img/tt/552tt.jpg","",""
"null","<div style=""font-size:60px;""> </div>","null","fixation","html-keyboard-response","55","429186","0.0-6.0-0.7","2856253","co38476","norming","","","","","","",""
"null","../img/tt/1239tt.jpg","null","mooney1","image-keyboard-response","56","432191","0.0-6.0-1.7","2856253","co38476","norming","","","","","","",""
"4706.5","","","post_mooney1_questions","survey-likert","57","436900","0.0-6.0-2.7","2856253","co38476","norming","","","{""curiosity"":6,""confidence"":0}","[0,1]","../img/tt/1239tt.jpg","",""
"662.1900000000023","","","recognition","survey-text","58","437563","0.0-6.0-3.7","2856253","co38476","norming","","","{""guess"":""""}","","../img/tt/1239tt.jpg","",""
"null","../img/gs/1239gs.jpg","null","reveal","image-keyboard-response","59","439566","0.0-6.0-4.7","2856253","co38476","norming","","","","","","",""
"null","../img/tt/1239tt.jpg","null","mooney2","image-keyboard-response","60","441576","0.0-6.0-5.7","2856253","co38476","norming","","","","","","",""
"1537.5699999999488","","","post_reveal_questions","survey-likert","61","443121","0.0-6.0-6.7","2856253","co38476","norming","","","{""aha"":4}","[0]","../img/tt/1239tt.jpg","",""
"null","<div style=""font-size:60px;""> </div>","null","fixation","html-keyboard-response","62","443326","0.0-6.0-0.8","2856253","co38476","norming","","","","","","",""
"null","../img/tt/438tt.jpg","null","mooney1","image-keyboard-response","63","446331","0.0-6.0-1.8","2856253","co38476","norming","","","","","","",""
"7212.030000000144","","","post_mooney1_questions","survey-likert","64","453546","0.0-6.0-2.8","2856253","co38476","norming","","","{""curiosity"":4,""confidence"":1}","[0,1]","../img/tt/438tt.jpg","",""
"3038","","","recognition","survey-text","65","456585","0.0-6.0-3.8","2856253","co38476","norming","","","{""guess"":""bird""}","","../img/tt/438tt.jpg","",""
"null","../img/gs/438gs.jpg","null","reveal","image-keyboard-response","66","458593","0.0-6.0-4.8","2856253","co38476","norming","","","","","","",""
"null","../img/tt/438tt.jpg","null","mooney2","image-keyboard-response","67","460597","0.0-6.0-5.8","2856253","co38476","norming","","","","","","",""
"3169.570000000007","","","post_reveal_questions","survey-likert","68","463769","0.0-6.0-6.8","2856253","co38476","norming","","","{""aha"":6}","[0]","../img/tt/438tt.jpg","",""
"null","<div style=""font-size:60px;""> </div>","null","fixation","html-keyboard-response","69","463977","0.0-6.0-0.9","2856253","co38476","norming","","","","","","",""
"null","../img/tt/507tt.jpg","null","mooney1","image-keyboard-response","70","466988","0.0-6.0-1.9","2856253","co38476","norming","","","","","","",""
"9626.40499999997","","","post_mooney1_questions","survey-likert","71","476618","0.0-6.0-2.9","2856253","co38476","norming","","","{""curiosity"":6,""confidence"":1}","[0,1]","../img/tt/507tt.jpg","",""
"7629.810000000114","","","recognition","survey-text","72","484249","0.0-6.0-3.9","2856253","co38476","norming","","","{""guess"":""optreden""}","","../img/tt/507tt.jpg","",""
"null","../img/gs/507gs.jpg","null","reveal","image-keyboard-response","73","486257","0.0-6.0-4.9","2856253","co38476","norming","","","","","","",""
"null","../img/tt/507tt.jpg","null","mooney2","image-keyboard-response","74","488266","0.0-6.0-5.9","2856253","co38476","norming","","","","","","",""
"1685.4399999999441","","","post_reveal_questions","survey-likert","75","489953","0.0-6.0-6.9","2856253","co38476","norming","","","{""aha"":6}","[0]","../img/tt/507tt.jpg","",""
"null","<div style=""font-size:60px;""> </div>","null","fixation","html-keyboard-response","76","490155","0.0-6.0-0.10","2856253","co38476","norming","","","","","","",""
"null","../img/tt/044tt.jpg","null","mooney1","image-keyboard-response","77","493162","0.0-6.0-1.10","2856253","co38476","norming","","","","","","",""
"8148.445000000065","","","post_mooney1_questions","survey-likert","78","501314","0.0-6.0-2.10","2856253","co38476","norming","","","{""curiosity"":6,""confidence"":1}","[0,1]","../img/tt/044tt.jpg","",""
"3542.199999999895","","","recognition","survey-text","79","504857","0.0-6.0-3.10","2856253","co38476","norming","","","{""guess"":""bureau""}","","../img/tt/044tt.jpg","",""
"null","../img/gs/044gs.jpg","null","reveal","image-keyboard-response","80","506859","0.0-6.0-4.10","2856253","co38476","norming","","","","","","",""
"null","../img/tt/044tt.jpg","null","mooney2","image-keyboard-response","81","508861","0.0-6.0-5.10","2856253","co38476","norming","","","","","","",""
"3097.9199999999255","","","post_reveal_questions","survey-likert","82","511961","0.0-6.0-6.10","2856253","co38476","norming","","","{""aha"":4}","[0]","../img/tt/044tt.jpg","",""
"null","<div style=""font-size:60px;""> </div>","null","fixation","html-keyboard-response","83","512162","0.0-6.0-0.11","2856253","co38476","norming","","","","","","",""
"null","../img/tt/1146tt.jpg","null","mooney1","image-keyboard-response","84","515171","0.0-6.0-1.11","2856253","co38476","norming","","","","","","",""
"10083.169999999809","","","post_mooney1_questions","survey-likert","85","525257","0.0-6.0-2.11","2856253","co38476","norming","","","{""curiosity"":6,""confidence"":0}","[0,1]","../img/tt/1146tt.jpg","",""
"2798.3099999999395","","","recognition","survey-text","86","528057","0.0-6.0-3.11","2856253","co38476","norming","","","{""guess"":""slachtoffer""}","","../img/tt/1146tt.jpg","",""
"null","../img/gs/1146gs.jpg","null","reveal","image-keyboard-response","87","530058","0.0-6.0-4.11","2856253","co38476","norming","","","","","","",""
"null","../img/tt/1146tt.jpg","null","mooney2","image-keyboard-response","88","532066","0.0-6.0-5.11","2856253","co38476","norming","","","","","","",""
"2636.8349999999627","","","post_reveal_questions","survey-likert","89","534705","0.0-6.0-6.11","2856253","co38476","norming","","","{""aha"":4}","[0]","../img/tt/1146tt.jpg","",""
"null","<div style=""font-size:60px;""> </div>","null","fixation","html-keyboard-response","90","534915","0.0-6.0-0.12","2856253","co38476","norming","","","","","","",""
"null","../img/tt/1046tt.jpg","null","mooney1","image-keyboard-response","91","537921","0.0-6.0-1.12","2856253","co38476","norming","","","","","","",""
"12773.64000000013","","","post_mooney1_questions","survey-likert","92","550697","0.0-6.0-2.12","2856253","co38476","norming","","","{""curiosity"":6,""confidence"":0}","[0,1]","../img/tt/1046tt.jpg","",""
"2629.810000000056","","","recognition","survey-text","93","553329","0.0-6.0-3.12","2856253","co38476","norming","","","{""guess"":""""}","","../img/tt/1046tt.jpg","",""
"null","../img/gs/1046gs.jpg","null","reveal","image-keyboard-response","94","555329","0.0-6.0-4.12","2856253","co38476","norming","","","","","","",""
"null","../img/tt/1046tt.jpg","null","mooney2","image-keyboard-response","95","557331","0.0-6.0-5.12","2856253","co38476","norming","","","","","","",""
"1835.6499999999069","","","post_reveal_questions","survey-likert","96","559169","0.0-6.0-6.12","2856253","co38476","norming","","","{""aha"":2}","[0]","../img/tt/1046tt.jpg","",""
"null","<div style=""font-size:60px;""> </div>","null","fixation","html-keyboard-response","97","559378","0.0-6.0-0.13","2856253","co38476","norming","","","","","","",""
"null","../img/tt/273tt.jpg","null","mooney1","image-keyboard-response","98","562388","0.0-6.0-1.13","2856253","co38476","norming","","","","","","",""
"6916.290000000154","","","post_mooney1_questions","survey-likert","99","569304","0.0-6.0-2.13","2856253","co38476","norming","","","{""curiosity"":2,""confidence"":6}","[0,1]","../img/tt/273tt.jpg","",""
"3742.324999999837","","","recognition","survey-text","100","573048","0.0-6.0-3.13","2856253","co38476","norming","","","{""guess"":""mond""}","","../img/tt/273tt.jpg","",""
"null","../img/gs/273gs.jpg","null","reveal","image-keyboard-response","101","575052","0.0-6.0-4.13","2856253","co38476","norming","","","","","","",""
"null","../img/tt/273tt.jpg","null","mooney2","image-keyboard-response","102","577061","0.0-6.0-5.13","2856253","co38476","norming","","","","","","",""
"1352.8950000000186","","","post_reveal_questions","survey-likert","103","578416","0.0-6.0-6.13","2856253","co38476","norming","","","{""aha"":3}","[0]","../img/tt/273tt.jpg","",""
"null","<div style=""font-size:60px;""> </div>","null","fixation","html-keyboard-response","104","578619","0.0-6.0-0.14","2856253","co38476","norming","","","","","","",""
"null","../img/tt/358tt.jpg","null","mooney1","image-keyboard-response","105","581629","0.0-6.0-1.14","2856253","co38476","norming","","","","","","",""
"2752.425000000163","","","post_mooney1_questions","survey-likert","106","584384","0.0-6.0-2.14","2856253","co38476","norming","","","{""curiosity"":6,""confidence"":0}","[0,1]","../img/tt/358tt.jpg","",""
"598.3450000000885","","","recognition","survey-text","107","584984","0.0-6.0-3.14","2856253","co38476","norming","","","{""guess"":""""}","","../img/tt/358tt.jpg","",""
"null","../img/gs/358gs.jpg","null","reveal","image-keyboard-response","108","586994","0.0-6.0-4.14","2856253","co38476","norming","","","","","","",""
"null","../img/tt/358tt.jpg","null","mooney2","image-keyboard-response","109","589000","0.0-6.0-5.14","2856253","co38476","norming","","","","","","",""
"2109.7149999999674","","","post_reveal_questions","survey-likert","110","591112","0.0-6.0-6.14","2856253","co38476","norming","","","{""aha"":0}","[0]","../img/tt/358tt.jpg","",""
"null","<div style=""font-size:60px;""> </div>","null","fixation","html-keyboard-response","111","591319","0.0-6.0-0.15","2856253","co38476","norming","","","","","","",""
"null","../img/tt/098tt.jpg","null","mooney1","image-keyboard-response","112","594328","0.0-6.0-1.15","2856253","co38476","norming","","","","","","",""
"5484.114999999874","","","post_mooney1_questions","survey-likert","113","599816","0.0-6.0-2.15","2856253","co38476","norming","","","{""curiosity"":5,""confidence"":0}","[0,1]","../img/tt/098tt.jpg","",""
"509.9799999999814","","","recognition","survey-text","114","600328","0.0-6.0-3.15","2856253","co38476","norming","","","{""guess"":""""}","","../img/tt/098tt.jpg","",""
"null","../img/gs/098gs.jpg","null","reveal","image-keyboard-response","115","602335","0.0-6.0-4.15","2856253","co38476","norming","","","","","","",""
"null","../img/tt/098tt.jpg","null","mooney2","image-keyboard-response","116","604346","0.0-6.0-5.15","2856253","co38476","norming","","","","","","",""
"3788.29999999993","","","post_reveal_questions","survey-likert","117","608136","0.0-6.0-6.15","2856253","co38476","norming","","","{""aha"":2}","[0]","../img/tt/098tt.jpg","",""
"null","<div style=""font-size:60px;""> </div>","null","fixation","html-keyboard-response","118","608338","0.0-6.0-0.16","2856253","co38476","norming","","","","","","",""
"null","../img/tt/1084tt.jpg","null","mooney1","image-keyboard-response","119","611350","0.0-6.0-1.16","2856253","co38476","norming","","","","","","",""
"5175.454999999842","","","post_mooney1_questions","survey-likert","120","616528","0.0-6.0-2.16","2856253","co38476","norming","","","{""curiosity"":6,""confidence"":2}","[0,1]","../img/tt/1084tt.jpg","",""
"2341.840000000084","","","recognition","survey-text","121","618872","0.0-6.0-3.16","2856253","co38476","norming","","","{""guess"":""taart""}","","../img/tt/1084tt.jpg","",""
"null","../img/gs/1084gs.jpg","null","reveal","image-keyboard-response","122","620878","0.0-6.0-4.16","2856253","co38476","norming","","","","","","",""
"null","../img/tt/1084tt.jpg","null","mooney2","image-keyboard-response","123","622885","0.0-6.0-5.16","2856253","co38476","norming","","","","","","",""
"1425.375","","","post_reveal_questions","survey-likert","124","624312","0.0-6.0-6.16","2856253","co38476","norming","","","{""aha"":3}","[0]","../img/tt/1084tt.jpg","",""
"null","<div style=""font-size:60px;""> </div>","null","fixation","html-keyboard-response","125","624518","0.0-6.0-0.17","2856253","co38476","norming","","","","","","",""
"null","../img/tt/496tt.jpg","null","mooney1","image-keyboard-response","126","627522","0.0-6.0-1.17","2856253","co38476","norming","","","","","","",""
"16747.92499999993","","","post_mooney1_questions","survey-likert","127","644273","0.0-6.0-2.17","2856253","co38476","norming","","","{""curiosity"":5,""confidence"":3}","[0,1]","../img/tt/496tt.jpg","",""
"2118.1299999998882","","","recognition","survey-text","128","646393","0.0-6.0-3.17","2856253","co38476","norming","","","{""guess"":""bulldog""}","","../img/tt/496tt.jpg","",""
"null","../img/gs/496gs.jpg","null","reveal","image-keyboard-response","129","648400","0.0-6.0-4.17","2856253","co38476","norming","","","","","","",""
"null","../img/tt/496tt.jpg","null","mooney2","image-keyboard-response","130","650408","0.0-6.0-5.17","2856253","co38476","norming","","","","","","",""
"1680.155000000028","","","post_reveal_questions","survey-likert","131","652089","0.0-6.0-6.17","2856253","co38476","norming","","","{""aha"":4}","[0]","../img/tt/496tt.jpg","",""
"null","<div style=""font-size:60px;""> </div>","null","fixation","html-keyboard-response","132","652296","0.0-6.0-0.18","2856253","co38476","norming","","","","","","",""
"null","../img/tt/406tt.jpg","null","mooney1","image-keyboard-response","133","655302","0.0-6.0-1.18","2856253","co38476","norming","","","","","","",""
"4656.244999999879","","","post_mooney1_questions","survey-likert","134","659961","0.0-6.0-2.18","2856253","co38476","norming","","","{""curiosity"":3,""confidence"":6}","[0,1]","../img/tt/406tt.jpg","",""
"2638.0550000001676","","","recognition","survey-text","135","662601","0.0-6.0-3.18","2856253","co38476","norming","","","{""guess"":""vleermuis""}","","../img/tt/406tt.jpg","",""
"null","../img/gs/406gs.jpg","null","reveal","image-keyboard-response","136","664602","0.0-6.0-4.18","2856253","co38476","norming","","","","","","",""
"null","../img/tt/406tt.jpg","null","mooney2","image-keyboard-response","137","666606","0.0-6.0-5.18","2856253","co38476","norming","","","","","","",""
"2112.194999999949","","","post_reveal_questions","survey-likert","138","668721","0.0-6.0-6.18","2856253","co38476","norming","","","{""aha"":4}","[0]","../img/tt/406tt.jpg","",""
"null","<div style=""font-size:60px;""> </div>","null","fixation","html-keyboard-response","139","668929","0.0-6.0-0.19","2856253","co38476","norming","","","","","","",""
"null","../img/tt/456tt.jpg","null","mooney1","image-keyboard-response","140","671938","0.0-6.0-1.19","2856253","co38476","norming","","","","","","",""
"4372.705000000191","","","post_mooney1_questions","survey-likert","141","676313","0.0-6.0-2.19","2856253","co38476","norming","","","{""curiosity"":5,""confidence"":0}","[0,1]","../img/tt/456tt.jpg","",""
"614.0300000000279","","","recognition","survey-text","142","676929","0.0-6.0-3.19","2856253","co38476","norming","","","{""guess"":""""}","","../img/tt/456tt.jpg","",""
"null","../img/gs/456gs.jpg","null","reveal","image-keyboard-response","143","678935","0.0-6.0-4.19","2856253","co38476","norming","","","","","","",""
"null","../img/tt/456tt.jpg","null","mooney2","image-keyboard-response","144","680936","0.0-6.0-5.19","2856253","co38476","norming","","","","","","",""
"1631.5849999998463","","","post_reveal_questions","survey-likert","145","682569","0.0-6.0-6.19","2856253","co38476","norming","","","{""aha"":6}","[0]","../img/tt/456tt.jpg","",""
"null","<div style=""font-size:60px;""> </div>","null","fixation","html-keyboard-response","146","682770","0.0-6.0-0.20","2856253","co38476","norming","","","","","","",""
"null","../img/tt/184tt.jpg","null","mooney1","image-keyboard-response","147","685779","0.0-6.0-1.20","2856253","co38476","norming","","","","","","",""
"3189.150000000256","","","post_mooney1_questions","survey-likert","148","688968","0.0-6.0-2.20","2856253","co38476","norming","","","{""curiosity"":6,""confidence"":0}","[0,1]","../img/tt/184tt.jpg","",""
"526.0550000000512","","","recognition","survey-text","149","689496","0.0-6.0-3.20","2856253","co38476","norming","","","{""guess"":""""}","","../img/tt/184tt.jpg","",""
"null","../img/gs/184gs.jpg","null","reveal","image-keyboard-response","150","691499","0.0-6.0-4.20","2856253","co38476","norming","","","","","","",""
"null","../img/tt/184tt.jpg","null","mooney2","image-keyboard-response","151","693509","0.0-6.0-5.20","2856253","co38476","norming","","","","","","",""
"1648.6850000000559","","","post_reveal_questions","survey-likert","152","695160","0.0-6.0-6.20","2856253","co38476","norming","","","{""aha"":3}","[0]","../img/tt/184tt.jpg","",""
"null","<div style=""font-size:60px;""> </div>","null","fixation","html-keyboard-response","153","695371","0.0-6.0-0.21","2856253","co38476","norming","","","","","","",""
"null","../img/tt/1173tt.jpg","null","mooney1","image-keyboard-response","154","698383","0.0-6.0-1.21","2856253","co38476","norming","","","","","","",""
"5423.405000000028","","","post_mooney1_questions","survey-likert","155","703808","0.0-6.0-2.21","2856253","co38476","norming","","","{""curiosity"":1,""confidence"":6}","[0,1]","../img/tt/1173tt.jpg","",""
"2822.3700000001118","","","recognition","survey-text","156","706632","0.0-6.0-3.21","2856253","co38476","norming","","","{""guess"":""voetbalspelers""}","","../img/tt/1173tt.jpg","",""
"null","../img/gs/1173gs.jpg","null","reveal","image-keyboard-response","157","708634","0.0-6.0-4.21","2856253","co38476","norming","","","","","","",""
"null","../img/tt/1173tt.jpg","null","mooney2","image-keyboard-response","158","710641","0.0-6.0-5.21","2856253","co38476","norming","","","","","","",""
"1684.4450000000652","","","post_reveal_questions","survey-likert","159","712328","0.0-6.0-6.21","2856253","co38476","norming","","","{""aha"":6}","[0]","../img/tt/1173tt.jpg","",""
"null","<div style=""font-size:60px;""> </div>","null","fixation","html-keyboard-response","160","712537","0.0-6.0-0.22","2856253","co38476","norming","","","","","","",""
"null","../img/tt/1211tt.jpg","null","mooney1","image-keyboard-response","161","715545","0.0-6.0-1.22","2856253","co38476","norming","","","","","","",""
"7748.640000000014","","","post_mooney1_questions","survey-likert","162","723296","0.0-6.0-2.22","2856253","co38476","norming","","","{""curiosity"":4,""confidence"":4}","[0,1]","../img/tt/1211tt.jpg","",""
"2422.1350000000093","","","recognition","survey-text","163","725720","0.0-6.0-3.22","2856253","co38476","norming","","","{""guess"":""dolfijnen""}","","../img/tt/1211tt.jpg","",""
"null","../img/gs/1211gs.jpg","null","reveal","image-keyboard-response","164","727728","0.0-6.0-4.22","2856253","co38476","norming","","","","","","",""
"null","../img/tt/1211tt.jpg","null","mooney2","image-keyboard-response","165","729737","0.0-6.0-5.22","2856253","co38476","norming","","","","","","",""
"1525.755000000121","","","post_reveal_questions","survey-likert","166","731264","0.0-6.0-6.22","2856253","co38476","norming","","","{""aha"":6}","[0]","../img/tt/1211tt.jpg","",""
"null","<div style=""font-size:60px;""> </div>","null","fixation","html-keyboard-response","167","731472","0.0-6.0-0.23","2856253","co38476","norming","","","","","","",""
"null","../img/tt/001tt.jpg","null","mooney1","image-keyboard-response","168","734479","0.0-6.0-1.23","2856253","co38476","norming","","","","","","",""
"2775.6500000000233","","","post_mooney1_questions","survey-likert","169","737256","0.0-6.0-2.23","2856253","co38476","norming","","","{""curiosity"":6,""confidence"":0}","[0,1]","../img/tt/001tt.jpg","",""
"454.14999999979045","","","recognition","survey-text","170","737712","0.0-6.0-3.23","2856253","co38476","norming","","","{""guess"":""""}","","../img/tt/001tt.jpg","",""
"null","../img/gs/001gs.jpg","null","reveal","image-keyboard-response","171","739723","0.0-6.0-4.23","2856253","co38476","norming","","","","","","",""
"null","../img/tt/001tt.jpg","null","mooney2","image-keyboard-response","172","741725","0.0-6.0-5.23","2856253","co38476","norming","","","","","","",""
"1488.3649999998743","","","post_reveal_questions","survey-likert","173","743216","0.0-6.0-6.23","2856253","co38476","norming","","","{""aha"":0}","[0]","../img/tt/001tt.jpg","",""
"null","<div style=""font-size:60px;""> </div>","null","fixation","html-keyboard-response","174","743424","0.0-6.0-0.24","2856253","co38476","norming","","","","","","",""
"null","../img/tt/435tt.jpg","null","mooney1","image-keyboard-response","175","746434","0.0-6.0-1.24","2856253","co38476","norming","","","","","","",""
"2764.4150000000373","","","post_mooney1_questions","survey-likert","176","749193","0.0-6.0-2.24","2856253","co38476","norming","","","{""curiosity"":6,""confidence"":0}","[0,1]","../img/tt/435tt.jpg","",""
"1598.1600000000326","","","recognition","survey-text","177","750793","0.0-6.0-3.24","2856253","co38476","norming","","","{""guess"":""""}","","../img/tt/435tt.jpg","",""
"null","../img/gs/435gs.jpg","null","reveal","image-keyboard-response","178","752801","0.0-6.0-4.24","2856253","co38476","norming","","","","","","",""
"null","../img/tt/435tt.jpg","null","mooney2","image-keyboard-response","179","754812","0.0-6.0-5.24","2856253","co38476","norming","","","","","","",""
"3074.980000000098","","","post_reveal_questions","survey-likert","180","757889","0.0-6.0-6.24","2856253","co38476","norming","","","{""aha"":6}","[0]","../img/tt/435tt.jpg","",""
"null","<div style=""font-size:60px;""> </div>","null","fixation","html-keyboard-response","181","758091","0.0-6.0-0.25","2856253","co38476","norming","","","","","","",""
"null","../img/tt/442tt.jpg","null","mooney1","image-keyboard-response","182","761098","0.0-6.0-1.25","2856253","co38476","norming","","","","","","",""
"3660.095000000205","","","post_mooney1_questions","survey-likert","183","764761","0.0-6.0-2.25","2856253","co38476","norming","","","{""curiosity"":6,""confidence"":0}","[0,1]","../img/tt/442tt.jpg","",""
"749.9950000001118","","","recognition","survey-text","184","765513","0.0-6.0-3.25","2856253","co38476","norming","","","{""guess"":""""}","","../img/tt/442tt.jpg","",""
"null","../img/gs/442gs.jpg","null","reveal","image-keyboard-response","185","767516","0.0-6.0-4.25","2856253","co38476","norming","","","","","","",""
"null","../img/tt/442tt.jpg","null","mooney2","image-keyboard-response","186","769527","0.0-6.0-5.25","2856253","co38476","norming","","","","","","",""
"1551.895000000135","","","post_reveal_questions","survey-likert","187","771081","0.0-6.0-6.25","2856253","co38476","norming","","","{""aha"":0}","[0]","../img/tt/442tt.jpg","",""
"null","<div style=""font-size:60px;""> </div>","null","fixation","html-keyboard-response","188","771289","0.0-6.0-0.26","2856253","co38476","norming","","","","","","",""
"null","../img/tt/123tt.jpg","null","mooney1","image-keyboard-response","189","774295","0.0-6.0-1.26","2856253","co38476","norming","","","","","","",""
"3495.2750000000233","","","post_mooney1_questions","survey-likert","190","777793","0.0-6.0-2.26","2856253","co38476","norming","","","{""curiosity"":6,""confidence"":1}","[0,1]","../img/tt/123tt.jpg","",""
"2126.0949999998556","","","recognition","survey-text","191","779921","0.0-6.0-3.26","2856253","co38476","norming","","","{""guess"":""ziekenbed""}","","../img/tt/123tt.jpg","",""
"null","../img/gs/123gs.jpg","null","reveal","image-keyboard-response","192","781929","0.0-6.0-4.26","2856253","co38476","norming","","","","","","",""
"null","../img/tt/123tt.jpg","null","mooney2","image-keyboard-response","193","783931","0.0-6.0-5.26","2856253","co38476","norming","","","","","","",""
"1268.0649999999441","","","post_reveal_questions","survey-likert","194","785201","0.0-6.0-6.26","2856253","co38476","norming","","","{""aha"":1}","[0]","../img/tt/123tt.jpg","",""
"null","<div style=""font-size:60px;""> </div>","null","fixation","html-keyboard-response","195","785409","0.0-6.0-0.27","2856253","co38476","norming","","","","","","",""
"null","../img/tt/1255tt.jpg","null","mooney1","image-keyboard-response","196","788418","0.0-6.0-1.27","2856253","co38476","norming","","","","","","",""
"3238.340000000084","","","post_mooney1_questions","survey-likert","197","791657","0.0-6.0-2.27","2856253","co38476","norming","","","{""curiosity"":6,""confidence"":1}","[0,1]","../img/tt/1255tt.jpg","",""
"1942.25","","","recognition","survey-text","198","793601","0.0-6.0-3.27","2856253","co38476","norming","","","{""guess"":""konijn""}","","../img/tt/1255tt.jpg","",""
"null","../img/gs/1255gs.jpg","null","reveal","image-keyboard-response","199","795610","0.0-6.0-4.27","2856253","co38476","norming","","","","","","",""
"null","../img/tt/1255tt.jpg","null","mooney2","image-keyboard-response","200","797613","0.0-6.0-5.27","2856253","co38476","norming","","","","","","",""
"5633.844999999972","","","post_reveal_questions","survey-likert","201","803249","0.0-6.0-6.27","2856253","co38476","norming","","","{""aha"":4}","[0]","../img/tt/1255tt.jpg","",""
"null","<div style=""font-size:60px;""> </div>","null","fixation","html-keyboard-response","202","803453","0.0-6.0-0.28","2856253","co38476","norming","","","","","","",""
"null","../img/tt/1234tt.jpg","null","mooney1","image-keyboard-response","203","806460","0.0-6.0-1.28","2856253","co38476","norming","","","","","","",""
"3428.3349999998463","","","post_mooney1_questions","survey-likert","204","809898","0.0-6.0-2.28","2856253","co38476","norming","","","{""curiosity"":6,""confidence"":0}","[0,1]","../img/tt/1234tt.jpg","",""
"1461.9599999999627","","","recognition","survey-text","205","811361","0.0-6.0-3.28","2856253","co38476","norming","","","{""guess"":""""}","","../img/tt/1234tt.jpg","",""
"null","../img/gs/1234gs.jpg","null","reveal","image-keyboard-response","206","813369","0.0-6.0-4.28","2856253","co38476","norming","","","","","","",""
"null","../img/tt/1234tt.jpg","null","mooney2","image-keyboard-response","207","815374","0.0-6.0-5.28","2856253","co38476","norming","","","","","","",""
"1514.1200000001118","","","post_reveal_questions","survey-likert","208","816889","0.0-6.0-6.28","2856253","co38476","norming","","","{""aha"":2}","[0]","../img/tt/1234tt.jpg","",""
"null","<div style=""font-size:60px;""> </div>","null","fixation","html-keyboard-response","209","817093","0.0-6.0-0.29","2856253","co38476","norming","","","","","","",""
"null","../img/tt/1061tt.jpg","null","mooney1","image-keyboard-response","210","820097","0.0-6.0-1.29","2856253","co38476","norming","","","","","","",""
"4901.380000000005","","","post_mooney1_questions","survey-likert","211","825002","0.0-6.0-2.29","2856253","co38476","norming","","","{""curiosity"":5,""confidence"":0}","[0,1]","../img/tt/1061tt.jpg","",""
"2222.115000000107","","","recognition","survey-text","212","827225","0.0-6.0-3.29","2856253","co38476","norming","","","{""guess"":""speeltuin""}","","../img/tt/1061tt.jpg","",""
"null","../img/gs/1061gs.jpg","null","reveal","image-keyboard-response","213","829234","0.0-6.0-4.29","2856253","co38476","norming","","","","","","",""
"null","../img/tt/1061tt.jpg","null","mooney2","image-keyboard-response","214","831236","0.0-6.0-5.29","2856253","co38476","norming","","","","","","",""
"1348.0100000000093","","","post_reveal_questions","survey-likert","215","832586","0.0-6.0-6.29","2856253","co38476","norming","","","{""aha"":5}","[0]","../img/tt/1061tt.jpg","",""
"null","<div style=""font-size:60px;""> </div>","null","fixation","html-keyboard-response","216","832789","0.0-6.0-0.30","2856253","co38476","norming","","","","","","",""
"null","../img/tt/1237tt.jpg","null","mooney1","image-keyboard-response","217","835794","0.0-6.0-1.30","2856253","co38476","norming","","","","","","",""
"3908.2600000001257","","","post_mooney1_questions","survey-likert","218","839706","0.0-6.0-2.30","2856253","co38476","norming","","","{""curiosity"":5,""confidence"":1}","[0,1]","../img/tt/1237tt.jpg","",""
"1454.3449999998556","","","recognition","survey-text","219","841162","0.0-6.0-3.30","2856253","co38476","norming","","","{""guess"":""eend""}","","../img/tt/1237tt.jpg","",""
"null","../img/gs/1237gs.jpg","null","reveal","image-keyboard-response","220","843166","0.0-6.0-4.30","2856253","co38476","norming","","","","","","",""
"null","../img/tt/1237tt.jpg","null","mooney2","image-keyboard-response","221","845167","0.0-6.0-5.30","2856253","co38476","norming","","","","","","",""
"3911.5300000001444","","","post_reveal_questions","survey-likert","222","849081","0.0-6.0-6.30","2856253","co38476","norming","","","{""aha"":5}","[0]","../img/tt/1237tt.jpg","",""
"null","<div style=""font-size:60px;""> </div>","null","fixation","html-keyboard-response","223","849289","0.0-6.0-0.31","2856253","co38476","norming","","","","","","",""
"null","../img/tt/1004tt.jpg","null","mooney1","image-keyboard-response","224","852295","0.0-6.0-1.31","2856253","co38476","norming","","","","","","",""
"7017.084999999963","","","post_mooney1_questions","survey-likert","225","859314","0.0-6.0-2.31","2856253","co38476","norming","","","{""curiosity"":4,""confidence"":5}","[0,1]","../img/tt/1004tt.jpg","",""
"1125.8850000002421","","","recognition","survey-text","226","860441","0.0-6.0-3.31","2856253","co38476","norming","","","{""guess"":""beer""}","","../img/tt/1004tt.jpg","",""
"null","../img/gs/1004gs.jpg","null","reveal","image-keyboard-response","227","862449","0.0-6.0-4.31","2856253","co38476","norming","","","","","","",""
"null","../img/tt/1004tt.jpg","null","mooney2","image-keyboard-response","228","864453","0.0-6.0-5.31","2856253","co38476","norming","","","","","","",""
"1955.604999999865","","","post_reveal_questions","survey-likert","229","866409","0.0-6.0-6.31","2856253","co38476","norming","","","{""aha"":3}","[0]","../img/tt/1004tt.jpg","",""
"null","<div style=""font-size:60px;""> </div>","null","fixation","html-keyboard-response","230","866612","0.0-6.0-0.32","2856253","co38476","norming","","","","","","",""
"null","../img/tt/1063tt.jpg","null","mooney1","image-keyboard-response","231","869623","0.0-6.0-1.32","2856253","co38476","norming","","","","","","",""
"5303.735000000219","","","post_mooney1_questions","survey-likert","232","874929","0.0-6.0-2.32","2856253","co38476","norming","","","{""curiosity"":6,""confidence"":2}","[0,1]","../img/tt/1063tt.jpg","",""
"1974.0750000000698","","","recognition","survey-text","233","876905","0.0-6.0-3.32","2856253","co38476","norming","","","{""guess"":""wolf""}","","../img/tt/1063tt.jpg","",""
"null","../img/gs/1063gs.jpg","null","reveal","image-keyboard-response","234","878915","0.0-6.0-4.32","2856253","co38476","norming","","","","","","",""
"null","../img/tt/1063tt.jpg","null","mooney2","image-keyboard-response","235","880921","0.0-6.0-5.32","2856253","co38476","norming","","","","","","",""
"5078.729999999865","","","post_reveal_questions","survey-likert","236","886001","0.0-6.0-6.32","2856253","co38476","norming","","","{""aha"":6}","[0]","../img/tt/1063tt.jpg","",""
"null","<div style=""font-size:60px;""> </div>","null","fixation","html-keyboard-response","237","886207","0.0-6.0-0.33","2856253","co38476","norming","","","","","","",""
"null","../img/tt/1243tt.jpg","null","mooney1","image-keyboard-response","238","889216","0.0-6.0-1.33","2856253","co38476","norming","","","","","","",""
"3285.8699999999953","","","post_mooney1_questions","survey-likert","239","892505","0.0-6.0-2.33","2856253","co38476","norming","","","{""curiosity"":6,""confidence"":0}","[0,1]","../img/tt/1243tt.jpg","",""
"742.0349999999162","","","recognition","survey-text","240","893249","0.0-6.0-3.33","2856253","co38476","norming","","","{""guess"":""""}","","../img/tt/1243tt.jpg","",""
"null","../img/gs/1243gs.jpg","null","reveal","image-keyboard-response","241","895255","0.0-6.0-4.33","2856253","co38476","norming","","","","","","",""
"null","../img/tt/1243tt.jpg","null","mooney2","image-keyboard-response","242","897257","0.0-6.0-5.33","2856253","co38476","norming","","","","","","",""
"2029.654999999795","","","post_reveal_questions","survey-likert","243","899289","0.0-6.0-6.33","2856253","co38476","norming","","","{""aha"":6}","[0]","../img/tt/1243tt.jpg","",""
"null","<div style=""font-size:60px;""> </div>","null","fixation","html-keyboard-response","244","899494","0.0-6.0-0.34","2856253","co38476","norming","","","","","","",""
"null","../img/tt/096tt.jpg","null","mooney1","image-keyboard-response","245","902505","0.0-6.0-1.34","2856253","co38476","norming","","","","","","",""
"3215.590000000084","","","post_mooney1_questions","survey-likert","246","905721","0.0-6.0-2.34","2856253","co38476","norming","","","{""curiosity"":4,""confidence"":3}","[0,1]","../img/tt/096tt.jpg","",""
"1870.270000000135","","","recognition","survey-text","247","907593","0.0-6.0-3.34","2856253","co38476","norming","","","{""guess"":""piano""}","","../img/tt/096tt.jpg","",""
"null","../img/gs/096gs.jpg","null","reveal","image-keyboard-response","248","909595","0.0-6.0-4.34","2856253","co38476","norming","","","","","","",""
"null","../img/tt/096tt.jpg","null","mooney2","image-keyboard-response","249","911597","0.0-6.0-5.34","2856253","co38476","norming","","","","","","",""
"1113.4449999999488","","","post_reveal_questions","survey-likert","250","912713","0.0-6.0-6.34","2856253","co38476","norming","","","{""aha"":3}","[0]","../img/tt/096tt.jpg","",""
"null","<div style=""font-size:60px;""> </div>","null","fixation","html-keyboard-response","251","912917","0.0-6.0-0.35","2856253","co38476","norming","","","","","","",""
"null","../img/tt/1224tt.jpg","null","mooney1","image-keyboard-response","252","915923","0.0-6.0-1.35","2856253","co38476","norming","","","","","","",""
"5370.069999999949","","","post_mooney1_questions","survey-likert","253","921297","0.0-6.0-2.35","2856253","co38476","norming","","","{""curiosity"":6,""confidence"":4}","[0,1]","../img/tt/1224tt.jpg","",""
"2485.7549999998882","","","recognition","survey-text","254","923785","0.0-6.0-3.35","2856253","co38476","norming","","","{""guess"":""gitaarspelen""}","","../img/tt/1224tt.jpg","",""
"null","../img/gs/1224gs.jpg","null","reveal","image-keyboard-response","255","925795","0.0-6.0-4.35","2856253","co38476","norming","","","","","","",""
"null","../img/tt/1224tt.jpg","null","mooney2","image-keyboard-response","256","927796","0.0-6.0-5.35","2856253","co38476","norming","","","","","","",""
"1563.7050000000745","","","post_reveal_questions","survey-likert","257","929361","0.0-6.0-6.35","2856253","co38476","norming","","","{""aha"":6}","[0]","../img/tt/1224tt.jpg","",""
"null","<div style=""font-size:60px;""> </div>","null","fixation","html-keyboard-response","258","929567","0.0-6.0-0.36","2856253","co38476","norming","","","","","","",""
"null","../img/tt/140tt.jpg","null","mooney1","image-keyboard-response","259","932575","0.0-6.0-1.36","2856253","co38476","norming","","","","","","",""
"3361.394999999902","","","post_mooney1_questions","survey-likert","260","935937","0.0-6.0-2.36","2856253","co38476","norming","","","{""curiosity"":6,""confidence"":0}","[0,1]","../img/tt/140tt.jpg","",""
"573.7250000002095","","","recognition","survey-text","261","936513","0.0-6.0-3.36","2856253","co38476","norming","","","{""guess"":""""}","","../img/tt/140tt.jpg","",""
"null","../img/gs/140gs.jpg","null","reveal","image-keyboard-response","262","938524","0.0-6.0-4.36","2856253","co38476","norming","","","","","","",""
"null","../img/tt/140tt.jpg","null","mooney2","image-keyboard-response","263","940526","0.0-6.0-5.36","2856253","co38476","norming","","","","","","",""
"1466.020000000135","","","post_reveal_questions","survey-likert","264","941993","0.0-6.0-6.36","2856253","co38476","norming","","","{""aha"":5}","[0]","../img/tt/140tt.jpg","",""
"null","<div style=""font-size:60px;""> </div>","null","fixation","html-keyboard-response","265","942196","0.0-6.0-0.37","2856253","co38476","norming","","","","","","",""
"null","../img/tt/1024tt.jpg","null","mooney1","image-keyboard-response","266","945203","0.0-6.0-1.37","2856253","co38476","norming","","","","","","",""
"2915.480000000098","","","post_mooney1_questions","survey-likert","267","948122","0.0-6.0-2.37","2856253","co38476","norming","","","{""curiosity"":6,""confidence"":0}","[0,1]","../img/tt/1024tt.jpg","",""
"902.285000000149","","","recognition","survey-text","268","949026","0.0-6.0-3.37","2856253","co38476","norming","","","{""guess"":""""}","","../img/tt/1024tt.jpg","",""
"null","../img/gs/1024gs.jpg","null","reveal","image-keyboard-response","269","951027","0.0-6.0-4.37","2856253","co38476","norming","","","","","","",""
"null","../img/tt/1024tt.jpg","null","mooney2","image-keyboard-response","270","953029","0.0-6.0-5.37","2856253","co38476","norming","","","","","","",""
"1266.970000000205","","","post_reveal_questions","survey-likert","271","954298","0.0-6.0-6.37","2856253","co38476","norming","","","{""aha"":3}","[0]","../img/tt/1024tt.jpg","",""
"null","<div style=""font-size:60px;""> </div>","null","fixation","html-keyboard-response","272","954499","0.0-6.0-0.38","2856253","co38476","norming","","","","","","",""
"null","../img/tt/1102tt.jpg","null","mooney1","image-keyboard-response","273","957508","0.0-6.0-1.38","2856253","co38476","norming","","","","","","",""
"4713.754999999888","","","post_mooney1_questions","survey-likert","274","962226","0.0-6.0-2.38","2856253","co38476","norming","","","{""curiosity"":6,""confidence"":0}","[0,1]","../img/tt/1102tt.jpg","",""
"3445.5249999997905","","","recognition","survey-text","275","965673","0.0-6.0-3.38","2856253","co38476","norming","","","{""guess"":""palmboom""}","","../img/tt/1102tt.jpg","",""
"null","../img/gs/1102gs.jpg","null","reveal","image-keyboard-response","276","967676","0.0-6.0-4.38","2856253","co38476","norming","","","","","","",""
"null","../img/tt/1102tt.jpg","null","mooney2","image-keyboard-response","277","969678","0.0-6.0-5.38","2856253","co38476","norming","","","","","","",""
"3546.6350000000093","","","post_reveal_questions","survey-likert","278","973226","0.0-6.0-6.38","2856253","co38476","norming","","","{""aha"":1}","[0]","../img/tt/1102tt.jpg","",""
"null","<div style=""font-size:60px;""> </div>","null","fixation","html-keyboard-response","279","973428","0.0-6.0-0.39","2856253","co38476","norming","","","","","","",""
"null","../img/tt/440tt.jpg","null","mooney1","image-keyboard-response","280","976434","0.0-6.0-1.39","2856253","co38476","norming","","","","","","",""
"2814.804999999935","","","post_mooney1_questions","survey-likert","281","979250","0.0-6.0-2.39","2856253","co38476","norming","","","{""curiosity"":6,""confidence"":0}","[0,1]","../img/tt/440tt.jpg","",""
"621.9449999998324","","","recognition","survey-text","282","979873","0.0-6.0-3.39","2856253","co38476","norming","","","{""guess"":""""}","","../img/tt/440tt.jpg","",""
"null","../img/gs/440gs.jpg","null","reveal","image-keyboard-response","283","981883","0.0-6.0-4.39","2856253","co38476","norming","","","","","","",""
"null","../img/tt/440tt.jpg","null","mooney2","image-keyboard-response","284","983892","0.0-6.0-5.39","2856253","co38476","norming","","","","","","",""
"1787.0250000001397","","","post_reveal_questions","survey-likert","285","985681","0.0-6.0-6.39","2856253","co38476","norming","","","{""aha"":1}","[0]","../img/tt/440tt.jpg","",""
"null","<div style=""font-size:60px;""> </div>","null","fixation","html-keyboard-response","286","985885","0.0-6.0-0.40","2856253","co38476","norming","","","","","","",""
"null","../img/tt/412tt.jpg","null","mooney1","image-keyboard-response","287","988893","0.0-6.0-1.40","2856253","co38476","norming","","","","","","",""
"4033.590000000084","","","post_mooney1_questions","survey-likert","288","992930","0.0-6.0-2.40","2856253","co38476","norming","","","{""curiosity"":6,""confidence"":0}","[0,1]","../img/tt/412tt.jpg","",""
"438.0250000001397","","","recognition","survey-text","289","993369","0.0-6.0-3.40","2856253","co38476","norming","","","{""guess"":""""}","","../img/tt/412tt.jpg","",""
"null","../img/gs/412gs.jpg","null","reveal","image-keyboard-response","290","995375","0.0-6.0-4.40","2856253","co38476","norming","","","","","","",""
"null","../img/tt/412tt.jpg","null","mooney2","image-keyboard-response","291","997384","0.0-6.0-5.40","2856253","co38476","norming","","","","","","",""
"1638.2800000001444","","","post_reveal_questions","survey-likert","292","999025","0.0-6.0-6.40","2856253","co38476","norming","","","{""aha"":5}","[0]","../img/tt/412tt.jpg","",""
"null","<div style=""font-size:60px;""> </div>","null","fixation","html-keyboard-response","293","999235","0.0-6.0-0.41","2856253","co38476","norming","","","","","","",""
"null","../img/tt/1154tt.jpg","null","mooney1","image-keyboard-response","294","1002243","0.0-6.0-1.41","2856253","co38476","norming","","","","","","",""
"5123.405000000028","","","post_mooney1_questions","survey-likert","295","1007370","0.0-6.0-2.41","2856253","co38476","norming","","","{""curiosity"":6,""confidence"":1}","[0,1]","../img/tt/1154tt.jpg","",""
"3597.95000000007","","","recognition","survey-text","296","1010969","0.0-6.0-3.41","2856253","co38476","norming","","","{""guess"":""ree""}","","../img/tt/1154tt.jpg","",""
"null","../img/gs/1154gs.jpg","null","reveal","image-keyboard-response","297","1012980","0.0-6.0-4.41","2856253","co38476","norming","","","","","","",""
"null","../img/tt/1154tt.jpg","null","mooney2","image-keyboard-response","298","1014987","0.0-6.0-5.41","2856253","co38476","norming","","","","","","",""
"1763.6450000000186","","","post_reveal_questions","survey-likert","299","1016753","0.0-6.0-6.41","2856253","co38476","norming","","","{""aha"":3}","[0]","../img/tt/1154tt.jpg","",""
"null","<div style=""font-size:60px;""> </div>","null","fixation","html-keyboard-response","300","1016963","0.0-6.0-0.42","2856253","co38476","norming","","","","","","",""
"null","../img/tt/300tt.jpg","null","mooney1","image-keyboard-response","301","1019967","0.0-6.0-1.42","2856253","co38476","norming","","","","","","",""
"3975.25","","","post_mooney1_questions","survey-likert","302","1023946","0.0-6.0-2.42","2856253","co38476","norming","","","{""curiosity"":6,""confidence"":0}","[0,1]","../img/tt/300tt.jpg","",""
"950.0300000000279","","","recognition","survey-text","303","1024897","0.0-6.0-3.42","2856253","co38476","norming","","","{""guess"":""""}","","../img/tt/300tt.jpg","",""
"null","../img/gs/300gs.jpg","null","reveal","image-keyboard-response","304","1026901","0.0-6.0-4.42","2856253","co38476","norming","","","","","","",""
"null","../img/tt/300tt.jpg","null","mooney2","image-keyboard-response","305","1028902","0.0-6.0-5.42","2856253","co38476","norming","","","","","","",""
"1493.5700000000652","","","post_reveal_questions","survey-likert","306","1030401","0.0-6.0-6.42","2856253","co38476","norming","","","{""aha"":2}","[0]","../img/tt/300tt.jpg","",""
"null","<div style=""font-size:60px;""> </div>","null","fixation","html-keyboard-response","307","1030603","0.0-6.0-0.43","2856253","co38476","norming","","","","","","",""
"null","../img/tt/060tt.jpg","null","mooney1","image-keyboard-response","308","1033609","0.0-6.0-1.43","2856253","co38476","norming","","","","","","",""
"3391.160000000149","","","post_mooney1_questions","survey-likert","309","1037002","0.0-6.0-2.43","2856253","co38476","norming","","","{""curiosity"":6,""confidence"":0}","[0,1]","../img/tt/060tt.jpg","",""
"1998.1700000002747","","","recognition","survey-text","310","1039001","0.0-6.0-3.43","2856253","co38476","norming","","","{""guess"":""hamburger""}","","../img/tt/060tt.jpg","",""
"null","../img/gs/060gs.jpg","null","reveal","image-keyboard-response","311","1041008","0.0-6.0-4.43","2856253","co38476","norming","","","","","","",""
"null","../img/tt/060tt.jpg","null","mooney2","image-keyboard-response","312","1043017","0.0-6.0-5.43","2856253","co38476","norming","","","","","","",""
"2885.75999999966","","","post_reveal_questions","survey-likert","313","1045905","0.0-6.0-6.43","2856253","co38476","norming","","","{""aha"":6}","[0]","../img/tt/060tt.jpg","",""
"null","<div style=""font-size:60px;""> </div>","null","fixation","html-keyboard-response","314","1046114","0.0-6.0-0.44","2856253","co38476","norming","","","","","","",""
"null","../img/tt/1363tt.jpg","null","mooney1","image-keyboard-response","315","1049122","0.0-6.0-1.44","2856253","co38476","norming","","","","","","",""
"4964.059999999823","","","post_mooney1_questions","survey-likert","316","1054089","0.0-6.0-2.44","2856253","co38476","norming","","","{""curiosity"":4,""confidence"":1}","[0,1]","../img/tt/1363tt.jpg","",""
"1486.1150000002235","","","recognition","survey-text","317","1055577","0.0-6.0-3.44","2856253","co38476","norming","","","{""guess"":""schaal""}","","../img/tt/1363tt.jpg","",""
"null","../img/gs/1363gs.jpg","null","reveal","image-keyboard-response","318","1057584","0.0-6.0-4.44","2856253","co38476","norming","","","","","","",""
"null","../img/tt/1363tt.jpg","null","mooney2","image-keyboard-response","319","1059593","0.0-6.0-5.44","2856253","co38476","norming","","","","","","",""
"3245","","","post_reveal_questions","survey-likert","320","1062841","0.0-6.0-6.44","2856253","co38476","norming","","","{""aha"":5}","[0]","../img/tt/1363tt.jpg","",""
"null","<div style=""font-size:60px;""> </div>","null","fixation","html-keyboard-response","321","1063047","0.0-6.0-0.45","2856253","co38476","norming","","","","","","",""
"null","../img/tt/307tt.jpg","null","mooney1","image-keyboard-response","322","1066056","0.0-6.0-1.45","2856253","co38476","norming","","","","","","",""
"2501.8300000000745","","","post_mooney1_questions","survey-likert","323","1068561","0.0-6.0-2.45","2856253","co38476","norming","","","{""curiosity"":6,""confidence"":0}","[0,1]","../img/tt/307tt.jpg","",""
"774.0699999998324","","","recognition","survey-text","324","1069337","0.0-6.0-3.45","2856253","co38476","norming","","","{""guess"":""""}","","../img/tt/307tt.jpg","",""
"null","../img/gs/307gs.jpg","null","reveal","image-keyboard-response","325","1071347","0.0-6.0-4.45","2856253","co38476","norming","","","","","","",""
"null","../img/tt/307tt.jpg","null","mooney2","image-keyboard-response","326","1073350","0.0-6.0-5.45","2856253","co38476","norming","","","","","","",""
"1664.8300000003073","","","post_reveal_questions","survey-likert","327","1075017","0.0-6.0-6.45","2856253","co38476","norming","","","{""aha"":2}","[0]","../img/tt/307tt.jpg","",""
"null","<div style=""font-size:60px;""> </div>","null","fixation","html-keyboard-response","328","1075226","0.0-6.0-0.46","2856253","co38476","norming","","","","","","",""
"null","../img/tt/1196tt.jpg","null","mooney1","image-keyboard-response","329","1078233","0.0-6.0-1.46","2856253","co38476","norming","","","","","","",""
"5764.445000000298","","","post_mooney1_questions","survey-likert","330","1084001","0.0-6.0-2.46","2856253","co38476","norming","","","{""curiosity"":6,""confidence"":0}","[0,1]","../img/tt/1196tt.jpg","",""
"1333.9249999998137","","","recognition","survey-text","331","1085337","0.0-6.0-3.46","2856253","co38476","norming","","","{""guess"":""""}","","../img/tt/1196tt.jpg","",""
"null","../img/gs/1196gs.jpg","null","reveal","image-keyboard-response","332","1087342","0.0-6.0-4.46","2856253","co38476","norming","","","","","","",""
"null","../img/tt/1196tt.jpg","null","mooney2","image-keyboard-response","333","1089344","0.0-6.0-5.46","2856253","co38476","norming","","","","","","",""
"1406.3600000001024","","","post_reveal_questions","survey-likert","334","1090753","0.0-6.0-6.46","2856253","co38476","norming","","","{""aha"":6}","[0]","../img/tt/1196tt.jpg","",""
"null","<div style=""font-size:60px;""> </div>","null","fixation","html-keyboard-response","335","1090958","0.0-6.0-0.47","2856253","co38476","norming","","","","","","",""
"null","../img/tt/019tt.jpg","null","mooney1","image-keyboard-response","336","1093962","0.0-6.0-1.47","2856253","co38476","norming","","","","","","",""
"5388.2400000002235","","","post_mooney1_questions","survey-likert","337","1099353","0.0-6.0-2.47","2856253","co38476","norming","","","{""curiosity"":6,""confidence"":0}","[0,1]","../img/tt/019tt.jpg","",""
"1837.1499999999069","","","recognition","survey-text","338","1101193","0.0-6.0-3.47","2856253","co38476","norming","","","{""guess"":""""}","","../img/tt/019tt.jpg","",""
"null","../img/gs/019gs.jpg","null","reveal","image-keyboard-response","339","1103199","0.0-6.0-4.47","2856253","co38476","norming","","","","","","",""
"null","../img/tt/019tt.jpg","null","mooney2","image-keyboard-response","340","1105210","0.0-6.0-5.47","2856253","co38476","norming","","","","","","",""
"2740.2349999998696","","","post_reveal_questions","survey-likert","341","1107953","0.0-6.0-6.47","2856253","co38476","norming","","","{""aha"":0}","[0]","../img/tt/019tt.jpg","",""
"null","<div style=""font-size:60px;""> </div>","null","fixation","html-keyboard-response","342","1108159","0.0-6.0-0.48","2856253","co38476","norming","","","","","","",""
"null","../img/tt/357tt.jpg","null","mooney1","image-keyboard-response","343","1111169","0.0-6.0-1.48","2856253","co38476","norming","","","","","","",""
"4070.6699999996927","","","post_mooney1_questions","survey-likert","344","1115234","0.0-6.0-2.48","2856253","co38476","norming","","","{""curiosity"":6,""confidence"":0}","[0,1]","../img/tt/357tt.jpg","",""
"997.9250000002794","","","recognition","survey-text","345","1116234","0.0-6.0-3.48","2856253","co38476","norming","","","{""guess"":""""}","","../img/tt/357tt.jpg","",""
"null","../img/gs/357gs.jpg","null","reveal","image-keyboard-response","346","1118243","0.0-6.0-4.48","2856253","co38476","norming","","","","","","",""
"null","../img/tt/357tt.jpg","null","mooney2","image-keyboard-response","347","1120245","0.0-6.0-5.48","2856253","co38476","norming","","","","","","",""
"1194.4099999999162","","","post_reveal_questions","survey-likert","348","1121442","0.0-6.0-6.48","2856253","co38476","norming","","","{""aha"":0}","[0]","../img/tt/357tt.jpg","",""
"null","<div style=""font-size:60px;""> </div>","null","fixation","html-keyboard-response","349","1121649","0.0-6.0-0.49","2856253","co38476","norming","","","","","","",""
"null","../img/tt/517tt.jpg","null","mooney1","image-keyboard-response","350","1124661","0.0-6.0-1.49","2856253","co38476","norming","","","","","","",""
"3746.7900000000373","","","post_mooney1_questions","survey-likert","351","1128410","0.0-6.0-2.49","2856253","co38476","norming","","","{""curiosity"":5,""confidence"":1}","[0,1]","../img/tt/517tt.jpg","",""
"2214.135000000242","","","recognition","survey-text","352","1130626","0.0-6.0-3.49","2856253","co38476","norming","","","{""guess"":""panda""}","","../img/tt/517tt.jpg","",""
"null","../img/gs/517gs.jpg","null","reveal","image-keyboard-response","353","1132633","0.0-6.0-4.49","2856253","co38476","norming","","","","","","",""
"null","../img/tt/517tt.jpg","null","mooney2","image-keyboard-response","354","1134646","0.0-6.0-5.49","2856253","co38476","norming","","","","","","",""
"4465.140000000363","","","post_reveal_questions","survey-likert","355","1139114","0.0-6.0-6.49","2856253","co38476","norming","","","{""aha"":6}","[0]","../img/tt/517tt.jpg","",""
"null","<div style=""font-size:60px;""> </div>","null","fixation","html-keyboard-response","356","1139316","0.0-6.0-0.50","2856253","co38476","norming","","","","","","",""
"null","../img/tt/1096tt.jpg","null","mooney1","image-keyboard-response","357","1142324","0.0-6.0-1.50","2856253","co38476","norming","","","","","","",""
"4146.945000000065","","","post_mooney1_questions","survey-likert","358","1146474","0.0-6.0-2.50","2856253","co38476","norming","","","{""curiosity"":6,""confidence"":0}","[0,1]","../img/tt/1096tt.jpg","",""
"910.0499999998137","","","recognition","survey-text","359","1147386","0.0-6.0-3.50","2856253","co38476","norming","","","{""guess"":""""}","","../img/tt/1096tt.jpg","",""
"null","../img/gs/1096gs.jpg","null","reveal","image-keyboard-response","360","1149393","0.0-6.0-4.50","2856253","co38476","norming","","","","","","",""
"null","../img/tt/1096tt.jpg","null","mooney2","image-keyboard-response","361","1151404","0.0-6.0-5.50","2856253","co38476","norming","","","","","","",""
"1283.9250000002794","","","post_reveal_questions","survey-likert","362","1152690","0.0-6.0-6.50","2856253","co38476","norming","","","{""aha"":0}","[0]","../img/tt/1096tt.jpg","",""
"null","<div style=""font-size:60px;""> </div>","null","fixation","html-keyboard-response","363","1152892","0.0-6.0-0.51","2856253","co38476","norming","","","","","","",""
"null","../img/tt/007tt.jpg","null","mooney1","image-keyboard-response","364","1155902","0.0-6.0-1.51","2856253","co38476","norming","","","","","","",""
"3384.6500000001397","","","post_mooney1_questions","survey-likert","365","1159291","0.0-6.0-2.51","2856253","co38476","norming","","","{""curiosity"":4,""confidence"":0}","[0,1]","../img/tt/007tt.jpg","",""
"669.8900000001304","","","recognition","survey-text","366","1159962","0.0-6.0-3.51","2856253","co38476","norming","","","{""guess"":""""}","","../img/tt/007tt.jpg","",""
"null","../img/gs/007gs.jpg","null","reveal","image-keyboard-response","367","1161973","0.0-6.0-4.51","2856253","co38476","norming","","","","","","",""
"null","../img/tt/007tt.jpg","null","mooney2","image-keyboard-response","368","1163975","0.0-6.0-5.51","2856253","co38476","norming","","","","","","",""
"2809.0749999994878","","","post_reveal_questions","survey-likert","369","1166786","0.0-6.0-6.51","2856253","co38476","norming","","","{""aha"":1}","[0]","../img/tt/007tt.jpg","",""
"null","<div style=""font-size:60px;""> </div>","null","fixation","html-keyboard-response","370","1166989","0.0-6.0-0.52","2856253","co38476","norming","","","","","","",""
"null","../img/tt/1309tt.jpg","null","mooney1","image-keyboard-response","371","1169999","0.0-6.0-1.52","2856253","co38476","norming","","","","","","",""
"3495.4700000004377","","","post_mooney1_questions","survey-likert","372","1173498","0.0-6.0-2.52","2856253","co38476","norming","","","{""curiosity"":4,""confidence"":1}","[0,1]","../img/tt/1309tt.jpg","",""
"1478.6350000000093","","","recognition","survey-text","373","1174986","0.0-6.0-3.52","2856253","co38476","norming","","","{""guess"":""auto""}","","../img/tt/1309tt.jpg","",""
"null","../img/gs/1309gs.jpg","null","reveal","image-keyboard-response","374","1176992","0.0-6.0-4.52","2856253","co38476","norming","","","","","","",""
"null","../img/tt/1309tt.jpg","null","mooney2","image-keyboard-response","375","1178994","0.0-6.0-5.52","2856253","co38476","norming","","","","","","",""
"2757.8600000001024","","","post_reveal_questions","survey-likert","376","1181754","0.0-6.0-6.52","2856253","co38476","norming","","","{""aha"":6}","[0]","../img/tt/1309tt.jpg","",""
"null","<div style=""font-size:60px;""> </div>","null","fixation","html-keyboard-response","377","1181955","0.0-6.0-0.53","2856253","co38476","norming","","","","","","",""
"null","../img/tt/318tt.jpg","null","mooney1","image-keyboard-response","378","1184965","0.0-6.0-1.53","2856253","co38476","norming","","","","","","",""
"4289.595000000205","","","post_mooney1_questions","survey-likert","379","1189259","0.0-6.0-2.53","2856253","co38476","norming","","","{""curiosity"":6,""confidence"":0}","[0,1]","../img/tt/318tt.jpg","",""
"565.8899999996647","","","recognition","survey-text","380","1189826","0.0-6.0-3.53","2856253","co38476","norming","","","{""guess"":""""}","","../img/tt/318tt.jpg","",""
"null","../img/gs/318gs.jpg","null","reveal","image-keyboard-response","381","1191830","0.0-6.0-4.53","2856253","co38476","norming","","","","","","",""
"null","../img/tt/318tt.jpg","null","mooney2","image-keyboard-response","382","1193832","0.0-6.0-5.53","2856253","co38476","norming","","","","","","",""
"2599.6150000002235","","","post_reveal_questions","survey-likert","383","1196434","0.0-6.0-6.53","2856253","co38476","norming","","","{""aha"":1}","[0]","../img/tt/318tt.jpg","",""
"null","<div style=""font-size:60px;""> </div>","null","fixation","html-keyboard-response","384","1196645","0.0-6.0-0.54","2856253","co38476","norming","","","","","","",""
"null","../img/tt/064tt.jpg","null","mooney1","image-keyboard-response","385","1199654","0.0-6.0-1.54","2856253","co38476","norming","","","","","","",""
"3113.0100000000093","","","post_mooney1_questions","survey-likert","386","1202770","0.0-6.0-2.54","2856253","co38476","norming","","","{""curiosity"":6,""confidence"":0}","[0,1]","../img/tt/064tt.jpg","",""
"821.8400000000838","","","recognition","survey-text","387","1203594","0.0-6.0-3.54","2856253","co38476","norming","","","{""guess"":""""}","","../img/tt/064tt.jpg","",""
"null","../img/gs/064gs.jpg","null","reveal","image-keyboard-response","388","1205603","0.0-6.0-4.54","2856253","co38476","norming","","","","","","",""
"null","../img/tt/064tt.jpg","null","mooney2","image-keyboard-response","389","1207605","0.0-6.0-5.54","2856253","co38476","norming","","","","","","",""
"1192.9399999999441","","","post_reveal_questions","survey-likert","390","1208802","0.0-6.0-6.54","2856253","co38476","norming","","","{""aha"":1}","[0]","../img/tt/064tt.jpg","",""
"null","<div style=""font-size:60px;""> </div>","null","fixation","html-keyboard-response","391","1209008","0.0-6.0-0.55","2856253","co38476","norming","","","","","","",""
"null","../img/tt/599tt.jpg","null","mooney1","image-keyboard-response","392","1212015","0.0-6.0-1.55","2856253","co38476","norming","","","","","","",""
"3143.285000000149","","","post_mooney1_questions","survey-likert","393","1215162","0.0-6.0-2.55","2856253","co38476","norming","","","{""curiosity"":4,""confidence"":5}","[0,1]","../img/tt/599tt.jpg","",""
"2222.309999999823","","","recognition","survey-text","394","1217386","0.0-6.0-3.55","2856253","co38476","norming","","","{""guess"":""uil""}","","../img/tt/599tt.jpg","",""
"null","../img/gs/599gs.jpg","null","reveal","image-keyboard-response","395","1219393","0.0-6.0-4.55","2856253","co38476","norming","","","","","","",""
"null","../img/tt/599tt.jpg","null","mooney2","image-keyboard-response","396","1221404","0.0-6.0-5.55","2856253","co38476","norming","","","","","","",""
"1731.505000000121","","","post_reveal_questions","survey-likert","397","1223138","0.0-6.0-6.55","2856253","co38476","norming","","","{""aha"":5}","[0]","../img/tt/599tt.jpg","",""
"null","<div style=""font-size:60px;""> </div>","null","fixation","html-keyboard-response","398","1223346","0.0-6.0-0.56","2856253","co38476","norming","","","","","","",""
"null","../img/tt/353tt.jpg","null","mooney1","image-keyboard-response","399","1226350","0.0-6.0-1.56","2856253","co38476","norming","","","","","","",""
"4153.014999999898","","","post_mooney1_questions","survey-likert","400","1230507","0.0-6.0-2.56","2856253","co38476","norming","","","{""curiosity"":5,""confidence"":3}","[0,1]","../img/tt/353tt.jpg","",""
"5230.139999999665","","","recognition","survey-text","401","1235739","0.0-6.0-3.56","2856253","co38476","norming","","","{""guess"":""pingung""}","","../img/tt/353tt.jpg","",""
"null","../img/gs/353gs.jpg","null","reveal","image-keyboard-response","402","1237746","0.0-6.0-4.56","2856253","co38476","norming","","","","","","",""
"null","../img/tt/353tt.jpg","null","mooney2","image-keyboard-response","403","1239748","0.0-6.0-5.56","2856253","co38476","norming","","","","","","",""
"1572.1999999999534","","","post_reveal_questions","survey-likert","404","1241323","0.0-6.0-6.56","2856253","co38476","norming","","","{""aha"":5}","[0]","../img/tt/353tt.jpg","",""
"null","<div style=""font-size:60px;""> </div>","null","fixation","html-keyboard-response","405","1241530","0.0-6.0-0.57","2856253","co38476","norming","","","","","","",""
"null","../img/tt/1161tt.jpg","null","mooney1","image-keyboard-response","406","1244540","0.0-6.0-1.57","2856253","co38476","norming","","","","","","",""
"2853.154999999795","","","post_mooney1_questions","survey-likert","407","1247395","0.0-6.0-2.57","2856253","co38476","norming","","","{""curiosity"":6,""confidence"":0}","[0,1]","../img/tt/1161tt.jpg","",""
"478.0450000001583","","","recognition","survey-text","408","1247875","0.0-6.0-3.57","2856253","co38476","norming","","","{""guess"":""""}","","../img/tt/1161tt.jpg","",""
"null","../img/gs/1161gs.jpg","null","reveal","image-keyboard-response","409","1249884","0.0-6.0-4.57","2856253","co38476","norming","","","","","","",""
"null","../img/tt/1161tt.jpg","null","mooney2","image-keyboard-response","410","1251886","0.0-6.0-5.57","2856253","co38476","norming","","","","","","",""
"2146.3850000000093","","","post_reveal_questions","survey-likert","411","1254035","0.0-6.0-6.57","2856253","co38476","norming","","","{""aha"":3}","[0]","../img/tt/1161tt.jpg","",""
"null","<div style=""font-size:60px;""> </div>","null","fixation","html-keyboard-response","412","1254236","0.0-6.0-0.58","2856253","co38476","norming","","","","","","",""
"null","../img/tt/1270tt.jpg","null","mooney1","image-keyboard-response","413","1257239","0.0-6.0-1.58","2856253","co38476","norming","","","","","","",""
"2480.230000000214","","","post_mooney1_questions","survey-likert","414","1259723","0.0-6.0-2.58","2856253","co38476","norming","","","{""curiosity"":6,""confidence"":0}","[0,1]","../img/tt/1270tt.jpg","",""
"494.0999999998603","","","recognition","survey-text","415","1260219","0.0-6.0-3.58","2856253","co38476","norming","","","{""guess"":""""}","","../img/tt/1270tt.jpg","",""
"null","../img/gs/1270gs.jpg","null","reveal","image-keyboard-response","416","1262226","0.0-6.0-4.58","2856253","co38476","norming","","","","","","",""
"null","../img/tt/1270tt.jpg","null","mooney2","image-keyboard-response","417","1264235","0.0-6.0-5.58","2856253","co38476","norming","","","","","","",""
"2597.019999999786","","","post_reveal_questions","survey-likert","418","1266835","0.0-6.0-6.58","2856253","co38476","norming","","","{""aha"":1}","[0]","../img/tt/1270tt.jpg","",""
"null","<div style=""font-size:60px;""> </div>","null","fixation","html-keyboard-response","419","1267039","0.0-6.0-0.59","2856253","co38476","norming","","","","","","",""
"null","../img/tt/315tt.jpg","null","mooney1","image-keyboard-response","420","1270049","0.0-6.0-1.59","2856253","co38476","norming","","","","","","",""
"2381.875","","","post_mooney1_questions","survey-likert","421","1272435","0.0-6.0-2.59","2856253","co38476","norming","","","{""curiosity"":6,""confidence"":0}","[0,1]","../img/tt/315tt.jpg","",""
"1054.1149999999907","","","recognition","survey-text","422","1273490","0.0-6.0-3.59","2856253","co38476","norming","","","{""guess"":""""}","","../img/tt/315tt.jpg","",""
"null","../img/gs/315gs.jpg","null","reveal","image-keyboard-response","423","1275499","0.0-6.0-4.59","2856253","co38476","norming","","","","","","",""
"null","../img/tt/315tt.jpg","null","mooney2","image-keyboard-response","424","1277510","0.0-6.0-5.59","2856253","co38476","norming","","","","","","",""
"3617.814999999944","","","post_reveal_questions","survey-likert","425","1281130","0.0-6.0-6.59","2856253","co38476","norming","","","{""aha"":6}","[0]","../img/tt/315tt.jpg","",""
"null","<div style=""font-size:60px;""> </div>","null","fixation","html-keyboard-response","426","1281336","0.0-6.0-0.60","2856253","co38476","norming","","","","","","",""
"null","../img/tt/1080tt.jpg","null","mooney1","image-keyboard-response","427","1284345","0.0-6.0-1.60","2856253","co38476","norming","","","","","","",""
"3326.465000000084","","","post_mooney1_questions","survey-likert","428","1287675","0.0-6.0-2.60","2856253","co38476","norming","","","{""curiosity"":6,""confidence"":0}","[0,1]","../img/tt/1080tt.jpg","",""
"565.8100000000559","","","recognition","survey-text","429","1288242","0.0-6.0-3.60","2856253","co38476","norming","","","{""guess"":""""}","","../img/tt/1080tt.jpg","",""
"null","../img/gs/1080gs.jpg","null","reveal","image-keyboard-response","430","1290253","0.0-6.0-4.60","2856253","co38476","norming","","","","","","",""
"null","../img/tt/1080tt.jpg","null","mooney2","image-keyboard-response","431","1292254","0.0-6.0-5.60","2856253","co38476","norming","","","","","","",""
"1497.5600000002887","","","post_reveal_questions","survey-likert","432","1293755","0.0-6.0-6.60","2856253","co38476","norming","","","{""aha"":6}","[0]","../img/tt/1080tt.jpg","",""
"null","<div style=""font-size:60px;""> </div>","null","fixation","html-keyboard-response","433","1293959","0.0-6.0-0.61","2856253","co38476","norming","","","","","","",""
"null","../img/tt/1066tt.jpg","null","mooney1","image-keyboard-response","434","1296972","0.0-6.0-1.61","2856253","co38476","norming","","","","","","",""
"4255.989999999525","","","post_mooney1_questions","survey-likert","435","1301231","0.0-6.0-2.61","2856253","co38476","norming","","","{""curiosity"":4,""confidence"":6}","[0,1]","../img/tt/1066tt.jpg","",""
"1918.195000000298","","","recognition","survey-text","436","1303151","0.0-6.0-3.61","2856253","co38476","norming","","","{""guess"":""bus""}","","../img/tt/1066tt.jpg","",""
"null","../img/gs/1066gs.jpg","null","reveal","image-keyboard-response","437","1305155","0.0-6.0-4.61","2856253","co38476","norming","","","","","","",""
"null","../img/tt/1066tt.jpg","null","mooney2","image-keyboard-response","438","1307157","0.0-6.0-5.61","2856253","co38476","norming","","","","","","",""
"1383.1699999999255","","","post_reveal_questions","survey-likert","439","1308543","0.0-6.0-6.61","2856253","co38476","norming","","","{""aha"":6}","[0]","../img/tt/1066tt.jpg","",""
"null","<div style=""font-size:60px;""> </div>","null","fixation","html-keyboard-response","440","1308753","0.0-6.0-0.62","2856253","co38476","norming","","","","","","",""
"null","../img/tt/1205tt.jpg","null","mooney1","image-keyboard-response","441","1311761","0.0-6.0-1.62","2856253","co38476","norming","","","","","","",""
"6026.604999999981","","","post_mooney1_questions","survey-likert","442","1317791","0.0-6.0-2.62","2856253","co38476","norming","","","{""curiosity"":4,""confidence"":0}","[0,1]","../img/tt/1205tt.jpg","",""
"958.035000000149","","","recognition","survey-text","443","1318751","0.0-6.0-3.62","2856253","co38476","norming","","","{""guess"":""""}","","../img/tt/1205tt.jpg","",""
"null","../img/gs/1205gs.jpg","null","reveal","image-keyboard-response","444","1320754","0.0-6.0-4.62","2856253","co38476","norming","","","","","","",""
"null","../img/tt/1205tt.jpg","null","mooney2","image-keyboard-response","445","1322762","0.0-6.0-5.62","2856253","co38476","norming","","","","","","",""
"1362.9499999997206","","","post_reveal_questions","survey-likert","446","1324127","0.0-6.0-6.62","2856253","co38476","norming","","","{""aha"":6}","[0]","../img/tt/1205tt.jpg","",""
"null","<div style=""font-size:60px;""> </div>","null","fixation","html-keyboard-response","447","1324336","0.0-6.0-0.63","2856253","co38476","norming","","","","","","",""
"null","../img/tt/584tt.jpg","null","mooney1","image-keyboard-response","448","1327341","0.0-6.0-1.63","2856253","co38476","norming","","","","","","",""
"4470.194999999832","","","post_mooney1_questions","survey-likert","449","1331815","0.0-6.0-2.63","2856253","co38476","norming","","","{""curiosity"":6,""confidence"":0}","[0,1]","../img/tt/584tt.jpg","",""
"1926.0450000001583","","","recognition","survey-text","450","1333742","0.0-6.0-3.63","2856253","co38476","norming","","","{""guess"":""vrienden""}","","../img/tt/584tt.jpg","",""
"null","../img/gs/584gs.jpg","null","reveal","image-keyboard-response","451","1335753","0.0-6.0-4.63","2856253","co38476","norming","","","","","","",""
"null","../img/tt/584tt.jpg","null","mooney2","image-keyboard-response","452","1337762","0.0-6.0-5.63","2856253","co38476","norming","","","","","","",""
"3458.4499999999534","","","post_reveal_questions","survey-likert","453","1341223","0.0-6.0-6.63","2856253","co38476","norming","","","{""aha"":6}","[0]","../img/tt/584tt.jpg","",""
"null","<div style=""font-size:60px;""> </div>","null","fixation","html-keyboard-response","454","1341425","0.0-6.0-0.64","2856253","co38476","norming","","","","","","",""
"null","../img/tt/1097tt.jpg","null","mooney1","image-keyboard-response","455","1344432","0.0-6.0-1.64","2856253","co38476","norming","","","","","","",""
"3789.600000000093","","","post_mooney1_questions","survey-likert","456","1348223","0.0-6.0-2.64","2856253","co38476","norming","","","{""curiosity"":5,""confidence"":1}","[0,1]","../img/tt/1097tt.jpg","",""
"1198.1799999999348","","","recognition","survey-text","457","1349423","0.0-6.0-3.64","2856253","co38476","norming","","","{""guess"":""boer""}","","../img/tt/1097tt.jpg","",""
"null","../img/gs/1097gs.jpg","null","reveal","image-keyboard-response","458","1351434","0.0-6.0-4.64","2856253","co38476","norming","","","","","","",""
"null","../img/tt/1097tt.jpg","null","mooney2","image-keyboard-response","459","1353437","0.0-6.0-5.64","2856253","co38476","norming","","","","","","",""
"2510.874999999767","","","post_reveal_questions","survey-likert","460","1355951","0.0-6.0-6.64","2856253","co38476","norming","","","{""aha"":6}","[0]","../img/tt/1097tt.jpg","",""
"null","<div style=""font-size:60px;""> </div>","null","fixation","html-keyboard-response","461","1356156","0.0-6.0-0.65","2856253","co38476","norming","","","","","","",""
"null","../img/tt/080tt.jpg","null","mooney1","image-keyboard-response","462","1359165","0.0-6.0-1.65","2856253","co38476","norming","","","","","","",""
"5369.530000000261","","","post_mooney1_questions","survey-likert","463","1364537","0.0-6.0-2.65","2856253","co38476","norming","","","{""curiosity"":6,""confidence"":2}","[0,1]","../img/tt/080tt.jpg","",""
"2470.5200000002515","","","recognition","survey-text","464","1367009","0.0-6.0-3.65","2856253","co38476","norming","","","{""guess"":""tulp""}","","../img/tt/080tt.jpg","",""
"null","../img/gs/080gs.jpg","null","reveal","image-keyboard-response","465","1369010","0.0-6.0-4.65","2856253","co38476","norming","","","","","","",""
"null","../img/tt/080tt.jpg","null","mooney2","image-keyboard-response","466","1371021","0.0-6.0-5.65","2856253","co38476","norming","","","","","","",""
"1696.7700000000186","","","post_reveal_questions","survey-likert","467","1372721","0.0-6.0-6.65","2856253","co38476","norming","","","{""aha"":6}","[0]","../img/tt/080tt.jpg","",""
"null","<div style=""font-size:60px;""> </div>","null","fixation","html-keyboard-response","468","1372925","0.0-6.0-0.66","2856253","co38476","norming","","","","","","",""
"null","../img/tt/319tt.jpg","null","mooney1","image-keyboard-response","469","1375933","0.0-6.0-1.66","2856253","co38476","norming","","","","","","",""
"4384.790000000037","","","post_mooney1_questions","survey-likert","470","1380321","0.0-6.0-2.66","2856253","co38476","norming","","","{""curiosity"":6,""confidence"":0}","[0,1]","../img/tt/319tt.jpg","",""
"1421.7549999998882","","","recognition","survey-text","471","1381745","0.0-6.0-3.66","2856253","co38476","norming","","","{""guess"":""koeien""}","","../img/tt/319tt.jpg","",""
"null","../img/gs/319gs.jpg","null","reveal","image-keyboard-response","472","1383755","0.0-6.0-4.66","2856253","co38476","norming","","","","","","",""
"null","../img/tt/319tt.jpg","null","mooney2","image-keyboard-response","473","1385757","0.0-6.0-5.66","2856253","co38476","norming","","","","","","",""
"1321.369999999646","","","post_reveal_questions","survey-likert","474","1387081","0.0-6.0-6.66","2856253","co38476","norming","","","{""aha"":6}","[0]","../img/tt/319tt.jpg","",""
"null","<div style=""font-size:60px;""> </div>","null","fixation","html-keyboard-response","475","1387290","0.0-6.0-0.67","2856253","co38476","norming","","","","","","",""
"null","../img/tt/112tt.jpg","null","mooney1","image-keyboard-response","476","1390296","0.0-6.0-1.67","2856253","co38476","norming","","","","","","",""
"4085.320000000065","","","post_mooney1_questions","survey-likert","477","1394385","0.0-6.0-2.67","2856253","co38476","norming","","","{""curiosity"":6,""confidence"":0}","[0,1]","../img/tt/112tt.jpg","",""
"837.4949999996461","","","recognition","survey-text","478","1395225","0.0-6.0-3.67","2856253","co38476","norming","","","{""guess"":""""}","","../img/tt/112tt.jpg","",""
"null","../img/gs/112gs.jpg","null","reveal","image-keyboard-response","479","1397229","0.0-6.0-4.67","2856253","co38476","norming","","","","","","",""
"null","../img/tt/112tt.jpg","null","mooney2","image-keyboard-response","480","1399232","0.0-6.0-5.67","2856253","co38476","norming","","","","","","",""
"1542.6399999996647","","","post_reveal_questions","survey-likert","481","1400777","0.0-6.0-6.67","2856253","co38476","norming","","","{""aha"":1}","[0]","../img/tt/112tt.jpg","",""
"null","<div style=""font-size:60px;""> </div>","null","fixation","html-keyboard-response","482","1400986","0.0-6.0-0.68","2856253","co38476","norming","","","","","","",""
"null","../img/tt/1151tt.jpg","null","mooney1","image-keyboard-response","483","1403992","0.0-6.0-1.68","2856253","co38476","norming","","","","","","",""
"3132.744999999879","","","post_mooney1_questions","survey-likert","484","1407129","0.0-6.0-2.68","2856253","co38476","norming","","","{""curiosity"":6,""confidence"":0}","[0,1]","../img/tt/1151tt.jpg","",""
"469.0999999998603","","","recognition","survey-text","485","1407601","0.0-6.0-3.68","2856253","co38476","norming","","","{""guess"":""""}","","../img/tt/1151tt.jpg","",""
"null","../img/gs/1151gs.jpg","null","reveal","image-keyboard-response","486","1409610","0.0-6.0-4.68","2856253","co38476","norming","","","","","","",""
"null","../img/tt/1151tt.jpg","null","mooney2","image-keyboard-response","487","1411613","0.0-6.0-5.68","2856253","co38476","norming","","","","","","",""
"1465.4650000000838","","","post_reveal_questions","survey-likert","488","1413081","0.0-6.0-6.68","2856253","co38476","norming","","","{""aha"":0}","[0]","../img/tt/1151tt.jpg","",""
"null","<div style=""font-size:60px;""> </div>","null","fixation","html-keyboard-response","489","1413288","0.0-6.0-0.69","2856253","co38476","norming","","","","","","",""
"null","../img/tt/418tt.jpg","null","mooney1","image-keyboard-response","490","1416298","0.0-6.0-1.69","2856253","co38476","norming","","","","","","",""
"4179.0449999999255","","","post_mooney1_questions","survey-likert","491","1420474","0.0-6.0-2.69","2856253","co38476","norming","","","{""curiosity"":5,""confidence"":0}","[0,1]","../img/tt/418tt.jpg","",""
"966.2100000001956","","","recognition","survey-text","492","1421442","0.0-6.0-3.69","2856253","co38476","norming","","","{""guess"":""""}","","../img/tt/418tt.jpg","",""
"null","../img/gs/418gs.jpg","null","reveal","image-keyboard-response","493","1423450","0.0-6.0-4.69","2856253","co38476","norming","","","","","","",""
"null","../img/tt/418tt.jpg","null","mooney2","image-keyboard-response","494","1425452","0.0-6.0-5.69","2856253","co38476","norming","","","","","","",""
"1459.4899999999907","","","post_reveal_questions","survey-likert","495","1426915","0.0-6.0-6.69","2856253","co38476","norming","","","{""aha"":0}","[0]","../img/tt/418tt.jpg","",""
"null","<div style=""font-size:60px;""> </div>","null","fixation","html-keyboard-response","496","1427118","0.0-6.0-0.70","2856253","co38476","norming","","","","","","",""
"null","../img/tt/1118tt.jpg","null","mooney1","image-keyboard-response","497","1430122","0.0-6.0-1.70","2856253","co38476","norming","","","","","","",""
"3252.75","","","post_mooney1_questions","survey-likert","498","1433378","0.0-6.0-2.70","2856253","co38476","norming","","","{""curiosity"":6,""confidence"":0}","[0,1]","../img/tt/1118tt.jpg","",""
"421.8900000001304","","","recognition","survey-text","499","1433802","0.0-6.0-3.70","2856253","co38476","norming","","","{""guess"":""""}","","../img/tt/1118tt.jpg","",""
"null","../img/gs/1118gs.jpg","null","reveal","image-keyboard-response","500","1435806","0.0-6.0-4.70","2856253","co38476","norming","","","","","","",""
"null","../img/tt/1118tt.jpg","null","mooney2","image-keyboard-response","501","1437810","0.0-6.0-5.70","2856253","co38476","norming","","","","","","",""
"3381.030000000028","","","post_reveal_questions","survey-likert","502","1441194","0.0-6.0-6.70","2856253","co38476","norming","","","{""aha"":5}","[0]","../img/tt/1118tt.jpg","",""
"null","<div style=""font-size:60px;""> </div>","null","fixation","html-keyboard-response","503","1441403","0.0-6.0-0.71","2856253","co38476","norming","","","","","","",""
"null","../img/tt/010tt.jpg","null","mooney1","image-keyboard-response","504","1444407","0.0-6.0-1.71","2856253","co38476","norming","","","","","","",""
"3023.369999999879","","","post_mooney1_questions","survey-likert","505","1447434","0.0-6.0-2.71","2856253","co38476","norming","","","{""curiosity"":6,""confidence"":0}","[0,1]","../img/tt/010tt.jpg","",""
"422.0299999997951","","","recognition","survey-text","506","1447858","0.0-6.0-3.71","2856253","co38476","norming","","","{""guess"":""""}","","../img/tt/010tt.jpg","",""
"null","../img/gs/010gs.jpg","null","reveal","image-keyboard-response","507","1449861","0.0-6.0-4.71","2856253","co38476","norming","","","","","","",""
"null","../img/tt/010tt.jpg","null","mooney2","image-keyboard-response","508","1451870","0.0-6.0-5.71","2856253","co38476","norming","","","","","","",""
"3001.304999999702","","","post_reveal_questions","survey-likert","509","1454874","0.0-6.0-6.71","2856253","co38476","norming","","","{""aha"":1}","[0]","../img/tt/010tt.jpg","",""
"null","<div style=""font-size:60px;""> </div>","null","fixation","html-keyboard-response","510","1455082","0.0-6.0-0.72","2856253","co38476","norming","","","","","","",""
"null","../img/tt/522tt.jpg","null","mooney1","image-keyboard-response","511","1458093","0.0-6.0-1.72","2856253","co38476","norming","","","","","","",""
"3793.309999999823","","","post_mooney1_questions","survey-likert","512","1461890","0.0-6.0-2.72","2856253","co38476","norming","","","{""curiosity"":5,""confidence"":0}","[0,1]","../img/tt/522tt.jpg","",""
"637.9000000001397","","","recognition","survey-text","513","1462530","0.0-6.0-3.72","2856253","co38476","norming","","","{""guess"":""""}","","../img/tt/522tt.jpg","",""
"null","../img/gs/522gs.jpg","null","reveal","image-keyboard-response","514","1464533","0.0-6.0-4.72","2856253","co38476","norming","","","","","","",""
"null","../img/tt/522tt.jpg","null","mooney2","image-keyboard-response","515","1466535","0.0-6.0-5.72","2856253","co38476","norming","","","","","","",""
"1425.9799999999814","","","post_reveal_questions","survey-likert","516","1467962","0.0-6.0-6.72","2856253","co38476","norming","","","{""aha"":6}","[0]","../img/tt/522tt.jpg","",""
"null","<div style=""font-size:60px;""> </div>","null","fixation","html-keyboard-response","517","1468171","0.0-6.0-0.73","2856253","co38476","norming","","","","","","",""
"null","../img/tt/1069tt.jpg","null","mooney1","image-keyboard-response","518","1471183","0.0-6.0-1.73","2856253","co38476","norming","","","","","","",""
"2944.219999999972","","","post_mooney1_questions","survey-likert","519","1474130","0.0-6.0-2.73","2856253","co38476","norming","","","{""curiosity"":5,""confidence"":0}","[0,1]","../img/tt/1069tt.jpg","",""
"781.9300000001676","","","recognition","survey-text","520","1474914","0.0-6.0-3.73","2856253","co38476","norming","","","{""guess"":""""}","","../img/tt/1069tt.jpg","",""
"null","../img/gs/1069gs.jpg","null","reveal","image-keyboard-response","521","1476917","0.0-6.0-4.73","2856253","co38476","norming","","","","","","",""
"null","../img/tt/1069tt.jpg","null","mooney2","image-keyboard-response","522","1478921","0.0-6.0-5.73","2856253","co38476","norming","","","","","","",""
"1165.815000000177","","","post_reveal_questions","survey-likert","523","1480099","0.0-6.0-6.73","2856253","co38476","norming","","","{""aha"":1}","[0]","../img/tt/1069tt.jpg","",""
"null","<div style=""font-size:60px;""> </div>","null","fixation","html-keyboard-response","524","1480300","0.0-6.0-0.74","2856253","co38476","norming","","","","","","",""
"null","../img/tt/053tt.jpg","null","mooney1","image-keyboard-response","525","1483311","0.0-6.0-1.74","2856253","co38476","norming","","","","","","",""
"3353.0800000003073","","","post_mooney1_questions","survey-likert","526","1486667","0.0-6.0-2.74","2856253","co38476","norming","","","{""curiosity"":5,""confidence"":0}","[0,1]","../img/tt/053tt.jpg","",""
"733.9950000001118","","","recognition","survey-text","527","1487403","0.0-6.0-3.74","2856253","co38476","norming","","","{""guess"":""""}","","../img/tt/053tt.jpg","",""
"null","../img/gs/053gs.jpg","null","reveal","image-keyboard-response","528","1489410","0.0-6.0-4.74","2856253","co38476","norming","","","","","","",""
"null","../img/tt/053tt.jpg","null","mooney2","image-keyboard-response","529","1491419","0.0-6.0-5.74","2856253","co38476","norming","","","","","","",""
"1549.744999999879","","","post_reveal_questions","survey-likert","530","1492971","0.0-6.0-6.74","2856253","co38476","norming","","","{""aha"":4}","[0]","../img/tt/053tt.jpg","",""
"null","<div style=""font-size:60px;""> </div>","null","fixation","html-keyboard-response","531","1493178","0.0-6.0-0.75","2856253","co38476","norming","","","","","","",""
"null","../img/tt/008tt.jpg","null","mooney1","image-keyboard-response","532","1496190","0.0-6.0-1.75","2856253","co38476","norming","","","","","","",""
"4601.679999999702","","","post_mooney1_questions","survey-likert","533","1500796","0.0-6.0-2.75","2856253","co38476","norming","","","{""curiosity"":6,""confidence"":0}","[0,1]","../img/tt/008tt.jpg","",""
"2086.1100000001024","","","recognition","survey-text","534","1502883","0.0-6.0-3.75","2856253","co38476","norming","","","{""guess"":""geweer""}","","../img/tt/008tt.jpg","",""
"null","../img/gs/008gs.jpg","null","reveal","image-keyboard-response","535","1504888","0.0-6.0-4.75","2856253","co38476","norming","","","","","","",""
"null","../img/tt/008tt.jpg","null","mooney2","image-keyboard-response","536","1506889","0.0-6.0-5.75","2856253","co38476","norming","","","","","","",""
"3294.9799999995157","","","post_reveal_questions","survey-likert","537","1510187","0.0-6.0-6.75","2856253","co38476","norming","","","{""aha"":6}","[0]","../img/tt/008tt.jpg","",""
"null","<div style=""font-size:60px;""> </div>","null","fixation","html-keyboard-response","538","1510389","0.0-6.0-0.76","2856253","co38476","norming","","","","","","",""
"null","../img/tt/1148tt.jpg","null","mooney1","image-keyboard-response","539","1513401","0.0-6.0-1.76","2856253","co38476","norming","","","","","","",""
"11078.370000000112","","","post_mooney1_questions","survey-likert","540","1524483","0.0-6.0-2.76","2856253","co38476","norming","","","{""curiosity"":5,""confidence"":2}","[0,1]","../img/tt/1148tt.jpg","",""
"2606.100000000093","","","recognition","survey-text","541","1527091","0.0-6.0-3.76","2856253","co38476","norming","","","{""guess"":""kanovaren""}","","../img/tt/1148tt.jpg","",""
"null","../img/gs/1148gs.jpg","null","reveal","image-keyboard-response","542","1529093","0.0-6.0-4.76","2856253","co38476","norming","","","","","","",""
"null","../img/tt/1148tt.jpg","null","mooney2","image-keyboard-response","543","1531103","0.0-6.0-5.76","2856253","co38476","norming","","","","","","",""
"2665.739999999758","","","post_reveal_questions","survey-likert","544","1533771","0.0-6.0-6.76","2856253","co38476","norming","","","{""aha"":6}","[0]","../img/tt/1148tt.jpg","",""
"null","<div style=""font-size:60px;""> </div>","null","fixation","html-keyboard-response","545","1533975","0.0-6.0-0.77","2856253","co38476","norming","","","","","","",""
"null","../img/tt/1033tt.jpg","null","mooney1","image-keyboard-response","546","1536983","0.0-6.0-1.77","2856253","co38476","norming","","","","","","",""
"4344.369999999879","","","post_mooney1_questions","survey-likert","547","1541328","0.0-6.0-2.77","2856253","co38476","norming","","","{""curiosity"":6,""confidence"":0}","[0,1]","../img/tt/1033tt.jpg","",""
"2174.0100000000093","","","recognition","survey-text","548","1543504","0.0-6.0-3.77","2856253","co38476","norming","","","{""guess"":""pijl""}","","../img/tt/1033tt.jpg","",""
"null","../img/gs/1033gs.jpg","null","reveal","image-keyboard-response","549","1545510","0.0-6.0-4.77","2856253","co38476","norming","","","","","","",""
"null","../img/tt/1033tt.jpg","null","mooney2","image-keyboard-response","550","1547521","0.0-6.0-5.77","2856253","co38476","norming","","","","","","",""
"2171.0849999999627","","","post_reveal_questions","survey-likert","551","1549695","0.0-6.0-6.77","2856253","co38476","norming","","","{""aha"":3}","[0]","../img/tt/1033tt.jpg","",""
"null","<div style=""font-size:60px;""> </div>","null","fixation","html-keyboard-response","552","1549904","0.0-6.0-0.78","2856253","co38476","norming","","","","","","",""
"null","../img/tt/1272tt.jpg","null","mooney1","image-keyboard-response","553","1552913","0.0-6.0-1.78","2856253","co38476","norming","","","","","","",""
