"rt","stimulus","key_press","test_part","trial_type","trial_index","time_elapsed","internal_node_id","totalTime","subject","experiment_name","button_pressed","success","responses","question_order","currentStim","old","correct"
"15308.400000000007","Welcome to the experiment. This is an online experiment so please don't close the tab/window until we say goodbye.  Press any key to begin.","13","instructions","html-keyboard-response","0","15311","0.0-0.0","2928937","co38419","norming","","","","","","",""
"37110.79000000001","<div style='word-wrap: break-word; width: 900px'><h3>Please consider this information carefully before deciding whether to participate in this research</h3><ul style='text-align: left; font-size: .8em;'><li><b>Purpose of the research</b>: To examine how people process images.</li><li><b>What you will do in this research</b>:  Stimuli (images) will be presented on the computer and you will be asked different questions about them.</li><li><b>Time required</b>: Participation will take between 45 and 60 minutes to complete.</li><li><b>Risks</b>:  There are no anticipated risks associated with participating in this study. The effects of participating should be comparable to those you would experience from viewing a computer monitor for 30 minutes and using a mouse or keyboard.</li><li><b>Benefits</b>:  This study provides no benefits to you individually except for the credit. The study provides important information about the nature of perception and learning.</li><li><b>Confidentiality</b>:  Your participation in this study will remain confidential. No personally identifiable information will be associated with your data. Your de-identified data may be shared with other researchers and used in future projects.</li><li><b>Participation and withdrawal</b>:  Your participation in this study is completely voluntary and you may refuse to participate or you may choose to withdraw at any time without penalty.</li><li><b>How to contact the researchers</b>: If you have questions or concerns about your participation or payment, or want to request a summary of research findings, please contact Sander Van de Cruys (KU Leuven), at sander.vandecruys@kuleuven.be.</li></ul><p>The nature and purpose of this research have been sufficiently explained and I agree to participate in this study.  I understand that I am free to withdraw at any time without incurring any penalty.</p><p>Please consent by clicking the button below to continue. Otherwise, please exit the study at this time.</p></div>","","instructions","html-button-response","1","52423","0.0-1.0","2928937","co38419","norming","0","","","","","",""
"","","","instructions","fullscreen","2","59326","0.0-2.0","2928937","co38419","norming","","true","","","","",""
"26752.119999999995","","","sona","survey-html-form","3","86072","0.0-3.0","2928937","co38419","norming","","","[{""name"":""sonaid"",""value"":""38419""},{""name"":""debrief"",""value"":""no""},{""name"":""datajoin"",""value"":""yes""}]","","","",""
"9342.590000000011","<div style='word-wrap: break-word; width: 900px'><h3>Instructions</h3><p>This experiment will have 3 parts. In the first part you will see a series of distorted images like the one below on the left. As you can see in the righthand image, the distorted images are derived from actual photographs. In what follows, you will <strong>briefly</strong> be presented with <strong>only</strong> the distorted image.</p> <div style='float: left; margin-right: 20px;'><img src='../img/018tt.jpg' height='250' width='250'></img></div><div style='float: right; margin-left: 20px;'><img src='../img/018gs.jpg' height='250' width='250'></img></div><p>Subsequently you will be asked a few questions about the image: One question on how <strong>curious</strong> you are about the solution and one on how <strong>confident</strong> you are that you know the solution.</p>Next, we ask you to make a guess on what is in the image. Note that it is OK to name just the <strong>basic level category</strong>. For example when you see a parrot in the image, 'parrot' will obviously be a correct answer but also correct is 'bird'. However, 'animal' will <strong>not</strong> be counted as a correct response. For the example above, 'rose' would be correct or 'flower', but not 'plant'. When soccer players are depicted, 'soccer', 'football', 'soccer players' will be correct, but not 'humans', 'outdoors', or 'sports'. You do not need to describe the image in full, just name the main object in it <strong>in one or two words</strong>. All images depict objects from one of the following broad level categories: animals, inanimate objects, plants, sports, vehicles, and food. Recognizing means knowing <strong>more</strong> than these broad labels for a given image. But we always encourage you to <strong>make a guess</strong> if you can. Note that you are allowed to use <strong>Dutch and English</strong> in your answers, whatever comes easiest for you.</p><p>Press any key to continue.</p></div>","173","instructions","html-keyboard-response","4","95416","0.0-4.0","2928937","co38419","norming","","","","","","",""
"176895.09500000003","<div style='word-wrap: break-word; width: 900px'><h3>Instructions</h3> <p>Next, the solution image will be revealed to you and you'll be asked to indicate how strong your <strong>aha-experience</strong> was after seeing the solution. This describes the positive feeling of the 'click' you sometimes experience, when the pieces of the 'puzzle' fall together and you suddenly have 'insight' in the image.</p><img src='aha.jpg' height='188' width='250'></img><p>Note that there are no right or wrong answers. We are interested in what <strong>you</strong> see in the image and how <strong>you</strong> feel about it.</p><p>Press any key to start the experiment.</p></div>","32","instructions","html-keyboard-response","5","272367","0.0-5.0","2928937","co38419","norming","","","","","","",""
"null","<div style=""font-size:60px;""> </div>","null","fixation","html-keyboard-response","6","272575","0.0-6.0-0.0","2928937","co38419","norming","","","","","","",""
"null","../img/tt/1116tt.jpg","null","mooney1","image-keyboard-response","7","275589","0.0-6.0-1.0","2928937","co38419","norming","","","","","","",""
"10023.585000000021","","","post_mooney1_questions","survey-likert","8","285616","0.0-6.0-2.0","2928937","co38419","norming","","","{""curiosity"":4,""confidence"":0}","[0,1]","../img/tt/1116tt.jpg","",""
"6189.630000000005","","","recognition","survey-text","9","291807","0.0-6.0-3.0","2928937","co38419","norming","","","{""guess"":""werkplaats""}","","../img/tt/1116tt.jpg","",""
"null","../img/gs/1116gs.jpg","null","reveal","image-keyboard-response","10","293810","0.0-6.0-4.0","2928937","co38419","norming","","","","","","",""
"null","../img/tt/1116tt.jpg","null","mooney2","image-keyboard-response","11","295812","0.0-6.0-5.0","2928937","co38419","norming","","","","","","",""
"9320.899999999965","","","post_reveal_questions","survey-likert","12","305135","0.0-6.0-6.0","2928937","co38419","norming","","","{""aha"":2}","[0]","../img/tt/1116tt.jpg","",""
"null","<div style=""font-size:60px;""> </div>","null","fixation","html-keyboard-response","13","305344","0.0-6.0-0.1","2928937","co38419","norming","","","","","","",""
"null","../img/tt/1247tt.jpg","null","mooney1","image-keyboard-response","14","308347","0.0-6.0-1.1","2928937","co38419","norming","","","","","","",""
"6611.75","","","post_mooney1_questions","survey-likert","15","314959","0.0-6.0-2.1","2928937","co38419","norming","","","{""curiosity"":4,""confidence"":1}","[0,1]","../img/tt/1247tt.jpg","",""
"5614.170000000042","","","recognition","survey-text","16","320575","0.0-6.0-3.1","2928937","co38419","norming","","","{""guess"":""dier""}","","../img/tt/1247tt.jpg","",""
"null","../img/gs/1247gs.jpg","null","reveal","image-keyboard-response","17","322577","0.0-6.0-4.1","2928937","co38419","norming","","","","","","",""
"null","../img/tt/1247tt.jpg","null","mooney2","image-keyboard-response","18","324580","0.0-6.0-5.1","2928937","co38419","norming","","","","","","",""
"4872.875","","","post_reveal_questions","survey-likert","19","329455","0.0-6.0-6.1","2928937","co38419","norming","","","{""aha"":5}","[0]","../img/tt/1247tt.jpg","",""
"null","<div style=""font-size:60px;""> </div>","null","fixation","html-keyboard-response","20","329658","0.0-6.0-0.2","2928937","co38419","norming","","","","","","",""
"null","../img/tt/1353tt.jpg","null","mooney1","image-keyboard-response","21","332720","0.0-6.0-1.2","2928937","co38419","norming","","","","","","",""
"3649.2399999999907","","","post_mooney1_questions","survey-likert","22","336372","0.0-6.0-2.2","2928937","co38419","norming","","","{""curiosity"":4,""confidence"":4}","[0,1]","../img/tt/1353tt.jpg","",""
"6502.350000000035","","","recognition","survey-text","23","342876","0.0-6.0-3.2","2928937","co38419","norming","","","{""guess"":""paprika""}","","../img/tt/1353tt.jpg","",""
"null","../img/gs/1353gs.jpg","null","reveal","image-keyboard-response","24","344876","0.0-6.0-4.2","2928937","co38419","norming","","","","","","",""
"null","../img/tt/1353tt.jpg","null","mooney2","image-keyboard-response","25","346882","0.0-6.0-5.2","2928937","co38419","norming","","","","","","",""
"4688.085000000021","","","post_reveal_questions","survey-likert","26","351572","0.0-6.0-6.2","2928937","co38419","norming","","","{""aha"":2}","[0]","../img/tt/1353tt.jpg","",""
"null","<div style=""font-size:60px;""> </div>","null","fixation","html-keyboard-response","27","351773","0.0-6.0-0.3","2928937","co38419","norming","","","","","","",""
"null","../img/tt/1151tt.jpg","null","mooney1","image-keyboard-response","28","354779","0.0-6.0-1.3","2928937","co38419","norming","","","","","","",""
"4455.760000000009","","","post_mooney1_questions","survey-likert","29","359236","0.0-6.0-2.3","2928937","co38419","norming","","","{""curiosity"":5,""confidence"":1}","[0,1]","../img/tt/1151tt.jpg","",""
"5558.425000000047","","","recognition","survey-text","30","364796","0.0-6.0-3.3","2928937","co38419","norming","","","{""guess"":""""}","","../img/tt/1151tt.jpg","",""
"null","../img/gs/1151gs.jpg","null","reveal","image-keyboard-response","31","366798","0.0-6.0-4.3","2928937","co38419","norming","","","","","","",""
"null","../img/tt/1151tt.jpg","null","mooney2","image-keyboard-response","32","368799","0.0-6.0-5.3","2928937","co38419","norming","","","","","","",""
"3266.9250000000466","","","post_reveal_questions","survey-likert","33","372068","0.0-6.0-6.3","2928937","co38419","norming","","","{""aha"":4}","[0]","../img/tt/1151tt.jpg","",""
"null","<div style=""font-size:60px;""> </div>","null","fixation","html-keyboard-response","34","372274","0.0-6.0-0.4","2928937","co38419","norming","","","","","","",""
"null","../img/tt/1226tt.jpg","null","mooney1","image-keyboard-response","35","375283","0.0-6.0-1.4","2928937","co38419","norming","","","","","","",""
"4486.564999999886","","","post_mooney1_questions","survey-likert","36","379772","0.0-6.0-2.4","2928937","co38419","norming","","","{""curiosity"":4,""confidence"":4}","[0,1]","../img/tt/1226tt.jpg","",""
"3198.1699999999837","","","recognition","survey-text","37","382971","0.0-6.0-3.4","2928937","co38419","norming","","","{""guess"":""kip""}","","../img/tt/1226tt.jpg","",""
"null","../img/gs/1226gs.jpg","null","reveal","image-keyboard-response","38","384973","0.0-6.0-4.4","2928937","co38419","norming","","","","","","",""
"null","../img/tt/1226tt.jpg","null","mooney2","image-keyboard-response","39","386986","0.0-6.0-5.4","2928937","co38419","norming","","","","","","",""
"2992.3099999999395","","","post_reveal_questions","survey-likert","40","389980","0.0-6.0-6.4","2928937","co38419","norming","","","{""aha"":3}","[0]","../img/tt/1226tt.jpg","",""
"null","<div style=""font-size:60px;""> </div>","null","fixation","html-keyboard-response","41","390181","0.0-6.0-0.5","2928937","co38419","norming","","","","","","",""
"null","../img/tt/080tt.jpg","null","mooney1","image-keyboard-response","42","393241","0.0-6.0-1.5","2928937","co38419","norming","","","","","","",""
"3262.4650000000256","","","post_mooney1_questions","survey-likert","43","396505","0.0-6.0-2.5","2928937","co38419","norming","","","{""curiosity"":4,""confidence"":3}","[0,1]","../img/tt/080tt.jpg","",""
"2878.3299999998417","","","recognition","survey-text","44","399385","0.0-6.0-3.5","2928937","co38419","norming","","","{""guess"":""ei""}","","../img/tt/080tt.jpg","",""
"null","../img/gs/080gs.jpg","null","reveal","image-keyboard-response","45","401386","0.0-6.0-4.5","2928937","co38419","norming","","","","","","",""
"null","../img/tt/080tt.jpg","null","mooney2","image-keyboard-response","46","403388","0.0-6.0-5.5","2928937","co38419","norming","","","","","","",""
"1562.7200000000303","","","post_reveal_questions","survey-likert","47","404953","0.0-6.0-6.5","2928937","co38419","norming","","","{""aha"":5}","[0]","../img/tt/080tt.jpg","",""
"null","<div style=""font-size:60px;""> </div>","null","fixation","html-keyboard-response","48","405154","0.0-6.0-0.6","2928937","co38419","norming","","","","","","",""
"null","../img/tt/1205tt.jpg","null","mooney1","image-keyboard-response","49","408162","0.0-6.0-1.6","2928937","co38419","norming","","","","","","",""
"4764.489999999991","","","post_mooney1_questions","survey-likert","50","412929","0.0-6.0-2.6","2928937","co38419","norming","","","{""curiosity"":5,""confidence"":0}","[0,1]","../img/tt/1205tt.jpg","",""
"774","","","recognition","survey-text","51","413705","0.0-6.0-3.6","2928937","co38419","norming","","","{""guess"":""""}","","../img/tt/1205tt.jpg","",""
"null","../img/gs/1205gs.jpg","null","reveal","image-keyboard-response","52","415706","0.0-6.0-4.6","2928937","co38419","norming","","","","","","",""
"null","../img/tt/1205tt.jpg","null","mooney2","image-keyboard-response","53","417709","0.0-6.0-5.6","2928937","co38419","norming","","","","","","",""
"2322.085000000021","","","post_reveal_questions","survey-likert","54","420033","0.0-6.0-6.6","2928937","co38419","norming","","","{""aha"":1}","[0]","../img/tt/1205tt.jpg","",""
"null","<div style=""font-size:60px;""> </div>","null","fixation","html-keyboard-response","55","420235","0.0-6.0-0.7","2928937","co38419","norming","","","","","","",""
"null","../img/tt/1126tt.jpg","null","mooney1","image-keyboard-response","56","423241","0.0-6.0-1.7","2928937","co38419","norming","","","","","","",""
"6501.589999999967","","","post_mooney1_questions","survey-likert","57","429745","0.0-6.0-2.7","2928937","co38419","norming","","","{""curiosity"":5,""confidence"":1}","[0,1]","../img/tt/1126tt.jpg","",""
"3054.1699999999837","","","recognition","survey-text","58","432801","0.0-6.0-3.7","2928937","co38419","norming","","","{""guess"":""boom""}","","../img/tt/1126tt.jpg","",""
"null","../img/gs/1126gs.jpg","null","reveal","image-keyboard-response","59","434802","0.0-6.0-4.7","2928937","co38419","norming","","","","","","",""
"null","../img/tt/1126tt.jpg","null","mooney2","image-keyboard-response","60","436804","0.0-6.0-5.7","2928937","co38419","norming","","","","","","",""
"1986.4100000000326","","","post_reveal_questions","survey-likert","61","438792","0.0-6.0-6.7","2928937","co38419","norming","","","{""aha"":4}","[0]","../img/tt/1126tt.jpg","",""
"null","<div style=""font-size:60px;""> </div>","null","fixation","html-keyboard-response","62","438994","0.0-6.0-0.8","2928937","co38419","norming","","","","","","",""
"null","../img/tt/477tt.jpg","null","mooney1","image-keyboard-response","63","442000","0.0-6.0-1.8","2928937","co38419","norming","","","","","","",""
"4887.2200000000885","","","post_mooney1_questions","survey-likert","64","446889","0.0-6.0-2.8","2928937","co38419","norming","","","{""curiosity"":5,""confidence"":1}","[0,1]","../img/tt/477tt.jpg","",""
"606.085000000021","","","recognition","survey-text","65","447497","0.0-6.0-3.8","2928937","co38419","norming","","","{""guess"":""""}","","../img/tt/477tt.jpg","",""
"null","../img/gs/477gs.jpg","null","reveal","image-keyboard-response","66","449504","0.0-6.0-4.8","2928937","co38419","norming","","","","","","",""
"null","../img/tt/477tt.jpg","null","mooney2","image-keyboard-response","67","451505","0.0-6.0-5.8","2928937","co38419","norming","","","","","","",""
"2797.6849999999977","","","post_reveal_questions","survey-likert","68","454355","0.0-6.0-6.8","2928937","co38419","norming","","","{""aha"":3}","[0]","../img/tt/477tt.jpg","",""
"null","<div style=""font-size:60px;""> </div>","null","fixation","html-keyboard-response","69","454565","0.0-6.0-0.9","2928937","co38419","norming","","","","","","",""
"null","../img/tt/1200tt.jpg","null","mooney1","image-keyboard-response","70","457568","0.0-6.0-1.9","2928937","co38419","norming","","","","","","",""
"4096.635000000009","","","post_mooney1_questions","survey-likert","71","461667","0.0-6.0-2.9","2928937","co38419","norming","","","{""curiosity"":4,""confidence"":1}","[0,1]","../img/tt/1200tt.jpg","",""
"3797.585000000021","","","recognition","survey-text","72","465466","0.0-6.0-3.9","2928937","co38419","norming","","","{""guess"":""straat""}","","../img/tt/1200tt.jpg","",""
"null","../img/gs/1200gs.jpg","null","reveal","image-keyboard-response","73","467474","0.0-6.0-4.9","2928937","co38419","norming","","","","","","",""
"null","../img/tt/1200tt.jpg","null","mooney2","image-keyboard-response","74","469484","0.0-6.0-5.9","2928937","co38419","norming","","","","","","",""
"2509.219999999914","","","post_reveal_questions","survey-likert","75","471995","0.0-6.0-6.9","2928937","co38419","norming","","","{""aha"":4}","[0]","../img/tt/1200tt.jpg","",""
"null","<div style=""font-size:60px;""> </div>","null","fixation","html-keyboard-response","76","472196","0.0-6.0-0.10","2928937","co38419","norming","","","","","","",""
"null","../img/tt/1127tt.jpg","null","mooney1","image-keyboard-response","77","475205","0.0-6.0-1.10","2928937","co38419","norming","","","","","","",""
"4307.490000000049","","","post_mooney1_questions","survey-likert","78","479515","0.0-6.0-2.10","2928937","co38419","norming","","","{""curiosity"":4,""confidence"":3}","[0,1]","../img/tt/1127tt.jpg","",""
"3853.1650000000955","","","recognition","survey-text","79","483371","0.0-6.0-3.10","2928937","co38419","norming","","","{""guess"":""cafe""}","","../img/tt/1127tt.jpg","",""
"null","../img/gs/1127gs.jpg","null","reveal","image-keyboard-response","80","485379","0.0-6.0-4.10","2928937","co38419","norming","","","","","","",""
"null","../img/tt/1127tt.jpg","null","mooney2","image-keyboard-response","81","487381","0.0-6.0-5.10","2928937","co38419","norming","","","","","","",""
"2060.439999999944","","","post_reveal_questions","survey-likert","82","489443","0.0-6.0-6.10","2928937","co38419","norming","","","{""aha"":5}","[0]","../img/tt/1127tt.jpg","",""
"null","<div style=""font-size:60px;""> </div>","null","fixation","html-keyboard-response","83","489644","0.0-6.0-0.11","2928937","co38419","norming","","","","","","",""
"null","../img/tt/442tt.jpg","null","mooney1","image-keyboard-response","84","492650","0.0-6.0-1.11","2928937","co38419","norming","","","","","","",""
"4415.520000000019","","","post_mooney1_questions","survey-likert","85","497067","0.0-6.0-2.11","2928937","co38419","norming","","","{""curiosity"":4,""confidence"":1}","[0,1]","../img/tt/442tt.jpg","",""
"3718.109999999928","","","recognition","survey-text","86","500787","0.0-6.0-3.11","2928937","co38419","norming","","","{""guess"":""vlinder""}","","../img/tt/442tt.jpg","",""
"null","../img/gs/442gs.jpg","null","reveal","image-keyboard-response","87","502789","0.0-6.0-4.11","2928937","co38419","norming","","","","","","",""
"null","../img/tt/442tt.jpg","null","mooney2","image-keyboard-response","88","504798","0.0-6.0-5.11","2928937","co38419","norming","","","","","","",""
"2811.9150000000373","","","post_reveal_questions","survey-likert","89","507611","0.0-6.0-6.11","2928937","co38419","norming","","","{""aha"":1}","[0]","../img/tt/442tt.jpg","",""
"null","<div style=""font-size:60px;""> </div>","null","fixation","html-keyboard-response","90","507818","0.0-6.0-0.12","2928937","co38419","norming","","","","","","",""
"null","../img/tt/279tt.jpg","null","mooney1","image-keyboard-response","91","510826","0.0-6.0-1.12","2928937","co38419","norming","","","","","","",""
"3430.5100000000093","","","post_mooney1_questions","survey-likert","92","514259","0.0-6.0-2.12","2928937","co38419","norming","","","{""curiosity"":4,""confidence"":3}","[0,1]","../img/tt/279tt.jpg","",""
"3670.2949999999837","","","recognition","survey-text","93","517980","0.0-6.0-3.12","2928937","co38419","norming","","","{""guess"":""koala""}","","../img/tt/279tt.jpg","",""
"null","../img/gs/279gs.jpg","null","reveal","image-keyboard-response","94","519982","0.0-6.0-4.12","2928937","co38419","norming","","","","","","",""
"null","../img/tt/279tt.jpg","null","mooney2","image-keyboard-response","95","521983","0.0-6.0-5.12","2928937","co38419","norming","","","","","","",""
"2539.020000000077","","","post_reveal_questions","survey-likert","96","524524","0.0-6.0-6.12","2928937","co38419","norming","","","{""aha"":6}","[0]","../img/tt/279tt.jpg","",""
"null","<div style=""font-size:60px;""> </div>","null","fixation","html-keyboard-response","97","524726","0.0-6.0-0.13","2928937","co38419","norming","","","","","","",""
"null","../img/tt/1123tt.jpg","null","mooney1","image-keyboard-response","98","527733","0.0-6.0-1.13","2928937","co38419","norming","","","","","","",""
"5340.875","","","post_mooney1_questions","survey-likert","99","533076","0.0-6.0-2.13","2928937","co38419","norming","","","{""curiosity"":5,""confidence"":2}","[0,1]","../img/tt/1123tt.jpg","",""
"3574.259999999893","","","recognition","survey-text","100","536652","0.0-6.0-3.13","2928937","co38419","norming","","","{""guess"":""berg""}","","../img/tt/1123tt.jpg","",""
"null","../img/gs/1123gs.jpg","null","reveal","image-keyboard-response","101","538659","0.0-6.0-4.13","2928937","co38419","norming","","","","","","",""
"null","../img/tt/1123tt.jpg","null","mooney2","image-keyboard-response","102","540661","0.0-6.0-5.13","2928937","co38419","norming","","","","","","",""
"1517.3399999999674","","","post_reveal_questions","survey-likert","103","542180","0.0-6.0-6.13","2928937","co38419","norming","","","{""aha"":5}","[0]","../img/tt/1123tt.jpg","",""
"null","<div style=""font-size:60px;""> </div>","null","fixation","html-keyboard-response","104","542381","0.0-6.0-0.14","2928937","co38419","norming","","","","","","",""
"null","../img/tt/1146tt.jpg","null","mooney1","image-keyboard-response","105","545390","0.0-6.0-1.14","2928937","co38419","norming","","","","","","",""
"7155.604999999981","","","post_mooney1_questions","survey-likert","106","552548","0.0-6.0-2.14","2928937","co38419","norming","","","{""curiosity"":5,""confidence"":1}","[0,1]","../img/tt/1146tt.jpg","",""
"6621.994999999995","","","recognition","survey-text","107","559172","0.0-6.0-3.14","2928937","co38419","norming","","","{""guess"":""auto""}","","../img/tt/1146tt.jpg","",""
"null","../img/gs/1146gs.jpg","null","reveal","image-keyboard-response","108","561178","0.0-6.0-4.14","2928937","co38419","norming","","","","","","",""
"null","../img/tt/1146tt.jpg","null","mooney2","image-keyboard-response","109","563180","0.0-6.0-5.14","2928937","co38419","norming","","","","","","",""
"4261.875000000116","","","post_reveal_questions","survey-likert","110","567444","0.0-6.0-6.14","2928937","co38419","norming","","","{""aha"":4}","[0]","../img/tt/1146tt.jpg","",""
"null","<div style=""font-size:60px;""> </div>","null","fixation","html-keyboard-response","111","567645","0.0-6.0-0.15","2928937","co38419","norming","","","","","","",""
"null","../img/tt/084tt.jpg","null","mooney1","image-keyboard-response","112","570648","0.0-6.0-1.15","2928937","co38419","norming","","","","","","",""
"4827.265000000014","","","post_mooney1_questions","survey-likert","113","575478","0.0-6.0-2.15","2928937","co38419","norming","","","{""curiosity"":4,""confidence"":4}","[0,1]","../img/tt/084tt.jpg","",""
"2838.1149999999907","","","recognition","survey-text","114","578318","0.0-6.0-3.15","2928937","co38419","norming","","","{""guess"":""eend""}","","../img/tt/084tt.jpg","",""
"null","../img/gs/084gs.jpg","null","reveal","image-keyboard-response","115","580319","0.0-6.0-4.15","2928937","co38419","norming","","","","","","",""
"null","../img/tt/084tt.jpg","null","mooney2","image-keyboard-response","116","582321","0.0-6.0-5.15","2928937","co38419","norming","","","","","","",""
"1282.9199999999255","","","post_reveal_questions","survey-likert","117","583606","0.0-6.0-6.15","2928937","co38419","norming","","","{""aha"":5}","[0]","../img/tt/084tt.jpg","",""
"null","<div style=""font-size:60px;""> </div>","null","fixation","html-keyboard-response","118","583807","0.0-6.0-0.16","2928937","co38419","norming","","","","","","",""
"null","../img/tt/1142tt.jpg","null","mooney1","image-keyboard-response","119","586811","0.0-6.0-1.16","2928937","co38419","norming","","","","","","",""
"5009.199999999953","","","post_mooney1_questions","survey-likert","120","591822","0.0-6.0-2.16","2928937","co38419","norming","","","{""curiosity"":5,""confidence"":4}","[0,1]","../img/tt/1142tt.jpg","",""
"5389.744999999995","","","recognition","survey-text","121","597214","0.0-6.0-3.16","2928937","co38419","norming","","","{""guess"":""hoogspringer""}","","../img/tt/1142tt.jpg","",""
"null","../img/gs/1142gs.jpg","null","reveal","image-keyboard-response","122","599224","0.0-6.0-4.16","2928937","co38419","norming","","","","","","",""
"null","../img/tt/1142tt.jpg","null","mooney2","image-keyboard-response","123","601226","0.0-6.0-5.16","2928937","co38419","norming","","","","","","",""
"3257.9599999998463","","","post_reveal_questions","survey-likert","124","604486","0.0-6.0-6.16","2928937","co38419","norming","","","{""aha"":5}","[0]","../img/tt/1142tt.jpg","",""
"null","<div style=""font-size:60px;""> </div>","null","fixation","html-keyboard-response","125","604688","0.0-6.0-0.17","2928937","co38419","norming","","","","","","",""
"null","../img/tt/315tt.jpg","null","mooney1","image-keyboard-response","126","607691","0.0-6.0-1.17","2928937","co38419","norming","","","","","","",""
"3112.4799999999814","","","post_mooney1_questions","survey-likert","127","610806","0.0-6.0-2.17","2928937","co38419","norming","","","{""curiosity"":5,""confidence"":1}","[0,1]","../img/tt/315tt.jpg","",""
"3206.265000000014","","","recognition","survey-text","128","614014","0.0-6.0-3.17","2928937","co38419","norming","","","{""guess"":""uil""}","","../img/tt/315tt.jpg","",""
"null","../img/gs/315gs.jpg","null","reveal","image-keyboard-response","129","616022","0.0-6.0-4.17","2928937","co38419","norming","","","","","","",""
"null","../img/tt/315tt.jpg","null","mooney2","image-keyboard-response","130","618031","0.0-6.0-5.17","2928937","co38419","norming","","","","","","",""
"2221.17499999993","","","post_reveal_questions","survey-likert","131","620254","0.0-6.0-6.17","2928937","co38419","norming","","","{""aha"":2}","[0]","../img/tt/315tt.jpg","",""
"null","<div style=""font-size:60px;""> </div>","null","fixation","html-keyboard-response","132","620455","0.0-6.0-0.18","2928937","co38419","norming","","","","","","",""
"null","../img/tt/1048tt.jpg","null","mooney1","image-keyboard-response","133","623463","0.0-6.0-1.18","2928937","co38419","norming","","","","","","",""
"2972.939999999944","","","post_mooney1_questions","survey-likert","134","626438","0.0-6.0-2.18","2928937","co38419","norming","","","{""curiosity"":5,""confidence"":1}","[0,1]","../img/tt/1048tt.jpg","",""
"3830.310000000056","","","recognition","survey-text","135","630270","0.0-6.0-3.18","2928937","co38419","norming","","","{""guess"":""zee""}","","../img/tt/1048tt.jpg","",""
"null","../img/gs/1048gs.jpg","null","reveal","image-keyboard-response","136","632273","0.0-6.0-4.18","2928937","co38419","norming","","","","","","",""
"null","../img/tt/1048tt.jpg","null","mooney2","image-keyboard-response","137","634274","0.0-6.0-5.18","2928937","co38419","norming","","","","","","",""
"2177.7050000000745","","","post_reveal_questions","survey-likert","138","636455","0.0-6.0-6.18","2928937","co38419","norming","","","{""aha"":4}","[0]","../img/tt/1048tt.jpg","",""
"null","<div style=""font-size:60px;""> </div>","null","fixation","html-keyboard-response","139","636663","0.0-6.0-0.19","2928937","co38419","norming","","","","","","",""
"null","../img/tt/1118tt.jpg","null","mooney1","image-keyboard-response","140","639665","0.0-6.0-1.19","2928937","co38419","norming","","","","","","",""
"3435.8800000000047","","","post_mooney1_questions","survey-likert","141","643103","0.0-6.0-2.19","2928937","co38419","norming","","","{""curiosity"":4,""confidence"":1}","[0,1]","../img/tt/1118tt.jpg","",""
"7198.165000000037","","","recognition","survey-text","142","650303","0.0-6.0-3.19","2928937","co38419","norming","","","{""guess"":""kajak""}","","../img/tt/1118tt.jpg","",""
"null","../img/gs/1118gs.jpg","null","reveal","image-keyboard-response","143","652310","0.0-6.0-4.19","2928937","co38419","norming","","","","","","",""
"null","../img/tt/1118tt.jpg","null","mooney2","image-keyboard-response","144","654314","0.0-6.0-5.19","2928937","co38419","norming","","","","","","",""
"2227.030000000028","","","post_reveal_questions","survey-likert","145","656543","0.0-6.0-6.19","2928937","co38419","norming","","","{""aha"":1}","[0]","../img/tt/1118tt.jpg","",""
"null","<div style=""font-size:60px;""> </div>","null","fixation","html-keyboard-response","146","656750","0.0-6.0-0.20","2928937","co38419","norming","","","","","","",""
"null","../img/tt/1046tt.jpg","null","mooney1","image-keyboard-response","147","659759","0.0-6.0-1.20","2928937","co38419","norming","","","","","","",""
"4645.920000000042","","","post_mooney1_questions","survey-likert","148","664407","0.0-6.0-2.20","2928937","co38419","norming","","","{""curiosity"":6,""confidence"":0}","[0,1]","../img/tt/1046tt.jpg","",""
"1262.035000000149","","","recognition","survey-text","149","665671","0.0-6.0-3.20","2928937","co38419","norming","","","{""guess"":""""}","","../img/tt/1046tt.jpg","",""
"null","../img/gs/1046gs.jpg","null","reveal","image-keyboard-response","150","667677","0.0-6.0-4.20","2928937","co38419","norming","","","","","","",""
"null","../img/tt/1046tt.jpg","null","mooney2","image-keyboard-response","151","669680","0.0-6.0-5.20","2928937","co38419","norming","","","","","","",""
"1661.0599999999395","","","post_reveal_questions","survey-likert","152","671343","0.0-6.0-6.20","2928937","co38419","norming","","","{""aha"":1}","[0]","../img/tt/1046tt.jpg","",""
"null","<div style=""font-size:60px;""> </div>","null","fixation","html-keyboard-response","153","671544","0.0-6.0-0.21","2928937","co38419","norming","","","","","","",""
"null","../img/tt/1173tt.jpg","null","mooney1","image-keyboard-response","154","674553","0.0-6.0-1.21","2928937","co38419","norming","","","","","","",""
"4645.170000000042","","","post_mooney1_questions","survey-likert","155","679199","0.0-6.0-2.21","2928937","co38419","norming","","","{""curiosity"":5,""confidence"":4}","[0,1]","../img/tt/1173tt.jpg","",""
"4006.310000000056","","","recognition","survey-text","156","683207","0.0-6.0-3.21","2928937","co38419","norming","","","{""guess"":""voetbal""}","","../img/tt/1173tt.jpg","",""
"null","../img/gs/1173gs.jpg","null","reveal","image-keyboard-response","157","685208","0.0-6.0-4.21","2928937","co38419","norming","","","","","","",""
"null","../img/tt/1173tt.jpg","null","mooney2","image-keyboard-response","158","687210","0.0-6.0-5.21","2928937","co38419","norming","","","","","","",""
"2011.0250000000233","","","post_reveal_questions","survey-likert","159","689223","0.0-6.0-6.21","2928937","co38419","norming","","","{""aha"":5}","[0]","../img/tt/1173tt.jpg","",""
"null","<div style=""font-size:60px;""> </div>","null","fixation","html-keyboard-response","160","689432","0.0-6.0-0.22","2928937","co38419","norming","","","","","","",""
"null","../img/tt/1202tt.jpg","null","mooney1","image-keyboard-response","161","692435","0.0-6.0-1.22","2928937","co38419","norming","","","","","","",""
"3905.2949999999255","","","post_mooney1_questions","survey-likert","162","696343","0.0-6.0-2.22","2928937","co38419","norming","","","{""curiosity"":5,""confidence"":0}","[0,1]","../img/tt/1202tt.jpg","",""
"845.8549999999814","","","recognition","survey-text","163","697191","0.0-6.0-3.22","2928937","co38419","norming","","","{""guess"":""""}","","../img/tt/1202tt.jpg","",""
"null","../img/gs/1202gs.jpg","null","reveal","image-keyboard-response","164","699202","0.0-6.0-4.22","2928937","co38419","norming","","","","","","",""
"null","../img/tt/1202tt.jpg","null","mooney2","image-keyboard-response","165","701213","0.0-6.0-5.22","2928937","co38419","norming","","","","","","",""
"1936.3449999998556","","","post_reveal_questions","survey-likert","166","703151","0.0-6.0-6.22","2928937","co38419","norming","","","{""aha"":1}","[0]","../img/tt/1202tt.jpg","",""
"null","<div style=""font-size:60px;""> </div>","null","fixation","html-keyboard-response","167","703359","0.0-6.0-0.23","2928937","co38419","norming","","","","","","",""
"null","../img/tt/013tt.jpg","null","mooney1","image-keyboard-response","168","706369","0.0-6.0-1.23","2928937","co38419","norming","","","","","","",""
"4284.210000000079","","","post_mooney1_questions","survey-likert","169","710655","0.0-6.0-2.23","2928937","co38419","norming","","","{""curiosity"":5,""confidence"":1}","[0,1]","../img/tt/013tt.jpg","",""
"3309.5299999999115","","","recognition","survey-text","170","713967","0.0-6.0-3.23","2928937","co38419","norming","","","{""guess"":""kameel""}","","../img/tt/013tt.jpg","",""
"null","../img/gs/013gs.jpg","null","reveal","image-keyboard-response","171","715968","0.0-6.0-4.23","2928937","co38419","norming","","","","","","",""
"null","../img/tt/013tt.jpg","null","mooney2","image-keyboard-response","172","717971","0.0-6.0-5.23","2928937","co38419","norming","","","","","","",""
"2066.234999999986","","","post_reveal_questions","survey-likert","173","720039","0.0-6.0-6.23","2928937","co38419","norming","","","{""aha"":5}","[0]","../img/tt/013tt.jpg","",""
"null","<div style=""font-size:60px;""> </div>","null","fixation","html-keyboard-response","174","720241","0.0-6.0-0.24","2928937","co38419","norming","","","","","","",""
"null","../img/tt/019tt.jpg","null","mooney1","image-keyboard-response","175","723246","0.0-6.0-1.24","2928937","co38419","norming","","","","","","",""
"3494.859999999986","","","post_mooney1_questions","survey-likert","176","726743","0.0-6.0-2.24","2928937","co38419","norming","","","{""curiosity"":5,""confidence"":1}","[0,1]","../img/tt/019tt.jpg","",""
"3726.140000000014","","","recognition","survey-text","177","730471","0.0-6.0-3.24","2928937","co38419","norming","","","{""guess"":""schaar""}","","../img/tt/019tt.jpg","",""
"null","../img/gs/019gs.jpg","null","reveal","image-keyboard-response","178","732474","0.0-6.0-4.24","2928937","co38419","norming","","","","","","",""
"null","../img/tt/019tt.jpg","null","mooney2","image-keyboard-response","179","734476","0.0-6.0-5.24","2928937","co38419","norming","","","","","","",""
"1809.015000000014","","","post_reveal_questions","survey-likert","180","736287","0.0-6.0-6.24","2928937","co38419","norming","","","{""aha"":5}","[0]","../img/tt/019tt.jpg","",""
"null","<div style=""font-size:60px;""> </div>","null","fixation","html-keyboard-response","181","736495","0.0-6.0-0.25","2928937","co38419","norming","","","","","","",""
"null","../img/tt/032tt.jpg","null","mooney1","image-keyboard-response","182","739502","0.0-6.0-1.25","2928937","co38419","norming","","","","","","",""
"3278.445000000065","","","post_mooney1_questions","survey-likert","183","742783","0.0-6.0-2.25","2928937","co38419","norming","","","{""curiosity"":6,""confidence"":0}","[0,1]","../img/tt/032tt.jpg","",""
"757.8950000000186","","","recognition","survey-text","184","743543","0.0-6.0-3.25","2928937","co38419","norming","","","{""guess"":""""}","","../img/tt/032tt.jpg","",""
"null","../img/gs/032gs.jpg","null","reveal","image-keyboard-response","185","745545","0.0-6.0-4.25","2928937","co38419","norming","","","","","","",""
"null","../img/tt/032tt.jpg","null","mooney2","image-keyboard-response","186","747546","0.0-6.0-5.25","2928937","co38419","norming","","","","","","",""
"1739.0599999999395","","","post_reveal_questions","survey-likert","187","749287","0.0-6.0-6.25","2928937","co38419","norming","","","{""aha"":0}","[0]","../img/tt/032tt.jpg","",""
"null","<div style=""font-size:60px;""> </div>","null","fixation","html-keyboard-response","188","749495","0.0-6.0-0.26","2928937","co38419","norming","","","","","","",""
"null","../img/tt/1156tt.jpg","null","mooney1","image-keyboard-response","189","752499","0.0-6.0-1.26","2928937","co38419","norming","","","","","","",""
"4457.6849999999395","","","post_mooney1_questions","survey-likert","190","756959","0.0-6.0-2.26","2928937","co38419","norming","","","{""curiosity"":5,""confidence"":1}","[0,1]","../img/tt/1156tt.jpg","",""
"2782.204999999958","","","recognition","survey-text","191","759743","0.0-6.0-3.26","2928937","co38419","norming","","","{""guess"":""brug""}","","../img/tt/1156tt.jpg","",""
"null","../img/gs/1156gs.jpg","null","reveal","image-keyboard-response","192","761752","0.0-6.0-4.26","2928937","co38419","norming","","","","","","",""
"null","../img/tt/1156tt.jpg","null","mooney2","image-keyboard-response","193","763756","0.0-6.0-5.26","2928937","co38419","norming","","","","","","",""
"4057.3800000000047","","","post_reveal_questions","survey-likert","194","767815","0.0-6.0-6.26","2928937","co38419","norming","","","{""aha"":5}","[0]","../img/tt/1156tt.jpg","",""
"null","<div style=""font-size:60px;""> </div>","null","fixation","html-keyboard-response","195","768017","0.0-6.0-0.27","2928937","co38419","norming","","","","","","",""
"null","../img/tt/534tt.jpg","null","mooney1","image-keyboard-response","196","771020","0.0-6.0-1.27","2928937","co38419","norming","","","","","","",""
"4504.890000000014","","","post_mooney1_questions","survey-likert","197","775527","0.0-6.0-2.27","2928937","co38419","norming","","","{""curiosity"":5,""confidence"":2}","[0,1]","../img/tt/534tt.jpg","",""
"4494.300000000047","","","recognition","survey-text","198","780023","0.0-6.0-3.27","2928937","co38419","norming","","","{""guess"":""cactus""}","","../img/tt/534tt.jpg","",""
"null","../img/gs/534gs.jpg","null","reveal","image-keyboard-response","199","782026","0.0-6.0-4.27","2928937","co38419","norming","","","","","","",""
"null","../img/tt/534tt.jpg","null","mooney2","image-keyboard-response","200","784037","0.0-6.0-5.27","2928937","co38419","norming","","","","","","",""
"3232.179999999935","","","post_reveal_questions","survey-likert","201","787271","0.0-6.0-6.27","2928937","co38419","norming","","","{""aha"":5}","[0]","../img/tt/534tt.jpg","",""
"null","<div style=""font-size:60px;""> </div>","null","fixation","html-keyboard-response","202","787479","0.0-6.0-0.28","2928937","co38419","norming","","","","","","",""
"null","../img/tt/1069tt.jpg","null","mooney1","image-keyboard-response","203","790482","0.0-6.0-1.28","2928937","co38419","norming","","","","","","",""
"4202.494999999995","","","post_mooney1_questions","survey-likert","204","794687","0.0-6.0-2.28","2928937","co38419","norming","","","{""curiosity"":5,""confidence"":2}","[0,1]","../img/tt/1069tt.jpg","",""
"4550.0950000000885","","","recognition","survey-text","205","799239","0.0-6.0-3.28","2928937","co38419","norming","","","{""guess"":""dromedaris""}","","../img/tt/1069tt.jpg","",""
"null","../img/gs/1069gs.jpg","null","reveal","image-keyboard-response","206","801241","0.0-6.0-4.28","2928937","co38419","norming","","","","","","",""
"null","../img/tt/1069tt.jpg","null","mooney2","image-keyboard-response","207","803251","0.0-6.0-5.28","2928937","co38419","norming","","","","","","",""
"4601.560000000056","","","post_reveal_questions","survey-likert","208","807855","0.0-6.0-6.28","2928937","co38419","norming","","","{""aha"":5}","[0]","../img/tt/1069tt.jpg","",""
"null","<div style=""font-size:60px;""> </div>","null","fixation","html-keyboard-response","209","808056","0.0-6.0-0.29","2928937","co38419","norming","","","","","","",""
"null","../img/tt/1243tt.jpg","null","mooney1","image-keyboard-response","210","811062","0.0-6.0-1.29","2928937","co38419","norming","","","","","","",""
"4966.604999999981","","","post_mooney1_questions","survey-likert","211","816031","0.0-6.0-2.29","2928937","co38419","norming","","","{""curiosity"":4,""confidence"":4}","[0,1]","../img/tt/1243tt.jpg","",""
"4013.945000000065","","","recognition","survey-text","212","820045","0.0-6.0-3.29","2928937","co38419","norming","","","{""guess"":""aap""}","","../img/tt/1243tt.jpg","",""
"null","../img/gs/1243gs.jpg","null","reveal","image-keyboard-response","213","822052","0.0-6.0-4.29","2928937","co38419","norming","","","","","","",""
"null","../img/tt/1243tt.jpg","null","mooney2","image-keyboard-response","214","824054","0.0-6.0-5.29","2928937","co38419","norming","","","","","","",""
"1844.9100000000326","","","post_reveal_questions","survey-likert","215","825901","0.0-6.0-6.29","2928937","co38419","norming","","","{""aha"":5}","[0]","../img/tt/1243tt.jpg","",""
"null","<div style=""font-size:60px;""> </div>","null","fixation","html-keyboard-response","216","826106","0.0-6.0-0.30","2928937","co38419","norming","","","","","","",""
"null","../img/tt/1089tt.jpg","null","mooney1","image-keyboard-response","217","829115","0.0-6.0-1.30","2928937","co38419","norming","","","","","","",""
"2487.6149999999907","","","post_mooney1_questions","survey-likert","218","831605","0.0-6.0-2.30","2928937","co38419","norming","","","{""curiosity"":4,""confidence"":5}","[0,1]","../img/tt/1089tt.jpg","",""
"4045.975000000093","","","recognition","survey-text","219","835653","0.0-6.0-3.30","2928937","co38419","norming","","","{""guess"":""oilfant""}","","../img/tt/1089tt.jpg","",""
"null","../img/gs/1089gs.jpg","null","reveal","image-keyboard-response","220","837664","0.0-6.0-4.30","2928937","co38419","norming","","","","","","",""
"null","../img/tt/1089tt.jpg","null","mooney2","image-keyboard-response","221","839665","0.0-6.0-5.30","2928937","co38419","norming","","","","","","",""
"4809.695000000065","","","post_reveal_questions","survey-likert","222","844477","0.0-6.0-6.30","2928937","co38419","norming","","","{""aha"":4}","[0]","../img/tt/1089tt.jpg","",""
"null","<div style=""font-size:60px;""> </div>","null","fixation","html-keyboard-response","223","844681","0.0-6.0-0.31","2928937","co38419","norming","","","","","","",""
"null","../img/tt/1125tt.jpg","null","mooney1","image-keyboard-response","224","847687","0.0-6.0-1.31","2928937","co38419","norming","","","","","","",""
"5035.739999999991","","","post_mooney1_questions","survey-likert","225","852725","0.0-6.0-2.31","2928937","co38419","norming","","","{""curiosity"":5,""confidence"":1}","[0,1]","../img/tt/1125tt.jpg","",""
"1013.6500000000233","","","recognition","survey-text","226","853741","0.0-6.0-3.31","2928937","co38419","norming","","","{""guess"":""""}","","../img/tt/1125tt.jpg","",""
"null","../img/gs/1125gs.jpg","null","reveal","image-keyboard-response","227","855742","0.0-6.0-4.31","2928937","co38419","norming","","","","","","",""
"null","../img/tt/1125tt.jpg","null","mooney2","image-keyboard-response","228","857752","0.0-6.0-5.31","2928937","co38419","norming","","","","","","",""
"2034.9749999999767","","","post_reveal_questions","survey-likert","229","859789","0.0-6.0-6.31","2928937","co38419","norming","","","{""aha"":2}","[0]","../img/tt/1125tt.jpg","",""
"null","<div style=""font-size:60px;""> </div>","null","fixation","html-keyboard-response","230","859999","0.0-6.0-0.32","2928937","co38419","norming","","","","","","",""
"null","../img/tt/1087tt.jpg","null","mooney1","image-keyboard-response","231","863002","0.0-6.0-1.32","2928937","co38419","norming","","","","","","",""
"3304.9899999999907","","","post_mooney1_questions","survey-likert","232","866309","0.0-6.0-2.32","2928937","co38419","norming","","","{""curiosity"":5,""confidence"":4}","[0,1]","../img/tt/1087tt.jpg","",""
"3478.070000000065","","","recognition","survey-text","233","869789","0.0-6.0-3.32","2928937","co38419","norming","","","{""guess"":""schaap""}","","../img/tt/1087tt.jpg","",""
"null","../img/gs/1087gs.jpg","null","reveal","image-keyboard-response","234","871793","0.0-6.0-4.32","2928937","co38419","norming","","","","","","",""
"null","../img/tt/1087tt.jpg","null","mooney2","image-keyboard-response","235","873804","0.0-6.0-5.32","2928937","co38419","norming","","","","","","",""
"1999.3149999999441","","","post_reveal_questions","survey-likert","236","875805","0.0-6.0-6.32","2928937","co38419","norming","","","{""aha"":5}","[0]","../img/tt/1087tt.jpg","",""
"null","<div style=""font-size:60px;""> </div>","null","fixation","html-keyboard-response","237","876015","0.0-6.0-0.33","2928937","co38419","norming","","","","","","",""
"null","../img/tt/378tt.jpg","null","mooney1","image-keyboard-response","238","879019","0.0-6.0-1.33","2928937","co38419","norming","","","","","","",""
"4049.725000000093","","","post_mooney1_questions","survey-likert","239","883071","0.0-6.0-2.33","2928937","co38419","norming","","","{""curiosity"":6,""confidence"":0}","[0,1]","../img/tt/378tt.jpg","",""
"853.9949999998789","","","recognition","survey-text","240","883927","0.0-6.0-3.33","2928937","co38419","norming","","","{""guess"":""""}","","../img/tt/378tt.jpg","",""
"null","../img/gs/378gs.jpg","null","reveal","image-keyboard-response","241","885928","0.0-6.0-4.33","2928937","co38419","norming","","","","","","",""
"null","../img/tt/378tt.jpg","null","mooney2","image-keyboard-response","242","887937","0.0-6.0-5.33","2928937","co38419","norming","","","","","","",""
"4109.415000000154","","","post_reveal_questions","survey-likert","243","892047","0.0-6.0-6.33","2928937","co38419","norming","","","{""aha"":3}","[0]","../img/tt/378tt.jpg","",""
"null","<div style=""font-size:60px;""> </div>","null","fixation","html-keyboard-response","244","892248","0.0-6.0-0.34","2928937","co38419","norming","","","","","","",""
"null","../img/tt/1236tt.jpg","null","mooney1","image-keyboard-response","245","895250","0.0-6.0-1.34","2928937","co38419","norming","","","","","","",""
"3651.505000000121","","","post_mooney1_questions","survey-likert","246","898903","0.0-6.0-2.34","2928937","co38419","norming","","","{""curiosity"":5,""confidence"":1}","[0,1]","../img/tt/1236tt.jpg","",""
"3286.1500000001397","","","recognition","survey-text","247","902191","0.0-6.0-3.34","2928937","co38419","norming","","","{""guess"":""vogel""}","","../img/tt/1236tt.jpg","",""
"null","../img/gs/1236gs.jpg","null","reveal","image-keyboard-response","248","904194","0.0-6.0-4.34","2928937","co38419","norming","","","","","","",""
"null","../img/tt/1236tt.jpg","null","mooney2","image-keyboard-response","249","906195","0.0-6.0-5.34","2928937","co38419","norming","","","","","","",""
"1787.0200000000186","","","post_reveal_questions","survey-likert","250","907983","0.0-6.0-6.34","2928937","co38419","norming","","","{""aha"":5}","[0]","../img/tt/1236tt.jpg","",""
"null","<div style=""font-size:60px;""> </div>","null","fixation","html-keyboard-response","251","908185","0.0-6.0-0.35","2928937","co38419","norming","","","","","","",""
"null","../img/tt/1309tt.jpg","null","mooney1","image-keyboard-response","252","911186","0.0-6.0-1.35","2928937","co38419","norming","","","","","","",""
"3460.1999999999534","","","post_mooney1_questions","survey-likert","253","914647","0.0-6.0-2.35","2928937","co38419","norming","","","{""curiosity"":5,""confidence"":1}","[0,1]","../img/tt/1309tt.jpg","",""
"3053.8899999998976","","","recognition","survey-text","254","917703","0.0-6.0-3.35","2928937","co38419","norming","","","{""guess"":""auto""}","","../img/tt/1309tt.jpg","",""
"null","../img/gs/1309gs.jpg","null","reveal","image-keyboard-response","255","919710","0.0-6.0-4.35","2928937","co38419","norming","","","","","","",""
"null","../img/tt/1309tt.jpg","null","mooney2","image-keyboard-response","256","921710","0.0-6.0-5.35","2928937","co38419","norming","","","","","","",""
"1271.865000000107","","","post_reveal_questions","survey-likert","257","922983","0.0-6.0-6.35","2928937","co38419","norming","","","{""aha"":5}","[0]","../img/tt/1309tt.jpg","",""
"null","<div style=""font-size:60px;""> </div>","null","fixation","html-keyboard-response","258","923189","0.0-6.0-0.36","2928937","co38419","norming","","","","","","",""
"null","../img/tt/194tt.jpg","null","mooney1","image-keyboard-response","259","926189","0.0-6.0-1.36","2928937","co38419","norming","","","","","","",""
"5672.714999999967","","","post_mooney1_questions","survey-likert","260","931863","0.0-6.0-2.36","2928937","co38419","norming","","","{""curiosity"":5,""confidence"":2}","[0,1]","../img/tt/194tt.jpg","",""
"3045.8450000000885","","","recognition","survey-text","261","934911","0.0-6.0-3.36","2928937","co38419","norming","","","{""guess"":""harp""}","","../img/tt/194tt.jpg","",""
"null","../img/gs/194gs.jpg","null","reveal","image-keyboard-response","262","936914","0.0-6.0-4.36","2928937","co38419","norming","","","","","","",""
"null","../img/tt/194tt.jpg","null","mooney2","image-keyboard-response","263","938923","0.0-6.0-5.36","2928937","co38419","norming","","","","","","",""
"1898.3899999997811","","","post_reveal_questions","survey-likert","264","940819","0.0-6.0-6.36","2928937","co38419","norming","","","{""aha"":5}","[0]","../img/tt/194tt.jpg","",""
"null","<div style=""font-size:60px;""> </div>","null","fixation","html-keyboard-response","265","941022","0.0-6.0-0.37","2928937","co38419","norming","","","","","","",""
"null","../img/tt/524tt.jpg","null","mooney1","image-keyboard-response","266","944030","0.0-6.0-1.37","2928937","co38419","norming","","","","","","",""
"7275.550000000047","","","post_mooney1_questions","survey-likert","267","951307","0.0-6.0-2.37","2928937","co38419","norming","","","{""curiosity"":4,""confidence"":4}","[0,1]","../img/tt/524tt.jpg","",""
"6469.820000000065","","","recognition","survey-text","268","957779","0.0-6.0-3.37","2928937","co38419","norming","","","{""guess"":""olifant""}","","../img/tt/524tt.jpg","",""
"null","../img/gs/524gs.jpg","null","reveal","image-keyboard-response","269","959787","0.0-6.0-4.37","2928937","co38419","norming","","","","","","",""
"null","../img/tt/524tt.jpg","null","mooney2","image-keyboard-response","270","961795","0.0-6.0-5.37","2928937","co38419","norming","","","","","","",""
"1894.6699999999255","","","post_reveal_questions","survey-likert","271","963691","0.0-6.0-6.37","2928937","co38419","norming","","","{""aha"":4}","[0]","../img/tt/524tt.jpg","",""
"null","<div style=""font-size:60px;""> </div>","null","fixation","html-keyboard-response","272","963893","0.0-6.0-0.38","2928937","co38419","norming","","","","","","",""
"null","../img/tt/1033tt.jpg","null","mooney1","image-keyboard-response","273","966898","0.0-6.0-1.38","2928937","co38419","norming","","","","","","",""
"3648.034999999916","","","post_mooney1_questions","survey-likert","274","970547","0.0-6.0-2.38","2928937","co38419","norming","","","{""curiosity"":6,""confidence"":1}","[0,1]","../img/tt/1033tt.jpg","",""
"6046.635000000242","","","recognition","survey-text","275","976595","0.0-6.0-3.38","2928937","co38419","norming","","","{""guess"":""boogschieten""}","","../img/tt/1033tt.jpg","",""
"null","../img/gs/1033gs.jpg","null","reveal","image-keyboard-response","276","978603","0.0-6.0-4.38","2928937","co38419","norming","","","","","","",""
"null","../img/tt/1033tt.jpg","null","mooney2","image-keyboard-response","277","980606","0.0-6.0-5.38","2928937","co38419","norming","","","","","","",""
"1916.134999999893","","","post_reveal_questions","survey-likert","278","982523","0.0-6.0-6.38","2928937","co38419","norming","","","{""aha"":6}","[0]","../img/tt/1033tt.jpg","",""
"null","<div style=""font-size:60px;""> </div>","null","fixation","html-keyboard-response","279","982730","0.0-6.0-0.39","2928937","co38419","norming","","","","","","",""
"null","../img/tt/112tt.jpg","null","mooney1","image-keyboard-response","280","985737","0.0-6.0-1.39","2928937","co38419","norming","","","","","","",""
"4255.984999999986","","","post_mooney1_questions","survey-likert","281","989995","0.0-6.0-2.39","2928937","co38419","norming","","","{""curiosity"":5,""confidence"":2}","[0,1]","../img/tt/112tt.jpg","",""
"4358.185000000056","","","recognition","survey-text","282","994355","0.0-6.0-3.39","2928937","co38419","norming","","","{""guess"":""pinguin""}","","../img/tt/112tt.jpg","",""
"null","../img/gs/112gs.jpg","null","reveal","image-keyboard-response","283","996356","0.0-6.0-4.39","2928937","co38419","norming","","","","","","",""
"null","../img/tt/112tt.jpg","null","mooney2","image-keyboard-response","284","998367","0.0-6.0-5.39","2928937","co38419","norming","","","","","","",""
"2467.0650000000605","","","post_reveal_questions","survey-likert","285","1000837","0.0-6.0-6.39","2928937","co38419","norming","","","{""aha"":2}","[0]","../img/tt/112tt.jpg","",""
"null","<div style=""font-size:60px;""> </div>","null","fixation","html-keyboard-response","286","1001044","0.0-6.0-0.40","2928937","co38419","norming","","","","","","",""
"null","../img/tt/1037tt.jpg","null","mooney1","image-keyboard-response","287","1004054","0.0-6.0-1.40","2928937","co38419","norming","","","","","","",""
"3213.2799999999115","","","post_mooney1_questions","survey-likert","288","1007270","0.0-6.0-2.40","2928937","co38419","norming","","","{""curiosity"":6,""confidence"":0}","[0,1]","../img/tt/1037tt.jpg","",""
"1021.8849999998929","","","recognition","survey-text","289","1008293","0.0-6.0-3.40","2928937","co38419","norming","","","{""guess"":""""}","","../img/tt/1037tt.jpg","",""
"null","../img/gs/1037gs.jpg","null","reveal","image-keyboard-response","290","1010295","0.0-6.0-4.40","2928937","co38419","norming","","","","","","",""
"null","../img/tt/1037tt.jpg","null","mooney2","image-keyboard-response","291","1012300","0.0-6.0-5.40","2928937","co38419","norming","","","","","","",""
"2894.7499999998836","","","post_reveal_questions","survey-likert","292","1015197","0.0-6.0-6.40","2928937","co38419","norming","","","{""aha"":6}","[0]","../img/tt/1037tt.jpg","",""
"null","<div style=""font-size:60px;""> </div>","null","fixation","html-keyboard-response","293","1015399","0.0-6.0-0.41","2928937","co38419","norming","","","","","","",""
"null","../img/tt/1268tt.jpg","null","mooney1","image-keyboard-response","294","1018401","0.0-6.0-1.41","2928937","co38419","norming","","","","","","",""
"4666.989999999874","","","post_mooney1_questions","survey-likert","295","1023069","0.0-6.0-2.41","2928937","co38419","norming","","","{""curiosity"":6,""confidence"":0}","[0,1]","../img/tt/1268tt.jpg","",""
"670.0000000001164","","","recognition","survey-text","296","1023741","0.0-6.0-3.41","2928937","co38419","norming","","","{""guess"":""""}","","../img/tt/1268tt.jpg","",""
"null","../img/gs/1268gs.jpg","null","reveal","image-keyboard-response","297","1025743","0.0-6.0-4.41","2928937","co38419","norming","","","","","","",""
"null","../img/tt/1268tt.jpg","null","mooney2","image-keyboard-response","298","1027751","0.0-6.0-5.41","2928937","co38419","norming","","","","","","",""
"1587.9950000001118","","","post_reveal_questions","survey-likert","299","1029341","0.0-6.0-6.41","2928937","co38419","norming","","","{""aha"":5}","[0]","../img/tt/1268tt.jpg","",""
"null","<div style=""font-size:60px;""> </div>","null","fixation","html-keyboard-response","300","1029548","0.0-6.0-0.42","2928937","co38419","norming","","","","","","",""
"null","../img/tt/079tt.jpg","null","mooney1","image-keyboard-response","301","1032550","0.0-6.0-1.42","2928937","co38419","norming","","","","","","",""
"9309.909999999916","","","post_mooney1_questions","survey-likert","302","1041861","0.0-6.0-2.42","2928937","co38419","norming","","","{""curiosity"":4,""confidence"":4}","[0,1]","../img/tt/079tt.jpg","",""
"6422.209999999963","","","recognition","survey-text","303","1048285","0.0-6.0-3.42","2928937","co38419","norming","","","{""guess"":""beer""}","","../img/tt/079tt.jpg","",""
"null","../img/gs/079gs.jpg","null","reveal","image-keyboard-response","304","1050293","0.0-6.0-4.42","2928937","co38419","norming","","","","","","",""
"null","../img/tt/079tt.jpg","null","mooney2","image-keyboard-response","305","1052295","0.0-6.0-5.42","2928937","co38419","norming","","","","","","",""
"1866.0149999998976","","","post_reveal_questions","survey-likert","306","1054165","0.0-6.0-6.42","2928937","co38419","norming","","","{""aha"":6}","[0]","../img/tt/079tt.jpg","",""
"null","<div style=""font-size:60px;""> </div>","null","fixation","html-keyboard-response","307","1054366","0.0-6.0-0.43","2928937","co38419","norming","","","","","","",""
"null","../img/tt/1084tt.jpg","null","mooney1","image-keyboard-response","308","1057370","0.0-6.0-1.43","2928937","co38419","norming","","","","","","",""
"3953.1699999999255","","","post_mooney1_questions","survey-likert","309","1061323","0.0-6.0-2.43","2928937","co38419","norming","","","{""curiosity"":5,""confidence"":1}","[0,1]","../img/tt/1084tt.jpg","",""
"2902.1450000000186","","","recognition","survey-text","310","1064227","0.0-6.0-3.43","2928937","co38419","norming","","","{""guess"":""taart""}","","../img/tt/1084tt.jpg","",""
"null","../img/gs/1084gs.jpg","null","reveal","image-keyboard-response","311","1066228","0.0-6.0-4.43","2928937","co38419","norming","","","","","","",""
"null","../img/tt/1084tt.jpg","null","mooney2","image-keyboard-response","312","1068231","0.0-6.0-5.43","2928937","co38419","norming","","","","","","",""
"2953.469999999972","","","post_reveal_questions","survey-likert","313","1071187","0.0-6.0-6.43","2928937","co38419","norming","","","{""aha"":5}","[0]","../img/tt/1084tt.jpg","",""
"null","<div style=""font-size:60px;""> </div>","null","fixation","html-keyboard-response","314","1071390","0.0-6.0-0.44","2928937","co38419","norming","","","","","","",""
"null","../img/tt/1044tt.jpg","null","mooney1","image-keyboard-response","315","1074394","0.0-6.0-1.44","2928937","co38419","norming","","","","","","",""
"3438.5749999999534","","","post_mooney1_questions","survey-likert","316","1077835","0.0-6.0-2.44","2928937","co38419","norming","","","{""curiosity"":6,""confidence"":0}","[0,1]","../img/tt/1044tt.jpg","",""
"566.160000000149","","","recognition","survey-text","317","1078403","0.0-6.0-3.44","2928937","co38419","norming","","","{""guess"":""""}","","../img/tt/1044tt.jpg","",""
"null","../img/gs/1044gs.jpg","null","reveal","image-keyboard-response","318","1080405","0.0-6.0-4.44","2928937","co38419","norming","","","","","","",""
"null","../img/tt/1044tt.jpg","null","mooney2","image-keyboard-response","319","1082407","0.0-6.0-5.44","2928937","co38419","norming","","","","","","",""
"1913.7499999997672","","","post_reveal_questions","survey-likert","320","1084323","0.0-6.0-6.44","2928937","co38419","norming","","","{""aha"":5}","[0]","../img/tt/1044tt.jpg","",""
"null","<div style=""font-size:60px;""> </div>","null","fixation","html-keyboard-response","321","1084531","0.0-6.0-0.45","2928937","co38419","norming","","","","","","",""
"null","../img/tt/580tt.jpg","null","mooney1","image-keyboard-response","322","1087533","0.0-6.0-1.45","2928937","co38419","norming","","","","","","",""
"3636.1750000000466","","","post_mooney1_questions","survey-likert","323","1091171","0.0-6.0-2.45","2928937","co38419","norming","","","{""curiosity"":6,""confidence"":0}","[0,1]","../img/tt/580tt.jpg","",""
"821.9049999997951","","","recognition","survey-text","324","1091995","0.0-6.0-3.45","2928937","co38419","norming","","","{""guess"":""""}","","../img/tt/580tt.jpg","",""
"null","../img/gs/580gs.jpg","null","reveal","image-keyboard-response","325","1094005","0.0-6.0-4.45","2928937","co38419","norming","","","","","","",""
"null","../img/tt/580tt.jpg","null","mooney2","image-keyboard-response","326","1096007","0.0-6.0-5.45","2928937","co38419","norming","","","","","","",""
"1778.6149999999907","","","post_reveal_questions","survey-likert","327","1097787","0.0-6.0-6.45","2928937","co38419","norming","","","{""aha"":4}","[0]","../img/tt/580tt.jpg","",""
"null","<div style=""font-size:60px;""> </div>","null","fixation","html-keyboard-response","328","1097988","0.0-6.0-0.46","2928937","co38419","norming","","","","","","",""
"null","../img/tt/329tt.jpg","null","mooney1","image-keyboard-response","329","1100991","0.0-6.0-1.46","2928937","co38419","norming","","","","","","",""
"4585.334999999963","","","post_mooney1_questions","survey-likert","330","1105579","0.0-6.0-2.46","2928937","co38419","norming","","","{""curiosity"":5,""confidence"":1}","[0,1]","../img/tt/329tt.jpg","",""
"2822.2750000001397","","","recognition","survey-text","331","1108403","0.0-6.0-3.46","2928937","co38419","norming","","","{""guess"":""kikker""}","","../img/tt/329tt.jpg","",""
"null","../img/gs/329gs.jpg","null","reveal","image-keyboard-response","332","1110404","0.0-6.0-4.46","2928937","co38419","norming","","","","","","",""
"null","../img/tt/329tt.jpg","null","mooney2","image-keyboard-response","333","1112407","0.0-6.0-5.46","2928937","co38419","norming","","","","","","",""
"4546.4199999999255","","","post_reveal_questions","survey-likert","334","1116955","0.0-6.0-6.46","2928937","co38419","norming","","","{""aha"":4}","[0]","../img/tt/329tt.jpg","",""
"null","<div style=""font-size:60px;""> </div>","null","fixation","html-keyboard-response","335","1117157","0.0-6.0-0.47","2928937","co38419","norming","","","","","","",""
"null","../img/tt/124tt.jpg","null","mooney1","image-keyboard-response","336","1120160","0.0-6.0-1.47","2928937","co38419","norming","","","","","","",""
"6176.519999999786","","","post_mooney1_questions","survey-likert","337","1126347","0.0-6.0-2.47","2928937","co38419","norming","","","{""curiosity"":5,""confidence"":1}","[0,1]","../img/tt/124tt.jpg","",""
"5477.340000000084","","","recognition","survey-text","338","1131826","0.0-6.0-3.47","2928937","co38419","norming","","","{""guess"":""bever""}","","../img/tt/124tt.jpg","",""
"null","../img/gs/124gs.jpg","null","reveal","image-keyboard-response","339","1133828","0.0-6.0-4.47","2928937","co38419","norming","","","","","","",""
"null","../img/tt/124tt.jpg","null","mooney2","image-keyboard-response","340","1135830","0.0-6.0-5.47","2928937","co38419","norming","","","","","","",""
"2090.4850000001024","","","post_reveal_questions","survey-likert","341","1137923","0.0-6.0-6.47","2928937","co38419","norming","","","{""aha"":2}","[0]","../img/tt/124tt.jpg","",""
"null","<div style=""font-size:60px;""> </div>","null","fixation","html-keyboard-response","342","1138124","0.0-6.0-0.48","2928937","co38419","norming","","","","","","",""
"null","../img/tt/007tt.jpg","null","mooney1","image-keyboard-response","343","1141130","0.0-6.0-1.48","2928937","co38419","norming","","","","","","",""
"3309.715000000084","","","post_mooney1_questions","survey-likert","344","1144443","0.0-6.0-2.48","2928937","co38419","norming","","","{""curiosity"":5,""confidence"":1}","[0,1]","../img/tt/007tt.jpg","",""
"4078.2650000001304","","","recognition","survey-text","345","1148522","0.0-6.0-3.48","2928937","co38419","norming","","","{""guess"":""paard""}","","../img/tt/007tt.jpg","",""
"null","../img/gs/007gs.jpg","null","reveal","image-keyboard-response","346","1150527","0.0-6.0-4.48","2928937","co38419","norming","","","","","","",""
"null","../img/tt/007tt.jpg","null","mooney2","image-keyboard-response","347","1152533","0.0-6.0-5.48","2928937","co38419","norming","","","","","","",""
"5331.559999999823","","","post_reveal_questions","survey-likert","348","1157867","0.0-6.0-6.48","2928937","co38419","norming","","","{""aha"":5}","[0]","../img/tt/007tt.jpg","",""
"null","<div style=""font-size:60px;""> </div>","null","fixation","html-keyboard-response","349","1158068","0.0-6.0-0.49","2928937","co38419","norming","","","","","","",""
"null","../img/tt/008tt.jpg","null","mooney1","image-keyboard-response","350","1161075","0.0-6.0-1.49","2928937","co38419","norming","","","","","","",""
"3308.185000000056","","","post_mooney1_questions","survey-likert","351","1164386","0.0-6.0-2.49","2928937","co38419","norming","","","{""curiosity"":5,""confidence"":1}","[0,1]","../img/tt/008tt.jpg","",""
"2902.304999999935","","","recognition","survey-text","352","1167290","0.0-6.0-3.49","2928937","co38419","norming","","","{""guess"":""mug""}","","../img/tt/008tt.jpg","",""
"null","../img/gs/008gs.jpg","null","reveal","image-keyboard-response","353","1169296","0.0-6.0-4.49","2928937","co38419","norming","","","","","","",""
"null","../img/tt/008tt.jpg","null","mooney2","image-keyboard-response","354","1171303","0.0-6.0-5.49","2928937","co38419","norming","","","","","","",""
"3489.3849999997765","","","post_reveal_questions","survey-likert","355","1174795","0.0-6.0-6.49","2928937","co38419","norming","","","{""aha"":4}","[0]","../img/tt/008tt.jpg","",""
"null","<div style=""font-size:60px;""> </div>","null","fixation","html-keyboard-response","356","1174998","0.0-6.0-0.50","2928937","co38419","norming","","","","","","",""
"null","../img/tt/1189tt.jpg","null","mooney1","image-keyboard-response","357","1178007","0.0-6.0-1.50","2928937","co38419","norming","","","","","","",""
"3737.8000000002794","","","post_mooney1_questions","survey-likert","358","1181747","0.0-6.0-2.50","2928937","co38419","norming","","","{""curiosity"":6,""confidence"":0}","[0,1]","../img/tt/1189tt.jpg","",""
"934.0249999999069","","","recognition","survey-text","359","1182682","0.0-6.0-3.50","2928937","co38419","norming","","","{""guess"":""""}","","../img/tt/1189tt.jpg","",""
"null","../img/gs/1189gs.jpg","null","reveal","image-keyboard-response","360","1184690","0.0-6.0-4.50","2928937","co38419","norming","","","","","","",""
"null","../img/tt/1189tt.jpg","null","mooney2","image-keyboard-response","361","1186692","0.0-6.0-5.50","2928937","co38419","norming","","","","","","",""
"1977.6999999999534","","","post_reveal_questions","survey-likert","362","1188671","0.0-6.0-6.50","2928937","co38419","norming","","","{""aha"":6}","[0]","../img/tt/1189tt.jpg","",""
"null","<div style=""font-size:60px;""> </div>","null","fixation","html-keyboard-response","363","1188873","0.0-6.0-0.51","2928937","co38419","norming","","","","","","",""
"null","../img/tt/296tt.jpg","null","mooney1","image-keyboard-response","364","1191878","0.0-6.0-1.51","2928937","co38419","norming","","","","","","",""
"4030.3300000000745","","","post_mooney1_questions","survey-likert","365","1195911","0.0-6.0-2.51","2928937","co38419","norming","","","{""curiosity"":5,""confidence"":2}","[0,1]","../img/tt/296tt.jpg","",""
"6613.989999999991","","","recognition","survey-text","366","1202527","0.0-6.0-3.51","2928937","co38419","norming","","","{""guess"":""zetel""}","","../img/tt/296tt.jpg","",""
"null","../img/gs/296gs.jpg","null","reveal","image-keyboard-response","367","1204535","0.0-6.0-4.51","2928937","co38419","norming","","","","","","",""
"null","../img/tt/296tt.jpg","null","mooney2","image-keyboard-response","368","1206538","0.0-6.0-5.51","2928937","co38419","norming","","","","","","",""
"1691.244999999879","","","post_reveal_questions","survey-likert","369","1208231","0.0-6.0-6.51","2928937","co38419","norming","","","{""aha"":5}","[0]","../img/tt/296tt.jpg","",""
"null","<div style=""font-size:60px;""> </div>","null","fixation","html-keyboard-response","370","1208436","0.0-6.0-0.52","2928937","co38419","norming","","","","","","",""
"null","../img/tt/1063tt.jpg","null","mooney1","image-keyboard-response","371","1211439","0.0-6.0-1.52","2928937","co38419","norming","","","","","","",""
"2950.130000000121","","","post_mooney1_questions","survey-likert","372","1214392","0.0-6.0-2.52","2928937","co38419","norming","","","{""curiosity"":5,""confidence"":3}","[0,1]","../img/tt/1063tt.jpg","",""
"3750.355000000214","","","recognition","survey-text","373","1218144","0.0-6.0-3.52","2928937","co38419","norming","","","{""guess"":""paard""}","","../img/tt/1063tt.jpg","",""
"null","../img/gs/1063gs.jpg","null","reveal","image-keyboard-response","374","1220147","0.0-6.0-4.52","2928937","co38419","norming","","","","","","",""
"null","../img/tt/1063tt.jpg","null","mooney2","image-keyboard-response","375","1222149","0.0-6.0-5.52","2928937","co38419","norming","","","","","","",""
"2040.75","","","post_reveal_questions","survey-likert","376","1224191","0.0-6.0-6.52","2928937","co38419","norming","","","{""aha"":5}","[0]","../img/tt/1063tt.jpg","",""
"null","<div style=""font-size:60px;""> </div>","null","fixation","html-keyboard-response","377","1224402","0.0-6.0-0.53","2928937","co38419","norming","","","","","","",""
"null","../img/tt/1078tt.jpg","null","mooney1","image-keyboard-response","378","1227405","0.0-6.0-1.53","2928937","co38419","norming","","","","","","",""
"5183.699999999721","","","post_mooney1_questions","survey-likert","379","1232591","0.0-6.0-2.53","2928937","co38419","norming","","","{""curiosity"":5,""confidence"":1}","[0,1]","../img/tt/1078tt.jpg","",""
"2918.3599999998696","","","recognition","survey-text","380","1235511","0.0-6.0-3.53","2928937","co38419","norming","","","{""guess"":""loper""}","","../img/tt/1078tt.jpg","",""
"null","../img/gs/1078gs.jpg","null","reveal","image-keyboard-response","381","1237513","0.0-6.0-4.53","2928937","co38419","norming","","","","","","",""
"null","../img/tt/1078tt.jpg","null","mooney2","image-keyboard-response","382","1239516","0.0-6.0-5.53","2928937","co38419","norming","","","","","","",""
"2329.195000000065","","","post_reveal_questions","survey-likert","383","1241847","0.0-6.0-6.53","2928937","co38419","norming","","","{""aha"":5}","[0]","../img/tt/1078tt.jpg","",""
"null","<div style=""font-size:60px;""> </div>","null","fixation","html-keyboard-response","384","1242050","0.0-6.0-0.54","2928937","co38419","norming","","","","","","",""
"null","../img/tt/1199tt.jpg","null","mooney1","image-keyboard-response","385","1245058","0.0-6.0-1.54","2928937","co38419","norming","","","","","","",""
"5292.295000000158","","","post_mooney1_questions","survey-likert","386","1250353","0.0-6.0-2.54","2928937","co38419","norming","","","{""curiosity"":4,""confidence"":5}","[0,1]","../img/tt/1199tt.jpg","",""
"3878.070000000065","","","recognition","survey-text","387","1254233","0.0-6.0-3.54","2928937","co38419","norming","","","{""guess"":""turnster""}","","../img/tt/1199tt.jpg","",""
"null","../img/gs/1199gs.jpg","null","reveal","image-keyboard-response","388","1256237","0.0-6.0-4.54","2928937","co38419","norming","","","","","","",""
"null","../img/tt/1199tt.jpg","null","mooney2","image-keyboard-response","389","1258240","0.0-6.0-5.54","2928937","co38419","norming","","","","","","",""
"1527.160000000149","","","post_reveal_questions","survey-likert","390","1259769","0.0-6.0-6.54","2928937","co38419","norming","","","{""aha"":5}","[0]","../img/tt/1199tt.jpg","",""
"null","<div style=""font-size:60px;""> </div>","null","fixation","html-keyboard-response","391","1259972","0.0-6.0-0.55","2928937","co38419","norming","","","","","","",""
"null","../img/tt/1186tt.jpg","null","mooney1","image-keyboard-response","392","1262979","0.0-6.0-1.55","2928937","co38419","norming","","","","","","",""
"3331.7350000001024","","","post_mooney1_questions","survey-likert","393","1266313","0.0-6.0-2.55","2928937","co38419","norming","","","{""curiosity"":6,""confidence"":0}","[0,1]","../img/tt/1186tt.jpg","",""
"829.964999999851","","","recognition","survey-text","394","1267145","0.0-6.0-3.55","2928937","co38419","norming","","","{""guess"":""""}","","../img/tt/1186tt.jpg","",""
"null","../img/gs/1186gs.jpg","null","reveal","image-keyboard-response","395","1269146","0.0-6.0-4.55","2928937","co38419","norming","","","","","","",""
"null","../img/tt/1186tt.jpg","null","mooney2","image-keyboard-response","396","1271153","0.0-6.0-5.55","2928937","co38419","norming","","","","","","",""
"1645.3300000000745","","","post_reveal_questions","survey-likert","397","1272801","0.0-6.0-6.55","2928937","co38419","norming","","","{""aha"":5}","[0]","../img/tt/1186tt.jpg","",""
"null","<div style=""font-size:60px;""> </div>","null","fixation","html-keyboard-response","398","1273008","0.0-6.0-0.56","2928937","co38419","norming","","","","","","",""
"null","../img/tt/1097tt.jpg","null","mooney1","image-keyboard-response","399","1276011","0.0-6.0-1.56","2928937","co38419","norming","","","","","","",""
"7651.2700000002515","","","post_mooney1_questions","survey-likert","400","1283665","0.0-6.0-2.56","2928937","co38419","norming","","","{""curiosity"":4,""confidence"":5}","[0,1]","../img/tt/1097tt.jpg","",""
"10541.98999999999","","","recognition","survey-text","401","1294209","0.0-6.0-3.56","2928937","co38419","norming","","","{""guess"":""surfbord""}","","../img/tt/1097tt.jpg","",""
"null","../img/gs/1097gs.jpg","null","reveal","image-keyboard-response","402","1296213","0.0-6.0-4.56","2928937","co38419","norming","","","","","","",""
"null","../img/tt/1097tt.jpg","null","mooney2","image-keyboard-response","403","1298216","0.0-6.0-5.56","2928937","co38419","norming","","","","","","",""
"3518.6999999999534","","","post_reveal_questions","survey-likert","404","1301737","0.0-6.0-6.56","2928937","co38419","norming","","","{""aha"":5}","[0]","../img/tt/1097tt.jpg","",""
"null","<div style=""font-size:60px;""> </div>","null","fixation","html-keyboard-response","405","1301947","0.0-6.0-0.57","2928937","co38419","norming","","","","","","",""
"null","../img/tt/507tt.jpg","null","mooney1","image-keyboard-response","406","1304951","0.0-6.0-1.57","2928937","co38419","norming","","","","","","",""
"5302.934999999823","","","post_mooney1_questions","survey-likert","407","1310256","0.0-6.0-2.57","2928937","co38419","norming","","","{""curiosity"":5,""confidence"":2}","[0,1]","../img/tt/507tt.jpg","",""
"4278.194999999832","","","recognition","survey-text","408","1314536","0.0-6.0-3.57","2928937","co38419","norming","","","{""guess"":""ballet""}","","../img/tt/507tt.jpg","",""
"null","../img/gs/507gs.jpg","null","reveal","image-keyboard-response","409","1316546","0.0-6.0-4.57","2928937","co38419","norming","","","","","","",""
"null","../img/tt/507tt.jpg","null","mooney2","image-keyboard-response","410","1318547","0.0-6.0-5.57","2928937","co38419","norming","","","","","","",""
"3274.8300000000745","","","post_reveal_questions","survey-likert","411","1321824","0.0-6.0-6.57","2928937","co38419","norming","","","{""aha"":5}","[0]","../img/tt/507tt.jpg","",""
"null","<div style=""font-size:60px;""> </div>","null","fixation","html-keyboard-response","412","1322027","0.0-6.0-0.58","2928937","co38419","norming","","","","","","",""
"null","../img/tt/135tt.jpg","null","mooney1","image-keyboard-response","413","1325030","0.0-6.0-1.58","2928937","co38419","norming","","","","","","",""
"2399.2299999999814","","","post_mooney1_questions","survey-likert","414","1327433","0.0-6.0-2.58","2928937","co38419","norming","","","{""curiosity"":4,""confidence"":4}","[0,1]","../img/tt/135tt.jpg","",""
"3149.6400000001304","","","recognition","survey-text","415","1330584","0.0-6.0-3.58","2928937","co38419","norming","","","{""guess"":""toilet""}","","../img/tt/135tt.jpg","",""
"null","../img/gs/135gs.jpg","null","reveal","image-keyboard-response","416","1332595","0.0-6.0-4.58","2928937","co38419","norming","","","","","","",""
"null","../img/tt/135tt.jpg","null","mooney2","image-keyboard-response","417","1334598","0.0-6.0-5.58","2928937","co38419","norming","","","","","","",""
"1376.929999999702","","","post_reveal_questions","survey-likert","418","1335976","0.0-6.0-6.58","2928937","co38419","norming","","","{""aha"":5}","[0]","../img/tt/135tt.jpg","",""
"null","<div style=""font-size:60px;""> </div>","null","fixation","html-keyboard-response","419","1336180","0.0-6.0-0.59","2928937","co38419","norming","","","","","","",""
"null","../img/tt/1055tt.jpg","null","mooney1","image-keyboard-response","420","1339189","0.0-6.0-1.59","2928937","co38419","norming","","","","","","",""
"4528.70999999973","","","post_mooney1_questions","survey-likert","421","1343720","0.0-6.0-2.59","2928937","co38419","norming","","","{""curiosity"":5,""confidence"":1}","[0,1]","../img/tt/1055tt.jpg","",""
"3366.0500000000466","","","recognition","survey-text","422","1347088","0.0-6.0-3.59","2928937","co38419","norming","","","{""guess"":""bizon""}","","../img/tt/1055tt.jpg","",""
"null","../img/gs/1055gs.jpg","null","reveal","image-keyboard-response","423","1349098","0.0-6.0-4.59","2928937","co38419","norming","","","","","","",""
"null","../img/tt/1055tt.jpg","null","mooney2","image-keyboard-response","424","1351109","0.0-6.0-5.59","2928937","co38419","norming","","","","","","",""
"2065.094999999972","","","post_reveal_questions","survey-likert","425","1353176","0.0-6.0-6.59","2928937","co38419","norming","","","{""aha"":4}","[0]","../img/tt/1055tt.jpg","",""
"null","<div style=""font-size:60px;""> </div>","null","fixation","html-keyboard-response","426","1353378","0.0-6.0-0.60","2928937","co38419","norming","","","","","","",""
"null","../img/tt/1096tt.jpg","null","mooney1","image-keyboard-response","427","1356380","0.0-6.0-1.60","2928937","co38419","norming","","","","","","",""
"2929.730000000214","","","post_mooney1_questions","survey-likert","428","1359313","0.0-6.0-2.60","2928937","co38419","norming","","","{""curiosity"":5,""confidence"":2}","[0,1]","../img/tt/1096tt.jpg","",""
"2862.0200000000186","","","recognition","survey-text","429","1362176","0.0-6.0-3.60","2928937","co38419","norming","","","{""guess"":""koe""}","","../img/tt/1096tt.jpg","",""
"null","../img/gs/1096gs.jpg","null","reveal","image-keyboard-response","430","1364178","0.0-6.0-4.60","2928937","co38419","norming","","","","","","",""
"null","../img/tt/1096tt.jpg","null","mooney2","image-keyboard-response","431","1366180","0.0-6.0-5.60","2928937","co38419","norming","","","","","","",""
"1386.5049999998882","","","post_reveal_questions","survey-likert","432","1367563","0.0-6.0-6.60","2928937","co38419","norming","","","{""aha"":4}","[0]","../img/tt/1096tt.jpg","",""
"null","<div style=""font-size:60px;""> </div>","null","fixation","html-keyboard-response","433","1367772","0.0-6.0-0.61","2928937","co38419","norming","","","","","","",""
"null","../img/tt/440tt.jpg","null","mooney1","image-keyboard-response","434","1370776","0.0-6.0-1.61","2928937","co38419","norming","","","","","","",""
"4648.564999999944","","","post_mooney1_questions","survey-likert","435","1375427","0.0-6.0-2.61","2928937","co38419","norming","","","{""curiosity"":5,""confidence"":2}","[0,1]","../img/tt/440tt.jpg","",""
"3421.939999999944","","","recognition","survey-text","436","1378851","0.0-6.0-3.61","2928937","co38419","norming","","","{""guess"":""veulen""}","","../img/tt/440tt.jpg","",""
"null","../img/gs/440gs.jpg","null","reveal","image-keyboard-response","437","1380857","0.0-6.0-4.61","2928937","co38419","norming","","","","","","",""
"null","../img/tt/440tt.jpg","null","mooney2","image-keyboard-response","438","1382859","0.0-6.0-5.61","2928937","co38419","norming","","","","","","",""
"1333.089999999851","","","post_reveal_questions","survey-likert","439","1384195","0.0-6.0-6.61","2928937","co38419","norming","","","{""aha"":5}","[0]","../img/tt/440tt.jpg","",""
"null","<div style=""font-size:60px;""> </div>","null","fixation","html-keyboard-response","440","1384405","0.0-6.0-0.62","2928937","co38419","norming","","","","","","",""
"null","../img/tt/405tt.jpg","null","mooney1","image-keyboard-response","441","1387409","0.0-6.0-1.62","2928937","co38419","norming","","","","","","",""
"3887.75","","","post_mooney1_questions","survey-likert","442","1391299","0.0-6.0-2.62","2928937","co38419","norming","","","{""curiosity"":4,""confidence"":5}","[0,1]","../img/tt/405tt.jpg","",""
"3045.945000000065","","","recognition","survey-text","443","1394347","0.0-6.0-3.62","2928937","co38419","norming","","","{""guess"":""koala""}","","../img/tt/405tt.jpg","",""
"null","../img/gs/405gs.jpg","null","reveal","image-keyboard-response","444","1396350","0.0-6.0-4.62","2928937","co38419","norming","","","","","","",""
"null","../img/tt/405tt.jpg","null","mooney2","image-keyboard-response","445","1398352","0.0-6.0-5.62","2928937","co38419","norming","","","","","","",""
"3480.3349999999627","","","post_reveal_questions","survey-likert","446","1401835","0.0-6.0-6.62","2928937","co38419","norming","","","{""aha"":5}","[0]","../img/tt/405tt.jpg","",""
"null","<div style=""font-size:60px;""> </div>","null","fixation","html-keyboard-response","447","1402039","0.0-6.0-0.63","2928937","co38419","norming","","","","","","",""
"null","../img/tt/1241tt.jpg","null","mooney1","image-keyboard-response","448","1405047","0.0-6.0-1.63","2928937","co38419","norming","","","","","","",""
"3376.5999999998603","","","post_mooney1_questions","survey-likert","449","1408427","0.0-6.0-2.63","2928937","co38419","norming","","","{""curiosity"":6,""confidence"":0}","[0,1]","../img/tt/1241tt.jpg","",""
"878.2150000003166","","","recognition","survey-text","450","1409307","0.0-6.0-3.63","2928937","co38419","norming","","","{""guess"":""""}","","../img/tt/1241tt.jpg","",""
"null","../img/gs/1241gs.jpg","null","reveal","image-keyboard-response","451","1411308","0.0-6.0-4.63","2928937","co38419","norming","","","","","","",""
"null","../img/tt/1241tt.jpg","null","mooney2","image-keyboard-response","452","1413319","0.0-6.0-5.63","2928937","co38419","norming","","","","","","",""
"2569.464999999851","","","post_reveal_questions","survey-likert","453","1415891","0.0-6.0-6.63","2928937","co38419","norming","","","{""aha"":3}","[0]","../img/tt/1241tt.jpg","",""
"null","<div style=""font-size:60px;""> </div>","null","fixation","html-keyboard-response","454","1416094","0.0-6.0-0.64","2928937","co38419","norming","","","","","","",""
"null","../img/tt/1024tt.jpg","null","mooney1","image-keyboard-response","455","1419103","0.0-6.0-1.64","2928937","co38419","norming","","","","","","",""
"3448.5099999997765","","","post_mooney1_questions","survey-likert","456","1422555","0.0-6.0-2.64","2928937","co38419","norming","","","{""curiosity"":6,""confidence"":0}","[0,1]","../img/tt/1024tt.jpg","",""
"766.3049999999348","","","recognition","survey-text","457","1423323","0.0-6.0-3.64","2928937","co38419","norming","","","{""guess"":""""}","","../img/tt/1024tt.jpg","",""
"null","../img/gs/1024gs.jpg","null","reveal","image-keyboard-response","458","1425329","0.0-6.0-4.64","2928937","co38419","norming","","","","","","",""
"null","../img/tt/1024tt.jpg","null","mooney2","image-keyboard-response","459","1427337","0.0-6.0-5.64","2928937","co38419","norming","","","","","","",""
"2879.1299999998882","","","post_reveal_questions","survey-likert","460","1430217","0.0-6.0-6.64","2928937","co38419","norming","","","{""aha"":3}","[0]","../img/tt/1024tt.jpg","",""
"null","<div style=""font-size:60px;""> </div>","null","fixation","html-keyboard-response","461","1430425","0.0-6.0-0.65","2928937","co38419","norming","","","","","","",""
"null","../img/tt/082tt.jpg","null","mooney1","image-keyboard-response","462","1433427","0.0-6.0-1.65","2928937","co38419","norming","","","","","","",""
"2804.0400000000373","","","post_mooney1_questions","survey-likert","463","1436233","0.0-6.0-2.65","2928937","co38419","norming","","","{""curiosity"":4,""confidence"":5}","[0,1]","../img/tt/082tt.jpg","",""
"4069.844999999972","","","recognition","survey-text","464","1440305","0.0-6.0-3.65","2928937","co38419","norming","","","{""guess"":""papegaai""}","","../img/tt/082tt.jpg","",""
"null","../img/gs/082gs.jpg","null","reveal","image-keyboard-response","465","1442308","0.0-6.0-4.65","2928937","co38419","norming","","","","","","",""
"null","../img/tt/082tt.jpg","null","mooney2","image-keyboard-response","466","1444318","0.0-6.0-5.65","2928937","co38419","norming","","","","","","",""
"3112.9950000001118","","","post_reveal_questions","survey-likert","467","1447433","0.0-6.0-6.65","2928937","co38419","norming","","","{""aha"":6}","[0]","../img/tt/082tt.jpg","",""
"null","<div style=""font-size:60px;""> </div>","null","fixation","html-keyboard-response","468","1447635","0.0-6.0-0.66","2928937","co38419","norming","","","","","","",""
"null","../img/tt/126tt.jpg","null","mooney1","image-keyboard-response","469","1450644","0.0-6.0-1.66","2928937","co38419","norming","","","","","","",""
"3020.1500000001397","","","post_mooney1_questions","survey-likert","470","1453665","0.0-6.0-2.66","2928937","co38419","norming","","","{""curiosity"":4,""confidence"":5}","[0,1]","../img/tt/126tt.jpg","",""
"2798.119999999879","","","recognition","survey-text","471","1456465","0.0-6.0-3.66","2928937","co38419","norming","","","{""guess"":""koe""}","","../img/tt/126tt.jpg","",""
"null","../img/gs/126gs.jpg","null","reveal","image-keyboard-response","472","1458471","0.0-6.0-4.66","2928937","co38419","norming","","","","","","",""
"null","../img/tt/126tt.jpg","null","mooney2","image-keyboard-response","473","1460480","0.0-6.0-5.66","2928937","co38419","norming","","","","","","",""
"1982.1750000000466","","","post_reveal_questions","survey-likert","474","1462465","0.0-6.0-6.66","2928937","co38419","norming","","","{""aha"":5}","[0]","../img/tt/126tt.jpg","",""
"null","<div style=""font-size:60px;""> </div>","null","fixation","html-keyboard-response","475","1462668","0.0-6.0-0.67","2928937","co38419","norming","","","","","","",""
"null","../img/tt/1072tt.jpg","null","mooney1","image-keyboard-response","476","1465673","0.0-6.0-1.67","2928937","co38419","norming","","","","","","",""
"3036.875","","","post_mooney1_questions","survey-likert","477","1468713","0.0-6.0-2.67","2928937","co38419","norming","","","{""curiosity"":6,""confidence"":0}","[0,1]","../img/tt/1072tt.jpg","",""
"902.1699999999255","","","recognition","survey-text","478","1469617","0.0-6.0-3.67","2928937","co38419","norming","","","{""guess"":""""}","","../img/tt/1072tt.jpg","",""
"null","../img/gs/1072gs.jpg","null","reveal","image-keyboard-response","479","1471621","0.0-6.0-4.67","2928937","co38419","norming","","","","","","",""
"null","../img/tt/1072tt.jpg","null","mooney2","image-keyboard-response","480","1473631","0.0-6.0-5.67","2928937","co38419","norming","","","","","","",""
"3776.530000000028","","","post_reveal_questions","survey-likert","481","1477409","0.0-6.0-6.67","2928937","co38419","norming","","","{""aha"":4}","[0]","../img/tt/1072tt.jpg","",""
"null","<div style=""font-size:60px;""> </div>","null","fixation","html-keyboard-response","482","1477620","0.0-6.0-0.68","2928937","co38419","norming","","","","","","",""
"null","../img/tt/1261tt.jpg","null","mooney1","image-keyboard-response","483","1480632","0.0-6.0-1.68","2928937","co38419","norming","","","","","","",""
"4320.219999999972","","","post_mooney1_questions","survey-likert","484","1484953","0.0-6.0-2.68","2928937","co38419","norming","","","{""curiosity"":5,""confidence"":2}","[0,1]","../img/tt/1261tt.jpg","",""
"5046.014999999898","","","recognition","survey-text","485","1489993","0.0-6.0-3.68","2928937","co38419","norming","","","{""guess"":""eekhoorn""}","","../img/tt/1261tt.jpg","",""
"null","../img/gs/1261gs.jpg","null","reveal","image-keyboard-response","486","1491998","0.0-6.0-4.68","2928937","co38419","norming","","","","","","",""
"null","../img/tt/1261tt.jpg","null","mooney2","image-keyboard-response","487","1494002","0.0-6.0-5.68","2928937","co38419","norming","","","","","","",""
"1811.7950000001583","","","post_reveal_questions","survey-likert","488","1495817","0.0-6.0-6.68","2928937","co38419","norming","","","{""aha"":5}","[0]","../img/tt/1261tt.jpg","",""
"null","<div style=""font-size:60px;""> </div>","null","fixation","html-keyboard-response","489","1496020","0.0-6.0-0.69","2928937","co38419","norming","","","","","","",""
"null","../img/tt/053tt.jpg","null","mooney1","image-keyboard-response","490","1499030","0.0-6.0-1.69","2928937","co38419","norming","","","","","","",""
"4072.2000000001863","","","post_mooney1_questions","survey-likert","491","1503105","0.0-6.0-2.69","2928937","co38419","norming","","","{""curiosity"":5,""confidence"":2}","[0,1]","../img/tt/053tt.jpg","",""
"2982.184999999823","","","recognition","survey-text","492","1506089","0.0-6.0-3.69","2928937","co38419","norming","","","{""guess"":""surfen""}","","../img/tt/053tt.jpg","",""
"null","../img/gs/053gs.jpg","null","reveal","image-keyboard-response","493","1508090","0.0-6.0-4.69","2928937","co38419","norming","","","","","","",""
"null","../img/tt/053tt.jpg","null","mooney2","image-keyboard-response","494","1510093","0.0-6.0-5.69","2928937","co38419","norming","","","","","","",""
"4201.530000000028","","","post_reveal_questions","survey-likert","495","1514297","0.0-6.0-6.69","2928937","co38419","norming","","","{""aha"":4}","[0]","../img/tt/053tt.jpg","",""
"null","<div style=""font-size:60px;""> </div>","null","fixation","html-keyboard-response","496","1514505","0.0-6.0-0.70","2928937","co38419","norming","","","","","","",""
"null","../img/tt/064tt.jpg","null","mooney1","image-keyboard-response","497","1517511","0.0-6.0-1.70","2928937","co38419","norming","","","","","","",""
"4383.074999999953","","","post_mooney1_questions","survey-likert","498","1521897","0.0-6.0-2.70","2928937","co38419","norming","","","{""curiosity"":4,""confidence"":5}","[0,1]","../img/tt/064tt.jpg","",""
"3558.1350000000093","","","recognition","survey-text","499","1525457","0.0-6.0-3.70","2928937","co38419","norming","","","{""guess"":""slang""}","","../img/tt/064tt.jpg","",""
"null","../img/gs/064gs.jpg","null","reveal","image-keyboard-response","500","1527462","0.0-6.0-4.70","2928937","co38419","norming","","","","","","",""
"null","../img/tt/064tt.jpg","null","mooney2","image-keyboard-response","501","1529465","0.0-6.0-5.70","2928937","co38419","norming","","","","","","",""
"1557.2750000001397","","","post_reveal_questions","survey-likert","502","1531025","0.0-6.0-6.70","2928937","co38419","norming","","","{""aha"":5}","[0]","../img/tt/064tt.jpg","",""
"null","<div style=""font-size:60px;""> </div>","null","fixation","html-keyboard-response","503","1531233","0.0-6.0-0.71","2928937","co38419","norming","","","","","","",""
"null","../img/tt/603tt.jpg","null","mooney1","image-keyboard-response","504","1534241","0.0-6.0-1.71","2928937","co38419","norming","","","","","","",""
"4028.755000000121","","","post_mooney1_questions","survey-likert","505","1538273","0.0-6.0-2.71","2928937","co38419","norming","","","{""curiosity"":5,""confidence"":2}","[0,1]","../img/tt/603tt.jpg","",""
"2790.019999999786","","","recognition","survey-text","506","1541065","0.0-6.0-3.71","2928937","co38419","norming","","","{""guess"":""kat""}","","../img/tt/603tt.jpg","",""
"null","../img/gs/603gs.jpg","null","reveal","image-keyboard-response","507","1543069","0.0-6.0-4.71","2928937","co38419","norming","","","","","","",""
"null","../img/tt/603tt.jpg","null","mooney2","image-keyboard-response","508","1545073","0.0-6.0-5.71","2928937","co38419","norming","","","","","","",""
"2141.9500000001863","","","post_reveal_questions","survey-likert","509","1547217","0.0-6.0-6.71","2928937","co38419","norming","","","{""aha"":5}","[0]","../img/tt/603tt.jpg","",""
"null","<div style=""font-size:60px;""> </div>","null","fixation","html-keyboard-response","510","1547429","0.0-6.0-0.72","2928937","co38419","norming","","","","","","",""
"null","../img/tt/1080tt.jpg","null","mooney1","image-keyboard-response","511","1550434","0.0-6.0-1.72","2928937","co38419","norming","","","","","","",""
"4035.695000000065","","","post_mooney1_questions","survey-likert","512","1554473","0.0-6.0-2.72","2928937","co38419","norming","","","{""curiosity"":5,""confidence"":1}","[0,1]","../img/tt/1080tt.jpg","",""
"3429.8349999999627","","","recognition","survey-text","513","1557904","0.0-6.0-3.72","2928937","co38419","norming","","","{""guess"":""model""}","","../img/tt/1080tt.jpg","",""
"null","../img/gs/1080gs.jpg","null","reveal","image-keyboard-response","514","1559912","0.0-6.0-4.72","2928937","co38419","norming","","","","","","",""
"null","../img/tt/1080tt.jpg","null","mooney2","image-keyboard-response","515","1561917","0.0-6.0-5.72","2928937","co38419","norming","","","","","","",""
"1634.4300000001676","","","post_reveal_questions","survey-likert","516","1563553","0.0-6.0-6.72","2928937","co38419","norming","","","{""aha"":1}","[0]","../img/tt/1080tt.jpg","",""
"null","<div style=""font-size:60px;""> </div>","null","fixation","html-keyboard-response","517","1563754","0.0-6.0-0.73","2928937","co38419","norming","","","","","","",""
"null","../img/tt/118tt.jpg","null","mooney1","image-keyboard-response","518","1566762","0.0-6.0-1.73","2928937","co38419","norming","","","","","","",""
"3171.5500000000466","","","post_mooney1_questions","survey-likert","519","1569937","0.0-6.0-2.73","2928937","co38419","norming","","","{""curiosity"":5,""confidence"":1}","[0,1]","../img/tt/118tt.jpg","",""
"4302.145000000019","","","recognition","survey-text","520","1574241","0.0-6.0-3.73","2928937","co38419","norming","","","{""guess"":""trap""}","","../img/tt/118tt.jpg","",""
"null","../img/gs/118gs.jpg","null","reveal","image-keyboard-response","521","1576249","0.0-6.0-4.73","2928937","co38419","norming","","","","","","",""
"null","../img/tt/118tt.jpg","null","mooney2","image-keyboard-response","522","1578251","0.0-6.0-5.73","2928937","co38419","norming","","","","","","",""
"1539.3250000001863","","","post_reveal_questions","survey-likert","523","1579793","0.0-6.0-6.73","2928937","co38419","norming","","","{""aha"":5}","[0]","../img/tt/118tt.jpg","",""
"null","<div style=""font-size:60px;""> </div>","null","fixation","html-keyboard-response","524","1579995","0.0-6.0-0.74","2928937","co38419","norming","","","","","","",""
"null","../img/tt/1101tt.jpg","null","mooney1","image-keyboard-response","525","1582997","0.0-6.0-1.74","2928937","co38419","norming","","","","","","",""
"4016.6049999999814","","","post_mooney1_questions","survey-likert","526","1587017","0.0-6.0-2.74","2928937","co38419","norming","","","{""curiosity"":5,""confidence"":2}","[0,1]","../img/tt/1101tt.jpg","",""
"3605.524999999907","","","recognition","survey-text","527","1590624","0.0-6.0-3.74","2928937","co38419","norming","","","{""guess"":""kajak""}","","../img/tt/1101tt.jpg","",""
"null","../img/gs/1101gs.jpg","null","reveal","image-keyboard-response","528","1592626","0.0-6.0-4.74","2928937","co38419","norming","","","","","","",""
"null","../img/tt/1101tt.jpg","null","mooney2","image-keyboard-response","529","1594628","0.0-6.0-5.74","2928937","co38419","norming","","","","","","",""
"1483.5500000000466","","","post_reveal_questions","survey-likert","530","1596113","0.0-6.0-6.74","2928937","co38419","norming","","","{""aha"":5}","[0]","../img/tt/1101tt.jpg","",""
"null","<div style=""font-size:60px;""> </div>","null","fixation","html-keyboard-response","531","1596320","0.0-6.0-0.75","2928937","co38419","norming","","","","","","",""
"null","../img/tt/031tt.jpg","null","mooney1","image-keyboard-response","532","1599325","0.0-6.0-1.75","2928937","co38419","norming","","","","","","",""
"3271.9150000000373","","","post_mooney1_questions","survey-likert","533","1602601","0.0-6.0-2.75","2928937","co38419","norming","","","{""curiosity"":6,""confidence"":0}","[0,1]","../img/tt/031tt.jpg","",""
"870.0900000000838","","","recognition","survey-text","534","1603473","0.0-6.0-3.75","2928937","co38419","norming","","","{""guess"":""""}","","../img/tt/031tt.jpg","",""
"null","../img/gs/031gs.jpg","null","reveal","image-keyboard-response","535","1605478","0.0-6.0-4.75","2928937","co38419","norming","","","","","","",""
"null","../img/tt/031tt.jpg","null","mooney2","image-keyboard-response","536","1607486","0.0-6.0-5.75","2928937","co38419","norming","","","","","","",""
"2280.0449999999255","","","post_reveal_questions","survey-likert","537","1609769","0.0-6.0-6.75","2928937","co38419","norming","","","{""aha"":5}","[0]","../img/tt/031tt.jpg","",""
"null","<div style=""font-size:60px;""> </div>","null","fixation","html-keyboard-response","538","1609978","0.0-6.0-0.76","2928937","co38419","norming","","","","","","",""
"null","../img/tt/353tt.jpg","null","mooney1","image-keyboard-response","539","1612990","0.0-6.0-1.76","2928937","co38419","norming","","","","","","",""
"3543.3300000000745","","","post_mooney1_questions","survey-likert","540","1616537","0.0-6.0-2.76","2928937","co38419","norming","","","{""curiosity"":4,""confidence"":5}","[0,1]","../img/tt/353tt.jpg","",""
"5125.870000000112","","","recognition","survey-text","541","1621664","0.0-6.0-3.76","2928937","co38419","norming","","","{""guess"":""pinguin""}","","../img/tt/353tt.jpg","",""
"null","../img/gs/353gs.jpg","null","reveal","image-keyboard-response","542","1623674","0.0-6.0-4.76","2928937","co38419","norming","","","","","","",""
"null","../img/tt/353tt.jpg","null","mooney2","image-keyboard-response","543","1625676","0.0-6.0-5.76","2928937","co38419","norming","","","","","","",""
"1409.589999999851","","","post_reveal_questions","survey-likert","544","1627088","0.0-6.0-6.76","2928937","co38419","norming","","","{""aha"":6}","[0]","../img/tt/353tt.jpg","",""
"null","<div style=""font-size:60px;""> </div>","null","fixation","html-keyboard-response","545","1627290","0.0-6.0-0.77","2928937","co38419","norming","","","","","","",""
"null","../img/tt/1191tt.jpg","null","mooney1","image-keyboard-response","546","1630295","0.0-6.0-1.77","2928937","co38419","norming","","","","","","",""
"3471.054999999935","","","post_mooney1_questions","survey-likert","547","1633769","0.0-6.0-2.77","2928937","co38419","norming","","","{""curiosity"":5,""confidence"":2}","[0,1]","../img/tt/1191tt.jpg","",""
"3182.1999999999534","","","recognition","survey-text","548","1636953","0.0-6.0-3.77","2928937","co38419","norming","","","{""guess"":""kameel""}","","../img/tt/1191tt.jpg","",""
"null","../img/gs/1191gs.jpg","null","reveal","image-keyboard-response","549","1638962","0.0-6.0-4.77","2928937","co38419","norming","","","","","","",""
"null","../img/tt/1191tt.jpg","null","mooney2","image-keyboard-response","550","1640964","0.0-6.0-5.77","2928937","co38419","norming","","","","","","",""
"2233.8199999998324","","","post_reveal_questions","survey-likert","551","1643201","0.0-6.0-6.77","2928937","co38419","norming","","","{""aha"":4}","[0]","../img/tt/1191tt.jpg","",""
"null","<div style=""font-size:60px;""> </div>","null","fixation","html-keyboard-response","552","1643411","0.0-6.0-0.78","2928937","co38419","norming","","","","","","",""
