"rt","stimulus","key_press","test_part","trial_type","trial_index","time_elapsed","internal_node_id","totalTime","subject","experiment_name","button_pressed","success","responses","question_order","currentStim","old","correct"
"13253.080000000067","Welcome to the experiment. This is an online experiment so please don't close the tab/window until we say goodbye.  Press any key to begin.","74","instructions","html-keyboard-response","0","13268","0.0-0.0","2594660","co38299","norming","","","","","","",""
"65734.58000000005","<div style='word-wrap: break-word; width: 900px'><h3>Please consider this information carefully before deciding whether to participate in this research</h3><ul style='text-align: left; font-size: .8em;'><li><b>Purpose of the research</b>: To examine how people process images.</li><li><b>What you will do in this research</b>:  Stimuli (images) will be presented on the computer and you will be asked different questions about them.</li><li><b>Time required</b>: Participation will take between 45 and 60 minutes to complete.</li><li><b>Risks</b>:  There are no anticipated risks associated with participating in this study. The effects of participating should be comparable to those you would experience from viewing a computer monitor for 30 minutes and using a mouse or keyboard.</li><li><b>Benefits</b>:  This study provides no benefits to you individually except for the credit. The study provides important information about the nature of perception and learning.</li><li><b>Confidentiality</b>:  Your participation in this study will remain confidential. No personally identifiable information will be associated with your data. Your de-identified data may be shared with other researchers and used in future projects.</li><li><b>Participation and withdrawal</b>:  Your participation in this study is completely voluntary and you may refuse to participate or you may choose to withdraw at any time without penalty.</li><li><b>How to contact the researchers</b>: If you have questions or concerns about your participation or payment, or want to request a summary of research findings, please contact Sander Van de Cruys (KU Leuven), at sander.vandecruys@kuleuven.be.</li></ul><p>The nature and purpose of this research have been sufficiently explained and I agree to participate in this study.  I understand that I am free to withdraw at any time without incurring any penalty.</p><p>Please consent by clicking the button below to continue. Otherwise, please exit the study at this time.</p></div>","","instructions","html-button-response","1","78995","0.0-1.0","2594660","co38299","norming","0","","","","","",""
"","","","instructions","fullscreen","2","87415","0.0-2.0","2594660","co38299","norming","","true","","","","",""
"39194.115000000005","","","sona","survey-html-form","3","126614","0.0-3.0","2594660","co38299","norming","","","[{""name"":""sonaid"",""value"":""38299""},{""name"":""debrief"",""value"":""no""},{""name"":""datajoin"",""value"":""yes""}]","","","",""
"81075.77999999988","<div style='word-wrap: break-word; width: 900px'><h3>Instructions</h3><p>This experiment will have 3 parts. In the first part you will see a series of distorted images like the one below on the left. As you can see in the righthand image, the distorted images are derived from actual photographs. In what follows, you will <strong>briefly</strong> be presented with <strong>only</strong> the distorted image.</p> <div style='float: left; margin-right: 20px;'><img src='../img/018tt.jpg' height='250' width='250'></img></div><div style='float: right; margin-left: 20px;'><img src='../img/018gs.jpg' height='250' width='250'></img></div><p>Subsequently you will be asked a few questions about the image: One question on how <strong>curious</strong> you are about the solution and one on how <strong>confident</strong> you are that you know the solution.</p>Next, we ask you to make a guess on what is in the image. Note that it is OK to name just the <strong>basic level category</strong>. For example when you see a parrot in the image, 'parrot' will obviously be a correct answer but also correct is 'bird'. However, 'animal' will <strong>not</strong> be counted as a correct response. For the example above, 'rose' would be correct or 'flower', but not 'plant'. When soccer players are depicted, 'soccer', 'football', 'soccer players' will be correct, but not 'humans', 'outdoors', or 'sports'. You do not need to describe the image in full, just name the main object in it <strong>in one or two words</strong>. All images depict objects from one of the following broad level categories: animals, inanimate objects, plants, sports, vehicles, and food. Recognizing means knowing <strong>more</strong> than these broad labels for a given image. But we always encourage you to <strong>make a guess</strong> if you can. Note that you are allowed to use <strong>Dutch and English</strong> in your answers, whatever comes easiest for you.</p><p>Press any key to continue.</p></div>","188","instructions","html-keyboard-response","4","207698","0.0-4.0","2594660","co38299","norming","","","","","","",""
"75726.52000000016","<div style='word-wrap: break-word; width: 900px'><h3>Instructions</h3> <p>Next, the solution image will be revealed to you and you'll be asked to indicate how strong your <strong>aha-experience</strong> was after seeing the solution. This describes the positive feeling of the 'click' you sometimes experience, when the pieces of the 'puzzle' fall together and you suddenly have 'insight' in the image.</p><img src='aha.jpg' height='188' width='250'></img><p>Note that there are no right or wrong answers. We are interested in what <strong>you</strong> see in the image and how <strong>you</strong> feel about it.</p><p>Press any key to start the experiment.</p></div>","75","instructions","html-keyboard-response","5","283432","0.0-5.0","2594660","co38299","norming","","","","","","",""
"null","<div style=""font-size:60px;""> </div>","null","fixation","html-keyboard-response","6","283634","0.0-6.0-0.0","2594660","co38299","norming","","","","","","",""
"null","../img/tt/507tt.jpg","null","mooney1","image-keyboard-response","7","286647","0.0-6.0-1.0","2594660","co38299","norming","","","","","","",""
"10564.069999999949","","","post_mooney1_questions","survey-likert","8","297215","0.0-6.0-2.0","2594660","co38299","norming","","","{""curiosity"":5,""confidence"":0}","[0,1]","../img/tt/507tt.jpg","",""
"2301.5900000000256","","","recognition","survey-text","9","299518","0.0-6.0-3.0","2594660","co38299","norming","","","{""guess"":""""}","","../img/tt/507tt.jpg","",""
"null","../img/gs/507gs.jpg","null","reveal","image-keyboard-response","10","301524","0.0-6.0-4.0","2594660","co38299","norming","","","","","","",""
"null","../img/tt/507tt.jpg","null","mooney2","image-keyboard-response","11","303527","0.0-6.0-5.0","2594660","co38299","norming","","","","","","",""
"5669.150000000198","","","post_reveal_questions","survey-likert","12","309198","0.0-6.0-6.0","2594660","co38299","norming","","","{""aha"":1}","[0]","../img/tt/507tt.jpg","",""
"null","<div style=""font-size:60px;""> </div>","null","fixation","html-keyboard-response","13","309402","0.0-6.0-0.1","2594660","co38299","norming","","","","","","",""
"null","../img/tt/1353tt.jpg","null","mooney1","image-keyboard-response","14","312407","0.0-6.0-1.1","2594660","co38299","norming","","","","","","",""
"6206.104999999981","","","post_mooney1_questions","survey-likert","15","318615","0.0-6.0-2.1","2594660","co38299","norming","","","{""curiosity"":4,""confidence"":1}","[0,1]","../img/tt/1353tt.jpg","",""
"4181.5799999999","","","recognition","survey-text","16","322798","0.0-6.0-3.1","2594660","co38299","norming","","","{""guess"":""dinosaurus""}","","../img/tt/1353tt.jpg","",""
"null","../img/gs/1353gs.jpg","null","reveal","image-keyboard-response","17","324803","0.0-6.0-4.1","2594660","co38299","norming","","","","","","",""
"null","../img/tt/1353tt.jpg","null","mooney2","image-keyboard-response","18","326808","0.0-6.0-5.1","2594660","co38299","norming","","","","","","",""
"2813.2649999999558","","","post_reveal_questions","survey-likert","19","329622","0.0-6.0-6.1","2594660","co38299","norming","","","{""aha"":4}","[0]","../img/tt/1353tt.jpg","",""
"null","<div style=""font-size:60px;""> </div>","null","fixation","html-keyboard-response","20","329832","0.0-6.0-0.2","2594660","co38299","norming","","","","","","",""
"null","../img/tt/044tt.jpg","null","mooney1","image-keyboard-response","21","332835","0.0-6.0-1.2","2594660","co38299","norming","","","","","","",""
"7769.890000000014","","","post_mooney1_questions","survey-likert","22","340606","0.0-6.0-2.2","2594660","co38299","norming","","","{""curiosity"":5,""confidence"":0}","[0,1]","../img/tt/044tt.jpg","",""
"797.8099999997648","","","recognition","survey-text","23","341406","0.0-6.0-3.2","2594660","co38299","norming","","","{""guess"":""""}","","../img/tt/044tt.jpg","",""
"null","../img/gs/044gs.jpg","null","reveal","image-keyboard-response","24","343417","0.0-6.0-4.2","2594660","co38299","norming","","","","","","",""
"null","../img/tt/044tt.jpg","null","mooney2","image-keyboard-response","25","345421","0.0-6.0-5.2","2594660","co38299","norming","","","","","","",""
"6570.794999999867","","","post_reveal_questions","survey-likert","26","351992","0.0-6.0-6.2","2594660","co38299","norming","","","{""aha"":0}","[0]","../img/tt/044tt.jpg","",""
"null","<div style=""font-size:60px;""> </div>","null","fixation","html-keyboard-response","27","352203","0.0-6.0-0.3","2594660","co38299","norming","","","","","","",""
"null","../img/tt/1126tt.jpg","null","mooney1","image-keyboard-response","28","355213","0.0-6.0-1.3","2594660","co38299","norming","","","","","","",""
"7970.589999999851","","","post_mooney1_questions","survey-likert","29","363184","0.0-6.0-2.3","2594660","co38299","norming","","","{""curiosity"":3,""confidence"":2}","[0,1]","../img/tt/1126tt.jpg","",""
"1134.0749999999534","","","recognition","survey-text","30","364320","0.0-6.0-3.3","2594660","co38299","norming","","","{""guess"":""""}","","../img/tt/1126tt.jpg","",""
"null","../img/gs/1126gs.jpg","null","reveal","image-keyboard-response","31","366323","0.0-6.0-4.3","2594660","co38299","norming","","","","","","",""
"null","../img/tt/1126tt.jpg","null","mooney2","image-keyboard-response","32","368331","0.0-6.0-5.3","2594660","co38299","norming","","","","","","",""
"2835.749999999942","","","post_reveal_questions","survey-likert","33","371168","0.0-6.0-6.3","2594660","co38299","norming","","","{""aha"":5}","[0]","../img/tt/1126tt.jpg","",""
"null","<div style=""font-size:60px;""> </div>","null","fixation","html-keyboard-response","34","371373","0.0-6.0-0.4","2594660","co38299","norming","","","","","","",""
"null","../img/tt/1268tt.jpg","null","mooney1","image-keyboard-response","35","374374","0.0-6.0-1.4","2594660","co38299","norming","","","","","","",""
"6553.149999999965","","","post_mooney1_questions","survey-likert","36","380928","0.0-6.0-2.4","2594660","co38299","norming","","","{""curiosity"":6,""confidence"":0}","[0,1]","../img/tt/1268tt.jpg","",""
"4493.960000000021","","","recognition","survey-text","37","385424","0.0-6.0-3.4","2594660","co38299","norming","","","{""guess"":""""}","","../img/tt/1268tt.jpg","",""
"null","../img/gs/1268gs.jpg","null","reveal","image-keyboard-response","38","387433","0.0-6.0-4.4","2594660","co38299","norming","","","","","","",""
"null","../img/tt/1268tt.jpg","null","mooney2","image-keyboard-response","39","389435","0.0-6.0-5.4","2594660","co38299","norming","","","","","","",""
"1932.104999999865","","","post_reveal_questions","survey-likert","40","391368","0.0-6.0-6.4","2594660","co38299","norming","","","{""aha"":1}","[0]","../img/tt/1268tt.jpg","",""
"null","<div style=""font-size:60px;""> </div>","null","fixation","html-keyboard-response","41","391579","0.0-6.0-0.5","2594660","co38299","norming","","","","","","",""
"null","../img/tt/405tt.jpg","null","mooney1","image-keyboard-response","42","394589","0.0-6.0-1.5","2594660","co38299","norming","","","","","","",""
"4738.269999999844","","","post_mooney1_questions","survey-likert","43","399328","0.0-6.0-2.5","2594660","co38299","norming","","","{""curiosity"":2,""confidence"":5}","[0,1]","../img/tt/405tt.jpg","",""
"2213.4400000000023","","","recognition","survey-text","44","401544","0.0-6.0-3.5","2594660","co38299","norming","","","{""guess"":""koala""}","","../img/tt/405tt.jpg","",""
"null","../img/gs/405gs.jpg","null","reveal","image-keyboard-response","45","403546","0.0-6.0-4.5","2594660","co38299","norming","","","","","","",""
"null","../img/tt/405tt.jpg","null","mooney2","image-keyboard-response","46","405548","0.0-6.0-5.5","2594660","co38299","norming","","","","","","",""
"2092.6550000001444","","","post_reveal_questions","survey-likert","47","407642","0.0-6.0-6.5","2594660","co38299","norming","","","{""aha"":0}","[0]","../img/tt/405tt.jpg","",""
"null","<div style=""font-size:60px;""> </div>","null","fixation","html-keyboard-response","48","407843","0.0-6.0-0.6","2594660","co38299","norming","","","","","","",""
"null","../img/tt/1191tt.jpg","null","mooney1","image-keyboard-response","49","410845","0.0-6.0-1.6","2594660","co38299","norming","","","","","","",""
"6058.72499999986","","","post_mooney1_questions","survey-likert","50","416906","0.0-6.0-2.6","2594660","co38299","norming","","","{""curiosity"":3,""confidence"":3}","[0,1]","../img/tt/1191tt.jpg","",""
"3517.8549999998068","","","recognition","survey-text","51","420425","0.0-6.0-3.6","2594660","co38299","norming","","","{""guess"":""dromedaris""}","","../img/tt/1191tt.jpg","",""
"null","../img/gs/1191gs.jpg","null","reveal","image-keyboard-response","52","422428","0.0-6.0-4.6","2594660","co38299","norming","","","","","","",""
"null","../img/tt/1191tt.jpg","null","mooney2","image-keyboard-response","53","424429","0.0-6.0-5.6","2594660","co38299","norming","","","","","","",""
"1994.5599999998813","","","post_reveal_questions","survey-likert","54","426425","0.0-6.0-6.6","2594660","co38299","norming","","","{""aha"":2}","[0]","../img/tt/1191tt.jpg","",""
"null","<div style=""font-size:60px;""> </div>","null","fixation","html-keyboard-response","55","426628","0.0-6.0-0.7","2594660","co38299","norming","","","","","","",""
"null","../img/tt/1069tt.jpg","null","mooney1","image-keyboard-response","56","429639","0.0-6.0-1.7","2594660","co38299","norming","","","","","","",""
"4945.990000000165","","","post_mooney1_questions","survey-likert","57","434586","0.0-6.0-2.7","2594660","co38299","norming","","","{""curiosity"":5,""confidence"":1}","[0,1]","../img/tt/1069tt.jpg","",""
"2301.9300000001094","","","recognition","survey-text","58","436889","0.0-6.0-3.7","2594660","co38299","norming","","","{""guess"":""indianen""}","","../img/tt/1069tt.jpg","",""
"null","../img/gs/1069gs.jpg","null","reveal","image-keyboard-response","59","438897","0.0-6.0-4.7","2594660","co38299","norming","","","","","","",""
"null","../img/tt/1069tt.jpg","null","mooney2","image-keyboard-response","60","440906","0.0-6.0-5.7","2594660","co38299","norming","","","","","","",""
"3614.9050000001444","","","post_reveal_questions","survey-likert","61","444522","0.0-6.0-6.7","2594660","co38299","norming","","","{""aha"":5}","[0]","../img/tt/1069tt.jpg","",""
"null","<div style=""font-size:60px;""> </div>","null","fixation","html-keyboard-response","62","444729","0.0-6.0-0.8","2594660","co38299","norming","","","","","","",""
"null","../img/tt/091tt.jpg","null","mooney1","image-keyboard-response","63","447733","0.0-6.0-1.8","2594660","co38299","norming","","","","","","",""
"6004.059999999998","","","post_mooney1_questions","survey-likert","64","453738","0.0-6.0-2.8","2594660","co38299","norming","","","{""curiosity"":5,""confidence"":3}","[0,1]","../img/tt/091tt.jpg","",""
"2045.5949999997974","","","recognition","survey-text","65","455785","0.0-6.0-3.8","2594660","co38299","norming","","","{""guess"":""lizard""}","","../img/tt/091tt.jpg","",""
"null","../img/gs/091gs.jpg","null","reveal","image-keyboard-response","66","457795","0.0-6.0-4.8","2594660","co38299","norming","","","","","","",""
"null","../img/tt/091tt.jpg","null","mooney2","image-keyboard-response","67","459798","0.0-6.0-5.8","2594660","co38299","norming","","","","","","",""
"1705.6949999998906","","","post_reveal_questions","survey-likert","68","461506","0.0-6.0-6.8","2594660","co38299","norming","","","{""aha"":1}","[0]","../img/tt/091tt.jpg","",""
"null","<div style=""font-size:60px;""> </div>","null","fixation","html-keyboard-response","69","461719","0.0-6.0-0.9","2594660","co38299","norming","","","","","","",""
"null","../img/tt/1236tt.jpg","null","mooney1","image-keyboard-response","70","464722","0.0-6.0-1.9","2594660","co38299","norming","","","","","","",""
"4734.905000000028","","","post_mooney1_questions","survey-likert","71","469452","0.0-6.0-2.9","2594660","co38299","norming","","","{""curiosity"":5,""confidence"":0}","[0,1]","../img/tt/1236tt.jpg","",""
"605.8499999999185","","","recognition","survey-text","72","470059","0.0-6.0-3.9","2594660","co38299","norming","","","{""guess"":""""}","","../img/tt/1236tt.jpg","",""
"null","../img/gs/1236gs.jpg","null","reveal","image-keyboard-response","73","472070","0.0-6.0-4.9","2594660","co38299","norming","","","","","","",""
"null","../img/tt/1236tt.jpg","null","mooney2","image-keyboard-response","74","474075","0.0-6.0-5.9","2594660","co38299","norming","","","","","","",""
"4204.965000000142","","","post_reveal_questions","survey-likert","75","478283","0.0-6.0-6.9","2594660","co38299","norming","","","{""aha"":4}","[0]","../img/tt/1236tt.jpg","",""
"null","<div style=""font-size:60px;""> </div>","null","fixation","html-keyboard-response","76","478484","0.0-6.0-0.10","2594660","co38299","norming","","","","","","",""
"null","../img/tt/1275tt.jpg","null","mooney1","image-keyboard-response","77","481491","0.0-6.0-1.10","2594660","co38299","norming","","","","","","",""
"5023.4700000000885","","","post_mooney1_questions","survey-likert","78","486515","0.0-6.0-2.10","2594660","co38299","norming","","","{""curiosity"":6,""confidence"":0}","[0,1]","../img/tt/1275tt.jpg","",""
"773.9500000000116","","","recognition","survey-text","79","487291","0.0-6.0-3.10","2594660","co38299","norming","","","{""guess"":""""}","","../img/tt/1275tt.jpg","",""
"null","../img/gs/1275gs.jpg","null","reveal","image-keyboard-response","80","489296","0.0-6.0-4.10","2594660","co38299","norming","","","","","","",""
"null","../img/tt/1275tt.jpg","null","mooney2","image-keyboard-response","81","491298","0.0-6.0-5.10","2594660","co38299","norming","","","","","","",""
"3984.6549999999697","","","post_reveal_questions","survey-likert","82","495283","0.0-6.0-6.10","2594660","co38299","norming","","","{""aha"":5}","[0]","../img/tt/1275tt.jpg","",""
"null","<div style=""font-size:60px;""> </div>","null","fixation","html-keyboard-response","83","495490","0.0-6.0-0.11","2594660","co38299","norming","","","","","","",""
"null","../img/tt/1053tt.jpg","null","mooney1","image-keyboard-response","84","498499","0.0-6.0-1.11","2594660","co38299","norming","","","","","","",""
"4381.7099999999045","","","post_mooney1_questions","survey-likert","85","502884","0.0-6.0-2.11","2594660","co38299","norming","","","{""curiosity"":3,""confidence"":2}","[0,1]","../img/tt/1053tt.jpg","",""
"1517.7349999998696","","","recognition","survey-text","86","504403","0.0-6.0-3.11","2594660","co38299","norming","","","{""guess"":""koe""}","","../img/tt/1053tt.jpg","",""
"null","../img/gs/1053gs.jpg","null","reveal","image-keyboard-response","87","506413","0.0-6.0-4.11","2594660","co38299","norming","","","","","","",""
"null","../img/tt/1053tt.jpg","null","mooney2","image-keyboard-response","88","508418","0.0-6.0-5.11","2594660","co38299","norming","","","","","","",""
"3838.749999999942","","","post_reveal_questions","survey-likert","89","512259","0.0-6.0-6.11","2594660","co38299","norming","","","{""aha"":3}","[0]","../img/tt/1053tt.jpg","",""
"null","<div style=""font-size:60px;""> </div>","null","fixation","html-keyboard-response","90","512462","0.0-6.0-0.12","2594660","co38299","norming","","","","","","",""
"null","../img/tt/1061tt.jpg","null","mooney1","image-keyboard-response","91","515470","0.0-6.0-1.12","2594660","co38299","norming","","","","","","",""
"4682.690000000119","","","post_mooney1_questions","survey-likert","92","520156","0.0-6.0-2.12","2594660","co38299","norming","","","{""curiosity"":5,""confidence"":2}","[0,1]","../img/tt/1061tt.jpg","",""
"677.8799999999464","","","recognition","survey-text","93","520835","0.0-6.0-3.12","2594660","co38299","norming","","","{""guess"":""""}","","../img/tt/1061tt.jpg","",""
"null","../img/gs/1061gs.jpg","null","reveal","image-keyboard-response","94","522836","0.0-6.0-4.12","2594660","co38299","norming","","","","","","",""
"null","../img/tt/1061tt.jpg","null","mooney2","image-keyboard-response","95","524837","0.0-6.0-5.12","2594660","co38299","norming","","","","","","",""
"6315.964999999967","","","post_reveal_questions","survey-likert","96","531158","0.0-6.0-6.12","2594660","co38299","norming","","","{""aha"":5}","[0]","../img/tt/1061tt.jpg","",""
"null","<div style=""font-size:60px;""> </div>","null","fixation","html-keyboard-response","97","531360","0.0-6.0-0.13","2594660","co38299","norming","","","","","","",""
"null","../img/tt/1161tt.jpg","null","mooney1","image-keyboard-response","98","534365","0.0-6.0-1.13","2594660","co38299","norming","","","","","","",""
"11374.630000000005","","","post_mooney1_questions","survey-likert","99","545742","0.0-6.0-2.13","2594660","co38299","norming","","","{""curiosity"":5,""confidence"":1}","[0,1]","../img/tt/1161tt.jpg","",""
"1702.1400000001304","","","recognition","survey-text","100","547446","0.0-6.0-3.13","2594660","co38299","norming","","","{""guess"":""luiaard""}","","../img/tt/1161tt.jpg","",""
"null","../img/gs/1161gs.jpg","null","reveal","image-keyboard-response","101","549448","0.0-6.0-4.13","2594660","co38299","norming","","","","","","",""
"null","../img/tt/1161tt.jpg","null","mooney2","image-keyboard-response","102","551455","0.0-6.0-5.13","2594660","co38299","norming","","","","","","",""
"4260.449999999953","","","post_reveal_questions","survey-likert","103","555718","0.0-6.0-6.13","2594660","co38299","norming","","","{""aha"":5}","[0]","../img/tt/1161tt.jpg","",""
"null","<div style=""font-size:60px;""> </div>","null","fixation","html-keyboard-response","104","555923","0.0-6.0-0.14","2594660","co38299","norming","","","","","","",""
"null","../img/tt/357tt.jpg","null","mooney1","image-keyboard-response","105","558934","0.0-6.0-1.14","2594660","co38299","norming","","","","","","",""
"5029.619999999995","","","post_mooney1_questions","survey-likert","106","563966","0.0-6.0-2.14","2594660","co38299","norming","","","{""curiosity"":5,""confidence"":1}","[0,1]","../img/tt/357tt.jpg","",""
"4230.224999999744","","","recognition","survey-text","107","568198","0.0-6.0-3.14","2594660","co38299","norming","","","{""guess"":""egel""}","","../img/tt/357tt.jpg","",""
"null","../img/gs/357gs.jpg","null","reveal","image-keyboard-response","108","570207","0.0-6.0-4.14","2594660","co38299","norming","","","","","","",""
"null","../img/tt/357tt.jpg","null","mooney2","image-keyboard-response","109","572214","0.0-6.0-5.14","2594660","co38299","norming","","","","","","",""
"3125.6900000000605","","","post_reveal_questions","survey-likert","110","575342","0.0-6.0-6.14","2594660","co38299","norming","","","{""aha"":1}","[0]","../img/tt/357tt.jpg","",""
"null","<div style=""font-size:60px;""> </div>","null","fixation","html-keyboard-response","111","575544","0.0-6.0-0.15","2594660","co38299","norming","","","","","","",""
"null","../img/tt/456tt.jpg","null","mooney1","image-keyboard-response","112","578551","0.0-6.0-1.15","2594660","co38299","norming","","","","","","",""
"6876.254999999888","","","post_mooney1_questions","survey-likert","113","585430","0.0-6.0-2.15","2594660","co38299","norming","","","{""curiosity"":3,""confidence"":0}","[0,1]","../img/tt/456tt.jpg","",""
"645.8749999998836","","","recognition","survey-text","114","586078","0.0-6.0-3.15","2594660","co38299","norming","","","{""guess"":""""}","","../img/tt/456tt.jpg","",""
"null","../img/gs/456gs.jpg","null","reveal","image-keyboard-response","115","588081","0.0-6.0-4.15","2594660","co38299","norming","","","","","","",""
"null","../img/tt/456tt.jpg","null","mooney2","image-keyboard-response","116","590087","0.0-6.0-5.15","2594660","co38299","norming","","","","","","",""
"3124.230000000214","","","post_reveal_questions","survey-likert","117","593217","0.0-6.0-6.15","2594660","co38299","norming","","","{""aha"":6}","[0]","../img/tt/456tt.jpg","",""
"null","<div style=""font-size:60px;""> </div>","null","fixation","html-keyboard-response","118","593424","0.0-6.0-0.16","2594660","co38299","norming","","","","","","",""
"null","../img/tt/442tt.jpg","null","mooney1","image-keyboard-response","119","596429","0.0-6.0-1.16","2594660","co38299","norming","","","","","","",""
"3434.1500000000233","","","post_mooney1_questions","survey-likert","120","599866","0.0-6.0-2.16","2594660","co38299","norming","","","{""curiosity"":6,""confidence"":0}","[0,1]","../img/tt/442tt.jpg","",""
"694.1700000000419","","","recognition","survey-text","121","600562","0.0-6.0-3.16","2594660","co38299","norming","","","{""guess"":""""}","","../img/tt/442tt.jpg","",""
"null","../img/gs/442gs.jpg","null","reveal","image-keyboard-response","122","602568","0.0-6.0-4.16","2594660","co38299","norming","","","","","","",""
"null","../img/tt/442tt.jpg","null","mooney2","image-keyboard-response","123","604574","0.0-6.0-5.16","2594660","co38299","norming","","","","","","",""
"3489.1849999999395","","","post_reveal_questions","survey-likert","124","608066","0.0-6.0-6.16","2594660","co38299","norming","","","{""aha"":5}","[0]","../img/tt/442tt.jpg","",""
"null","<div style=""font-size:60px;""> </div>","null","fixation","html-keyboard-response","125","608272","0.0-6.0-0.17","2594660","co38299","norming","","","","","","",""
"null","../img/tt/1366tt.jpg","null","mooney1","image-keyboard-response","126","611275","0.0-6.0-1.17","2594660","co38299","norming","","","","","","",""
"6237.6699999999255","","","post_mooney1_questions","survey-likert","127","617514","0.0-6.0-2.17","2594660","co38299","norming","","","{""curiosity"":2,""confidence"":1}","[0,1]","../img/tt/1366tt.jpg","",""
"1278.0100000000093","","","recognition","survey-text","128","618794","0.0-6.0-3.17","2594660","co38299","norming","","","{""guess"":""fruit""}","","../img/tt/1366tt.jpg","",""
"null","../img/gs/1366gs.jpg","null","reveal","image-keyboard-response","129","620803","0.0-6.0-4.17","2594660","co38299","norming","","","","","","",""
"null","../img/tt/1366tt.jpg","null","mooney2","image-keyboard-response","130","622806","0.0-6.0-5.17","2594660","co38299","norming","","","","","","",""
"3801.1099999998696","","","post_reveal_questions","survey-likert","131","626610","0.0-6.0-6.17","2594660","co38299","norming","","","{""aha"":1}","[0]","../img/tt/1366tt.jpg","",""
"null","<div style=""font-size:60px;""> </div>","null","fixation","html-keyboard-response","132","626813","0.0-6.0-0.18","2594660","co38299","norming","","","","","","",""
"null","../img/tt/1254tt.jpg","null","mooney1","image-keyboard-response","133","629820","0.0-6.0-1.18","2594660","co38299","norming","","","","","","",""
"6786.7799999999115","","","post_mooney1_questions","survey-likert","134","636610","0.0-6.0-2.18","2594660","co38299","norming","","","{""curiosity"":2,""confidence"":0}","[0,1]","../img/tt/1254tt.jpg","",""
"1165.9999999998836","","","recognition","survey-text","135","637777","0.0-6.0-3.18","2594660","co38299","norming","","","{""guess"":""""}","","../img/tt/1254tt.jpg","",""
"null","../img/gs/1254gs.jpg","null","reveal","image-keyboard-response","136","639786","0.0-6.0-4.18","2594660","co38299","norming","","","","","","",""
"null","../img/tt/1254tt.jpg","null","mooney2","image-keyboard-response","137","641794","0.0-6.0-5.18","2594660","co38299","norming","","","","","","",""
"4093.0599999999395","","","post_reveal_questions","survey-likert","138","645890","0.0-6.0-6.18","2594660","co38299","norming","","","{""aha"":5}","[0]","../img/tt/1254tt.jpg","",""
"null","<div style=""font-size:60px;""> </div>","null","fixation","html-keyboard-response","139","646091","0.0-6.0-0.19","2594660","co38299","norming","","","","","","",""
"null","../img/tt/1080tt.jpg","null","mooney1","image-keyboard-response","140","649099","0.0-6.0-1.19","2594660","co38299","norming","","","","","","",""
"4147.35999999987","","","post_mooney1_questions","survey-likert","141","653246","0.0-6.0-2.19","2594660","co38299","norming","","","{""curiosity"":6,""confidence"":0}","[0,1]","../img/tt/1080tt.jpg","",""
"590.3550000000978","","","recognition","survey-text","142","653838","0.0-6.0-3.19","2594660","co38299","norming","","","{""guess"":""""}","","../img/tt/1080tt.jpg","",""
"null","../img/gs/1080gs.jpg","null","reveal","image-keyboard-response","143","655843","0.0-6.0-4.19","2594660","co38299","norming","","","","","","",""
"null","../img/tt/1080tt.jpg","null","mooney2","image-keyboard-response","144","657853","0.0-6.0-5.19","2594660","co38299","norming","","","","","","",""
"3447.0200000000186","","","post_reveal_questions","survey-likert","145","661302","0.0-6.0-6.19","2594660","co38299","norming","","","{""aha"":6}","[0]","../img/tt/1080tt.jpg","",""
"null","<div style=""font-size:60px;""> </div>","null","fixation","html-keyboard-response","146","661510","0.0-6.0-0.20","2594660","co38299","norming","","","","","","",""
"null","../img/tt/318tt.jpg","null","mooney1","image-keyboard-response","147","664520","0.0-6.0-1.20","2594660","co38299","norming","","","","","","",""
"4603.479999999981","","","post_mooney1_questions","survey-likert","148","669126","0.0-6.0-2.20","2594660","co38299","norming","","","{""curiosity"":4,""confidence"":2}","[0,1]","../img/tt/318tt.jpg","",""
"2350.2949999999255","","","recognition","survey-text","149","671478","0.0-6.0-3.20","2594660","co38299","norming","","","{""guess"":""auto""}","","../img/tt/318tt.jpg","",""
"null","../img/gs/318gs.jpg","null","reveal","image-keyboard-response","150","673479","0.0-6.0-4.20","2594660","co38299","norming","","","","","","",""
"null","../img/tt/318tt.jpg","null","mooney2","image-keyboard-response","151","675483","0.0-6.0-5.20","2594660","co38299","norming","","","","","","",""
"2553.409999999916","","","post_reveal_questions","survey-likert","152","678038","0.0-6.0-6.20","2594660","co38299","norming","","","{""aha"":1}","[0]","../img/tt/318tt.jpg","",""
"null","<div style=""font-size:60px;""> </div>","null","fixation","html-keyboard-response","153","678243","0.0-6.0-0.21","2594660","co38299","norming","","","","","","",""
"null","../img/tt/1196tt.jpg","null","mooney1","image-keyboard-response","154","681251","0.0-6.0-1.21","2594660","co38299","norming","","","","","","",""
"5522.480000000098","","","post_mooney1_questions","survey-likert","155","686774","0.0-6.0-2.21","2594660","co38299","norming","","","{""curiosity"":3,""confidence"":0}","[0,1]","../img/tt/1196tt.jpg","",""
"790.125","","","recognition","survey-text","156","687566","0.0-6.0-3.21","2594660","co38299","norming","","","{""guess"":""""}","","../img/tt/1196tt.jpg","",""
"null","../img/gs/1196gs.jpg","null","reveal","image-keyboard-response","157","689574","0.0-6.0-4.21","2594660","co38299","norming","","","","","","",""
"null","../img/tt/1196tt.jpg","null","mooney2","image-keyboard-response","158","691583","0.0-6.0-5.21","2594660","co38299","norming","","","","","","",""
"4524.670000000042","","","post_reveal_questions","survey-likert","159","696110","0.0-6.0-6.21","2594660","co38299","norming","","","{""aha"":5}","[0]","../img/tt/1196tt.jpg","",""
"null","<div style=""font-size:60px;""> </div>","null","fixation","html-keyboard-response","160","696318","0.0-6.0-0.22","2594660","co38299","norming","","","","","","",""
"null","../img/tt/1309tt.jpg","null","mooney1","image-keyboard-response","161","699321","0.0-6.0-1.22","2594660","co38299","norming","","","","","","",""
"13819.80999999994","","","post_mooney1_questions","survey-likert","162","713140","0.0-6.0-2.22","2594660","co38299","norming","","","{""curiosity"":5,""confidence"":1}","[0,1]","../img/tt/1309tt.jpg","",""
"1566.0049999998882","","","recognition","survey-text","163","714708","0.0-6.0-3.22","2594660","co38299","norming","","","{""guess"":""bos""}","","../img/tt/1309tt.jpg","",""
"null","../img/gs/1309gs.jpg","null","reveal","image-keyboard-response","164","716714","0.0-6.0-4.22","2594660","co38299","norming","","","","","","",""
"null","../img/tt/1309tt.jpg","null","mooney2","image-keyboard-response","165","718716","0.0-6.0-5.22","2594660","co38299","norming","","","","","","",""
"4509.729999999981","","","post_reveal_questions","survey-likert","166","723228","0.0-6.0-6.22","2594660","co38299","norming","","","{""aha"":0}","[0]","../img/tt/1309tt.jpg","",""
"null","<div style=""font-size:60px;""> </div>","null","fixation","html-keyboard-response","167","723436","0.0-6.0-0.23","2594660","co38299","norming","","","","","","",""
"null","../img/tt/076tt.jpg","null","mooney1","image-keyboard-response","168","726445","0.0-6.0-1.23","2594660","co38299","norming","","","","","","",""
"6308.810000000056","","","post_mooney1_questions","survey-likert","169","732756","0.0-6.0-2.23","2594660","co38299","norming","","","{""curiosity"":6,""confidence"":2}","[0,1]","../img/tt/076tt.jpg","",""
"2318.680000000051","","","recognition","survey-text","170","735076","0.0-6.0-3.23","2594660","co38299","norming","","","{""guess"":""rolschaats""}","","../img/tt/076tt.jpg","",""
"null","../img/gs/076gs.jpg","null","reveal","image-keyboard-response","171","737077","0.0-6.0-4.23","2594660","co38299","norming","","","","","","",""
"null","../img/tt/076tt.jpg","null","mooney2","image-keyboard-response","172","739088","0.0-6.0-5.23","2594660","co38299","norming","","","","","","",""
"3529.305000000051","","","post_reveal_questions","survey-likert","173","742620","0.0-6.0-6.23","2594660","co38299","norming","","","{""aha"":1}","[0]","../img/tt/076tt.jpg","",""
"null","<div style=""font-size:60px;""> </div>","null","fixation","html-keyboard-response","174","742824","0.0-6.0-0.24","2594660","co38299","norming","","","","","","",""
"null","../img/tt/1228tt.jpg","null","mooney1","image-keyboard-response","175","745832","0.0-6.0-1.24","2594660","co38299","norming","","","","","","",""
"3800.859999999986","","","post_mooney1_questions","survey-likert","176","749636","0.0-6.0-2.24","2594660","co38299","norming","","","{""curiosity"":3,""confidence"":3}","[0,1]","../img/tt/1228tt.jpg","",""
"1726.7249999999767","","","recognition","survey-text","177","751364","0.0-6.0-3.24","2594660","co38299","norming","","","{""guess"":""vogel""}","","../img/tt/1228tt.jpg","",""
"null","../img/gs/1228gs.jpg","null","reveal","image-keyboard-response","178","753370","0.0-6.0-4.24","2594660","co38299","norming","","","","","","",""
"null","../img/tt/1228tt.jpg","null","mooney2","image-keyboard-response","179","755372","0.0-6.0-5.24","2594660","co38299","norming","","","","","","",""
"4533.990000000107","","","post_reveal_questions","survey-likert","180","759908","0.0-6.0-6.24","2594660","co38299","norming","","","{""aha"":4}","[0]","../img/tt/1228tt.jpg","",""
"null","<div style=""font-size:60px;""> </div>","null","fixation","html-keyboard-response","181","760113","0.0-6.0-0.25","2594660","co38299","norming","","","","","","",""
"null","../img/tt/1173tt.jpg","null","mooney1","image-keyboard-response","182","763117","0.0-6.0-1.25","2594660","co38299","norming","","","","","","",""
"4268.605000000214","","","post_mooney1_questions","survey-likert","183","767388","0.0-6.0-2.25","2594660","co38299","norming","","","{""curiosity"":2,""confidence"":2}","[0,1]","../img/tt/1173tt.jpg","",""
"2246.089999999851","","","recognition","survey-text","184","769636","0.0-6.0-3.25","2594660","co38299","norming","","","{""guess"":""voetbal""}","","../img/tt/1173tt.jpg","",""
"null","../img/gs/1173gs.jpg","null","reveal","image-keyboard-response","185","771646","0.0-6.0-4.25","2594660","co38299","norming","","","","","","",""
"null","../img/tt/1173tt.jpg","null","mooney2","image-keyboard-response","186","773665","0.0-6.0-5.25","2594660","co38299","norming","","","","","","",""
"3504.8699999999953","","","post_reveal_questions","survey-likert","187","777172","0.0-6.0-6.25","2594660","co38299","norming","","","{""aha"":3}","[0]","../img/tt/1173tt.jpg","",""
"null","<div style=""font-size:60px;""> </div>","null","fixation","html-keyboard-response","188","777375","0.0-6.0-0.26","2594660","co38299","norming","","","","","","",""
"null","../img/tt/108tt.jpg","null","mooney1","image-keyboard-response","189","780379","0.0-6.0-1.26","2594660","co38299","norming","","","","","","",""
"3807.305000000051","","","post_mooney1_questions","survey-likert","190","784189","0.0-6.0-2.26","2594660","co38299","norming","","","{""curiosity"":1,""confidence"":0}","[0,1]","../img/tt/108tt.jpg","",""
"934.1199999998789","","","recognition","survey-text","191","785124","0.0-6.0-3.26","2594660","co38299","norming","","","{""guess"":""""}","","../img/tt/108tt.jpg","",""
"null","../img/gs/108gs.jpg","null","reveal","image-keyboard-response","192","787125","0.0-6.0-4.26","2594660","co38299","norming","","","","","","",""
"null","../img/tt/108tt.jpg","null","mooney2","image-keyboard-response","193","789127","0.0-6.0-5.26","2594660","co38299","norming","","","","","","",""
"1835.1299999998882","","","post_reveal_questions","survey-likert","194","790964","0.0-6.0-6.26","2594660","co38299","norming","","","{""aha"":5}","[0]","../img/tt/108tt.jpg","",""
"null","<div style=""font-size:60px;""> </div>","null","fixation","html-keyboard-response","195","791168","0.0-6.0-0.27","2594660","co38299","norming","","","","","","",""
"null","../img/tt/438tt.jpg","null","mooney1","image-keyboard-response","196","794172","0.0-6.0-1.27","2594660","co38299","norming","","","","","","",""
"4446.295000000042","","","post_mooney1_questions","survey-likert","197","798620","0.0-6.0-2.27","2594660","co38299","norming","","","{""curiosity"":6,""confidence"":3}","[0,1]","../img/tt/438tt.jpg","",""
"1470.3499999999767","","","recognition","survey-text","198","800092","0.0-6.0-3.27","2594660","co38299","norming","","","{""guess"":""snake""}","","../img/tt/438tt.jpg","",""
"null","../img/gs/438gs.jpg","null","reveal","image-keyboard-response","199","802099","0.0-6.0-4.27","2594660","co38299","norming","","","","","","",""
"null","../img/tt/438tt.jpg","null","mooney2","image-keyboard-response","200","804107","0.0-6.0-5.27","2594660","co38299","norming","","","","","","",""
"4558.70000000007","","","post_reveal_questions","survey-likert","201","808668","0.0-6.0-6.27","2594660","co38299","norming","","","{""aha"":2}","[0]","../img/tt/438tt.jpg","",""
"null","<div style=""font-size:60px;""> </div>","null","fixation","html-keyboard-response","202","808874","0.0-6.0-0.28","2594660","co38299","norming","","","","","","",""
"null","../img/tt/078tt.jpg","null","mooney1","image-keyboard-response","203","811884","0.0-6.0-1.28","2594660","co38299","norming","","","","","","",""
"4189.394999999786","","","post_mooney1_questions","survey-likert","204","816076","0.0-6.0-2.28","2594660","co38299","norming","","","{""curiosity"":6,""confidence"":2}","[0,1]","../img/tt/078tt.jpg","",""
"1806.4249999999302","","","recognition","survey-text","205","817884","0.0-6.0-3.28","2594660","co38299","norming","","","{""guess"":""druiven""}","","../img/tt/078tt.jpg","",""
"null","../img/gs/078gs.jpg","null","reveal","image-keyboard-response","206","819886","0.0-6.0-4.28","2594660","co38299","norming","","","","","","",""
"null","../img/tt/078tt.jpg","null","mooney2","image-keyboard-response","207","821894","0.0-6.0-5.28","2594660","co38299","norming","","","","","","",""
"1484.470000000205","","","post_reveal_questions","survey-likert","208","823380","0.0-6.0-6.28","2594660","co38299","norming","","","{""aha"":0}","[0]","../img/tt/078tt.jpg","",""
"null","<div style=""font-size:60px;""> </div>","null","fixation","html-keyboard-response","209","823582","0.0-6.0-0.29","2594660","co38299","norming","","","","","","",""
"null","../img/tt/440tt.jpg","null","mooney1","image-keyboard-response","210","826592","0.0-6.0-1.29","2594660","co38299","norming","","","","","","",""
"4123.350000000093","","","post_mooney1_questions","survey-likert","211","830716","0.0-6.0-2.29","2594660","co38299","norming","","","{""curiosity"":4,""confidence"":0}","[0,1]","../img/tt/440tt.jpg","",""
"582.270000000135","","","recognition","survey-text","212","831300","0.0-6.0-3.29","2594660","co38299","norming","","","{""guess"":""""}","","../img/tt/440tt.jpg","",""
"null","../img/gs/440gs.jpg","null","reveal","image-keyboard-response","213","833306","0.0-6.0-4.29","2594660","co38299","norming","","","","","","",""
"null","../img/tt/440tt.jpg","null","mooney2","image-keyboard-response","214","835311","0.0-6.0-5.29","2594660","co38299","norming","","","","","","",""
"5804.170000000042","","","post_reveal_questions","survey-likert","215","841116","0.0-6.0-6.29","2594660","co38299","norming","","","{""aha"":6}","[0]","../img/tt/440tt.jpg","",""
"null","<div style=""font-size:60px;""> </div>","null","fixation","html-keyboard-response","216","841320","0.0-6.0-0.30","2594660","co38299","norming","","","","","","",""
"null","../img/tt/1232tt.jpg","null","mooney1","image-keyboard-response","217","844326","0.0-6.0-1.30","2594660","co38299","norming","","","","","","",""
"5813.739999999874","","","post_mooney1_questions","survey-likert","218","850141","0.0-6.0-2.30","2594660","co38299","norming","","","{""curiosity"":1,""confidence"":2}","[0,1]","../img/tt/1232tt.jpg","",""
"1326.1950000001816","","","recognition","survey-text","219","851468","0.0-6.0-3.30","2594660","co38299","norming","","","{""guess"":""duif""}","","../img/tt/1232tt.jpg","",""
"null","../img/gs/1232gs.jpg","null","reveal","image-keyboard-response","220","853475","0.0-6.0-4.30","2594660","co38299","norming","","","","","","",""
"null","../img/tt/1232tt.jpg","null","mooney2","image-keyboard-response","221","855477","0.0-6.0-5.30","2594660","co38299","norming","","","","","","",""
"2109.5800000000745","","","post_reveal_questions","survey-likert","222","857588","0.0-6.0-6.30","2594660","co38299","norming","","","{""aha"":0}","[0]","../img/tt/1232tt.jpg","",""
"null","<div style=""font-size:60px;""> </div>","null","fixation","html-keyboard-response","223","857789","0.0-6.0-0.31","2594660","co38299","norming","","","","","","",""
"null","../img/tt/1200tt.jpg","null","mooney1","image-keyboard-response","224","860792","0.0-6.0-1.31","2594660","co38299","norming","","","","","","",""
"3897.6949999998324","","","post_mooney1_questions","survey-likert","225","864693","0.0-6.0-2.31","2594660","co38299","norming","","","{""curiosity"":6,""confidence"":0}","[0,1]","../img/tt/1200tt.jpg","",""
"726.1349999998929","","","recognition","survey-text","226","865420","0.0-6.0-3.31","2594660","co38299","norming","","","{""guess"":""""}","","../img/tt/1200tt.jpg","",""
"null","../img/gs/1200gs.jpg","null","reveal","image-keyboard-response","227","867425","0.0-6.0-4.31","2594660","co38299","norming","","","","","","",""
"null","../img/tt/1200tt.jpg","null","mooney2","image-keyboard-response","228","869435","0.0-6.0-5.31","2594660","co38299","norming","","","","","","",""
"5111.239999999991","","","post_reveal_questions","survey-likert","229","874548","0.0-6.0-6.31","2594660","co38299","norming","","","{""aha"":6}","[0]","../img/tt/1200tt.jpg","",""
"null","<div style=""font-size:60px;""> </div>","null","fixation","html-keyboard-response","230","874755","0.0-6.0-0.32","2594660","co38299","norming","","","","","","",""
"null","../img/tt/1118tt.jpg","null","mooney1","image-keyboard-response","231","877762","0.0-6.0-1.32","2594660","co38299","norming","","","","","","",""
"7054.834999999963","","","post_mooney1_questions","survey-likert","232","884820","0.0-6.0-2.32","2594660","co38299","norming","","","{""curiosity"":5,""confidence"":1}","[0,1]","../img/tt/1118tt.jpg","",""
"1926.2000000001863","","","recognition","survey-text","233","886748","0.0-6.0-3.32","2594660","co38299","norming","","","{""guess"":""olifant""}","","../img/tt/1118tt.jpg","",""
"null","../img/gs/1118gs.jpg","null","reveal","image-keyboard-response","234","888755","0.0-6.0-4.32","2594660","co38299","norming","","","","","","",""
"null","../img/tt/1118tt.jpg","null","mooney2","image-keyboard-response","235","890761","0.0-6.0-5.32","2594660","co38299","norming","","","","","","",""
"4136.305000000051","","","post_reveal_questions","survey-likert","236","894900","0.0-6.0-6.32","2594660","co38299","norming","","","{""aha"":1}","[0]","../img/tt/1118tt.jpg","",""
"null","<div style=""font-size:60px;""> </div>","null","fixation","html-keyboard-response","237","895103","0.0-6.0-0.33","2594660","co38299","norming","","","","","","",""
"null","../img/tt/140tt.jpg","null","mooney1","image-keyboard-response","238","898107","0.0-6.0-1.33","2594660","co38299","norming","","","","","","",""
"5334.060000000172","","","post_mooney1_questions","survey-likert","239","903444","0.0-6.0-2.33","2594660","co38299","norming","","","{""curiosity"":0,""confidence"":4}","[0,1]","../img/tt/140tt.jpg","",""
"1862.3050000000512","","","recognition","survey-text","240","905308","0.0-6.0-3.33","2594660","co38299","norming","","","{""guess"":""vork""}","","../img/tt/140tt.jpg","",""
"null","../img/gs/140gs.jpg","null","reveal","image-keyboard-response","241","907313","0.0-6.0-4.33","2594660","co38299","norming","","","","","","",""
"null","../img/tt/140tt.jpg","null","mooney2","image-keyboard-response","242","909319","0.0-6.0-5.33","2594660","co38299","norming","","","","","","",""
"2548.144999999902","","","post_reveal_questions","survey-likert","243","911868","0.0-6.0-6.33","2594660","co38299","norming","","","{""aha"":0}","[0]","../img/tt/140tt.jpg","",""
"null","<div style=""font-size:60px;""> </div>","null","fixation","html-keyboard-response","244","912070","0.0-6.0-0.34","2594660","co38299","norming","","","","","","",""
"null","../img/tt/056tt.jpg","null","mooney1","image-keyboard-response","245","915079","0.0-6.0-1.34","2594660","co38299","norming","","","","","","",""
"4602.4199999999255","","","post_mooney1_questions","survey-likert","246","919684","0.0-6.0-2.34","2594660","co38299","norming","","","{""curiosity"":5,""confidence"":0}","[0,1]","../img/tt/056tt.jpg","",""
"702.0949999998556","","","recognition","survey-text","247","920388","0.0-6.0-3.34","2594660","co38299","norming","","","{""guess"":""""}","","../img/tt/056tt.jpg","",""
"null","../img/gs/056gs.jpg","null","reveal","image-keyboard-response","248","922399","0.0-6.0-4.34","2594660","co38299","norming","","","","","","",""
"null","../img/tt/056tt.jpg","null","mooney2","image-keyboard-response","249","924400","0.0-6.0-5.34","2594660","co38299","norming","","","","","","",""
"4882.814999999944","","","post_reveal_questions","survey-likert","250","929284","0.0-6.0-6.34","2594660","co38299","norming","","","{""aha"":5}","[0]","../img/tt/056tt.jpg","",""
"null","<div style=""font-size:60px;""> </div>","null","fixation","html-keyboard-response","251","929486","0.0-6.0-0.35","2594660","co38299","norming","","","","","","",""
"null","../img/tt/273tt.jpg","null","mooney1","image-keyboard-response","252","932489","0.0-6.0-1.35","2594660","co38299","norming","","","","","","",""
"6394.395000000019","","","post_mooney1_questions","survey-likert","253","938884","0.0-6.0-2.35","2594660","co38299","norming","","","{""curiosity"":1,""confidence"":4}","[0,1]","../img/tt/273tt.jpg","",""
"1478.2099999999627","","","recognition","survey-text","254","940364","0.0-6.0-3.35","2594660","co38299","norming","","","{""guess"":""mond""}","","../img/tt/273tt.jpg","",""
"null","../img/gs/273gs.jpg","null","reveal","image-keyboard-response","255","942368","0.0-6.0-4.35","2594660","co38299","norming","","","","","","",""
"null","../img/tt/273tt.jpg","null","mooney2","image-keyboard-response","256","944371","0.0-6.0-5.35","2594660","co38299","norming","","","","","","",""
"2935.230000000098","","","post_reveal_questions","survey-likert","257","947308","0.0-6.0-6.35","2594660","co38299","norming","","","{""aha"":5}","[0]","../img/tt/273tt.jpg","",""
"null","<div style=""font-size:60px;""> </div>","null","fixation","html-keyboard-response","258","947509","0.0-6.0-0.36","2594660","co38299","norming","","","","","","",""
"null","../img/tt/163tt.jpg","null","mooney1","image-keyboard-response","259","950514","0.0-6.0-1.36","2594660","co38299","norming","","","","","","",""
"3775.17499999993","","","post_mooney1_questions","survey-likert","260","954292","0.0-6.0-2.36","2594660","co38299","norming","","","{""curiosity"":6,""confidence"":0}","[0,1]","../img/tt/163tt.jpg","",""
"477.9749999999767","","","recognition","survey-text","261","954772","0.0-6.0-3.36","2594660","co38299","norming","","","{""guess"":""""}","","../img/tt/163tt.jpg","",""
"null","../img/gs/163gs.jpg","null","reveal","image-keyboard-response","262","956777","0.0-6.0-4.36","2594660","co38299","norming","","","","","","",""
"null","../img/tt/163tt.jpg","null","mooney2","image-keyboard-response","263","958788","0.0-6.0-5.36","2594660","co38299","norming","","","","","","",""
"3605.579999999958","","","post_reveal_questions","survey-likert","264","962396","0.0-6.0-6.36","2594660","co38299","norming","","","{""aha"":6}","[0]","../img/tt/163tt.jpg","",""
"null","<div style=""font-size:60px;""> </div>","null","fixation","html-keyboard-response","265","962597","0.0-6.0-0.37","2594660","co38299","norming","","","","","","",""
"null","../img/tt/124tt.jpg","null","mooney1","image-keyboard-response","266","965606","0.0-6.0-1.37","2594660","co38299","norming","","","","","","",""
"4915.185000000172","","","post_mooney1_questions","survey-likert","267","970524","0.0-6.0-2.37","2594660","co38299","norming","","","{""curiosity"":2,""confidence"":3}","[0,1]","../img/tt/124tt.jpg","",""
"1886.104999999865","","","recognition","survey-text","268","972412","0.0-6.0-3.37","2594660","co38299","norming","","","{""guess"":""aap""}","","../img/tt/124tt.jpg","",""
"null","../img/gs/124gs.jpg","null","reveal","image-keyboard-response","269","974422","0.0-6.0-4.37","2594660","co38299","norming","","","","","","",""
"null","../img/tt/124tt.jpg","null","mooney2","image-keyboard-response","270","976433","0.0-6.0-5.37","2594660","co38299","norming","","","","","","",""
"4528.85999999987","","","post_reveal_questions","survey-likert","271","980964","0.0-6.0-6.37","2594660","co38299","norming","","","{""aha"":1}","[0]","../img/tt/124tt.jpg","",""
"null","<div style=""font-size:60px;""> </div>","null","fixation","html-keyboard-response","272","981165","0.0-6.0-0.38","2594660","co38299","norming","","","","","","",""
"null","../img/tt/522tt.jpg","null","mooney1","image-keyboard-response","273","984174","0.0-6.0-1.38","2594660","co38299","norming","","","","","","",""
"4091.6650000000373","","","post_mooney1_questions","survey-likert","274","988268","0.0-6.0-2.38","2594660","co38299","norming","","","{""curiosity"":6,""confidence"":0}","[0,1]","../img/tt/522tt.jpg","",""
"1430.3349999999627","","","recognition","survey-text","275","989700","0.0-6.0-3.38","2594660","co38299","norming","","","{""guess"":""""}","","../img/tt/522tt.jpg","",""
"null","../img/gs/522gs.jpg","null","reveal","image-keyboard-response","276","991701","0.0-6.0-4.38","2594660","co38299","norming","","","","","","",""
"null","../img/tt/522tt.jpg","null","mooney2","image-keyboard-response","277","993713","0.0-6.0-5.38","2594660","co38299","norming","","","","","","",""
"6960.5599999999395","","","post_reveal_questions","survey-likert","278","1000676","0.0-6.0-6.38","2594660","co38299","norming","","","{""aha"":6}","[0]","../img/tt/522tt.jpg","",""
"null","<div style=""font-size:60px;""> </div>","null","fixation","html-keyboard-response","279","1000881","0.0-6.0-0.39","2594660","co38299","norming","","","","","","",""
"null","../img/tt/040tt.jpg","null","mooney1","image-keyboard-response","280","1003884","0.0-6.0-1.39","2594660","co38299","norming","","","","","","",""
"3477.460000000079","","","post_mooney1_questions","survey-likert","281","1007364","0.0-6.0-2.39","2594660","co38299","norming","","","{""curiosity"":6,""confidence"":1}","[0,1]","../img/tt/040tt.jpg","",""
"1909.8199999999488","","","recognition","survey-text","282","1009276","0.0-6.0-3.39","2594660","co38299","norming","","","{""guess"":""giraf""}","","../img/tt/040tt.jpg","",""
"null","../img/gs/040gs.jpg","null","reveal","image-keyboard-response","283","1011278","0.0-6.0-4.39","2594660","co38299","norming","","","","","","",""
"null","../img/tt/040tt.jpg","null","mooney2","image-keyboard-response","284","1013280","0.0-6.0-5.39","2594660","co38299","norming","","","","","","",""
"4107.145000000019","","","post_reveal_questions","survey-likert","285","1017388","0.0-6.0-6.39","2594660","co38299","norming","","","{""aha"":6}","[0]","../img/tt/040tt.jpg","",""
"null","<div style=""font-size:60px;""> </div>","null","fixation","html-keyboard-response","286","1017589","0.0-6.0-0.40","2594660","co38299","norming","","","","","","",""
"null","../img/tt/1012tt.jpg","null","mooney1","image-keyboard-response","287","1020593","0.0-6.0-1.40","2594660","co38299","norming","","","","","","",""
"3040.0350000000326","","","post_mooney1_questions","survey-likert","288","1023636","0.0-6.0-2.40","2594660","co38299","norming","","","{""curiosity"":6,""confidence"":1}","[0,1]","../img/tt/1012tt.jpg","",""
"4854.069999999832","","","recognition","survey-text","289","1028492","0.0-6.0-3.40","2594660","co38299","norming","","","{""guess"":""hyjena""}","","../img/tt/1012tt.jpg","",""
"null","../img/gs/1012gs.jpg","null","reveal","image-keyboard-response","290","1030497","0.0-6.0-4.40","2594660","co38299","norming","","","","","","",""
"null","../img/tt/1012tt.jpg","null","mooney2","image-keyboard-response","291","1032500","0.0-6.0-5.40","2594660","co38299","norming","","","","","","",""
"4717.5950000000885","","","post_reveal_questions","survey-likert","292","1037220","0.0-6.0-6.40","2594660","co38299","norming","","","{""aha"":5}","[0]","../img/tt/1012tt.jpg","",""
"null","<div style=""font-size:60px;""> </div>","null","fixation","html-keyboard-response","293","1037422","0.0-6.0-0.41","2594660","co38299","norming","","","","","","",""
"null","../img/tt/477tt.jpg","null","mooney1","image-keyboard-response","294","1040424","0.0-6.0-1.41","2594660","co38299","norming","","","","","","",""
"3625.295000000042","","","post_mooney1_questions","survey-likert","295","1044052","0.0-6.0-2.41","2594660","co38299","norming","","","{""curiosity"":6,""confidence"":1}","[0,1]","../img/tt/477tt.jpg","",""
"1173.7699999999022","","","recognition","survey-text","296","1045228","0.0-6.0-3.41","2594660","co38299","norming","","","{""guess"":""beer""}","","../img/tt/477tt.jpg","",""
"null","../img/gs/477gs.jpg","null","reveal","image-keyboard-response","297","1047230","0.0-6.0-4.41","2594660","co38299","norming","","","","","","",""
"null","../img/tt/477tt.jpg","null","mooney2","image-keyboard-response","298","1049232","0.0-6.0-5.41","2594660","co38299","norming","","","","","","",""
"2611.090000000084","","","post_reveal_questions","survey-likert","299","1051844","0.0-6.0-6.41","2594660","co38299","norming","","","{""aha"":5}","[0]","../img/tt/477tt.jpg","",""
"null","<div style=""font-size:60px;""> </div>","null","fixation","html-keyboard-response","300","1052050","0.0-6.0-0.42","2594660","co38299","norming","","","","","","",""
"null","../img/tt/123tt.jpg","null","mooney1","image-keyboard-response","301","1055059","0.0-6.0-1.42","2594660","co38299","norming","","","","","","",""
"6350.334999999963","","","post_mooney1_questions","survey-likert","302","1061412","0.0-6.0-2.42","2594660","co38299","norming","","","{""curiosity"":5,""confidence"":1}","[0,1]","../img/tt/123tt.jpg","",""
"2278.1850000002887","","","recognition","survey-text","303","1063692","0.0-6.0-3.42","2594660","co38299","norming","","","{""guess"":""briefcase""}","","../img/tt/123tt.jpg","",""
"null","../img/gs/123gs.jpg","null","reveal","image-keyboard-response","304","1065698","0.0-6.0-4.42","2594660","co38299","norming","","","","","","",""
"null","../img/tt/123tt.jpg","null","mooney2","image-keyboard-response","305","1067700","0.0-6.0-5.42","2594660","co38299","norming","","","","","","",""
"3211.054999999935","","","post_reveal_questions","survey-likert","306","1070916","0.0-6.0-6.42","2594660","co38299","norming","","","{""aha"":3}","[0]","../img/tt/123tt.jpg","",""
"null","<div style=""font-size:60px;""> </div>","null","fixation","html-keyboard-response","307","1071122","0.0-6.0-0.43","2594660","co38299","norming","","","","","","",""
"null","../img/tt/418tt.jpg","null","mooney1","image-keyboard-response","308","1074131","0.0-6.0-1.43","2594660","co38299","norming","","","","","","",""
"3781.679999999702","","","post_mooney1_questions","survey-likert","309","1077916","0.0-6.0-2.43","2594660","co38299","norming","","","{""curiosity"":6,""confidence"":0}","[0,1]","../img/tt/418tt.jpg","",""
"542.0150000001304","","","recognition","survey-text","310","1078460","0.0-6.0-3.43","2594660","co38299","norming","","","{""guess"":""""}","","../img/tt/418tt.jpg","",""
"null","../img/gs/418gs.jpg","null","reveal","image-keyboard-response","311","1080468","0.0-6.0-4.43","2594660","co38299","norming","","","","","","",""
"null","../img/tt/418tt.jpg","null","mooney2","image-keyboard-response","312","1082471","0.0-6.0-5.43","2594660","co38299","norming","","","","","","",""
"4043.719999999972","","","post_reveal_questions","survey-likert","313","1086516","0.0-6.0-6.43","2594660","co38299","norming","","","{""aha"":5}","[0]","../img/tt/418tt.jpg","",""
"null","<div style=""font-size:60px;""> </div>","null","fixation","html-keyboard-response","314","1086723","0.0-6.0-0.44","2594660","co38299","norming","","","","","","",""
"null","../img/tt/1255tt.jpg","null","mooney1","image-keyboard-response","315","1089727","0.0-6.0-1.44","2594660","co38299","norming","","","","","","",""
"8716.574999999953","","","post_mooney1_questions","survey-likert","316","1098445","0.0-6.0-2.44","2594660","co38299","norming","","","{""curiosity"":5,""confidence"":0}","[0,1]","../img/tt/1255tt.jpg","",""
"805.5750000001863","","","recognition","survey-text","317","1099252","0.0-6.0-3.44","2594660","co38299","norming","","","{""guess"":""""}","","../img/tt/1255tt.jpg","",""
"null","../img/gs/1255gs.jpg","null","reveal","image-keyboard-response","318","1101255","0.0-6.0-4.44","2594660","co38299","norming","","","","","","",""
"null","../img/tt/1255tt.jpg","null","mooney2","image-keyboard-response","319","1103256","0.0-6.0-5.44","2594660","co38299","norming","","","","","","",""
"1595.440000000177","","","post_reveal_questions","survey-likert","320","1104852","0.0-6.0-6.44","2594660","co38299","norming","","","{""aha"":6}","[0]","../img/tt/1255tt.jpg","",""
"null","<div style=""font-size:60px;""> </div>","null","fixation","html-keyboard-response","321","1105055","0.0-6.0-0.45","2594660","co38299","norming","","","","","","",""
"null","../img/tt/1048tt.jpg","null","mooney1","image-keyboard-response","322","1108064","0.0-6.0-1.45","2594660","co38299","norming","","","","","","",""
"4713.145000000019","","","post_mooney1_questions","survey-likert","323","1112780","0.0-6.0-2.45","2594660","co38299","norming","","","{""curiosity"":6,""confidence"":0}","[0,1]","../img/tt/1048tt.jpg","",""
"630.1550000000279","","","recognition","survey-text","324","1113412","0.0-6.0-3.45","2594660","co38299","norming","","","{""guess"":""""}","","../img/tt/1048tt.jpg","",""
"null","../img/gs/1048gs.jpg","null","reveal","image-keyboard-response","325","1115418","0.0-6.0-4.45","2594660","co38299","norming","","","","","","",""
"null","../img/tt/1048tt.jpg","null","mooney2","image-keyboard-response","326","1117425","0.0-6.0-5.45","2594660","co38299","norming","","","","","","",""
"2617.4300000001676","","","post_reveal_questions","survey-likert","327","1120044","0.0-6.0-6.45","2594660","co38299","norming","","","{""aha"":6}","[0]","../img/tt/1048tt.jpg","",""
"null","<div style=""font-size:60px;""> </div>","null","fixation","html-keyboard-response","328","1120254","0.0-6.0-0.46","2594660","co38299","norming","","","","","","",""
"null","../img/tt/1363tt.jpg","null","mooney1","image-keyboard-response","329","1123257","0.0-6.0-1.46","2594660","co38299","norming","","","","","","",""
"5226.244999999879","","","post_mooney1_questions","survey-likert","330","1128484","0.0-6.0-2.46","2594660","co38299","norming","","","{""curiosity"":4,""confidence"":2}","[0,1]","../img/tt/1363tt.jpg","",""
"1174.219999999972","","","recognition","survey-text","331","1129660","0.0-6.0-3.46","2594660","co38299","norming","","","{""guess"":""saus""}","","../img/tt/1363tt.jpg","",""
"null","../img/gs/1363gs.jpg","null","reveal","image-keyboard-response","332","1131662","0.0-6.0-4.46","2594660","co38299","norming","","","","","","",""
"null","../img/tt/1363tt.jpg","null","mooney2","image-keyboard-response","333","1133664","0.0-6.0-5.46","2594660","co38299","norming","","","","","","",""
"1954.2649999998976","","","post_reveal_questions","survey-likert","334","1135620","0.0-6.0-6.46","2594660","co38299","norming","","","{""aha"":0}","[0]","../img/tt/1363tt.jpg","",""
"null","<div style=""font-size:60px;""> </div>","null","fixation","html-keyboard-response","335","1135825","0.0-6.0-0.47","2594660","co38299","norming","","","","","","",""
"null","../img/tt/079tt.jpg","null","mooney1","image-keyboard-response","336","1138829","0.0-6.0-1.47","2594660","co38299","norming","","","","","","",""
"3108.8950000000186","","","post_mooney1_questions","survey-likert","337","1141940","0.0-6.0-2.47","2594660","co38299","norming","","","{""curiosity"":4,""confidence"":4}","[0,1]","../img/tt/079tt.jpg","",""
"2581.910000000149","","","recognition","survey-text","338","1144516","0.0-6.0-3.47","2594660","co38299","norming","","","{""guess"":""beer""}","","../img/tt/079tt.jpg","",""
"null","../img/gs/079gs.jpg","null","reveal","image-keyboard-response","339","1146520","0.0-6.0-4.47","2594660","co38299","norming","","","","","","",""
"null","../img/tt/079tt.jpg","null","mooney2","image-keyboard-response","340","1148525","0.0-6.0-5.47","2594660","co38299","norming","","","","","","",""
"4828.76500000013","","","post_reveal_questions","survey-likert","341","1153356","0.0-6.0-6.47","2594660","co38299","norming","","","{""aha"":1}","[0]","../img/tt/079tt.jpg","",""
"null","<div style=""font-size:60px;""> </div>","null","fixation","html-keyboard-response","342","1153558","0.0-6.0-0.48","2594660","co38299","norming","","","","","","",""
"null","../img/tt/032tt.jpg","null","mooney1","image-keyboard-response","343","1156567","0.0-6.0-1.48","2594660","co38299","norming","","","","","","",""
"2658.625","","","post_mooney1_questions","survey-likert","344","1159228","0.0-6.0-2.48","2594660","co38299","norming","","","{""curiosity"":6,""confidence"":0}","[0,1]","../img/tt/032tt.jpg","",""
"486.2899999998044","","","recognition","survey-text","345","1159716","0.0-6.0-3.48","2594660","co38299","norming","","","{""guess"":""""}","","../img/tt/032tt.jpg","",""
"null","../img/gs/032gs.jpg","null","reveal","image-keyboard-response","346","1161724","0.0-6.0-4.48","2594660","co38299","norming","","","","","","",""
"null","../img/tt/032tt.jpg","null","mooney2","image-keyboard-response","347","1163735","0.0-6.0-5.48","2594660","co38299","norming","","","","","","",""
"4635.364999999758","","","post_reveal_questions","survey-likert","348","1168372","0.0-6.0-6.48","2594660","co38299","norming","","","{""aha"":5}","[0]","../img/tt/032tt.jpg","",""
"null","<div style=""font-size:60px;""> </div>","null","fixation","html-keyboard-response","349","1168582","0.0-6.0-0.49","2594660","co38299","norming","","","","","","",""
"null","../img/tt/094tt.jpg","null","mooney1","image-keyboard-response","350","1171595","0.0-6.0-1.49","2594660","co38299","norming","","","","","","",""
"2766.8799999996554","","","post_mooney1_questions","survey-likert","351","1174365","0.0-6.0-2.49","2594660","co38299","norming","","","{""curiosity"":6,""confidence"":0}","[0,1]","../img/tt/094tt.jpg","",""
"518.1650000000373","","","recognition","survey-text","352","1174884","0.0-6.0-3.49","2594660","co38299","norming","","","{""guess"":""""}","","../img/tt/094tt.jpg","",""
"null","../img/gs/094gs.jpg","null","reveal","image-keyboard-response","353","1176893","0.0-6.0-4.49","2594660","co38299","norming","","","","","","",""
"null","../img/tt/094tt.jpg","null","mooney2","image-keyboard-response","354","1178901","0.0-6.0-5.49","2594660","co38299","norming","","","","","","",""
"2148.5800000000745","","","post_reveal_questions","survey-likert","355","1181053","0.0-6.0-6.49","2594660","co38299","norming","","","{""aha"":5}","[0]","../img/tt/094tt.jpg","",""
"null","<div style=""font-size:60px;""> </div>","null","fixation","html-keyboard-response","356","1181261","0.0-6.0-0.50","2594660","co38299","norming","","","","","","",""
"null","../img/tt/358tt.jpg","null","mooney1","image-keyboard-response","357","1184263","0.0-6.0-1.50","2594660","co38299","norming","","","","","","",""
"2835.125","","","post_mooney1_questions","survey-likert","358","1187101","0.0-6.0-2.50","2594660","co38299","norming","","","{""curiosity"":6,""confidence"":1}","[0,1]","../img/tt/358tt.jpg","",""
"1030.0400000000373","","","recognition","survey-text","359","1188132","0.0-6.0-3.50","2594660","co38299","norming","","","{""guess"":""dog""}","","../img/tt/358tt.jpg","",""
"null","../img/gs/358gs.jpg","null","reveal","image-keyboard-response","360","1190134","0.0-6.0-4.50","2594660","co38299","norming","","","","","","",""
"null","../img/tt/358tt.jpg","null","mooney2","image-keyboard-response","361","1192136","0.0-6.0-5.50","2594660","co38299","norming","","","","","","",""
"2562.100000000093","","","post_reveal_questions","survey-likert","362","1194701","0.0-6.0-6.50","2594660","co38299","norming","","","{""aha"":6}","[0]","../img/tt/358tt.jpg","",""
"null","<div style=""font-size:60px;""> </div>","null","fixation","html-keyboard-response","363","1194908","0.0-6.0-0.51","2594660","co38299","norming","","","","","","",""
"null","../img/tt/121tt.jpg","null","mooney1","image-keyboard-response","364","1197916","0.0-6.0-1.51","2594660","co38299","norming","","","","","","",""
"4205.480000000214","","","post_mooney1_questions","survey-likert","365","1202125","0.0-6.0-2.51","2594660","co38299","norming","","","{""curiosity"":6,""confidence"":0}","[0,1]","../img/tt/121tt.jpg","",""
"805.815000000177","","","recognition","survey-text","366","1202940","0.0-6.0-3.51","2594660","co38299","norming","","","{""guess"":""""}","","../img/tt/121tt.jpg","",""
"null","../img/gs/121gs.jpg","null","reveal","image-keyboard-response","367","1204941","0.0-6.0-4.51","2594660","co38299","norming","","","","","","",""
"null","../img/tt/121tt.jpg","null","mooney2","image-keyboard-response","368","1206943","0.0-6.0-5.51","2594660","co38299","norming","","","","","","",""
"1594.529999999795","","","post_reveal_questions","survey-likert","369","1208540","0.0-6.0-6.51","2594660","co38299","norming","","","{""aha"":1}","[0]","../img/tt/121tt.jpg","",""
"null","<div style=""font-size:60px;""> </div>","null","fixation","html-keyboard-response","370","1208743","0.0-6.0-0.52","2594660","co38299","norming","","","","","","",""
"null","../img/tt/329tt.jpg","null","mooney1","image-keyboard-response","371","1211755","0.0-6.0-1.52","2594660","co38299","norming","","","","","","",""
"4326.139999999898","","","post_mooney1_questions","survey-likert","372","1216084","0.0-6.0-2.52","2594660","co38299","norming","","","{""curiosity"":6,""confidence"":0}","[0,1]","../img/tt/329tt.jpg","",""
"813.7349999996368","","","recognition","survey-text","373","1216900","0.0-6.0-3.52","2594660","co38299","norming","","","{""guess"":""""}","","../img/tt/329tt.jpg","",""
"null","../img/gs/329gs.jpg","null","reveal","image-keyboard-response","374","1218904","0.0-6.0-4.52","2594660","co38299","norming","","","","","","",""
"null","../img/tt/329tt.jpg","null","mooney2","image-keyboard-response","375","1220907","0.0-6.0-5.52","2594660","co38299","norming","","","","","","",""
"2870.25","","","post_reveal_questions","survey-likert","376","1223780","0.0-6.0-6.52","2594660","co38299","norming","","","{""aha"":4}","[0]","../img/tt/329tt.jpg","",""
"null","<div style=""font-size:60px;""> </div>","null","fixation","html-keyboard-response","377","1223990","0.0-6.0-0.53","2594660","co38299","norming","","","","","","",""
"null","../img/tt/1046tt.jpg","null","mooney1","image-keyboard-response","378","1227002","0.0-6.0-1.53","2594660","co38299","norming","","","","","","",""
"3399.2350000003353","","","post_mooney1_questions","survey-likert","379","1230404","0.0-6.0-2.53","2594660","co38299","norming","","","{""curiosity"":6,""confidence"":0}","[0,1]","../img/tt/1046tt.jpg","",""
"518.1049999997485","","","recognition","survey-text","380","1230924","0.0-6.0-3.53","2594660","co38299","norming","","","{""guess"":""""}","","../img/tt/1046tt.jpg","",""
"null","../img/gs/1046gs.jpg","null","reveal","image-keyboard-response","381","1232930","0.0-6.0-4.53","2594660","co38299","norming","","","","","","",""
"null","../img/tt/1046tt.jpg","null","mooney2","image-keyboard-response","382","1234932","0.0-6.0-5.53","2594660","co38299","norming","","","","","","",""
"2071.5149999998976","","","post_reveal_questions","survey-likert","383","1237004","0.0-6.0-6.53","2594660","co38299","norming","","","{""aha"":3}","[0]","../img/tt/1046tt.jpg","",""
"null","<div style=""font-size:60px;""> </div>","null","fixation","html-keyboard-response","384","1237206","0.0-6.0-0.54","2594660","co38299","norming","","","","","","",""
"null","../img/tt/301tt.jpg","null","mooney1","image-keyboard-response","385","1240210","0.0-6.0-1.54","2594660","co38299","norming","","","","","","",""
"4078.4950000001118","","","post_mooney1_questions","survey-likert","386","1244292","0.0-6.0-2.54","2594660","co38299","norming","","","{""curiosity"":5,""confidence"":0}","[0,1]","../img/tt/301tt.jpg","",""
"1110.2999999998137","","","recognition","survey-text","387","1245404","0.0-6.0-3.54","2594660","co38299","norming","","","{""guess"":""""}","","../img/tt/301tt.jpg","",""
"null","../img/gs/301gs.jpg","null","reveal","image-keyboard-response","388","1247410","0.0-6.0-4.54","2594660","co38299","norming","","","","","","",""
"null","../img/tt/301tt.jpg","null","mooney2","image-keyboard-response","389","1249413","0.0-6.0-5.54","2594660","co38299","norming","","","","","","",""
"1812.8000000000466","","","post_reveal_questions","survey-likert","390","1251228","0.0-6.0-6.54","2594660","co38299","norming","","","{""aha"":4}","[0]","../img/tt/301tt.jpg","",""
"null","<div style=""font-size:60px;""> </div>","null","fixation","html-keyboard-response","391","1251438","0.0-6.0-0.55","2594660","co38299","norming","","","","","","",""
"null","../img/tt/1205tt.jpg","null","mooney1","image-keyboard-response","392","1254445","0.0-6.0-1.55","2594660","co38299","norming","","","","","","",""
"4482.280000000261","","","post_mooney1_questions","survey-likert","393","1258932","0.0-6.0-2.55","2594660","co38299","norming","","","{""curiosity"":6,""confidence"":1}","[0,1]","../img/tt/1205tt.jpg","",""
"534.0999999998603","","","recognition","survey-text","394","1259468","0.0-6.0-3.55","2594660","co38299","norming","","","{""guess"":""""}","","../img/tt/1205tt.jpg","",""
"null","../img/gs/1205gs.jpg","null","reveal","image-keyboard-response","395","1261475","0.0-6.0-4.55","2594660","co38299","norming","","","","","","",""
"null","../img/tt/1205tt.jpg","null","mooney2","image-keyboard-response","396","1263479","0.0-6.0-5.55","2594660","co38299","norming","","","","","","",""
"2715.5749999997206","","","post_reveal_questions","survey-likert","397","1266197","0.0-6.0-6.55","2594660","co38299","norming","","","{""aha"":2}","[0]","../img/tt/1205tt.jpg","",""
"null","<div style=""font-size:60px;""> </div>","null","fixation","html-keyboard-response","398","1266401","0.0-6.0-0.56","2594660","co38299","norming","","","","","","",""
"null","../img/tt/590tt.jpg","null","mooney1","image-keyboard-response","399","1269404","0.0-6.0-1.56","2594660","co38299","norming","","","","","","",""
"5222.714999999851","","","post_mooney1_questions","survey-likert","400","1274630","0.0-6.0-2.56","2594660","co38299","norming","","","{""curiosity"":5,""confidence"":1}","[0,1]","../img/tt/590tt.jpg","",""
"1686.0400000000373","","","recognition","survey-text","401","1276318","0.0-6.0-3.56","2594660","co38299","norming","","","{""guess"":""piano""}","","../img/tt/590tt.jpg","",""
"null","../img/gs/590gs.jpg","null","reveal","image-keyboard-response","402","1278328","0.0-6.0-4.56","2594660","co38299","norming","","","","","","",""
"null","../img/tt/590tt.jpg","null","mooney2","image-keyboard-response","403","1280330","0.0-6.0-5.56","2594660","co38299","norming","","","","","","",""
"2673.505000000354","","","post_reveal_questions","survey-likert","404","1283006","0.0-6.0-6.56","2594660","co38299","norming","","","{""aha"":4}","[0]","../img/tt/590tt.jpg","",""
"null","<div style=""font-size:60px;""> </div>","null","fixation","html-keyboard-response","405","1283209","0.0-6.0-0.57","2594660","co38299","norming","","","","","","",""
"null","../img/tt/126tt.jpg","null","mooney1","image-keyboard-response","406","1286219","0.0-6.0-1.57","2594660","co38299","norming","","","","","","",""
"3561.9900000002235","","","post_mooney1_questions","survey-likert","407","1289782","0.0-6.0-2.57","2594660","co38299","norming","","","{""curiosity"":6,""confidence"":1}","[0,1]","../img/tt/126tt.jpg","",""
"1654.084999999497","","","recognition","survey-text","408","1291438","0.0-6.0-3.57","2594660","co38299","norming","","","{""guess"":""tent""}","","../img/tt/126tt.jpg","",""
"null","../img/gs/126gs.jpg","null","reveal","image-keyboard-response","409","1293445","0.0-6.0-4.57","2594660","co38299","norming","","","","","","",""
"null","../img/tt/126tt.jpg","null","mooney2","image-keyboard-response","410","1295447","0.0-6.0-5.57","2594660","co38299","norming","","","","","","",""
"3779.8950000000186","","","post_reveal_questions","survey-likert","411","1299230","0.0-6.0-6.57","2594660","co38299","norming","","","{""aha"":4}","[0]","../img/tt/126tt.jpg","",""
"null","<div style=""font-size:60px;""> </div>","null","fixation","html-keyboard-response","412","1299434","0.0-6.0-0.58","2594660","co38299","norming","","","","","","",""
"null","../img/tt/1260tt.jpg","null","mooney1","image-keyboard-response","413","1302436","0.0-6.0-1.58","2594660","co38299","norming","","","","","","",""
"3734.684999999823","","","post_mooney1_questions","survey-likert","414","1306174","0.0-6.0-2.58","2594660","co38299","norming","","","{""curiosity"":5,""confidence"":0}","[0,1]","../img/tt/1260tt.jpg","",""
"725.9149999998044","","","recognition","survey-text","415","1306902","0.0-6.0-3.58","2594660","co38299","norming","","","{""guess"":""""}","","../img/tt/1260tt.jpg","",""
"null","../img/gs/1260gs.jpg","null","reveal","image-keyboard-response","416","1308910","0.0-6.0-4.58","2594660","co38299","norming","","","","","","",""
"null","../img/tt/1260tt.jpg","null","mooney2","image-keyboard-response","417","1310919","0.0-6.0-5.58","2594660","co38299","norming","","","","","","",""
"1700.325000000419","","","post_reveal_questions","survey-likert","418","1312622","0.0-6.0-6.58","2594660","co38299","norming","","","{""aha"":0}","[0]","../img/tt/1260tt.jpg","",""
"null","<div style=""font-size:60px;""> </div>","null","fixation","html-keyboard-response","419","1312824","0.0-6.0-0.59","2594660","co38299","norming","","","","","","",""
"null","../img/tt/1272tt.jpg","null","mooney1","image-keyboard-response","420","1315827","0.0-6.0-1.59","2594660","co38299","norming","","","","","","",""
"3769.1700000001583","","","post_mooney1_questions","survey-likert","421","1319598","0.0-6.0-2.59","2594660","co38299","norming","","","{""curiosity"":5,""confidence"":0}","[0,1]","../img/tt/1272tt.jpg","",""
"430.0800000000745","","","recognition","survey-text","422","1320030","0.0-6.0-3.59","2594660","co38299","norming","","","{""guess"":""""}","","../img/tt/1272tt.jpg","",""
"null","../img/gs/1272gs.jpg","null","reveal","image-keyboard-response","423","1322032","0.0-6.0-4.59","2594660","co38299","norming","","","","","","",""
"null","../img/tt/1272tt.jpg","null","mooney2","image-keyboard-response","424","1324042","0.0-6.0-5.59","2594660","co38299","norming","","","","","","",""
"3434.4149999998044","","","post_reveal_questions","survey-likert","425","1327479","0.0-6.0-6.59","2594660","co38299","norming","","","{""aha"":5}","[0]","../img/tt/1272tt.jpg","",""
"null","<div style=""font-size:60px;""> </div>","null","fixation","html-keyboard-response","426","1327681","0.0-6.0-0.60","2594660","co38299","norming","","","","","","",""
"null","../img/tt/1154tt.jpg","null","mooney1","image-keyboard-response","427","1330691","0.0-6.0-1.60","2594660","co38299","norming","","","","","","",""
"3857.1850000002887","","","post_mooney1_questions","survey-likert","428","1334552","0.0-6.0-2.60","2594660","co38299","norming","","","{""curiosity"":6,""confidence"":0}","[0,1]","../img/tt/1154tt.jpg","",""
"493.8849999997765","","","recognition","survey-text","429","1335047","0.0-6.0-3.60","2594660","co38299","norming","","","{""guess"":""""}","","../img/tt/1154tt.jpg","",""
"null","../img/gs/1154gs.jpg","null","reveal","image-keyboard-response","430","1337053","0.0-6.0-4.60","2594660","co38299","norming","","","","","","",""
"null","../img/tt/1154tt.jpg","null","mooney2","image-keyboard-response","431","1339058","0.0-6.0-5.60","2594660","co38299","norming","","","","","","",""
"7772.480000000214","","","post_reveal_questions","survey-likert","432","1346831","0.0-6.0-6.60","2594660","co38299","norming","","","{""aha"":4}","[0]","../img/tt/1154tt.jpg","",""
"null","<div style=""font-size:60px;""> </div>","null","fixation","html-keyboard-response","433","1347040","0.0-6.0-0.61","2594660","co38299","norming","","","","","","",""
"null","../img/tt/1096tt.jpg","null","mooney1","image-keyboard-response","434","1350043","0.0-6.0-1.61","2594660","co38299","norming","","","","","","",""
"5067.909999999916","","","post_mooney1_questions","survey-likert","435","1355112","0.0-6.0-2.61","2594660","co38299","norming","","","{""curiosity"":4,""confidence"":0}","[0,1]","../img/tt/1096tt.jpg","",""
"1101.1299999998882","","","recognition","survey-text","436","1356215","0.0-6.0-3.61","2594660","co38299","norming","","","{""guess"":""""}","","../img/tt/1096tt.jpg","",""
"null","../img/gs/1096gs.jpg","null","reveal","image-keyboard-response","437","1358224","0.0-6.0-4.61","2594660","co38299","norming","","","","","","",""
"null","../img/tt/1096tt.jpg","null","mooney2","image-keyboard-response","438","1360236","0.0-6.0-5.61","2594660","co38299","norming","","","","","","",""
"2400.5750000001863","","","post_reveal_questions","survey-likert","439","1362639","0.0-6.0-6.61","2594660","co38299","norming","","","{""aha"":2}","[0]","../img/tt/1096tt.jpg","",""
"null","<div style=""font-size:60px;""> </div>","null","fixation","html-keyboard-response","440","1362848","0.0-6.0-0.62","2594660","co38299","norming","","","","","","",""
"null","../img/tt/481tt.jpg","null","mooney1","image-keyboard-response","441","1365856","0.0-6.0-1.62","2594660","co38299","norming","","","","","","",""
"4467.714999999618","","","post_mooney1_questions","survey-likert","442","1370328","0.0-6.0-2.62","2594660","co38299","norming","","","{""curiosity"":3,""confidence"":2}","[0,1]","../img/tt/481tt.jpg","",""
"1766.094999999972","","","recognition","survey-text","443","1372095","0.0-6.0-3.62","2594660","co38299","norming","","","{""guess"":""hond""}","","../img/tt/481tt.jpg","",""
"null","../img/gs/481gs.jpg","null","reveal","image-keyboard-response","444","1374102","0.0-6.0-4.62","2594660","co38299","norming","","","","","","",""
"null","../img/tt/481tt.jpg","null","mooney2","image-keyboard-response","445","1376108","0.0-6.0-5.62","2594660","co38299","norming","","","","","","",""
"2784.975000000093","","","post_reveal_questions","survey-likert","446","1378895","0.0-6.0-6.62","2594660","co38299","norming","","","{""aha"":4}","[0]","../img/tt/481tt.jpg","",""
"null","<div style=""font-size:60px;""> </div>","null","fixation","html-keyboard-response","447","1379104","0.0-6.0-0.63","2594660","co38299","norming","","","","","","",""
"null","../img/tt/1307tt.jpg","null","mooney1","image-keyboard-response","448","1382116","0.0-6.0-1.63","2594660","co38299","norming","","","","","","",""
"3487.785000000149","","","post_mooney1_questions","survey-likert","449","1385606","0.0-6.0-2.63","2594660","co38299","norming","","","{""curiosity"":3,""confidence"":1}","[0,1]","../img/tt/1307tt.jpg","",""
"1701.8749999997672","","","recognition","survey-text","450","1387310","0.0-6.0-3.63","2594660","co38299","norming","","","{""guess"":""wiel""}","","../img/tt/1307tt.jpg","",""
"null","../img/gs/1307gs.jpg","null","reveal","image-keyboard-response","451","1389311","0.0-6.0-4.63","2594660","co38299","norming","","","","","","",""
"null","../img/tt/1307tt.jpg","null","mooney2","image-keyboard-response","452","1391312","0.0-6.0-5.63","2594660","co38299","norming","","","","","","",""
"4093.1949999998324","","","post_reveal_questions","survey-likert","453","1395406","0.0-6.0-6.63","2594660","co38299","norming","","","{""aha"":4}","[0]","../img/tt/1307tt.jpg","",""
"null","<div style=""font-size:60px;""> </div>","null","fixation","html-keyboard-response","454","1395613","0.0-6.0-0.64","2594660","co38299","norming","","","","","","",""
"null","../img/tt/1102tt.jpg","null","mooney1","image-keyboard-response","455","1398624","0.0-6.0-1.64","2594660","co38299","norming","","","","","","",""
"4019.340000000084","","","post_mooney1_questions","survey-likert","456","1402647","0.0-6.0-2.64","2594660","co38299","norming","","","{""curiosity"":4,""confidence"":0}","[0,1]","../img/tt/1102tt.jpg","",""
"781.524999999674","","","recognition","survey-text","457","1403430","0.0-6.0-3.64","2594660","co38299","norming","","","{""guess"":""""}","","../img/tt/1102tt.jpg","",""
"null","../img/gs/1102gs.jpg","null","reveal","image-keyboard-response","458","1405440","0.0-6.0-4.64","2594660","co38299","norming","","","","","","",""
"null","../img/tt/1102tt.jpg","null","mooney2","image-keyboard-response","459","1407442","0.0-6.0-5.64","2594660","co38299","norming","","","","","","",""
"3506.0600000002887","","","post_reveal_questions","survey-likert","460","1410950","0.0-6.0-6.64","2594660","co38299","norming","","","{""aha"":5}","[0]","../img/tt/1102tt.jpg","",""
"null","<div style=""font-size:60px;""> </div>","null","fixation","html-keyboard-response","461","1411154","0.0-6.0-0.65","2594660","co38299","norming","","","","","","",""
"null","../img/tt/222tt.jpg","null","mooney1","image-keyboard-response","462","1414157","0.0-6.0-1.65","2594660","co38299","norming","","","","","","",""
"3293.8349999999627","","","post_mooney1_questions","survey-likert","463","1417455","0.0-6.0-2.65","2594660","co38299","norming","","","{""curiosity"":6,""confidence"":1}","[0,1]","../img/tt/222tt.jpg","",""
"1005.8199999998324","","","recognition","survey-text","464","1418462","0.0-6.0-3.65","2594660","co38299","norming","","","{""guess"":""thee""}","","../img/tt/222tt.jpg","",""
"null","../img/gs/222gs.jpg","null","reveal","image-keyboard-response","465","1420472","0.0-6.0-4.65","2594660","co38299","norming","","","","","","",""
"null","../img/tt/222tt.jpg","null","mooney2","image-keyboard-response","466","1422474","0.0-6.0-5.65","2594660","co38299","norming","","","","","","",""
"2977.4000000001397","","","post_reveal_questions","survey-likert","467","1425454","0.0-6.0-6.65","2594660","co38299","norming","","","{""aha"":6}","[0]","../img/tt/222tt.jpg","",""
"null","<div style=""font-size:60px;""> </div>","null","fixation","html-keyboard-response","468","1425657","0.0-6.0-0.66","2594660","co38299","norming","","","","","","",""
"null","../img/tt/353tt.jpg","null","mooney1","image-keyboard-response","469","1428661","0.0-6.0-1.66","2594660","co38299","norming","","","","","","",""
"3350.3249999997206","","","post_mooney1_questions","survey-likert","470","1432015","0.0-6.0-2.66","2594660","co38299","norming","","","{""curiosity"":6,""confidence"":0}","[0,1]","../img/tt/353tt.jpg","",""
"1125.844999999972","","","recognition","survey-text","471","1433142","0.0-6.0-3.66","2594660","co38299","norming","","","{""guess"":""""}","","../img/tt/353tt.jpg","",""
"null","../img/gs/353gs.jpg","null","reveal","image-keyboard-response","472","1435148","0.0-6.0-4.66","2594660","co38299","norming","","","","","","",""
"null","../img/tt/353tt.jpg","null","mooney2","image-keyboard-response","473","1437151","0.0-6.0-5.66","2594660","co38299","norming","","","","","","",""
"1372.9999999995343","","","post_reveal_questions","survey-likert","474","1438526","0.0-6.0-6.66","2594660","co38299","norming","","","{""aha"":2}","[0]","../img/tt/353tt.jpg","",""
"null","<div style=""font-size:60px;""> </div>","null","fixation","html-keyboard-response","475","1438731","0.0-6.0-0.67","2594660","co38299","norming","","","","","","",""
"null","../img/tt/517tt.jpg","null","mooney1","image-keyboard-response","476","1441742","0.0-6.0-1.67","2594660","co38299","norming","","","","","","",""
"3086.2050000000745","","","post_mooney1_questions","survey-likert","477","1444830","0.0-6.0-2.67","2594660","co38299","norming","","","{""curiosity"":5,""confidence"":1}","[0,1]","../img/tt/517tt.jpg","",""
"2302.0349999996834","","","recognition","survey-text","478","1447138","0.0-6.0-3.67","2594660","co38299","norming","","","{""guess"":""beer""}","","../img/tt/517tt.jpg","",""
"null","../img/gs/517gs.jpg","null","reveal","image-keyboard-response","479","1449140","0.0-6.0-4.67","2594660","co38299","norming","","","","","","",""
"null","../img/tt/517tt.jpg","null","mooney2","image-keyboard-response","480","1451144","0.0-6.0-5.67","2594660","co38299","norming","","","","","","",""
"3240.4149999998044","","","post_reveal_questions","survey-likert","481","1454386","0.0-6.0-6.67","2594660","co38299","norming","","","{""aha"":5}","[0]","../img/tt/517tt.jpg","",""
"null","<div style=""font-size:60px;""> </div>","null","fixation","html-keyboard-response","482","1454590","0.0-6.0-0.68","2594660","co38299","norming","","","","","","",""
"null","../img/tt/1084tt.jpg","null","mooney1","image-keyboard-response","483","1457593","0.0-6.0-1.68","2594660","co38299","norming","","","","","","",""
"3542.4549999998417","","","post_mooney1_questions","survey-likert","484","1461139","0.0-6.0-2.68","2594660","co38299","norming","","","{""curiosity"":6,""confidence"":1}","[0,1]","../img/tt/1084tt.jpg","",""
"1134.255000000354","","","recognition","survey-text","485","1462274","0.0-6.0-3.68","2594660","co38299","norming","","","{""guess"":""kat""}","","../img/tt/1084tt.jpg","",""
"null","../img/gs/1084gs.jpg","null","reveal","image-keyboard-response","486","1464284","0.0-6.0-4.68","2594660","co38299","norming","","","","","","",""
"null","../img/tt/1084tt.jpg","null","mooney2","image-keyboard-response","487","1466292","0.0-6.0-5.68","2594660","co38299","norming","","","","","","",""
"3243.6500000003725","","","post_reveal_questions","survey-likert","488","1469538","0.0-6.0-6.68","2594660","co38299","norming","","","{""aha"":6}","[0]","../img/tt/1084tt.jpg","",""
"null","<div style=""font-size:60px;""> </div>","null","fixation","html-keyboard-response","489","1469748","0.0-6.0-0.69","2594660","co38299","norming","","","","","","",""
"null","../img/tt/1278tt.jpg","null","mooney1","image-keyboard-response","490","1472757","0.0-6.0-1.69","2594660","co38299","norming","","","","","","",""
"5193.784999999916","","","post_mooney1_questions","survey-likert","491","1477954","0.0-6.0-2.69","2594660","co38299","norming","","","{""curiosity"":5,""confidence"":0}","[0,1]","../img/tt/1278tt.jpg","",""
"1014.0500000002794","","","recognition","survey-text","492","1478970","0.0-6.0-3.69","2594660","co38299","norming","","","{""guess"":""""}","","../img/tt/1278tt.jpg","",""
"null","../img/gs/1278gs.jpg","null","reveal","image-keyboard-response","493","1480982","0.0-6.0-4.69","2594660","co38299","norming","","","","","","",""
"null","../img/tt/1278tt.jpg","null","mooney2","image-keyboard-response","494","1482991","0.0-6.0-5.69","2594660","co38299","norming","","","","","","",""
"4096.175000000279","","","post_reveal_questions","survey-likert","495","1487090","0.0-6.0-6.69","2594660","co38299","norming","","","{""aha"":4}","[0]","../img/tt/1278tt.jpg","",""
"null","<div style=""font-size:60px;""> </div>","null","fixation","html-keyboard-response","496","1487295","0.0-6.0-0.70","2594660","co38299","norming","","","","","","",""
"null","../img/tt/1242tt.jpg","null","mooney1","image-keyboard-response","497","1490300","0.0-6.0-1.70","2594660","co38299","norming","","","","","","",""
"7051.260000000009","","","post_mooney1_questions","survey-likert","498","1497355","0.0-6.0-2.70","2594660","co38299","norming","","","{""curiosity"":6,""confidence"":1}","[0,1]","../img/tt/1242tt.jpg","",""
"3941.83499999973","","","recognition","survey-text","499","1501298","0.0-6.0-3.70","2594660","co38299","norming","","","{""guess"":""beer""}","","../img/tt/1242tt.jpg","",""
"null","../img/gs/1242gs.jpg","null","reveal","image-keyboard-response","500","1503302","0.0-6.0-4.70","2594660","co38299","norming","","","","","","",""
"null","../img/tt/1242tt.jpg","null","mooney2","image-keyboard-response","501","1505307","0.0-6.0-5.70","2594660","co38299","norming","","","","","","",""
"1681.8149999999441","","","post_reveal_questions","survey-likert","502","1506990","0.0-6.0-6.70","2594660","co38299","norming","","","{""aha"":5}","[0]","../img/tt/1242tt.jpg","",""
"null","<div style=""font-size:60px;""> </div>","null","fixation","html-keyboard-response","503","1507194","0.0-6.0-0.71","2594660","co38299","norming","","","","","","",""
"null","../img/tt/1235tt.jpg","null","mooney1","image-keyboard-response","504","1510203","0.0-6.0-1.71","2594660","co38299","norming","","","","","","",""
"3174.570000000065","","","post_mooney1_questions","survey-likert","505","1513381","0.0-6.0-2.71","2594660","co38299","norming","","","{""curiosity"":6,""confidence"":0}","[0,1]","../img/tt/1235tt.jpg","",""
"758.3250000001863","","","recognition","survey-text","506","1514141","0.0-6.0-3.71","2594660","co38299","norming","","","{""guess"":""""}","","../img/tt/1235tt.jpg","",""
"null","../img/gs/1235gs.jpg","null","reveal","image-keyboard-response","507","1516149","0.0-6.0-4.71","2594660","co38299","norming","","","","","","",""
"null","../img/tt/1235tt.jpg","null","mooney2","image-keyboard-response","508","1518151","0.0-6.0-5.71","2594660","co38299","norming","","","","","","",""
"1948.9050000002608","","","post_reveal_questions","survey-likert","509","1520102","0.0-6.0-6.71","2594660","co38299","norming","","","{""aha"":0}","[0]","../img/tt/1235tt.jpg","",""
"null","<div style=""font-size:60px;""> </div>","null","fixation","html-keyboard-response","510","1520306","0.0-6.0-0.72","2594660","co38299","norming","","","","","","",""
"null","../img/tt/1122tt.jpg","null","mooney1","image-keyboard-response","511","1523310","0.0-6.0-1.72","2594660","co38299","norming","","","","","","",""
"4158.225000000093","","","post_mooney1_questions","survey-likert","512","1527470","0.0-6.0-2.72","2594660","co38299","norming","","","{""curiosity"":5,""confidence"":1}","[0,1]","../img/tt/1122tt.jpg","",""
"1430.3000000000466","","","recognition","survey-text","513","1528902","0.0-6.0-3.72","2594660","co38299","norming","","","{""guess"":""boot""}","","../img/tt/1122tt.jpg","",""
"null","../img/gs/1122gs.jpg","null","reveal","image-keyboard-response","514","1530907","0.0-6.0-4.72","2594660","co38299","norming","","","","","","",""
"null","../img/tt/1122tt.jpg","null","mooney2","image-keyboard-response","515","1532910","0.0-6.0-5.72","2594660","co38299","norming","","","","","","",""
"5915.965000000084","","","post_reveal_questions","survey-likert","516","1538830","0.0-6.0-6.72","2594660","co38299","norming","","","{""aha"":2}","[0]","../img/tt/1122tt.jpg","",""
"null","<div style=""font-size:60px;""> </div>","null","fixation","html-keyboard-response","517","1539035","0.0-6.0-0.73","2594660","co38299","norming","","","","","","",""
"null","../img/tt/1175tt.jpg","null","mooney1","image-keyboard-response","518","1542039","0.0-6.0-1.73","2594660","co38299","norming","","","","","","",""
"3107.600000000093","","","post_mooney1_questions","survey-likert","519","1545150","0.0-6.0-2.73","2594660","co38299","norming","","","{""curiosity"":4,""confidence"":0}","[0,1]","../img/tt/1175tt.jpg","",""
"758.0400000002701","","","recognition","survey-text","520","1545909","0.0-6.0-3.73","2594660","co38299","norming","","","{""guess"":""""}","","../img/tt/1175tt.jpg","",""
"null","../img/gs/1175gs.jpg","null","reveal","image-keyboard-response","521","1547920","0.0-6.0-4.73","2594660","co38299","norming","","","","","","",""
"null","../img/tt/1175tt.jpg","null","mooney2","image-keyboard-response","522","1549929","0.0-6.0-5.73","2594660","co38299","norming","","","","","","",""
"3833.5149999996647","","","post_reveal_questions","survey-likert","523","1553765","0.0-6.0-6.73","2594660","co38299","norming","","","{""aha"":4}","[0]","../img/tt/1175tt.jpg","",""
"null","<div style=""font-size:60px;""> </div>","null","fixation","html-keyboard-response","524","1553968","0.0-6.0-0.74","2594660","co38299","norming","","","","","","",""
"null","../img/tt/319tt.jpg","null","mooney1","image-keyboard-response","525","1556974","0.0-6.0-1.74","2594660","co38299","norming","","","","","","",""
"6083.9199999999255","","","post_mooney1_questions","survey-likert","526","1563062","0.0-6.0-2.74","2594660","co38299","norming","","","{""curiosity"":5,""confidence"":4}","[0,1]","../img/tt/319tt.jpg","",""
"1693.9199999996927","","","recognition","survey-text","527","1564758","0.0-6.0-3.74","2594660","co38299","norming","","","{""guess"":""ezel""}","","../img/tt/319tt.jpg","",""
"null","../img/gs/319gs.jpg","null","reveal","image-keyboard-response","528","1566759","0.0-6.0-4.74","2594660","co38299","norming","","","","","","",""
"null","../img/tt/319tt.jpg","null","mooney2","image-keyboard-response","529","1568770","0.0-6.0-5.74","2594660","co38299","norming","","","","","","",""
"3145.3299999998417","","","post_reveal_questions","survey-likert","530","1571918","0.0-6.0-6.74","2594660","co38299","norming","","","{""aha"":0}","[0]","../img/tt/319tt.jpg","",""
"null","<div style=""font-size:60px;""> </div>","null","fixation","html-keyboard-response","531","1572123","0.0-6.0-0.75","2594660","co38299","norming","","","","","","",""
"null","../img/tt/1151tt.jpg","null","mooney1","image-keyboard-response","532","1575131","0.0-6.0-1.75","2594660","co38299","norming","","","","","","",""
"4447.244999999879","","","post_mooney1_questions","survey-likert","533","1579582","0.0-6.0-2.75","2594660","co38299","norming","","","{""curiosity"":5,""confidence"":0}","[0,1]","../img/tt/1151tt.jpg","",""
"918.0899999996182","","","recognition","survey-text","534","1580502","0.0-6.0-3.75","2594660","co38299","norming","","","{""guess"":""""}","","../img/tt/1151tt.jpg","",""
"null","../img/gs/1151gs.jpg","null","reveal","image-keyboard-response","535","1582508","0.0-6.0-4.75","2594660","co38299","norming","","","","","","",""
"null","../img/tt/1151tt.jpg","null","mooney2","image-keyboard-response","536","1584510","0.0-6.0-5.75","2594660","co38299","norming","","","","","","",""
"4524.899999999907","","","post_reveal_questions","survey-likert","537","1589038","0.0-6.0-6.75","2594660","co38299","norming","","","{""aha"":2}","[0]","../img/tt/1151tt.jpg","",""
"null","<div style=""font-size:60px;""> </div>","null","fixation","html-keyboard-response","538","1589248","0.0-6.0-0.76","2594660","co38299","norming","","","","","","",""
"null","../img/tt/300tt.jpg","null","mooney1","image-keyboard-response","539","1592255","0.0-6.0-1.76","2594660","co38299","norming","","","","","","",""
"5531.524999999674","","","post_mooney1_questions","survey-likert","540","1597790","0.0-6.0-2.76","2594660","co38299","norming","","","{""curiosity"":4,""confidence"":0}","[0,1]","../img/tt/300tt.jpg","",""
"990.0949999999721","","","recognition","survey-text","541","1598782","0.0-6.0-3.76","2594660","co38299","norming","","","{""guess"":""""}","","../img/tt/300tt.jpg","",""
"null","../img/gs/300gs.jpg","null","reveal","image-keyboard-response","542","1600792","0.0-6.0-4.76","2594660","co38299","norming","","","","","","",""
"null","../img/tt/300tt.jpg","null","mooney2","image-keyboard-response","543","1602801","0.0-6.0-5.76","2594660","co38299","norming","","","","","","",""
"4536.720000000205","","","post_reveal_questions","survey-likert","544","1607342","0.0-6.0-6.76","2594660","co38299","norming","","","{""aha"":4}","[0]","../img/tt/300tt.jpg","",""
"null","<div style=""font-size:60px;""> </div>","null","fixation","html-keyboard-response","545","1607545","0.0-6.0-0.77","2594660","co38299","norming","","","","","","",""
"null","../img/tt/1063tt.jpg","null","mooney1","image-keyboard-response","546","1610555","0.0-6.0-1.77","2594660","co38299","norming","","","","","","",""
"6670.950000000186","","","post_mooney1_questions","survey-likert","547","1617230","0.0-6.0-2.77","2594660","co38299","norming","","","{""curiosity"":4,""confidence"":1}","[0,1]","../img/tt/1063tt.jpg","",""
"2406.079999999609","","","recognition","survey-text","548","1619638","0.0-6.0-3.77","2594660","co38299","norming","","","{""guess"":""paard""}","","../img/tt/1063tt.jpg","",""
"null","../img/gs/1063gs.jpg","null","reveal","image-keyboard-response","549","1621648","0.0-6.0-4.77","2594660","co38299","norming","","","","","","",""
"null","../img/tt/1063tt.jpg","null","mooney2","image-keyboard-response","550","1623650","0.0-6.0-5.77","2594660","co38299","norming","","","","","","",""
"5394.614999999991","","","post_reveal_questions","survey-likert","551","1629041","0.0-6.0-6.77","2594660","co38299","norming","","","{""aha"":4}","[0]","../img/tt/1063tt.jpg","",""
"null","<div style=""font-size:60px;""> </div>","null","fixation","html-keyboard-response","552","1629251","0.0-6.0-0.78","2594660","co38299","norming","","","","","","",""
"null","../img/tt/1243tt.jpg","null","mooney1","image-keyboard-response","553","1632256","0.0-6.0-1.78","2594660","co38299","norming","","","","","","",""
