"rt","stimulus","key_press","test_part","trial_type","trial_index","time_elapsed","internal_node_id","totalTime","subject","experiment_name","button_pressed","success","responses","question_order","currentStim","old","correct"
"8455.159999999523","Welcome to the experiment. This is an online experiment so please don't close the tab/window until we say goodbye.  Press any key to begin.","32","instructions","html-keyboard-response","0","8470","0.0-0.0","3059702","co38185","norming","","","","","","",""
"54408.51500000099","<div style='word-wrap: break-word; width: 900px'><h3>Please consider this information carefully before deciding whether to participate in this research</h3><ul style='text-align: left; font-size: .8em;'><li><b>Purpose of the research</b>: To examine how people process images.</li><li><b>What you will do in this research</b>:  Stimuli (images) will be presented on the computer and you will be asked different questions about them.</li><li><b>Time required</b>: Participation will take between 45 and 60 minutes to complete.</li><li><b>Risks</b>:  There are no anticipated risks associated with participating in this study. The effects of participating should be comparable to those you would experience from viewing a computer monitor for 30 minutes and using a mouse or keyboard.</li><li><b>Benefits</b>:  This study provides no benefits to you individually except for the credit. The study provides important information about the nature of perception and learning.</li><li><b>Confidentiality</b>:  Your participation in this study will remain confidential. No personally identifiable information will be associated with your data. Your de-identified data may be shared with other researchers and used in future projects.</li><li><b>Participation and withdrawal</b>:  Your participation in this study is completely voluntary and you may refuse to participate or you may choose to withdraw at any time without penalty.</li><li><b>How to contact the researchers</b>: If you have questions or concerns about your participation or payment, or want to request a summary of research findings, please contact Sander Van de Cruys (KU Leuven), at sander.vandecruys@kuleuven.be.</li></ul><p>The nature and purpose of this research have been sufficiently explained and I agree to participate in this study.  I understand that I am free to withdraw at any time without incurring any penalty.</p><p>Please consent by clicking the button below to continue. Otherwise, please exit the study at this time.</p></div>","","instructions","html-button-response","1","62883","0.0-1.0","3059702","co38185","norming","0","","","","","",""
"","","","instructions","fullscreen","2","67595","0.0-2.0","3059702","co38185","norming","","true","","","","",""
"41652.38500000123","","","sona","survey-html-form","3","109254","0.0-3.0","3059702","co38185","norming","","","[{""name"":""sonaid"",""value"":""38185""},{""name"":""debrief"",""value"":""no""},{""name"":""datajoin"",""value"":""yes""}]","","","",""
"255020.4349999985","<div style='word-wrap: break-word; width: 900px'><h3>Instructions</h3><p>This experiment will have 3 parts. In the first part you will see a series of distorted images like the one below on the left. As you can see in the righthand image, the distorted images are derived from actual photographs. In what follows, you will <strong>briefly</strong> be presented with <strong>only</strong> the distorted image.</p> <div style='float: left; margin-right: 20px;'><img src='../img/018tt.jpg' height='250' width='250'></img></div><div style='float: right; margin-left: 20px;'><img src='../img/018gs.jpg' height='250' width='250'></img></div><p>Subsequently you will be asked a few questions about the image: One question on how <strong>curious</strong> you are about the solution and one on how <strong>confident</strong> you are that you know the solution.</p>Next, we ask you to make a guess on what is in the image. Note that it is OK to name just the <strong>basic level category</strong>. For example when you see a parrot in the image, 'parrot' will obviously be a correct answer but also correct is 'bird'. However, 'animal' will <strong>not</strong> be counted as a correct response. For the example above, 'rose' would be correct or 'flower', but not 'plant'. When soccer players are depicted, 'soccer', 'football', 'soccer players' will be correct, but not 'humans', 'outdoors', or 'sports'. You do not need to describe the image in full, just name the main object in it <strong>in one or two words</strong>. All images depict objects from one of the following broad level categories: animals, inanimate objects, plants, sports, vehicles, and food. Recognizing means knowing <strong>more</strong> than these broad labels for a given image. But we always encourage you to <strong>make a guess</strong> if you can. Note that you are allowed to use <strong>Dutch and English</strong> in your answers, whatever comes easiest for you.</p><p>Press any key to continue.</p></div>","32","instructions","html-keyboard-response","4","364278","0.0-4.0","3059702","co38185","norming","","","","","","",""
"1037.135000000475","<div style='word-wrap: break-word; width: 900px'><h3>Instructions</h3> <p>Next, the solution image will be revealed to you and you'll be asked to indicate how strong your <strong>aha-experience</strong> was after seeing the solution. This describes the positive feeling of the 'click' you sometimes experience, when the pieces of the 'puzzle' fall together and you suddenly have 'insight' in the image.</p><img src='aha.jpg' height='188' width='250'></img><p>Note that there are no right or wrong answers. We are interested in what <strong>you</strong> see in the image and how <strong>you</strong> feel about it.</p><p>Press any key to start the experiment.</p></div>","32","instructions","html-keyboard-response","5","365317","0.0-5.0","3059702","co38185","norming","","","","","","",""
"null","<div style=""font-size:60px;""> </div>","null","fixation","html-keyboard-response","6","365525","0.0-6.0-0.0","3059702","co38185","norming","","","","","","",""
"null","../img/tt/1126tt.jpg","null","mooney1","image-keyboard-response","7","368532","0.0-6.0-1.0","3059702","co38185","norming","","","","","","",""
"10349.184999999125","","","post_mooney1_questions","survey-likert","8","378885","0.0-6.0-2.0","3059702","co38185","norming","","","{""curiosity"":0,""confidence"":0}","[0,1]","../img/tt/1126tt.jpg","",""
"9133.605000000913","","","recognition","survey-text","9","388020","0.0-6.0-3.0","3059702","co38185","norming","","","{""guess"":""""}","","../img/tt/1126tt.jpg","",""
"null","../img/gs/1126gs.jpg","null","reveal","image-keyboard-response","10","390022","0.0-6.0-4.0","3059702","co38185","norming","","","","","","",""
"null","../img/tt/1126tt.jpg","null","mooney2","image-keyboard-response","11","392031","0.0-6.0-5.0","3059702","co38185","norming","","","","","","",""
"9154.560000000813","","","post_reveal_questions","survey-likert","12","401188","0.0-6.0-6.0","3059702","co38185","norming","","","{""aha"":6}","[0]","../img/tt/1126tt.jpg","",""
"null","<div style=""font-size:60px;""> </div>","null","fixation","html-keyboard-response","13","401394","0.0-6.0-0.1","3059702","co38185","norming","","","","","","",""
"null","../img/tt/189tt.jpg","null","mooney1","image-keyboard-response","14","404402","0.0-6.0-1.1","3059702","co38185","norming","","","","","","",""
"8103.889999998501","","","post_mooney1_questions","survey-likert","15","412509","0.0-6.0-2.1","3059702","co38185","norming","","","{""curiosity"":3,""confidence"":4}","[0,1]","../img/tt/189tt.jpg","",""
"6693.865000001097","","","recognition","survey-text","16","419204","0.0-6.0-3.1","3059702","co38185","norming","","","{""guess"":""man""}","","../img/tt/189tt.jpg","",""
"null","../img/gs/189gs.jpg","null","reveal","image-keyboard-response","17","421210","0.0-6.0-4.1","3059702","co38185","norming","","","","","","",""
"null","../img/tt/189tt.jpg","null","mooney2","image-keyboard-response","18","423220","0.0-6.0-5.1","3059702","co38185","norming","","","","","","",""
"6174.554999999644","","","post_reveal_questions","survey-likert","19","429388","0.0-6.0-6.1","3059702","co38185","norming","","","{""aha"":2}","[0]","../img/tt/189tt.jpg","",""
"null","<div style=""font-size:60px;""> </div>","null","fixation","html-keyboard-response","20","429592","0.0-6.0-0.2","3059702","co38185","norming","","","","","","",""
"null","../img/tt/1087tt.jpg","null","mooney1","image-keyboard-response","21","432600","0.0-6.0-1.2","3059702","co38185","norming","","","","","","",""
"5297.5100000003","","","post_mooney1_questions","survey-likert","22","437900","0.0-6.0-2.2","3059702","co38185","norming","","","{""curiosity"":0,""confidence"":0}","[0,1]","../img/tt/1087tt.jpg","",""
"894.2800000004354","","","recognition","survey-text","23","438796","0.0-6.0-3.2","3059702","co38185","norming","","","{""guess"":""""}","","../img/tt/1087tt.jpg","",""
"null","../img/gs/1087gs.jpg","null","reveal","image-keyboard-response","24","440800","0.0-6.0-4.2","3059702","co38185","norming","","","","","","",""
"null","../img/tt/1087tt.jpg","null","mooney2","image-keyboard-response","25","442801","0.0-6.0-5.2","3059702","co38185","norming","","","","","","",""
"7264.654999999097","","","post_reveal_questions","survey-likert","26","450068","0.0-6.0-6.2","3059702","co38185","norming","","","{""aha"":1}","[0]","../img/tt/1087tt.jpg","",""
"null","<div style=""font-size:60px;""> </div>","null","fixation","html-keyboard-response","27","450279","0.0-6.0-0.3","3059702","co38185","norming","","","","","","",""
"null","../img/tt/1078tt.jpg","null","mooney1","image-keyboard-response","28","453282","0.0-6.0-1.3","3059702","co38185","norming","","","","","","",""
"13592.480000001146","","","post_mooney1_questions","survey-likert","29","466877","0.0-6.0-2.3","3059702","co38185","norming","","","{""curiosity"":4,""confidence"":0}","[0,1]","../img/tt/1078tt.jpg","",""
"870.0349999999162","","","recognition","survey-text","30","467748","0.0-6.0-3.3","3059702","co38185","norming","","","{""guess"":""""}","","../img/tt/1078tt.jpg","",""
"null","../img/gs/1078gs.jpg","null","reveal","image-keyboard-response","31","469749","0.0-6.0-4.3","3059702","co38185","norming","","","","","","",""
"null","../img/tt/1078tt.jpg","null","mooney2","image-keyboard-response","32","471753","0.0-6.0-5.3","3059702","co38185","norming","","","","","","",""
"4489.765000000305","","","post_reveal_questions","survey-likert","33","476244","0.0-6.0-6.3","3059702","co38185","norming","","","{""aha"":3}","[0]","../img/tt/1078tt.jpg","",""
"null","<div style=""font-size:60px;""> </div>","null","fixation","html-keyboard-response","34","476455","0.0-6.0-0.4","3059702","co38185","norming","","","","","","",""
"null","../img/tt/1181tt.jpg","null","mooney1","image-keyboard-response","35","479467","0.0-6.0-1.4","3059702","co38185","norming","","","","","","",""
"9967.620000001276","","","post_mooney1_questions","survey-likert","36","489440","0.0-6.0-2.4","3059702","co38185","norming","","","{""curiosity"":4,""confidence"":2}","[0,1]","../img/tt/1181tt.jpg","",""
"6661.959999999439","","","recognition","survey-text","37","496103","0.0-6.0-3.4","3059702","co38185","norming","","","{""guess"":""room""}","","../img/tt/1181tt.jpg","",""
"null","../img/gs/1181gs.jpg","null","reveal","image-keyboard-response","38","498111","0.0-6.0-4.4","3059702","co38185","norming","","","","","","",""
"null","../img/tt/1181tt.jpg","null","mooney2","image-keyboard-response","39","500120","0.0-6.0-5.4","3059702","co38185","norming","","","","","","",""
"3078.054999999935","","","post_reveal_questions","survey-likert","40","503199","0.0-6.0-6.4","3059702","co38185","norming","","","{""aha"":4}","[0]","../img/tt/1181tt.jpg","",""
"null","<div style=""font-size:60px;""> </div>","null","fixation","html-keyboard-response","41","503404","0.0-6.0-0.5","3059702","co38185","norming","","","","","","",""
"null","../img/tt/098tt.jpg","null","mooney1","image-keyboard-response","42","506415","0.0-6.0-1.5","3059702","co38185","norming","","","","","","",""
"7517.345000000205","","","post_mooney1_questions","survey-likert","43","513936","0.0-6.0-2.5","3059702","co38185","norming","","","{""curiosity"":3,""confidence"":3}","[0,1]","../img/tt/098tt.jpg","",""
"4614.155000001134","","","recognition","survey-text","44","518551","0.0-6.0-3.5","3059702","co38185","norming","","","{""guess"":""horse""}","","../img/tt/098tt.jpg","",""
"null","../img/gs/098gs.jpg","null","reveal","image-keyboard-response","45","520552","0.0-6.0-4.5","3059702","co38185","norming","","","","","","",""
"null","../img/tt/098tt.jpg","null","mooney2","image-keyboard-response","46","522554","0.0-6.0-5.5","3059702","co38185","norming","","","","","","",""
"3340.685000000987","","","post_reveal_questions","survey-likert","47","525895","0.0-6.0-6.5","3059702","co38185","norming","","","{""aha"":4}","[0]","../img/tt/098tt.jpg","",""
"null","<div style=""font-size:60px;""> </div>","null","fixation","html-keyboard-response","48","526096","0.0-6.0-0.6","3059702","co38185","norming","","","","","","",""
"null","../img/tt/1118tt.jpg","null","mooney1","image-keyboard-response","49","529105","0.0-6.0-1.6","3059702","co38185","norming","","","","","","",""
"5709.489999999292","","","post_mooney1_questions","survey-likert","50","534816","0.0-6.0-2.6","3059702","co38185","norming","","","{""curiosity"":4,""confidence"":3}","[0,1]","../img/tt/1118tt.jpg","",""
"4413.924999998999","","","recognition","survey-text","51","539231","0.0-6.0-3.6","3059702","co38185","norming","","","{""guess"":""car""}","","../img/tt/1118tt.jpg","",""
"null","../img/gs/1118gs.jpg","null","reveal","image-keyboard-response","52","541232","0.0-6.0-4.6","3059702","co38185","norming","","","","","","",""
"null","../img/tt/1118tt.jpg","null","mooney2","image-keyboard-response","53","543243","0.0-6.0-5.6","3059702","co38185","norming","","","","","","",""
"3697.750000001164","","","post_reveal_questions","survey-likert","54","546943","0.0-6.0-6.6","3059702","co38185","norming","","","{""aha"":1}","[0]","../img/tt/1118tt.jpg","",""
"null","<div style=""font-size:60px;""> </div>","null","fixation","html-keyboard-response","55","547151","0.0-6.0-0.7","3059702","co38185","norming","","","","","","",""
"null","../img/tt/584tt.jpg","null","mooney1","image-keyboard-response","56","550158","0.0-6.0-1.7","3059702","co38185","norming","","","","","","",""
"5828.484999999986","","","post_mooney1_questions","survey-likert","57","555989","0.0-6.0-2.7","3059702","co38185","norming","","","{""curiosity"":5,""confidence"":5}","[0,1]","../img/tt/584tt.jpg","",""
"3758.034999998985","","","recognition","survey-text","58","559749","0.0-6.0-3.7","3059702","co38185","norming","","","{""guess"":""flower""}","","../img/tt/584tt.jpg","",""
"null","../img/gs/584gs.jpg","null","reveal","image-keyboard-response","59","561756","0.0-6.0-4.7","3059702","co38185","norming","","","","","","",""
"null","../img/tt/584tt.jpg","null","mooney2","image-keyboard-response","60","563760","0.0-6.0-5.7","3059702","co38185","norming","","","","","","",""
"3610.295000000391","","","post_reveal_questions","survey-likert","61","567373","0.0-6.0-6.7","3059702","co38185","norming","","","{""aha"":1}","[0]","../img/tt/584tt.jpg","",""
"null","<div style=""font-size:60px;""> </div>","null","fixation","html-keyboard-response","62","567576","0.0-6.0-0.8","3059702","co38185","norming","","","","","","",""
"null","../img/tt/056tt.jpg","null","mooney1","image-keyboard-response","63","570583","0.0-6.0-1.8","3059702","co38185","norming","","","","","","",""
"4610.945000000414","","","post_mooney1_questions","survey-likert","64","575197","0.0-6.0-2.8","3059702","co38185","norming","","","{""curiosity"":3,""confidence"":3}","[0,1]","../img/tt/056tt.jpg","",""
"2870.1049999999814","","","recognition","survey-text","65","578069","0.0-6.0-3.8","3059702","co38185","norming","","","{""guess"":""dog""}","","../img/tt/056tt.jpg","",""
"null","../img/gs/056gs.jpg","null","reveal","image-keyboard-response","66","580077","0.0-6.0-4.8","3059702","co38185","norming","","","","","","",""
"null","../img/tt/056tt.jpg","null","mooney2","image-keyboard-response","67","582083","0.0-6.0-5.8","3059702","co38185","norming","","","","","","",""
"2311.2399999990594","","","post_reveal_questions","survey-likert","68","584397","0.0-6.0-6.8","3059702","co38185","norming","","","{""aha"":0}","[0]","../img/tt/056tt.jpg","",""
"null","<div style=""font-size:60px;""> </div>","null","fixation","html-keyboard-response","69","584603","0.0-6.0-0.9","3059702","co38185","norming","","","","","","",""
"null","../img/tt/315tt.jpg","null","mooney1","image-keyboard-response","70","587612","0.0-6.0-1.9","3059702","co38185","norming","","","","","","",""
"7861.924999999348","","","post_mooney1_questions","survey-likert","71","595477","0.0-6.0-2.9","3059702","co38185","norming","","","{""curiosity"":4,""confidence"":2}","[0,1]","../img/tt/315tt.jpg","",""
"5502.305000000051","","","recognition","survey-text","72","600981","0.0-6.0-3.9","3059702","co38185","norming","","","{""guess"":""rabbit""}","","../img/tt/315tt.jpg","",""
"null","../img/gs/315gs.jpg","null","reveal","image-keyboard-response","73","602982","0.0-6.0-4.9","3059702","co38185","norming","","","","","","",""
"null","../img/tt/315tt.jpg","null","mooney2","image-keyboard-response","74","604986","0.0-6.0-5.9","3059702","co38185","norming","","","","","","",""
"4256.650000001187","","","post_reveal_questions","survey-likert","75","609245","0.0-6.0-6.9","3059702","co38185","norming","","","{""aha"":4}","[0]","../img/tt/315tt.jpg","",""
"null","<div style=""font-size:60px;""> </div>","null","fixation","html-keyboard-response","76","609451","0.0-6.0-0.10","3059702","co38185","norming","","","","","","",""
"null","../img/tt/019tt.jpg","null","mooney1","image-keyboard-response","77","612454","0.0-6.0-1.10","3059702","co38185","norming","","","","","","",""
"9740.719999999856","","","post_mooney1_questions","survey-likert","78","622197","0.0-6.0-2.10","3059702","co38185","norming","","","{""curiosity"":4,""confidence"":1}","[0,1]","../img/tt/019tt.jpg","",""
"1509.0049999998882","","","recognition","survey-text","79","623709","0.0-6.0-3.10","3059702","co38185","norming","","","{""guess"":""""}","","../img/tt/019tt.jpg","",""
"null","../img/gs/019gs.jpg","null","reveal","image-keyboard-response","80","625715","0.0-6.0-4.10","3059702","co38185","norming","","","","","","",""
"null","../img/tt/019tt.jpg","null","mooney2","image-keyboard-response","81","627725","0.0-6.0-5.10","3059702","co38185","norming","","","","","","",""
"2989.4899999999907","","","post_reveal_questions","survey-likert","82","630717","0.0-6.0-6.10","3059702","co38185","norming","","","{""aha"":5}","[0]","../img/tt/019tt.jpg","",""
"null","<div style=""font-size:60px;""> </div>","null","fixation","html-keyboard-response","83","630918","0.0-6.0-0.11","3059702","co38185","norming","","","","","","",""
"null","../img/tt/567tt.jpg","null","mooney1","image-keyboard-response","84","633923","0.0-6.0-1.11","3059702","co38185","norming","","","","","","",""
"5104.005000001052","","","post_mooney1_questions","survey-likert","85","639029","0.0-6.0-2.11","3059702","co38185","norming","","","{""curiosity"":4,""confidence"":4}","[0,1]","../img/tt/567tt.jpg","",""
"4661.910000000731","","","recognition","survey-text","86","643693","0.0-6.0-3.11","3059702","co38185","norming","","","{""guess"":""toast""}","","../img/tt/567tt.jpg","",""
"null","../img/gs/567gs.jpg","null","reveal","image-keyboard-response","87","645694","0.0-6.0-4.11","3059702","co38185","norming","","","","","","",""
"null","../img/tt/567tt.jpg","null","mooney2","image-keyboard-response","88","647702","0.0-6.0-5.11","3059702","co38185","norming","","","","","","",""
"4390.579999999376","","","post_reveal_questions","survey-likert","89","652093","0.0-6.0-6.11","3059702","co38185","norming","","","{""aha"":6}","[0]","../img/tt/567tt.jpg","",""
"null","<div style=""font-size:60px;""> </div>","null","fixation","html-keyboard-response","90","652294","0.0-6.0-0.12","3059702","co38185","norming","","","","","","",""
"null","../img/tt/108tt.jpg","null","mooney1","image-keyboard-response","91","655298","0.0-6.0-1.12","3059702","co38185","norming","","","","","","",""
"5250.439999999711","","","post_mooney1_questions","survey-likert","92","660549","0.0-6.0-2.12","3059702","co38185","norming","","","{""curiosity"":3,""confidence"":2}","[0,1]","../img/tt/108tt.jpg","",""
"3406.2899999989895","","","recognition","survey-text","93","663957","0.0-6.0-3.12","3059702","co38185","norming","","","{""guess"":""animal""}","","../img/tt/108tt.jpg","",""
"null","../img/gs/108gs.jpg","null","reveal","image-keyboard-response","94","665964","0.0-6.0-4.12","3059702","co38185","norming","","","","","","",""
"null","../img/tt/108tt.jpg","null","mooney2","image-keyboard-response","95","667975","0.0-6.0-5.12","3059702","co38185","norming","","","","","","",""
"2292.269999999902","","","post_reveal_questions","survey-likert","96","670269","0.0-6.0-6.12","3059702","co38185","norming","","","{""aha"":1}","[0]","../img/tt/108tt.jpg","",""
"null","<div style=""font-size:60px;""> </div>","null","fixation","html-keyboard-response","97","670472","0.0-6.0-0.13","3059702","co38185","norming","","","","","","",""
"null","../img/tt/118tt.jpg","null","mooney1","image-keyboard-response","98","673478","0.0-6.0-1.13","3059702","co38185","norming","","","","","","",""
"7501.775000000605","","","post_mooney1_questions","survey-likert","99","680981","0.0-6.0-2.13","3059702","co38185","norming","","","{""curiosity"":5,""confidence"":2}","[0,1]","../img/tt/118tt.jpg","",""
"3214.1799999990035","","","recognition","survey-text","100","684197","0.0-6.0-3.13","3059702","co38185","norming","","","{""guess"":""chair""}","","../img/tt/118tt.jpg","",""
"null","../img/gs/118gs.jpg","null","reveal","image-keyboard-response","101","686203","0.0-6.0-4.13","3059702","co38185","norming","","","","","","",""
"null","../img/tt/118tt.jpg","null","mooney2","image-keyboard-response","102","688214","0.0-6.0-5.13","3059702","co38185","norming","","","","","","",""
"2748.610000000568","","","post_reveal_questions","survey-likert","103","690965","0.0-6.0-6.13","3059702","co38185","norming","","","{""aha"":5}","[0]","../img/tt/118tt.jpg","",""
"null","<div style=""font-size:60px;""> </div>","null","fixation","html-keyboard-response","104","691175","0.0-6.0-0.14","3059702","co38185","norming","","","","","","",""
"null","../img/tt/1161tt.jpg","null","mooney1","image-keyboard-response","105","694182","0.0-6.0-1.14","3059702","co38185","norming","","","","","","",""
"9036.19500000053","","","post_mooney1_questions","survey-likert","106","703221","0.0-6.0-2.14","3059702","co38185","norming","","","{""curiosity"":2,""confidence"":0}","[0,1]","../img/tt/1161tt.jpg","",""
"1077.9649999985704","","","recognition","survey-text","107","704301","0.0-6.0-3.14","3059702","co38185","norming","","","{""guess"":""""}","","../img/tt/1161tt.jpg","",""
"null","../img/gs/1161gs.jpg","null","reveal","image-keyboard-response","108","706303","0.0-6.0-4.14","3059702","co38185","norming","","","","","","",""
"null","../img/tt/1161tt.jpg","null","mooney2","image-keyboard-response","109","708304","0.0-6.0-5.14","3059702","co38185","norming","","","","","","",""
"2442.619999999879","","","post_reveal_questions","survey-likert","110","710749","0.0-6.0-6.14","3059702","co38185","norming","","","{""aha"":6}","[0]","../img/tt/1161tt.jpg","",""
"null","<div style=""font-size:60px;""> </div>","null","fixation","html-keyboard-response","111","710950","0.0-6.0-0.15","3059702","co38185","norming","","","","","","",""
"null","../img/tt/405tt.jpg","null","mooney1","image-keyboard-response","112","713962","0.0-6.0-1.15","3059702","co38185","norming","","","","","","",""
"6984.184999999241","","","post_mooney1_questions","survey-likert","113","720949","0.0-6.0-2.15","3059702","co38185","norming","","","{""curiosity"":2,""confidence"":0}","[0,1]","../img/tt/405tt.jpg","",""
"3518.099999999278","","","recognition","survey-text","114","724469","0.0-6.0-3.15","3059702","co38185","norming","","","{""guess"":""frog""}","","../img/tt/405tt.jpg","",""
"null","../img/gs/405gs.jpg","null","reveal","image-keyboard-response","115","726471","0.0-6.0-4.15","3059702","co38185","norming","","","","","","",""
"null","../img/tt/405tt.jpg","null","mooney2","image-keyboard-response","116","728475","0.0-6.0-5.15","3059702","co38185","norming","","","","","","",""
"2239.900000000489","","","post_reveal_questions","survey-likert","117","730717","0.0-6.0-6.15","3059702","co38185","norming","","","{""aha"":6}","[0]","../img/tt/405tt.jpg","",""
"null","<div style=""font-size:60px;""> </div>","null","fixation","html-keyboard-response","118","730919","0.0-6.0-0.16","3059702","co38185","norming","","","","","","",""
"null","../img/tt/440tt.jpg","null","mooney1","image-keyboard-response","119","733922","0.0-6.0-1.16","3059702","co38185","norming","","","","","","",""
"5481.085000001243","","","post_mooney1_questions","survey-likert","120","739406","0.0-6.0-2.16","3059702","co38185","norming","","","{""curiosity"":0,""confidence"":0}","[0,1]","../img/tt/440tt.jpg","",""
"766.0350000006147","","","recognition","survey-text","121","740173","0.0-6.0-3.16","3059702","co38185","norming","","","{""guess"":""""}","","../img/tt/440tt.jpg","",""
"null","../img/gs/440gs.jpg","null","reveal","image-keyboard-response","122","742177","0.0-6.0-4.16","3059702","co38185","norming","","","","","","",""
"null","../img/tt/440tt.jpg","null","mooney2","image-keyboard-response","123","744179","0.0-6.0-5.16","3059702","co38185","norming","","","","","","",""
"1944.9850000001024","","","post_reveal_questions","survey-likert","124","746126","0.0-6.0-6.16","3059702","co38185","norming","","","{""aha"":5}","[0]","../img/tt/440tt.jpg","",""
"null","<div style=""font-size:60px;""> </div>","null","fixation","html-keyboard-response","125","746326","0.0-6.0-0.17","3059702","co38185","norming","","","","","","",""
"null","../img/tt/076tt.jpg","null","mooney1","image-keyboard-response","126","749330","0.0-6.0-1.17","3059702","co38185","norming","","","","","","",""
"6753.5900000002","","","post_mooney1_questions","survey-likert","127","756086","0.0-6.0-2.17","3059702","co38185","norming","","","{""curiosity"":3,""confidence"":3}","[0,1]","../img/tt/076tt.jpg","",""
"6198.259999999194","","","recognition","survey-text","128","762286","0.0-6.0-3.17","3059702","co38185","norming","","","{""guess"":""roalskating""}","","../img/tt/076tt.jpg","",""
"null","../img/gs/076gs.jpg","null","reveal","image-keyboard-response","129","764287","0.0-6.0-4.17","3059702","co38185","norming","","","","","","",""
"null","../img/tt/076tt.jpg","null","mooney2","image-keyboard-response","130","766290","0.0-6.0-5.17","3059702","co38185","norming","","","","","","",""
"3129.4450000004144","","","post_reveal_questions","survey-likert","131","769422","0.0-6.0-6.17","3059702","co38185","norming","","","{""aha"":3}","[0]","../img/tt/076tt.jpg","",""
"null","<div style=""font-size:60px;""> </div>","null","fixation","html-keyboard-response","132","769631","0.0-6.0-0.18","3059702","co38185","norming","","","","","","",""
"null","../img/tt/380tt.jpg","null","mooney1","image-keyboard-response","133","772633","0.0-6.0-1.18","3059702","co38185","norming","","","","","","",""
"5665.849999999395","","","post_mooney1_questions","survey-likert","134","778302","0.0-6.0-2.18","3059702","co38185","norming","","","{""curiosity"":2,""confidence"":3}","[0,1]","../img/tt/380tt.jpg","",""
"4141.994999999995","","","recognition","survey-text","135","782445","0.0-6.0-3.18","3059702","co38185","norming","","","{""guess"":""bird""}","","../img/tt/380tt.jpg","",""
"null","../img/gs/380gs.jpg","null","reveal","image-keyboard-response","136","784447","0.0-6.0-4.18","3059702","co38185","norming","","","","","","",""
"null","../img/tt/380tt.jpg","null","mooney2","image-keyboard-response","137","786456","0.0-6.0-5.18","3059702","co38185","norming","","","","","","",""
"3035.730000001495","","","post_reveal_questions","survey-likert","138","789494","0.0-6.0-6.18","3059702","co38185","norming","","","{""aha"":3}","[0]","../img/tt/380tt.jpg","",""
"null","<div style=""font-size:60px;""> </div>","null","fixation","html-keyboard-response","139","789700","0.0-6.0-0.19","3059702","co38185","norming","","","","","","",""
"null","../img/tt/412tt.jpg","null","mooney1","image-keyboard-response","140","792706","0.0-6.0-1.19","3059702","co38185","norming","","","","","","",""
"6648.419999999576","","","post_mooney1_questions","survey-likert","141","799358","0.0-6.0-2.19","3059702","co38185","norming","","","{""curiosity"":4,""confidence"":0}","[0,1]","../img/tt/412tt.jpg","",""
"1358.3800000014016","","","recognition","survey-text","142","800718","0.0-6.0-3.19","3059702","co38185","norming","","","{""guess"":""""}","","../img/tt/412tt.jpg","",""
"null","../img/gs/412gs.jpg","null","reveal","image-keyboard-response","143","802721","0.0-6.0-4.19","3059702","co38185","norming","","","","","","",""
"null","../img/tt/412tt.jpg","null","mooney2","image-keyboard-response","144","804725","0.0-6.0-5.19","3059702","co38185","norming","","","","","","",""
"3118.9250000006286","","","post_reveal_questions","survey-likert","145","807846","0.0-6.0-6.19","3059702","co38185","norming","","","{""aha"":5}","[0]","../img/tt/412tt.jpg","",""
"null","<div style=""font-size:60px;""> </div>","null","fixation","html-keyboard-response","146","808047","0.0-6.0-0.20","3059702","co38185","norming","","","","","","",""
"null","../img/tt/081tt.jpg","null","mooney1","image-keyboard-response","147","811058","0.0-6.0-1.20","3059702","co38185","norming","","","","","","",""
"3609.6799999995856","","","post_mooney1_questions","survey-likert","148","814671","0.0-6.0-2.20","3059702","co38185","norming","","","{""curiosity"":3,""confidence"":4}","[0,1]","../img/tt/081tt.jpg","",""
"3805.650000000256","","","recognition","survey-text","149","818478","0.0-6.0-3.20","3059702","co38185","norming","","","{""guess"":""frog""}","","../img/tt/081tt.jpg","",""
"null","../img/gs/081gs.jpg","null","reveal","image-keyboard-response","150","820488","0.0-6.0-4.20","3059702","co38185","norming","","","","","","",""
"null","../img/tt/081tt.jpg","null","mooney2","image-keyboard-response","151","822490","0.0-6.0-5.20","3059702","co38185","norming","","","","","","",""
"2146.440000000526","","","post_reveal_questions","survey-likert","152","824638","0.0-6.0-6.20","3059702","co38185","norming","","","{""aha"":5}","[0]","../img/tt/081tt.jpg","",""
"null","<div style=""font-size:60px;""> </div>","null","fixation","html-keyboard-response","153","824840","0.0-6.0-0.21","3059702","co38185","norming","","","","","","",""
"null","../img/tt/1278tt.jpg","null","mooney1","image-keyboard-response","154","827849","0.0-6.0-1.21","3059702","co38185","norming","","","","","","",""
"6386.3199999995995","","","post_mooney1_questions","survey-likert","155","834238","0.0-6.0-2.21","3059702","co38185","norming","","","{""curiosity"":5,""confidence"":0}","[0,1]","../img/tt/1278tt.jpg","",""
"790.2249999988126","","","recognition","survey-text","156","835030","0.0-6.0-3.21","3059702","co38185","norming","","","{""guess"":""""}","","../img/tt/1278tt.jpg","",""
"null","../img/gs/1278gs.jpg","null","reveal","image-keyboard-response","157","837041","0.0-6.0-4.21","3059702","co38185","norming","","","","","","",""
"null","../img/tt/1278tt.jpg","null","mooney2","image-keyboard-response","158","839051","0.0-6.0-5.21","3059702","co38185","norming","","","","","","",""
"2369.2500000015134","","","post_reveal_questions","survey-likert","159","841422","0.0-6.0-6.21","3059702","co38185","norming","","","{""aha"":4}","[0]","../img/tt/1278tt.jpg","",""
"null","<div style=""font-size:60px;""> </div>","null","fixation","html-keyboard-response","160","841624","0.0-6.0-0.22","3059702","co38185","norming","","","","","","",""
"null","../img/tt/1043tt.jpg","null","mooney1","image-keyboard-response","161","844628","0.0-6.0-1.22","3059702","co38185","norming","","","","","","",""
"6632.369999999297","","","post_mooney1_questions","survey-likert","162","851262","0.0-6.0-2.22","3059702","co38185","norming","","","{""curiosity"":2,""confidence"":0}","[0,1]","../img/tt/1043tt.jpg","",""
"574.1250000009313","","","recognition","survey-text","163","851838","0.0-6.0-3.22","3059702","co38185","norming","","","{""guess"":""""}","","../img/tt/1043tt.jpg","",""
"null","../img/gs/1043gs.jpg","null","reveal","image-keyboard-response","164","853840","0.0-6.0-4.22","3059702","co38185","norming","","","","","","",""
"null","../img/tt/1043tt.jpg","null","mooney2","image-keyboard-response","165","855841","0.0-6.0-5.22","3059702","co38185","norming","","","","","","",""
"2994.7150000007823","","","post_reveal_questions","survey-likert","166","858839","0.0-6.0-6.22","3059702","co38185","norming","","","{""aha"":0}","[0]","../img/tt/1043tt.jpg","",""
"null","<div style=""font-size:60px;""> </div>","null","fixation","html-keyboard-response","167","859041","0.0-6.0-0.23","3059702","co38185","norming","","","","","","",""
"null","../img/tt/1146tt.jpg","null","mooney1","image-keyboard-response","168","862043","0.0-6.0-1.23","3059702","co38185","norming","","","","","","",""
"6122.7050000014715","","","post_mooney1_questions","survey-likert","169","868167","0.0-6.0-2.23","3059702","co38185","norming","","","{""curiosity"":3,""confidence"":1}","[0,1]","../img/tt/1146tt.jpg","",""
"2678.0600000001723","","","recognition","survey-text","170","870847","0.0-6.0-3.23","3059702","co38185","norming","","","{""guess"":""man""}","","../img/tt/1146tt.jpg","",""
"null","../img/gs/1146gs.jpg","null","reveal","image-keyboard-response","171","872855","0.0-6.0-4.23","3059702","co38185","norming","","","","","","",""
"null","../img/tt/1146tt.jpg","null","mooney2","image-keyboard-response","172","874856","0.0-6.0-5.23","3059702","co38185","norming","","","","","","",""
"2630.139999999199","","","post_reveal_questions","survey-likert","173","877487","0.0-6.0-6.23","3059702","co38185","norming","","","{""aha"":5}","[0]","../img/tt/1146tt.jpg","",""
"null","<div style=""font-size:60px;""> </div>","null","fixation","html-keyboard-response","174","877691","0.0-6.0-0.24","3059702","co38185","norming","","","","","","",""
"null","../img/tt/477tt.jpg","null","mooney1","image-keyboard-response","175","880694","0.0-6.0-1.24","3059702","co38185","norming","","","","","","",""
"4887.800000000396","","","post_mooney1_questions","survey-likert","176","885583","0.0-6.0-2.24","3059702","co38185","norming","","","{""curiosity"":4,""confidence"":3}","[0,1]","../img/tt/477tt.jpg","",""
"3437.9150000003865","","","recognition","survey-text","177","889023","0.0-6.0-3.24","3059702","co38185","norming","","","{""guess"":""cat""}","","../img/tt/477tt.jpg","",""
"null","../img/gs/477gs.jpg","null","reveal","image-keyboard-response","178","891024","0.0-6.0-4.24","3059702","co38185","norming","","","","","","",""
"null","../img/tt/477tt.jpg","null","mooney2","image-keyboard-response","179","893025","0.0-6.0-5.24","3059702","co38185","norming","","","","","","",""
"3197.0350000010803","","","post_reveal_questions","survey-likert","180","896223","0.0-6.0-6.24","3059702","co38185","norming","","","{""aha"":3}","[0]","../img/tt/477tt.jpg","",""
"null","<div style=""font-size:60px;""> </div>","null","fixation","html-keyboard-response","181","896426","0.0-6.0-0.25","3059702","co38185","norming","","","","","","",""
"null","../img/tt/1012tt.jpg","null","mooney1","image-keyboard-response","182","899429","0.0-6.0-1.25","3059702","co38185","norming","","","","","","",""
"4927.835000000428","","","post_mooney1_questions","survey-likert","183","904359","0.0-6.0-2.25","3059702","co38185","norming","","","{""curiosity"":5,""confidence"":0}","[0,1]","../img/tt/1012tt.jpg","",""
"693.4899999996414","","","recognition","survey-text","184","905055","0.0-6.0-3.25","3059702","co38185","norming","","","{""guess"":""""}","","../img/tt/1012tt.jpg","",""
"null","../img/gs/1012gs.jpg","null","reveal","image-keyboard-response","185","907061","0.0-6.0-4.25","3059702","co38185","norming","","","","","","",""
"null","../img/tt/1012tt.jpg","null","mooney2","image-keyboard-response","186","909066","0.0-6.0-5.25","3059702","co38185","norming","","","","","","",""
"2731.8899999990826","","","post_reveal_questions","survey-likert","187","911799","0.0-6.0-6.25","3059702","co38185","norming","","","{""aha"":2}","[0]","../img/tt/1012tt.jpg","",""
"null","<div style=""font-size:60px;""> </div>","null","fixation","html-keyboard-response","188","912001","0.0-6.0-0.26","3059702","co38185","norming","","","","","","",""
"null","../img/tt/1224tt.jpg","null","mooney1","image-keyboard-response","189","915006","0.0-6.0-1.26","3059702","co38185","norming","","","","","","",""
"16774.489999999758","","","post_mooney1_questions","survey-likert","190","931780","0.0-6.0-2.26","3059702","co38185","norming","","","{""curiosity"":5,""confidence"":1}","[0,1]","../img/tt/1224tt.jpg","",""
"8638.149999998743","","","recognition","survey-text","191","940420","0.0-6.0-3.26","3059702","co38185","norming","","","{""guess"":""man""}","","../img/tt/1224tt.jpg","",""
"null","../img/gs/1224gs.jpg","null","reveal","image-keyboard-response","192","942421","0.0-6.0-4.26","3059702","co38185","norming","","","","","","",""
"null","../img/tt/1224tt.jpg","null","mooney2","image-keyboard-response","193","944423","0.0-6.0-5.26","3059702","co38185","norming","","","","","","",""
"2706.0650000002934","","","post_reveal_questions","survey-likert","194","947132","0.0-6.0-6.26","3059702","co38185","norming","","","{""aha"":5}","[0]","../img/tt/1224tt.jpg","",""
"null","<div style=""font-size:60px;""> </div>","null","fixation","html-keyboard-response","195","947341","0.0-6.0-0.27","3059702","co38185","norming","","","","","","",""
"null","../img/tt/1116tt.jpg","null","mooney1","image-keyboard-response","196","950348","0.0-6.0-1.27","3059702","co38185","norming","","","","","","",""
"4957.575000000419","","","post_mooney1_questions","survey-likert","197","955308","0.0-6.0-2.27","3059702","co38185","norming","","","{""curiosity"":4,""confidence"":2}","[0,1]","../img/tt/1116tt.jpg","",""
"5862.119999999879","","","recognition","survey-text","198","961172","0.0-6.0-3.27","3059702","co38185","norming","","","{""guess"":""cars""}","","../img/tt/1116tt.jpg","",""
"null","../img/gs/1116gs.jpg","null","reveal","image-keyboard-response","199","963173","0.0-6.0-4.27","3059702","co38185","norming","","","","","","",""
"null","../img/tt/1116tt.jpg","null","mooney2","image-keyboard-response","200","965174","0.0-6.0-5.27","3059702","co38185","norming","","","","","","",""
"2477.3850000001257","","","post_reveal_questions","survey-likert","201","967652","0.0-6.0-6.27","3059702","co38185","norming","","","{""aha"":1}","[0]","../img/tt/1116tt.jpg","",""
"null","<div style=""font-size:60px;""> </div>","null","fixation","html-keyboard-response","202","967853","0.0-6.0-0.28","3059702","co38185","norming","","","","","","",""
"null","../img/tt/1024tt.jpg","null","mooney1","image-keyboard-response","203","970857","0.0-6.0-1.28","3059702","co38185","norming","","","","","","",""
"4767.995000000228","","","post_mooney1_questions","survey-likert","204","975628","0.0-6.0-2.28","3059702","co38185","norming","","","{""curiosity"":4,""confidence"":0}","[0,1]","../img/tt/1024tt.jpg","",""
"846.0650000015739","","","recognition","survey-text","205","976476","0.0-6.0-3.28","3059702","co38185","norming","","","{""guess"":""""}","","../img/tt/1024tt.jpg","",""
"null","../img/gs/1024gs.jpg","null","reveal","image-keyboard-response","206","978477","0.0-6.0-4.28","3059702","co38185","norming","","","","","","",""
"null","../img/tt/1024tt.jpg","null","mooney2","image-keyboard-response","207","980480","0.0-6.0-5.28","3059702","co38185","norming","","","","","","",""
"2113.965000000433","","","post_reveal_questions","survey-likert","208","982597","0.0-6.0-6.28","3059702","co38185","norming","","","{""aha"":4}","[0]","../img/tt/1024tt.jpg","",""
"null","<div style=""font-size:60px;""> </div>","null","fixation","html-keyboard-response","209","982799","0.0-6.0-0.29","3059702","co38185","norming","","","","","","",""
"null","../img/tt/1196tt.jpg","null","mooney1","image-keyboard-response","210","985807","0.0-6.0-1.29","3059702","co38185","norming","","","","","","",""
"5596.11500000034","","","post_mooney1_questions","survey-likert","211","991406","0.0-6.0-2.29","3059702","co38185","norming","","","{""curiosity"":5,""confidence"":0}","[0,1]","../img/tt/1196tt.jpg","",""
"773.8300000000745","","","recognition","survey-text","212","992181","0.0-6.0-3.29","3059702","co38185","norming","","","{""guess"":""""}","","../img/tt/1196tt.jpg","",""
"null","../img/gs/1196gs.jpg","null","reveal","image-keyboard-response","213","994189","0.0-6.0-4.29","3059702","co38185","norming","","","","","","",""
"null","../img/tt/1196tt.jpg","null","mooney2","image-keyboard-response","214","996195","0.0-6.0-5.29","3059702","co38185","norming","","","","","","",""
"1768.1300000004703","","","post_reveal_questions","survey-likert","215","997965","0.0-6.0-6.29","3059702","co38185","norming","","","{""aha"":4}","[0]","../img/tt/1196tt.jpg","",""
"null","<div style=""font-size:60px;""> </div>","null","fixation","html-keyboard-response","216","998168","0.0-6.0-0.30","3059702","co38185","norming","","","","","","",""
"null","../img/tt/1242tt.jpg","null","mooney1","image-keyboard-response","217","1001174","0.0-6.0-1.30","3059702","co38185","norming","","","","","","",""
"5278.379999999772","","","post_mooney1_questions","survey-likert","218","1006453","0.0-6.0-2.30","3059702","co38185","norming","","","{""curiosity"":4,""confidence"":0}","[0,1]","../img/tt/1242tt.jpg","",""
"982.1149999988265","","","recognition","survey-text","219","1007437","0.0-6.0-3.30","3059702","co38185","norming","","","{""guess"":""""}","","../img/tt/1242tt.jpg","",""
"null","../img/gs/1242gs.jpg","null","reveal","image-keyboard-response","220","1009438","0.0-6.0-4.30","3059702","co38185","norming","","","","","","",""
"null","../img/tt/1242tt.jpg","null","mooney2","image-keyboard-response","221","1011447","0.0-6.0-5.30","3059702","co38185","norming","","","","","","",""
"2411.655000001774","","","post_reveal_questions","survey-likert","222","1013861","0.0-6.0-6.30","3059702","co38185","norming","","","{""aha"":5}","[0]","../img/tt/1242tt.jpg","",""
"null","<div style=""font-size:60px;""> </div>","null","fixation","html-keyboard-response","223","1014072","0.0-6.0-0.31","3059702","co38185","norming","","","","","","",""
"null","../img/tt/1188tt.jpg","null","mooney1","image-keyboard-response","224","1017076","0.0-6.0-1.31","3059702","co38185","norming","","","","","","",""
"8271.96999999974","","","post_mooney1_questions","survey-likert","225","1025349","0.0-6.0-2.31","3059702","co38185","norming","","","{""curiosity"":5,""confidence"":4}","[0,1]","../img/tt/1188tt.jpg","",""
"4798.365000000573","","","recognition","survey-text","226","1030149","0.0-6.0-3.31","3059702","co38185","norming","","","{""guess"":""cyclist""}","","../img/tt/1188tt.jpg","",""
"null","../img/gs/1188gs.jpg","null","reveal","image-keyboard-response","227","1032152","0.0-6.0-4.31","3059702","co38185","norming","","","","","","",""
"null","../img/tt/1188tt.jpg","null","mooney2","image-keyboard-response","228","1034154","0.0-6.0-5.31","3059702","co38185","norming","","","","","","",""
"6504.65500000061","","","post_reveal_questions","survey-likert","229","1040661","0.0-6.0-6.31","3059702","co38185","norming","","","{""aha"":2}","[0]","../img/tt/1188tt.jpg","",""
"null","<div style=""font-size:60px;""> </div>","null","fixation","html-keyboard-response","230","1040872","0.0-6.0-0.32","3059702","co38185","norming","","","","","","",""
"null","../img/tt/080tt.jpg","null","mooney1","image-keyboard-response","231","1043884","0.0-6.0-1.32","3059702","co38185","norming","","","","","","",""
"7403.210000000428","","","post_mooney1_questions","survey-likert","232","1051290","0.0-6.0-2.32","3059702","co38185","norming","","","{""curiosity"":4,""confidence"":0}","[0,1]","../img/tt/080tt.jpg","",""
"638.1249999993015","","","recognition","survey-text","233","1051930","0.0-6.0-3.32","3059702","co38185","norming","","","{""guess"":""""}","","../img/tt/080tt.jpg","",""
"null","../img/gs/080gs.jpg","null","reveal","image-keyboard-response","234","1053932","0.0-6.0-4.32","3059702","co38185","norming","","","","","","",""
"null","../img/tt/080tt.jpg","null","mooney2","image-keyboard-response","235","1055936","0.0-6.0-5.32","3059702","co38185","norming","","","","","","",""
"3070.455000000773","","","post_reveal_questions","survey-likert","236","1059010","0.0-6.0-6.32","3059702","co38185","norming","","","{""aha"":5}","[0]","../img/tt/080tt.jpg","",""
"null","<div style=""font-size:60px;""> </div>","null","fixation","html-keyboard-response","237","1059211","0.0-6.0-0.33","3059702","co38185","norming","","","","","","",""
"null","../img/tt/296tt.jpg","null","mooney1","image-keyboard-response","238","1062215","0.0-6.0-1.33","3059702","co38185","norming","","","","","","",""
"8178.24499999918","","","post_mooney1_questions","survey-likert","239","1070394","0.0-6.0-2.33","3059702","co38185","norming","","","{""curiosity"":5,""confidence"":2}","[0,1]","../img/tt/296tt.jpg","",""
"16749.90000000084","","","recognition","survey-text","240","1087146","0.0-6.0-3.33","3059702","co38185","norming","","","{""guess"":""living room""}","","../img/tt/296tt.jpg","",""
"null","../img/gs/296gs.jpg","null","reveal","image-keyboard-response","241","1089155","0.0-6.0-4.33","3059702","co38185","norming","","","","","","",""
"null","../img/tt/296tt.jpg","null","mooney2","image-keyboard-response","242","1091163","0.0-6.0-5.33","3059702","co38185","norming","","","","","","",""
"2390.5500000000466","","","post_reveal_questions","survey-likert","243","1093554","0.0-6.0-6.33","3059702","co38185","norming","","","{""aha"":1}","[0]","../img/tt/296tt.jpg","",""
"null","<div style=""font-size:60px;""> </div>","null","fixation","html-keyboard-response","244","1093755","0.0-6.0-0.34","3059702","co38185","norming","","","","","","",""
"null","../img/tt/1276tt.jpg","null","mooney1","image-keyboard-response","245","1096759","0.0-6.0-1.34","3059702","co38185","norming","","","","","","",""
"6008.7299999997485","","","post_mooney1_questions","survey-likert","246","1102770","0.0-6.0-2.34","3059702","co38185","norming","","","{""curiosity"":4,""confidence"":3}","[0,1]","../img/tt/1276tt.jpg","",""
"3557.945000000298","","","recognition","survey-text","247","1106327","0.0-6.0-3.34","3059702","co38185","norming","","","{""guess"":""animal""}","","../img/tt/1276tt.jpg","",""
"null","../img/gs/1276gs.jpg","null","reveal","image-keyboard-response","248","1108338","0.0-6.0-4.34","3059702","co38185","norming","","","","","","",""
"null","../img/tt/1276tt.jpg","null","mooney2","image-keyboard-response","249","1110341","0.0-6.0-5.34","3059702","co38185","norming","","","","","","",""
"2056.290000000503","","","post_reveal_questions","survey-likert","250","1112399","0.0-6.0-6.34","3059702","co38185","norming","","","{""aha"":4}","[0]","../img/tt/1276tt.jpg","",""
"null","<div style=""font-size:60px;""> </div>","null","fixation","html-keyboard-response","251","1112602","0.0-6.0-0.35","3059702","co38185","norming","","","","","","",""
"null","../img/tt/270tt.jpg","null","mooney1","image-keyboard-response","252","1115608","0.0-6.0-1.35","3059702","co38185","norming","","","","","","",""
"3812.7750000003725","","","post_mooney1_questions","survey-likert","253","1119424","0.0-6.0-2.35","3059702","co38185","norming","","","{""curiosity"":0,""confidence"":0}","[0,1]","../img/tt/270tt.jpg","",""
"1110.0200000000186","","","recognition","survey-text","254","1120536","0.0-6.0-3.35","3059702","co38185","norming","","","{""guess"":""""}","","../img/tt/270tt.jpg","",""
"null","../img/gs/270gs.jpg","null","reveal","image-keyboard-response","255","1122545","0.0-6.0-4.35","3059702","co38185","norming","","","","","","",""
"null","../img/tt/270tt.jpg","null","mooney2","image-keyboard-response","256","1124557","0.0-6.0-5.35","3059702","co38185","norming","","","","","","",""
"1576.5649999992456","","","post_reveal_questions","survey-likert","257","1126136","0.0-6.0-6.35","3059702","co38185","norming","","","{""aha"":2}","[0]","../img/tt/270tt.jpg","",""
"null","<div style=""font-size:60px;""> </div>","null","fixation","html-keyboard-response","258","1126337","0.0-6.0-0.36","3059702","co38185","norming","","","","","","",""
"null","../img/tt/1200tt.jpg","null","mooney1","image-keyboard-response","259","1129348","0.0-6.0-1.36","3059702","co38185","norming","","","","","","",""
"4969.530000000261","","","post_mooney1_questions","survey-likert","260","1134320","0.0-6.0-2.36","3059702","co38185","norming","","","{""curiosity"":3,""confidence"":0}","[0,1]","../img/tt/1200tt.jpg","",""
"1565.9100000013132","","","recognition","survey-text","261","1135887","0.0-6.0-3.36","3059702","co38185","norming","","","{""guess"":""""}","","../img/tt/1200tt.jpg","",""
"null","../img/gs/1200gs.jpg","null","reveal","image-keyboard-response","262","1137889","0.0-6.0-4.36","3059702","co38185","norming","","","","","","",""
"null","../img/tt/1200tt.jpg","null","mooney2","image-keyboard-response","263","1139891","0.0-6.0-5.36","3059702","co38185","norming","","","","","","",""
"2058.0599999993574","","","post_reveal_questions","survey-likert","264","1141952","0.0-6.0-6.36","3059702","co38185","norming","","","{""aha"":6}","[0]","../img/tt/1200tt.jpg","",""
"null","<div style=""font-size:60px;""> </div>","null","fixation","html-keyboard-response","265","1142153","0.0-6.0-0.37","3059702","co38185","norming","","","","","","",""
"null","../img/tt/135tt.jpg","null","mooney1","image-keyboard-response","266","1145155","0.0-6.0-1.37","3059702","co38185","norming","","","","","","",""
"5395.6500000003725","","","post_mooney1_questions","survey-likert","267","1150552","0.0-6.0-2.37","3059702","co38185","norming","","","{""curiosity"":4,""confidence"":4}","[0,1]","../img/tt/135tt.jpg","",""
"5357.935000000056","","","recognition","survey-text","268","1155911","0.0-6.0-3.37","3059702","co38185","norming","","","{""guess"":""toilet""}","","../img/tt/135tt.jpg","",""
"null","../img/gs/135gs.jpg","null","reveal","image-keyboard-response","269","1157917","0.0-6.0-4.37","3059702","co38185","norming","","","","","","",""
"null","../img/tt/135tt.jpg","null","mooney2","image-keyboard-response","270","1159919","0.0-6.0-5.37","3059702","co38185","norming","","","","","","",""
"2742.000000000233","","","post_reveal_questions","survey-likert","271","1162663","0.0-6.0-6.37","3059702","co38185","norming","","","{""aha"":5}","[0]","../img/tt/135tt.jpg","",""
"null","<div style=""font-size:60px;""> </div>","null","fixation","html-keyboard-response","272","1162869","0.0-6.0-0.38","3059702","co38185","norming","","","","","","",""
"null","../img/tt/552tt.jpg","null","mooney1","image-keyboard-response","273","1165876","0.0-6.0-1.38","3059702","co38185","norming","","","","","","",""
"9620.33499999973","","","post_mooney1_questions","survey-likert","274","1175499","0.0-6.0-2.38","3059702","co38185","norming","","","{""curiosity"":4,""confidence"":1}","[0,1]","../img/tt/552tt.jpg","",""
"3613.695000000065","","","recognition","survey-text","275","1179115","0.0-6.0-3.38","3059702","co38185","norming","","","{""guess"":""animal""}","","../img/tt/552tt.jpg","",""
"null","../img/gs/552gs.jpg","null","reveal","image-keyboard-response","276","1181116","0.0-6.0-4.38","3059702","co38185","norming","","","","","","",""
"null","../img/tt/552tt.jpg","null","mooney2","image-keyboard-response","277","1183119","0.0-6.0-5.38","3059702","co38185","norming","","","","","","",""
"3523.4400000008754","","","post_reveal_questions","survey-likert","278","1186643","0.0-6.0-6.38","3059702","co38185","norming","","","{""aha"":4}","[0]","../img/tt/552tt.jpg","",""
"null","<div style=""font-size:60px;""> </div>","null","fixation","html-keyboard-response","279","1186844","0.0-6.0-0.39","3059702","co38185","norming","","","","","","",""
"null","../img/tt/515tt.jpg","null","mooney1","image-keyboard-response","280","1189856","0.0-6.0-1.39","3059702","co38185","norming","","","","","","",""
"4422.655000000261","","","post_mooney1_questions","survey-likert","281","1194283","0.0-6.0-2.39","3059702","co38185","norming","","","{""curiosity"":3,""confidence"":3}","[0,1]","../img/tt/515tt.jpg","",""
"3165.4099999994505","","","recognition","survey-text","282","1197451","0.0-6.0-3.39","3059702","co38185","norming","","","{""guess"":""bird""}","","../img/tt/515tt.jpg","",""
"null","../img/gs/515gs.jpg","null","reveal","image-keyboard-response","283","1199456","0.0-6.0-4.39","3059702","co38185","norming","","","","","","",""
"null","../img/tt/515tt.jpg","null","mooney2","image-keyboard-response","284","1201457","0.0-6.0-5.39","3059702","co38185","norming","","","","","","",""
"1999.4450000012293","","","post_reveal_questions","survey-likert","285","1203459","0.0-6.0-6.39","3059702","co38185","norming","","","{""aha"":4}","[0]","../img/tt/515tt.jpg","",""
"null","<div style=""font-size:60px;""> </div>","null","fixation","html-keyboard-response","286","1203660","0.0-6.0-0.40","3059702","co38185","norming","","","","","","",""
"null","../img/tt/1226tt.jpg","null","mooney1","image-keyboard-response","287","1206666","0.0-6.0-1.40","3059702","co38185","norming","","","","","","",""
"5349.879999999655","","","post_mooney1_questions","survey-likert","288","1212019","0.0-6.0-2.40","3059702","co38185","norming","","","{""curiosity"":6,""confidence"":0}","[0,1]","../img/tt/1226tt.jpg","",""
"846.0149999991991","","","recognition","survey-text","289","1212867","0.0-6.0-3.40","3059702","co38185","norming","","","{""guess"":""""}","","../img/tt/1226tt.jpg","",""
"null","../img/gs/1226gs.jpg","null","reveal","image-keyboard-response","290","1214868","0.0-6.0-4.40","3059702","co38185","norming","","","","","","",""
"null","../img/tt/1226tt.jpg","null","mooney2","image-keyboard-response","291","1216870","0.0-6.0-5.40","3059702","co38185","norming","","","","","","",""
"2666.509999999311","","","post_reveal_questions","survey-likert","292","1219539","0.0-6.0-6.40","3059702","co38185","norming","","","{""aha"":4}","[0]","../img/tt/1226tt.jpg","",""
"null","<div style=""font-size:60px;""> </div>","null","fixation","html-keyboard-response","293","1219741","0.0-6.0-0.41","3059702","co38185","norming","","","","","","",""
"null","../img/tt/1228tt.jpg","null","mooney1","image-keyboard-response","294","1222751","0.0-6.0-1.41","3059702","co38185","norming","","","","","","",""
"4120.859999999171","","","post_mooney1_questions","survey-likert","295","1226875","0.0-6.0-2.41","3059702","co38185","norming","","","{""curiosity"":3,""confidence"":2}","[0,1]","../img/tt/1228tt.jpg","",""
"3165.6899999997113","","","recognition","survey-text","296","1230043","0.0-6.0-3.41","3059702","co38185","norming","","","{""guess"":""fish""}","","../img/tt/1228tt.jpg","",""
"null","../img/gs/1228gs.jpg","null","reveal","image-keyboard-response","297","1232045","0.0-6.0-4.41","3059702","co38185","norming","","","","","","",""
"null","../img/tt/1228tt.jpg","null","mooney2","image-keyboard-response","298","1234056","0.0-6.0-5.41","3059702","co38185","norming","","","","","","",""
"2792.975000000093","","","post_reveal_questions","survey-likert","299","1236851","0.0-6.0-6.41","3059702","co38185","norming","","","{""aha"":6}","[0]","../img/tt/1228tt.jpg","",""
"null","<div style=""font-size:60px;""> </div>","null","fixation","html-keyboard-response","300","1237055","0.0-6.0-0.42","3059702","co38185","norming","","","","","","",""
"null","../img/tt/1096tt.jpg","null","mooney1","image-keyboard-response","301","1240059","0.0-6.0-1.42","3059702","co38185","norming","","","","","","",""
"3701.0050000008196","","","post_mooney1_questions","survey-likert","302","1243763","0.0-6.0-2.42","3059702","co38185","norming","","","{""curiosity"":3,""confidence"":0}","[0,1]","../img/tt/1096tt.jpg","",""
"678.1849999988917","","","recognition","survey-text","303","1244443","0.0-6.0-3.42","3059702","co38185","norming","","","{""guess"":""""}","","../img/tt/1096tt.jpg","",""
"null","../img/gs/1096gs.jpg","null","reveal","image-keyboard-response","304","1246451","0.0-6.0-4.42","3059702","co38185","norming","","","","","","",""
"null","../img/tt/1096tt.jpg","null","mooney2","image-keyboard-response","305","1248460","0.0-6.0-5.42","3059702","co38185","norming","","","","","","",""
"3539.0749999987893","","","post_reveal_questions","survey-likert","306","1252003","0.0-6.0-6.42","3059702","co38185","norming","","","{""aha"":4}","[0]","../img/tt/1096tt.jpg","",""
"null","<div style=""font-size:60px;""> </div>","null","fixation","html-keyboard-response","307","1252214","0.0-6.0-0.43","3059702","co38185","norming","","","","","","",""
"null","../img/tt/1072tt.jpg","null","mooney1","image-keyboard-response","308","1255219","0.0-6.0-1.43","3059702","co38185","norming","","","","","","",""
"4902.80999999959","","","post_mooney1_questions","survey-likert","309","1260123","0.0-6.0-2.43","3059702","co38185","norming","","","{""curiosity"":3,""confidence"":0}","[0,1]","../img/tt/1072tt.jpg","",""
"526.0849999994971","","","recognition","survey-text","310","1260651","0.0-6.0-3.43","3059702","co38185","norming","","","{""guess"":""""}","","../img/tt/1072tt.jpg","",""
"null","../img/gs/1072gs.jpg","null","reveal","image-keyboard-response","311","1262661","0.0-6.0-4.43","3059702","co38185","norming","","","","","","",""
"null","../img/tt/1072tt.jpg","null","mooney2","image-keyboard-response","312","1264665","0.0-6.0-5.43","3059702","co38185","norming","","","","","","",""
"2079.7299999995157","","","post_reveal_questions","survey-likert","313","1266747","0.0-6.0-6.43","3059702","co38185","norming","","","{""aha"":4}","[0]","../img/tt/1072tt.jpg","",""
"null","<div style=""font-size:60px;""> </div>","null","fixation","html-keyboard-response","314","1266949","0.0-6.0-0.44","3059702","co38185","norming","","","","","","",""
"null","../img/tt/1084tt.jpg","null","mooney1","image-keyboard-response","315","1269955","0.0-6.0-1.44","3059702","co38185","norming","","","","","","",""
"17140.885000000708","","","post_mooney1_questions","survey-likert","316","1287092","0.0-6.0-2.44","3059702","co38185","norming","","","{""curiosity"":3,""confidence"":1}","[0,1]","../img/tt/1084tt.jpg","",""
"3390.489999999758","","","recognition","survey-text","317","1290484","0.0-6.0-3.44","3059702","co38185","norming","","","{""guess"":""cake""}","","../img/tt/1084tt.jpg","",""
"null","../img/gs/1084gs.jpg","null","reveal","image-keyboard-response","318","1292485","0.0-6.0-4.44","3059702","co38185","norming","","","","","","",""
"null","../img/tt/1084tt.jpg","null","mooney2","image-keyboard-response","319","1294496","0.0-6.0-5.44","3059702","co38185","norming","","","","","","",""
"3857.6450000000186","","","post_reveal_questions","survey-likert","320","1298356","0.0-6.0-6.44","3059702","co38185","norming","","","{""aha"":3}","[0]","../img/tt/1084tt.jpg","",""
"null","<div style=""font-size:60px;""> </div>","null","fixation","html-keyboard-response","321","1298558","0.0-6.0-0.45","3059702","co38185","norming","","","","","","",""
"null","../img/tt/1205tt.jpg","null","mooney1","image-keyboard-response","322","1301561","0.0-6.0-1.45","3059702","co38185","norming","","","","","","",""
"4384.079999999842","","","post_mooney1_questions","survey-likert","323","1305948","0.0-6.0-2.45","3059702","co38185","norming","","","{""curiosity"":4,""confidence"":0}","[0,1]","../img/tt/1205tt.jpg","",""
"653.6699999996927","","","recognition","survey-text","324","1306603","0.0-6.0-3.45","3059702","co38185","norming","","","{""guess"":""""}","","../img/tt/1205tt.jpg","",""
"null","../img/gs/1205gs.jpg","null","reveal","image-keyboard-response","325","1308613","0.0-6.0-4.45","3059702","co38185","norming","","","","","","",""
"null","../img/tt/1205tt.jpg","null","mooney2","image-keyboard-response","326","1310617","0.0-6.0-5.45","3059702","co38185","norming","","","","","","",""
"5400.50000000163","","","post_reveal_questions","survey-likert","327","1316020","0.0-6.0-6.45","3059702","co38185","norming","","","{""aha"":4}","[0]","../img/tt/1205tt.jpg","",""
"null","<div style=""font-size:60px;""> </div>","null","fixation","html-keyboard-response","328","1316221","0.0-6.0-0.46","3059702","co38185","norming","","","","","","",""
"null","../img/tt/1148tt.jpg","null","mooney1","image-keyboard-response","329","1319230","0.0-6.0-1.46","3059702","co38185","norming","","","","","","",""
"5804.444999999832","","","post_mooney1_questions","survey-likert","330","1325036","0.0-6.0-2.46","3059702","co38185","norming","","","{""curiosity"":0,""confidence"":0}","[0,1]","../img/tt/1148tt.jpg","",""
"1094.2600000000093","","","recognition","survey-text","331","1326132","0.0-6.0-3.46","3059702","co38185","norming","","","{""guess"":""""}","","../img/tt/1148tt.jpg","",""
"null","../img/gs/1148gs.jpg","null","reveal","image-keyboard-response","332","1328134","0.0-6.0-4.46","3059702","co38185","norming","","","","","","",""
"null","../img/tt/1148tt.jpg","null","mooney2","image-keyboard-response","333","1330137","0.0-6.0-5.46","3059702","co38185","norming","","","","","","",""
"2143.8900000012945","","","post_reveal_questions","survey-likert","334","1332284","0.0-6.0-6.46","3059702","co38185","norming","","","{""aha"":2}","[0]","../img/tt/1148tt.jpg","",""
"null","<div style=""font-size:60px;""> </div>","null","fixation","html-keyboard-response","335","1332486","0.0-6.0-0.47","3059702","co38185","norming","","","","","","",""
"null","../img/tt/580tt.jpg","null","mooney1","image-keyboard-response","336","1335489","0.0-6.0-1.47","3059702","co38185","norming","","","","","","",""
"4975.730000000214","","","post_mooney1_questions","survey-likert","337","1340468","0.0-6.0-2.47","3059702","co38185","norming","","","{""curiosity"":3,""confidence"":0}","[0,1]","../img/tt/580tt.jpg","",""
"1245.6149999997579","","","recognition","survey-text","338","1341716","0.0-6.0-3.47","3059702","co38185","norming","","","{""guess"":""""}","","../img/tt/580tt.jpg","",""
"null","../img/gs/580gs.jpg","null","reveal","image-keyboard-response","339","1343717","0.0-6.0-4.47","3059702","co38185","norming","","","","","","",""
"null","../img/tt/580tt.jpg","null","mooney2","image-keyboard-response","340","1345727","0.0-6.0-5.47","3059702","co38185","norming","","","","","","",""
"2778.3799999996554","","","post_reveal_questions","survey-likert","341","1348509","0.0-6.0-6.47","3059702","co38185","norming","","","{""aha"":3}","[0]","../img/tt/580tt.jpg","",""
"null","<div style=""font-size:60px;""> </div>","null","fixation","html-keyboard-response","342","1348710","0.0-6.0-0.48","3059702","co38185","norming","","","","","","",""
"null","../img/tt/357tt.jpg","null","mooney1","image-keyboard-response","343","1351723","0.0-6.0-1.48","3059702","co38185","norming","","","","","","",""
"4967.120000001276","","","post_mooney1_questions","survey-likert","344","1356693","0.0-6.0-2.48","3059702","co38185","norming","","","{""curiosity"":2,""confidence"":0}","[0,1]","../img/tt/357tt.jpg","",""
"1037.9649999996182","","","recognition","survey-text","345","1357733","0.0-6.0-3.48","3059702","co38185","norming","","","{""guess"":""""}","","../img/tt/357tt.jpg","",""
"null","../img/gs/357gs.jpg","null","reveal","image-keyboard-response","346","1359742","0.0-6.0-4.48","3059702","co38185","norming","","","","","","",""
"null","../img/tt/357tt.jpg","null","mooney2","image-keyboard-response","347","1361745","0.0-6.0-5.48","3059702","co38185","norming","","","","","","",""
"4737.500000001164","","","post_reveal_questions","survey-likert","348","1366485","0.0-6.0-6.48","3059702","co38185","norming","","","{""aha"":5}","[0]","../img/tt/357tt.jpg","",""
"null","<div style=""font-size:60px;""> </div>","null","fixation","html-keyboard-response","349","1366686","0.0-6.0-0.49","3059702","co38185","norming","","","","","","",""
"null","../img/tt/140tt.jpg","null","mooney1","image-keyboard-response","350","1369691","0.0-6.0-1.49","3059702","co38185","norming","","","","","","",""
"5399.595000000671","","","post_mooney1_questions","survey-likert","351","1375093","0.0-6.0-2.49","3059702","co38185","norming","","","{""curiosity"":3,""confidence"":2}","[0,1]","../img/tt/140tt.jpg","",""
"4597.929999999935","","","recognition","survey-text","352","1379693","0.0-6.0-3.49","3059702","co38185","norming","","","{""guess"":""chair""}","","../img/tt/140tt.jpg","",""
"null","../img/gs/140gs.jpg","null","reveal","image-keyboard-response","353","1381695","0.0-6.0-4.49","3059702","co38185","norming","","","","","","",""
"null","../img/tt/140tt.jpg","null","mooney2","image-keyboard-response","354","1383697","0.0-6.0-5.49","3059702","co38185","norming","","","","","","",""
"2849.6849999991246","","","post_reveal_questions","survey-likert","355","1386549","0.0-6.0-6.49","3059702","co38185","norming","","","{""aha"":5}","[0]","../img/tt/140tt.jpg","",""
"null","<div style=""font-size:60px;""> </div>","null","fixation","html-keyboard-response","356","1386750","0.0-6.0-0.50","3059702","co38185","norming","","","","","","",""
"null","../img/tt/1283tt.jpg","null","mooney1","image-keyboard-response","357","1389759","0.0-6.0-1.50","3059702","co38185","norming","","","","","","",""
"5107.01999999932","","","post_mooney1_questions","survey-likert","358","1394869","0.0-6.0-2.50","3059702","co38185","norming","","","{""curiosity"":4,""confidence"":2}","[0,1]","../img/tt/1283tt.jpg","",""
"3061.934999999823","","","recognition","survey-text","359","1397933","0.0-6.0-3.50","3059702","co38185","norming","","","{""guess"":""fox""}","","../img/tt/1283tt.jpg","",""
"null","../img/gs/1283gs.jpg","null","reveal","image-keyboard-response","360","1399939","0.0-6.0-4.50","3059702","co38185","norming","","","","","","",""
"null","../img/tt/1283tt.jpg","null","mooney2","image-keyboard-response","361","1401942","0.0-6.0-5.50","3059702","co38185","norming","","","","","","",""
"4476.000000000466","","","post_reveal_questions","survey-likert","362","1406421","0.0-6.0-6.50","3059702","co38185","norming","","","{""aha"":3}","[0]","../img/tt/1283tt.jpg","",""
"null","<div style=""font-size:60px;""> </div>","null","fixation","html-keyboard-response","363","1406624","0.0-6.0-0.51","3059702","co38185","norming","","","","","","",""
"null","../img/tt/1130tt.jpg","null","mooney1","image-keyboard-response","364","1409638","0.0-6.0-1.51","3059702","co38185","norming","","","","","","",""
"5698.999999998836","","","post_mooney1_questions","survey-likert","365","1415340","0.0-6.0-2.51","3059702","co38185","norming","","","{""curiosity"":3,""confidence"":3}","[0,1]","../img/tt/1130tt.jpg","",""
"4198.0549999990035","","","recognition","survey-text","366","1419540","0.0-6.0-3.51","3059702","co38185","norming","","","{""guess"":""cyclist""}","","../img/tt/1130tt.jpg","",""
"null","../img/gs/1130gs.jpg","null","reveal","image-keyboard-response","367","1421549","0.0-6.0-4.51","3059702","co38185","norming","","","","","","",""
"null","../img/tt/1130tt.jpg","null","mooney2","image-keyboard-response","368","1423554","0.0-6.0-5.51","3059702","co38185","norming","","","","","","",""
"2296.614999999292","","","post_reveal_questions","survey-likert","369","1425852","0.0-6.0-6.51","3059702","co38185","norming","","","{""aha"":4}","[0]","../img/tt/1130tt.jpg","",""
"null","<div style=""font-size:60px;""> </div>","null","fixation","html-keyboard-response","370","1426054","0.0-6.0-0.52","3059702","co38185","norming","","","","","","",""
"null","../img/tt/1234tt.jpg","null","mooney1","image-keyboard-response","371","1429057","0.0-6.0-1.52","3059702","co38185","norming","","","","","","",""
"6976.230000000214","","","post_mooney1_questions","survey-likert","372","1436036","0.0-6.0-2.52","3059702","co38185","norming","","","{""curiosity"":3,""confidence"":2}","[0,1]","../img/tt/1234tt.jpg","",""
"6213.880000001285","","","recognition","survey-text","373","1442252","0.0-6.0-3.52","3059702","co38185","norming","","","{""guess"":""beach""}","","../img/tt/1234tt.jpg","",""
"null","../img/gs/1234gs.jpg","null","reveal","image-keyboard-response","374","1444260","0.0-6.0-4.52","3059702","co38185","norming","","","","","","",""
"null","../img/tt/1234tt.jpg","null","mooney2","image-keyboard-response","375","1446263","0.0-6.0-5.52","3059702","co38185","norming","","","","","","",""
"3154.249999999767","","","post_reveal_questions","survey-likert","376","1449420","0.0-6.0-6.52","3059702","co38185","norming","","","{""aha"":2}","[0]","../img/tt/1234tt.jpg","",""
"null","<div style=""font-size:60px;""> </div>","null","fixation","html-keyboard-response","377","1449631","0.0-6.0-0.53","3059702","co38185","norming","","","","","","",""
"null","../img/tt/1049tt.jpg","null","mooney1","image-keyboard-response","378","1452637","0.0-6.0-1.53","3059702","co38185","norming","","","","","","",""
"4315.674999999814","","","post_mooney1_questions","survey-likert","379","1456956","0.0-6.0-2.53","3059702","co38185","norming","","","{""curiosity"":1,""confidence"":0}","[0,1]","../img/tt/1049tt.jpg","",""
"982.2949999996927","","","recognition","survey-text","380","1457940","0.0-6.0-3.53","3059702","co38185","norming","","","{""guess"":""""}","","../img/tt/1049tt.jpg","",""
"null","../img/gs/1049gs.jpg","null","reveal","image-keyboard-response","381","1459942","0.0-6.0-4.53","3059702","co38185","norming","","","","","","",""
"null","../img/tt/1049tt.jpg","null","mooney2","image-keyboard-response","382","1461946","0.0-6.0-5.53","3059702","co38185","norming","","","","","","",""
"2015.385000000475","","","post_reveal_questions","survey-likert","383","1463964","0.0-6.0-6.53","3059702","co38185","norming","","","{""aha"":3}","[0]","../img/tt/1049tt.jpg","",""
"null","<div style=""font-size:60px;""> </div>","null","fixation","html-keyboard-response","384","1464165","0.0-6.0-0.54","3059702","co38185","norming","","","","","","",""
"null","../img/tt/044tt.jpg","null","mooney1","image-keyboard-response","385","1467169","0.0-6.0-1.54","3059702","co38185","norming","","","","","","",""
"5017.894999999087","","","post_mooney1_questions","survey-likert","386","1472188","0.0-6.0-2.54","3059702","co38185","norming","","","{""curiosity"":3,""confidence"":1}","[0,1]","../img/tt/044tt.jpg","",""
"3112.83499999973","","","recognition","survey-text","387","1475302","0.0-6.0-3.54","3059702","co38185","norming","","","{""guess"":""laptop""}","","../img/tt/044tt.jpg","",""
"null","../img/gs/044gs.jpg","null","reveal","image-keyboard-response","388","1477304","0.0-6.0-4.54","3059702","co38185","norming","","","","","","",""
"null","../img/tt/044tt.jpg","null","mooney2","image-keyboard-response","389","1479306","0.0-6.0-5.54","3059702","co38185","norming","","","","","","",""
"3902.959999999497","","","post_reveal_questions","survey-likert","390","1483212","0.0-6.0-6.54","3059702","co38185","norming","","","{""aha"":4}","[0]","../img/tt/044tt.jpg","",""
"null","<div style=""font-size:60px;""> </div>","null","fixation","html-keyboard-response","391","1483414","0.0-6.0-0.55","3059702","co38185","norming","","","","","","",""
"null","../img/tt/1002tt.jpg","null","mooney1","image-keyboard-response","392","1486418","0.0-6.0-1.55","3059702","co38185","norming","","","","","","",""
"5886.63000000082","","","post_mooney1_questions","survey-likert","393","1492308","0.0-6.0-2.55","3059702","co38185","norming","","","{""curiosity"":3,""confidence"":1}","[0,1]","../img/tt/1002tt.jpg","",""
"3750.019999999553","","","recognition","survey-text","394","1496060","0.0-6.0-3.55","3059702","co38185","norming","","","{""guess"":""animal""}","","../img/tt/1002tt.jpg","",""
"null","../img/gs/1002gs.jpg","null","reveal","image-keyboard-response","395","1498065","0.0-6.0-4.55","3059702","co38185","norming","","","","","","",""
"null","../img/tt/1002tt.jpg","null","mooney2","image-keyboard-response","396","1500076","0.0-6.0-5.55","3059702","co38185","norming","","","","","","",""
"3453.364999999292","","","post_reveal_questions","survey-likert","397","1503532","0.0-6.0-6.55","3059702","co38185","norming","","","{""aha"":3}","[0]","../img/tt/1002tt.jpg","",""
"null","<div style=""font-size:60px;""> </div>","null","fixation","html-keyboard-response","398","1503739","0.0-6.0-0.56","3059702","co38185","norming","","","","","","",""
"null","../img/tt/121tt.jpg","null","mooney1","image-keyboard-response","399","1506743","0.0-6.0-1.56","3059702","co38185","norming","","","","","","",""
"3152.369999999646","","","post_mooney1_questions","survey-likert","400","1509900","0.0-6.0-2.56","3059702","co38185","norming","","","{""curiosity"":3,""confidence"":5}","[0,1]","../img/tt/121tt.jpg","",""
"3814.1250000009313","","","recognition","survey-text","401","1513716","0.0-6.0-3.56","3059702","co38185","norming","","","{""guess"":""kangoroo""}","","../img/tt/121tt.jpg","",""
"null","../img/gs/121gs.jpg","null","reveal","image-keyboard-response","402","1515718","0.0-6.0-4.56","3059702","co38185","norming","","","","","","",""
"null","../img/tt/121tt.jpg","null","mooney2","image-keyboard-response","403","1517725","0.0-6.0-5.56","3059702","co38185","norming","","","","","","",""
"3963.540000000503","","","post_reveal_questions","survey-likert","404","1521691","0.0-6.0-6.56","3059702","co38185","norming","","","{""aha"":0}","[0]","../img/tt/121tt.jpg","",""
"null","<div style=""font-size:60px;""> </div>","null","fixation","html-keyboard-response","405","1521895","0.0-6.0-0.57","3059702","co38185","norming","","","","","","",""
"null","../img/tt/1279tt.jpg","null","mooney1","image-keyboard-response","406","1524900","0.0-6.0-1.57","3059702","co38185","norming","","","","","","",""
"8516.47000000067","","","post_mooney1_questions","survey-likert","407","1533412","0.0-6.0-2.57","3059702","co38185","norming","","","{""curiosity"":0,""confidence"":0}","[0,1]","../img/tt/1279tt.jpg","",""
"733.9549999996088","","","recognition","survey-text","408","1534148","0.0-6.0-3.57","3059702","co38185","norming","","","{""guess"":""""}","","../img/tt/1279tt.jpg","",""
"null","../img/gs/1279gs.jpg","null","reveal","image-keyboard-response","409","1536154","0.0-6.0-4.57","3059702","co38185","norming","","","","","","",""
"null","../img/tt/1279tt.jpg","null","mooney2","image-keyboard-response","410","1538156","0.0-6.0-5.57","3059702","co38185","norming","","","","","","",""
"2149.6799999987707","","","post_reveal_questions","survey-likert","411","1540308","0.0-6.0-6.57","3059702","co38185","norming","","","{""aha"":0}","[0]","../img/tt/1279tt.jpg","",""
"null","<div style=""font-size:60px;""> </div>","null","fixation","html-keyboard-response","412","1540510","0.0-6.0-0.58","3059702","co38185","norming","","","","","","",""
"null","../img/tt/031tt.jpg","null","mooney1","image-keyboard-response","413","1543513","0.0-6.0-1.58","3059702","co38185","norming","","","","","","",""
"7792.045000000158","","","post_mooney1_questions","survey-likert","414","1551308","0.0-6.0-2.58","3059702","co38185","norming","","","{""curiosity"":4,""confidence"":4}","[0,1]","../img/tt/031tt.jpg","",""
"2902.1650000012014","","","recognition","survey-text","415","1554212","0.0-6.0-3.58","3059702","co38185","norming","","","{""guess"":""bear""}","","../img/tt/031tt.jpg","",""
"null","../img/gs/031gs.jpg","null","reveal","image-keyboard-response","416","1556218","0.0-6.0-4.58","3059702","co38185","norming","","","","","","",""
"null","../img/tt/031tt.jpg","null","mooney2","image-keyboard-response","417","1558227","0.0-6.0-5.58","3059702","co38185","norming","","","","","","",""
"3167.009999999311","","","post_reveal_questions","survey-likert","418","1561396","0.0-6.0-6.58","3059702","co38185","norming","","","{""aha"":5}","[0]","../img/tt/031tt.jpg","",""
"null","<div style=""font-size:60px;""> </div>","null","fixation","html-keyboard-response","419","1561598","0.0-6.0-0.59","3059702","co38185","norming","","","","","","",""
"null","../img/tt/319tt.jpg","null","mooney1","image-keyboard-response","420","1564609","0.0-6.0-1.59","3059702","co38185","norming","","","","","","",""
"17649.279999999562","","","post_mooney1_questions","survey-likert","421","1582261","0.0-6.0-2.59","3059702","co38185","norming","","","{""curiosity"":5,""confidence"":5}","[0,1]","../img/tt/319tt.jpg","",""
"3957.779999998864","","","recognition","survey-text","422","1586220","0.0-6.0-3.59","3059702","co38185","norming","","","{""guess"":""horse""}","","../img/tt/319tt.jpg","",""
"null","../img/gs/319gs.jpg","null","reveal","image-keyboard-response","423","1588227","0.0-6.0-4.59","3059702","co38185","norming","","","","","","",""
"null","../img/tt/319tt.jpg","null","mooney2","image-keyboard-response","424","1590236","0.0-6.0-5.59","3059702","co38185","norming","","","","","","",""
"2900.664999999106","","","post_reveal_questions","survey-likert","425","1593148","0.0-6.0-6.59","3059702","co38185","norming","","","{""aha"":3}","[0]","../img/tt/319tt.jpg","",""
"null","<div style=""font-size:60px;""> </div>","null","fixation","html-keyboard-response","426","1593350","0.0-6.0-0.60","3059702","co38185","norming","","","","","","",""
"null","../img/tt/1199tt.jpg","null","mooney1","image-keyboard-response","427","1596359","0.0-6.0-1.60","3059702","co38185","norming","","","","","","",""
"4072.5550000006333","","","post_mooney1_questions","survey-likert","428","1600436","0.0-6.0-2.60","3059702","co38185","norming","","","{""curiosity"":0,""confidence"":0}","[0,1]","../img/tt/1199tt.jpg","",""
"813.8000000000466","","","recognition","survey-text","429","1601252","0.0-6.0-3.60","3059702","co38185","norming","","","{""guess"":""""}","","../img/tt/1199tt.jpg","",""
"null","../img/gs/1199gs.jpg","null","reveal","image-keyboard-response","430","1603253","0.0-6.0-4.60","3059702","co38185","norming","","","","","","",""
"null","../img/tt/1199tt.jpg","null","mooney2","image-keyboard-response","431","1605255","0.0-6.0-5.60","3059702","co38185","norming","","","","","","",""
"1963.4050000004936","","","post_reveal_questions","survey-likert","432","1607220","0.0-6.0-6.60","3059702","co38185","norming","","","{""aha"":0}","[0]","../img/tt/1199tt.jpg","",""
"null","<div style=""font-size:60px;""> </div>","null","fixation","html-keyboard-response","433","1607423","0.0-6.0-0.61","3059702","co38185","norming","","","","","","",""
"null","../img/tt/1048tt.jpg","null","mooney1","image-keyboard-response","434","1610428","0.0-6.0-1.61","3059702","co38185","norming","","","","","","",""
"5620.50500000082","","","post_mooney1_questions","survey-likert","435","1616052","0.0-6.0-2.61","3059702","co38185","norming","","","{""curiosity"":5,""confidence"":0}","[0,1]","../img/tt/1048tt.jpg","",""
"830.0749999999534","","","recognition","survey-text","436","1616884","0.0-6.0-3.61","3059702","co38185","norming","","","{""guess"":""""}","","../img/tt/1048tt.jpg","",""
"null","../img/gs/1048gs.jpg","null","reveal","image-keyboard-response","437","1618885","0.0-6.0-4.61","3059702","co38185","norming","","","","","","",""
"null","../img/tt/1048tt.jpg","null","mooney2","image-keyboard-response","438","1620889","0.0-6.0-5.61","3059702","co38185","norming","","","","","","",""
"2096.035000000382","","","post_reveal_questions","survey-likert","439","1622988","0.0-6.0-6.61","3059702","co38185","norming","","","{""aha"":0}","[0]","../img/tt/1048tt.jpg","",""
"null","<div style=""font-size:60px;""> </div>","null","fixation","html-keyboard-response","440","1623189","0.0-6.0-0.62","3059702","co38185","norming","","","","","","",""
"null","../img/tt/1247tt.jpg","null","mooney1","image-keyboard-response","441","1626197","0.0-6.0-1.62","3059702","co38185","norming","","","","","","",""
"7043.444999999134","","","post_mooney1_questions","survey-likert","442","1633244","0.0-6.0-2.62","3059702","co38185","norming","","","{""curiosity"":4,""confidence"":0}","[0,1]","../img/tt/1247tt.jpg","",""
"878.1099999996368","","","recognition","survey-text","443","1634124","0.0-6.0-3.62","3059702","co38185","norming","","","{""guess"":""""}","","../img/tt/1247tt.jpg","",""
"null","../img/gs/1247gs.jpg","null","reveal","image-keyboard-response","444","1636125","0.0-6.0-4.62","3059702","co38185","norming","","","","","","",""
"null","../img/tt/1247tt.jpg","null","mooney2","image-keyboard-response","445","1638132","0.0-6.0-5.62","3059702","co38185","norming","","","","","","",""
"3245.205000001006","","","post_reveal_questions","survey-likert","446","1641380","0.0-6.0-6.62","3059702","co38185","norming","","","{""aha"":1}","[0]","../img/tt/1247tt.jpg","",""
"null","<div style=""font-size:60px;""> </div>","null","fixation","html-keyboard-response","447","1641591","0.0-6.0-0.63","3059702","co38185","norming","","","","","","",""
"null","../img/tt/522tt.jpg","null","mooney1","image-keyboard-response","448","1644594","0.0-6.0-1.63","3059702","co38185","norming","","","","","","",""
"3606.714999999851","","","post_mooney1_questions","survey-likert","449","1648204","0.0-6.0-2.63","3059702","co38185","norming","","","{""curiosity"":4,""confidence"":4}","[0,1]","../img/tt/522tt.jpg","",""
"3245.885000000242","","","recognition","survey-text","450","1651452","0.0-6.0-3.63","3059702","co38185","norming","","","{""guess"":""cat""}","","../img/tt/522tt.jpg","",""
"null","../img/gs/522gs.jpg","null","reveal","image-keyboard-response","451","1653456","0.0-6.0-4.63","3059702","co38185","norming","","","","","","",""
"null","../img/tt/522tt.jpg","null","mooney2","image-keyboard-response","452","1655461","0.0-6.0-5.63","3059702","co38185","norming","","","","","","",""
"3956.6450000002515","","","post_reveal_questions","survey-likert","453","1659421","0.0-6.0-6.63","3059702","co38185","norming","","","{""aha"":6}","[0]","../img/tt/522tt.jpg","",""
"null","<div style=""font-size:60px;""> </div>","null","fixation","html-keyboard-response","454","1659622","0.0-6.0-0.64","3059702","co38185","norming","","","","","","",""
"null","../img/tt/1101tt.jpg","null","mooney1","image-keyboard-response","455","1662633","0.0-6.0-1.64","3059702","co38185","norming","","","","","","",""
"6984.445000000065","","","post_mooney1_questions","survey-likert","456","1669621","0.0-6.0-2.64","3059702","co38185","norming","","","{""curiosity"":4,""confidence"":3}","[0,1]","../img/tt/1101tt.jpg","",""
"5925.820000000298","","","recognition","survey-text","457","1675548","0.0-6.0-3.64","3059702","co38185","norming","","","{""guess"":""skiing""}","","../img/tt/1101tt.jpg","",""
"null","../img/gs/1101gs.jpg","null","reveal","image-keyboard-response","458","1677554","0.0-6.0-4.64","3059702","co38185","norming","","","","","","",""
"null","../img/tt/1101tt.jpg","null","mooney2","image-keyboard-response","459","1679562","0.0-6.0-5.64","3059702","co38185","norming","","","","","","",""
"3222.6099999989383","","","post_reveal_questions","survey-likert","460","1682789","0.0-6.0-6.64","3059702","co38185","norming","","","{""aha"":3}","[0]","../img/tt/1101tt.jpg","",""
"null","<div style=""font-size:60px;""> </div>","null","fixation","html-keyboard-response","461","1682999","0.0-6.0-0.65","3059702","co38185","norming","","","","","","",""
"null","../img/tt/279tt.jpg","null","mooney1","image-keyboard-response","462","1686005","0.0-6.0-1.65","3059702","co38185","norming","","","","","","",""
"3661.8149999994785","","","post_mooney1_questions","survey-likert","463","1689669","0.0-6.0-2.65","3059702","co38185","norming","","","{""curiosity"":4,""confidence"":2}","[0,1]","../img/tt/279tt.jpg","",""
"4358.034999999218","","","recognition","survey-text","464","1694028","0.0-6.0-3.65","3059702","co38185","norming","","","{""guess"":""panda""}","","../img/tt/279tt.jpg","",""
"null","../img/gs/279gs.jpg","null","reveal","image-keyboard-response","465","1696035","0.0-6.0-4.65","3059702","co38185","norming","","","","","","",""
"null","../img/tt/279tt.jpg","null","mooney2","image-keyboard-response","466","1698047","0.0-6.0-5.65","3059702","co38185","norming","","","","","","",""
"2139.124999999767","","","post_reveal_questions","survey-likert","467","1700189","0.0-6.0-6.65","3059702","co38185","norming","","","{""aha"":4}","[0]","../img/tt/279tt.jpg","",""
"null","<div style=""font-size:60px;""> </div>","null","fixation","html-keyboard-response","468","1700390","0.0-6.0-0.66","3059702","co38185","norming","","","","","","",""
"null","../img/tt/052tt.jpg","null","mooney1","image-keyboard-response","469","1703397","0.0-6.0-1.66","3059702","co38185","norming","","","","","","",""
"4668.780000000028","","","post_mooney1_questions","survey-likert","470","1708069","0.0-6.0-2.66","3059702","co38185","norming","","","{""curiosity"":4,""confidence"":0}","[0,1]","../img/tt/052tt.jpg","",""
"757.7599999986123","","","recognition","survey-text","471","1708829","0.0-6.0-3.66","3059702","co38185","norming","","","{""guess"":""""}","","../img/tt/052tt.jpg","",""
"null","../img/gs/052gs.jpg","null","reveal","image-keyboard-response","472","1710839","0.0-6.0-4.66","3059702","co38185","norming","","","","","","",""
"null","../img/tt/052tt.jpg","null","mooney2","image-keyboard-response","473","1712851","0.0-6.0-5.66","3059702","co38185","norming","","","","","","",""
"2470.879999998957","","","post_reveal_questions","survey-likert","474","1715315","0.0-6.0-6.66","3059702","co38185","norming","","","{""aha"":1}","[0]","../img/tt/052tt.jpg","",""
"null","<div style=""font-size:60px;""> </div>","null","fixation","html-keyboard-response","475","1715517","0.0-6.0-0.67","3059702","co38185","norming","","","","","","",""
"null","../img/tt/060tt.jpg","null","mooney1","image-keyboard-response","476","1718522","0.0-6.0-1.67","3059702","co38185","norming","","","","","","",""
"4885.444999999832","","","post_mooney1_questions","survey-likert","477","1723411","0.0-6.0-2.67","3059702","co38185","norming","","","{""curiosity"":1,""confidence"":0}","[0,1]","../img/tt/060tt.jpg","",""
"629.9100000013132","","","recognition","survey-text","478","1724043","0.0-6.0-3.67","3059702","co38185","norming","","","{""guess"":""""}","","../img/tt/060tt.jpg","",""
"null","../img/gs/060gs.jpg","null","reveal","image-keyboard-response","479","1726049","0.0-6.0-4.67","3059702","co38185","norming","","","","","","",""
"null","../img/tt/060tt.jpg","null","mooney2","image-keyboard-response","480","1728053","0.0-6.0-5.67","3059702","co38185","norming","","","","","","",""
"1427.9200000001583","","","post_reveal_questions","survey-likert","481","1729483","0.0-6.0-6.67","3059702","co38185","norming","","","{""aha"":0}","[0]","../img/tt/060tt.jpg","",""
"null","<div style=""font-size:60px;""> </div>","null","fixation","html-keyboard-response","482","1729685","0.0-6.0-0.68","3059702","co38185","norming","","","","","","",""
"null","../img/tt/456tt.jpg","null","mooney1","image-keyboard-response","483","1732689","0.0-6.0-1.68","3059702","co38185","norming","","","","","","",""
"5398.994999999413","","","post_mooney1_questions","survey-likert","484","1738092","0.0-6.0-2.68","3059702","co38185","norming","","","{""curiosity"":4,""confidence"":2}","[0,1]","../img/tt/456tt.jpg","",""
"3213.599999999162","","","recognition","survey-text","485","1741307","0.0-6.0-3.68","3059702","co38185","norming","","","{""guess"":""foot""}","","../img/tt/456tt.jpg","",""
"null","../img/gs/456gs.jpg","null","reveal","image-keyboard-response","486","1743317","0.0-6.0-4.68","3059702","co38185","norming","","","","","","",""
"null","../img/tt/456tt.jpg","null","mooney2","image-keyboard-response","487","1745327","0.0-6.0-5.68","3059702","co38185","norming","","","","","","",""
"5931.239999999758","","","post_reveal_questions","survey-likert","488","1751259","0.0-6.0-6.68","3059702","co38185","norming","","","{""aha"":4}","[0]","../img/tt/456tt.jpg","",""
"null","<div style=""font-size:60px;""> </div>","null","fixation","html-keyboard-response","489","1751460","0.0-6.0-0.69","3059702","co38185","norming","","","","","","",""
"null","../img/tt/1251tt.jpg","null","mooney1","image-keyboard-response","490","1754466","0.0-6.0-1.69","3059702","co38185","norming","","","","","","",""
"6397.955000000307","","","post_mooney1_questions","survey-likert","491","1760868","0.0-6.0-2.69","3059702","co38185","norming","","","{""curiosity"":4,""confidence"":4}","[0,1]","../img/tt/1251tt.jpg","",""
"3245.93999999878","","","recognition","survey-text","492","1764115","0.0-6.0-3.69","3059702","co38185","norming","","","{""guess"":""bear""}","","../img/tt/1251tt.jpg","",""
"null","../img/gs/1251gs.jpg","null","reveal","image-keyboard-response","493","1766124","0.0-6.0-4.69","3059702","co38185","norming","","","","","","",""
"null","../img/tt/1251tt.jpg","null","mooney2","image-keyboard-response","494","1768127","0.0-6.0-5.69","3059702","co38185","norming","","","","","","",""
"2449.54499999946","","","post_reveal_questions","survey-likert","495","1770580","0.0-6.0-6.69","3059702","co38185","norming","","","{""aha"":1}","[0]","../img/tt/1251tt.jpg","",""
"null","<div style=""font-size:60px;""> </div>","null","fixation","html-keyboard-response","496","1770789","0.0-6.0-0.70","3059702","co38185","norming","","","","","","",""
"null","../img/tt/1235tt.jpg","null","mooney1","image-keyboard-response","497","1773797","0.0-6.0-1.70","3059702","co38185","norming","","","","","","",""
"4308.750000000233","","","post_mooney1_questions","survey-likert","498","1778110","0.0-6.0-2.70","3059702","co38185","norming","","","{""curiosity"":5,""confidence"":0}","[0,1]","../img/tt/1235tt.jpg","",""
"661.7249999998603","","","recognition","survey-text","499","1778774","0.0-6.0-3.70","3059702","co38185","norming","","","{""guess"":""""}","","../img/tt/1235tt.jpg","",""
"null","../img/gs/1235gs.jpg","null","reveal","image-keyboard-response","500","1780782","0.0-6.0-4.70","3059702","co38185","norming","","","","","","",""
"null","../img/tt/1235tt.jpg","null","mooney2","image-keyboard-response","501","1782783","0.0-6.0-5.70","3059702","co38185","norming","","","","","","",""
"1611.9949999994133","","","post_reveal_questions","survey-likert","502","1784398","0.0-6.0-6.70","3059702","co38185","norming","","","{""aha"":4}","[0]","../img/tt/1235tt.jpg","",""
"null","<div style=""font-size:60px;""> </div>","null","fixation","html-keyboard-response","503","1784600","0.0-6.0-0.71","3059702","co38185","norming","","","","","","",""
"null","../img/tt/001tt.jpg","null","mooney1","image-keyboard-response","504","1787611","0.0-6.0-1.71","3059702","co38185","norming","","","","","","",""
"4295.860000000102","","","post_mooney1_questions","survey-likert","505","1791910","0.0-6.0-2.71","3059702","co38185","norming","","","{""curiosity"":4,""confidence"":0}","[0,1]","../img/tt/001tt.jpg","",""
"693.8900000003632","","","recognition","survey-text","506","1792606","0.0-6.0-3.71","3059702","co38185","norming","","","{""guess"":""""}","","../img/tt/001tt.jpg","",""
"null","../img/gs/001gs.jpg","null","reveal","image-keyboard-response","507","1794615","0.0-6.0-4.71","3059702","co38185","norming","","","","","","",""
"null","../img/tt/001tt.jpg","null","mooney2","image-keyboard-response","508","1796626","0.0-6.0-5.71","3059702","co38185","norming","","","","","","",""
"1976.7450000001118","","","post_reveal_questions","survey-likert","509","1798606","0.0-6.0-6.71","3059702","co38185","norming","","","{""aha"":5}","[0]","../img/tt/001tt.jpg","",""
"null","<div style=""font-size:60px;""> </div>","null","fixation","html-keyboard-response","510","1798807","0.0-6.0-0.72","3059702","co38185","norming","","","","","","",""
"null","../img/tt/126tt.jpg","null","mooney1","image-keyboard-response","511","1801813","0.0-6.0-1.72","3059702","co38185","norming","","","","","","",""
"4197.309999999357","","","post_mooney1_questions","survey-likert","512","1806014","0.0-6.0-2.72","3059702","co38185","norming","","","{""curiosity"":4,""confidence"":0}","[0,1]","../img/tt/126tt.jpg","",""
"1133.8999999989755","","","recognition","survey-text","513","1807150","0.0-6.0-3.72","3059702","co38185","norming","","","{""guess"":""""}","","../img/tt/126tt.jpg","",""
"null","../img/gs/126gs.jpg","null","reveal","image-keyboard-response","514","1809152","0.0-6.0-4.72","3059702","co38185","norming","","","","","","",""
"null","../img/tt/126tt.jpg","null","mooney2","image-keyboard-response","515","1811160","0.0-6.0-5.72","3059702","co38185","norming","","","","","","",""
"2037.070000000298","","","post_reveal_questions","survey-likert","516","1813198","0.0-6.0-6.72","3059702","co38185","norming","","","{""aha"":5}","[0]","../img/tt/126tt.jpg","",""
"null","<div style=""font-size:60px;""> </div>","null","fixation","html-keyboard-response","517","1813399","0.0-6.0-0.73","3059702","co38185","norming","","","","","","",""
"null","../img/tt/1102tt.jpg","null","mooney1","image-keyboard-response","518","1816408","0.0-6.0-1.73","3059702","co38185","norming","","","","","","",""
"8873.779999999795","","","post_mooney1_questions","survey-likert","519","1825286","0.0-6.0-2.73","3059702","co38185","norming","","","{""curiosity"":3,""confidence"":0}","[0,1]","../img/tt/1102tt.jpg","",""
"694.2849999996834","","","recognition","survey-text","520","1825982","0.0-6.0-3.73","3059702","co38185","norming","","","{""guess"":""""}","","../img/tt/1102tt.jpg","",""
"null","../img/gs/1102gs.jpg","null","reveal","image-keyboard-response","521","1827990","0.0-6.0-4.73","3059702","co38185","norming","","","","","","",""
"null","../img/tt/1102tt.jpg","null","mooney2","image-keyboard-response","522","1829992","0.0-6.0-5.73","3059702","co38185","norming","","","","","","",""
"1736.5149999987334","","","post_reveal_questions","survey-likert","523","1831734","0.0-6.0-6.73","3059702","co38185","norming","","","{""aha"":6}","[0]","../img/tt/1102tt.jpg","",""
"null","<div style=""font-size:60px;""> </div>","null","fixation","html-keyboard-response","524","1831935","0.0-6.0-0.74","3059702","co38185","norming","","","","","","",""
"null","../img/tt/273tt.jpg","null","mooney1","image-keyboard-response","525","1834940","0.0-6.0-1.74","3059702","co38185","norming","","","","","","",""
"4647.989999999525","","","post_mooney1_questions","survey-likert","526","1839596","0.0-6.0-2.74","3059702","co38185","norming","","","{""curiosity"":4,""confidence"":0}","[0,1]","../img/tt/273tt.jpg","",""
"620.6700000003912","","","recognition","survey-text","527","1840219","0.0-6.0-3.74","3059702","co38185","norming","","","{""guess"":""""}","","../img/tt/273tt.jpg","",""
"null","../img/gs/273gs.jpg","null","reveal","image-keyboard-response","528","1842222","0.0-6.0-4.74","3059702","co38185","norming","","","","","","",""
"null","../img/tt/273tt.jpg","null","mooney2","image-keyboard-response","529","1844233","0.0-6.0-5.74","3059702","co38185","norming","","","","","","",""
"2958.214999998687","","","post_reveal_questions","survey-likert","530","1847194","0.0-6.0-6.74","3059702","co38185","norming","","","{""aha"":5}","[0]","../img/tt/273tt.jpg","",""
"null","<div style=""font-size:60px;""> </div>","null","fixation","html-keyboard-response","531","1847395","0.0-6.0-0.75","3059702","co38185","norming","","","","","","",""
"null","../img/tt/1307tt.jpg","null","mooney1","image-keyboard-response","532","1850402","0.0-6.0-1.75","3059702","co38185","norming","","","","","","",""
"4893.195000000531","","","post_mooney1_questions","survey-likert","533","1855299","0.0-6.0-2.75","3059702","co38185","norming","","","{""curiosity"":4,""confidence"":1}","[0,1]","../img/tt/1307tt.jpg","",""
"3647.320000000065","","","recognition","survey-text","534","1858948","0.0-6.0-3.75","3059702","co38185","norming","","","{""guess"":""women""}","","../img/tt/1307tt.jpg","",""
"null","../img/gs/1307gs.jpg","null","reveal","image-keyboard-response","535","1860950","0.0-6.0-4.75","3059702","co38185","norming","","","","","","",""
"null","../img/tt/1307tt.jpg","null","mooney2","image-keyboard-response","536","1862954","0.0-6.0-5.75","3059702","co38185","norming","","","","","","",""
"2694.1299999998882","","","post_reveal_questions","survey-likert","537","1865651","0.0-6.0-6.75","3059702","co38185","norming","","","{""aha"":1}","[0]","../img/tt/1307tt.jpg","",""
"null","<div style=""font-size:60px;""> </div>","null","fixation","html-keyboard-response","538","1865861","0.0-6.0-0.76","3059702","co38185","norming","","","","","","",""
"null","../img/tt/524tt.jpg","null","mooney1","image-keyboard-response","539","1868871","0.0-6.0-1.76","3059702","co38185","norming","","","","","","",""
"4768.279999998398","","","post_mooney1_questions","survey-likert","540","1873643","0.0-6.0-2.76","3059702","co38185","norming","","","{""curiosity"":4,""confidence"":1}","[0,1]","../img/tt/524tt.jpg","",""
"5398.095000000438","","","recognition","survey-text","541","1879043","0.0-6.0-3.76","3059702","co38185","norming","","","{""guess"":""animal""}","","../img/tt/524tt.jpg","",""
"null","../img/gs/524gs.jpg","null","reveal","image-keyboard-response","542","1881047","0.0-6.0-4.76","3059702","co38185","norming","","","","","","",""
"null","../img/tt/524tt.jpg","null","mooney2","image-keyboard-response","543","1883050","0.0-6.0-5.76","3059702","co38185","norming","","","","","","",""
"4037.674999999581","","","post_reveal_questions","survey-likert","544","1887091","0.0-6.0-6.76","3059702","co38185","norming","","","{""aha"":1}","[0]","../img/tt/524tt.jpg","",""
"null","<div style=""font-size:60px;""> </div>","null","fixation","html-keyboard-response","545","1887301","0.0-6.0-0.77","3059702","co38185","norming","","","","","","",""
"null","../img/tt/1272tt.jpg","null","mooney1","image-keyboard-response","546","1890303","0.0-6.0-1.77","3059702","co38185","norming","","","","","","",""
"6376.420000000391","","","post_mooney1_questions","survey-likert","547","1896683","0.0-6.0-2.77","3059702","co38185","norming","","","{""curiosity"":4,""confidence"":2}","[0,1]","../img/tt/1272tt.jpg","",""
"3838.2350000010338","","","recognition","survey-text","548","1900524","0.0-6.0-3.77","3059702","co38185","norming","","","{""guess"":""pig""}","","../img/tt/1272tt.jpg","",""
"null","../img/gs/1272gs.jpg","null","reveal","image-keyboard-response","549","1902525","0.0-6.0-4.77","3059702","co38185","norming","","","","","","",""
"null","../img/tt/1272tt.jpg","null","mooney2","image-keyboard-response","550","1904528","0.0-6.0-5.77","3059702","co38185","norming","","","","","","",""
"1425.4849999996368","","","post_reveal_questions","survey-likert","551","1905956","0.0-6.0-6.77","3059702","co38185","norming","","","{""aha"":4}","[0]","../img/tt/1272tt.jpg","",""
"null","<div style=""font-size:60px;""> </div>","null","fixation","html-keyboard-response","552","1906158","0.0-6.0-0.78","3059702","co38185","norming","","","","","","",""
"null","../img/tt/1006tt.jpg","null","mooney1","image-keyboard-response","553","1909168","0.0-6.0-1.78","3059702","co38185","norming","","","","","","",""