"rt","stimulus","key_press","test_part","trial_type","trial_index","time_elapsed","internal_node_id","totalTime","subject","experiment_name","button_pressed","success","responses","question_order","currentStim","old","correct"
"8009.635000000344","Welcome to the experiment. This is an online experiment so please don't close the tab/window until we say goodbye.  Press any key to begin.","75","instructions","html-keyboard-response","0","8054","0.0-0.0","3082651","co38680","norming","","","","","","",""
"4849.805000000742","<div style='word-wrap: break-word; width: 900px'><h3>Please consider this information carefully before deciding whether to participate in this research</h3><ul style='text-align: left; font-size: .8em;'><li><b>Purpose of the research</b>: To examine how people process images.</li><li><b>What you will do in this research</b>:  Stimuli (images) will be presented on the computer and you will be asked different questions about them.</li><li><b>Time required</b>: Participation will take between 45 and 60 minutes to complete.</li><li><b>Risks</b>:  There are no anticipated risks associated with participating in this study. The effects of participating should be comparable to those you would experience from viewing a computer monitor for 30 minutes and using a mouse or keyboard.</li><li><b>Benefits</b>:  This study provides no benefits to you individually except for the credit. The study provides important information about the nature of perception and learning.</li><li><b>Confidentiality</b>:  Your participation in this study will remain confidential. No personally identifiable information will be associated with your data. Your de-identified data may be shared with other researchers and used in future projects.</li><li><b>Participation and withdrawal</b>:  Your participation in this study is completely voluntary and you may refuse to participate or you may choose to withdraw at any time without penalty.</li><li><b>How to contact the researchers</b>: If you have questions or concerns about your participation or payment, or want to request a summary of research findings, please contact Sander Van de Cruys (KU Leuven), at sander.vandecruys@kuleuven.be.</li></ul><p>The nature and purpose of this research have been sufficiently explained and I agree to participate in this study.  I understand that I am free to withdraw at any time without incurring any penalty.</p><p>Please consent by clicking the button below to continue. Otherwise, please exit the study at this time.</p></div>","","instructions","html-button-response","1","12907","0.0-1.0","3082651","co38680","norming","0","","","","","",""
"","","","instructions","fullscreen","2","19893","0.0-2.0","3082651","co38680","norming","","true","","","","",""
"88002.6399999997","","","sona","survey-html-form","3","107899","0.0-3.0","3082651","co38680","norming","","","[{""name"":""sonaid"",""value"":""38680""},{""name"":""debrief"",""value"":""yes""},{""name"":""datajoin"",""value"":""yes""}]","","","",""
"45511.105000000505","<div style='word-wrap: break-word; width: 900px'><h3>Instructions</h3><p>This experiment will have 3 parts. In the first part you will see a series of distorted images like the one below on the left. As you can see in the righthand image, the distorted images are derived from actual photographs. In what follows, you will <strong>briefly</strong> be presented with <strong>only</strong> the distorted image.</p> <div style='float: left; margin-right: 20px;'><img src='../img/018tt.jpg' height='250' width='250'></img></div><div style='float: right; margin-left: 20px;'><img src='../img/018gs.jpg' height='250' width='250'></img></div><p>Subsequently you will be asked a few questions about the image: One question on how <strong>curious</strong> you are about the solution and one on how <strong>confident</strong> you are that you know the solution.</p>Next, we ask you to make a guess on what is in the image. Note that it is OK to name just the <strong>basic level category</strong>. For example when you see a parrot in the image, 'parrot' will obviously be a correct answer but also correct is 'bird'. However, 'animal' will <strong>not</strong> be counted as a correct response. For the example above, 'rose' would be correct or 'flower', but not 'plant'. When soccer players are depicted, 'soccer', 'football', 'soccer players' will be correct, but not 'humans', 'outdoors', or 'sports'. You do not need to describe the image in full, just name the main object in it <strong>in one or two words</strong>. All images depict objects from one of the following broad level categories: animals, inanimate objects, plants, sports, vehicles, and food. Recognizing means knowing <strong>more</strong> than these broad labels for a given image. But we always encourage you to <strong>make a guess</strong> if you can. Note that you are allowed to use <strong>Dutch and English</strong> in your answers, whatever comes easiest for you.</p><p>Press any key to continue.</p></div>","32","instructions","html-keyboard-response","4","153412","0.0-4.0","3082651","co38680","norming","","","","","","",""
"91678.04999999955","<div style='word-wrap: break-word; width: 900px'><h3>Instructions</h3> <p>Next, the solution image will be revealed to you and you'll be asked to indicate how strong your <strong>aha-experience</strong> was after seeing the solution. This describes the positive feeling of the 'click' you sometimes experience, when the pieces of the 'puzzle' fall together and you suddenly have 'insight' in the image.</p><img src='aha.jpg' height='188' width='250'></img><p>Note that there are no right or wrong answers. We are interested in what <strong>you</strong> see in the image and how <strong>you</strong> feel about it.</p><p>Press any key to start the experiment.</p></div>","188","instructions","html-keyboard-response","5","245086","0.0-5.0","3082651","co38680","norming","","","","","","",""
"null","<div style=""font-size:60px;""> </div>","null","fixation","html-keyboard-response","6","245290","0.0-6.0-0.0","3082651","co38680","norming","","","","","","",""
"null","../img/tt/1309tt.jpg","null","mooney1","image-keyboard-response","7","248295","0.0-6.0-1.0","3082651","co38680","norming","","","","","","",""
"12546.994999999675","","","post_mooney1_questions","survey-likert","8","260846","0.0-6.0-2.0","3082651","co38680","norming","","","{""curiosity"":1,""confidence"":1}","[0,1]","../img/tt/1309tt.jpg","",""
"2525.695000000269","","","recognition","survey-text","9","263373","0.0-6.0-3.0","3082651","co38680","norming","","","{""guess"":""street""}","","../img/tt/1309tt.jpg","",""
"null","../img/gs/1309gs.jpg","null","reveal","image-keyboard-response","10","265383","0.0-6.0-4.0","3082651","co38680","norming","","","","","","",""
"null","../img/tt/1309tt.jpg","null","mooney2","image-keyboard-response","11","267391","0.0-6.0-5.0","3082651","co38680","norming","","","","","","",""
"4115.954999999318","","","post_reveal_questions","survey-likert","12","271509","0.0-6.0-6.0","3082651","co38680","norming","","","{""aha"":4}","[0]","../img/tt/1309tt.jpg","",""
"null","<div style=""font-size:60px;""> </div>","null","fixation","html-keyboard-response","13","271714","0.0-6.0-0.1","3082651","co38680","norming","","","","","","",""
"null","../img/tt/1234tt.jpg","null","mooney1","image-keyboard-response","14","274715","0.0-6.0-1.1","3082651","co38680","norming","","","","","","",""
"7464.469999999856","","","post_mooney1_questions","survey-likert","15","282181","0.0-6.0-2.1","3082651","co38680","norming","","","{""curiosity"":4,""confidence"":0}","[0,1]","../img/tt/1234tt.jpg","",""
"8710.120000000636","","","recognition","survey-text","16","290893","0.0-6.0-3.1","3082651","co38680","norming","","","{""guess"":""lion""}","","../img/tt/1234tt.jpg","",""
"null","../img/gs/1234gs.jpg","null","reveal","image-keyboard-response","17","292901","0.0-6.0-4.1","3082651","co38680","norming","","","","","","",""
"null","../img/tt/1234tt.jpg","null","mooney2","image-keyboard-response","18","294911","0.0-6.0-5.1","3082651","co38680","norming","","","","","","",""
"4436.029999999853","","","post_reveal_questions","survey-likert","19","299349","0.0-6.0-6.1","3082651","co38680","norming","","","{""aha"":2}","[0]","../img/tt/1234tt.jpg","",""
"null","<div style=""font-size:60px;""> </div>","null","fixation","html-keyboard-response","20","299551","0.0-6.0-0.2","3082651","co38680","norming","","","","","","",""
"null","../img/tt/468tt.jpg","null","mooney1","image-keyboard-response","21","302557","0.0-6.0-1.2","3082651","co38680","norming","","","","","","",""
"9462.00999999931","","","post_mooney1_questions","survey-likert","22","312026","0.0-6.0-2.2","3082651","co38680","norming","","","{""curiosity"":5,""confidence"":0}","[0,1]","../img/tt/468tt.jpg","",""
"3270.3799999999464","","","recognition","survey-text","23","315298","0.0-6.0-3.2","3082651","co38680","norming","","","{""guess"":""man""}","","../img/tt/468tt.jpg","",""
"null","../img/gs/468gs.jpg","null","reveal","image-keyboard-response","24","317309","0.0-6.0-4.2","3082651","co38680","norming","","","","","","",""
"null","../img/tt/468tt.jpg","null","mooney2","image-keyboard-response","25","319317","0.0-6.0-5.2","3082651","co38680","norming","","","","","","",""
"3915.3299999998417","","","post_reveal_questions","survey-likert","26","323234","0.0-6.0-6.2","3082651","co38680","norming","","","{""aha"":5}","[0]","../img/tt/468tt.jpg","",""
"null","<div style=""font-size:60px;""> </div>","null","fixation","html-keyboard-response","27","323435","0.0-6.0-0.3","3082651","co38680","norming","","","","","","",""
"null","../img/tt/008tt.jpg","null","mooney1","image-keyboard-response","28","326446","0.0-6.0-1.3","3082651","co38680","norming","","","","","","",""
"13153.3500000005","","","post_mooney1_questions","survey-likert","29","339602","0.0-6.0-2.3","3082651","co38680","norming","","","{""curiosity"":2,""confidence"":0}","[0,1]","../img/tt/008tt.jpg","",""
"2014.1949999997742","","","recognition","survey-text","30","341618","0.0-6.0-3.3","3082651","co38680","norming","","","{""guess"":""gun""}","","../img/tt/008tt.jpg","",""
"null","../img/gs/008gs.jpg","null","reveal","image-keyboard-response","31","343620","0.0-6.0-4.3","3082651","co38680","norming","","","","","","",""
"null","../img/tt/008tt.jpg","null","mooney2","image-keyboard-response","32","345622","0.0-6.0-5.3","3082651","co38680","norming","","","","","","",""
"3929.8050000006915","","","post_reveal_questions","survey-likert","33","349554","0.0-6.0-6.3","3082651","co38680","norming","","","{""aha"":5}","[0]","../img/tt/008tt.jpg","",""
"null","<div style=""font-size:60px;""> </div>","null","fixation","html-keyboard-response","34","349760","0.0-6.0-0.4","3082651","co38680","norming","","","","","","",""
"null","../img/tt/1125tt.jpg","null","mooney1","image-keyboard-response","35","352769","0.0-6.0-1.4","3082651","co38680","norming","","","","","","",""
"4358.874999999942","","","post_mooney1_questions","survey-likert","36","357130","0.0-6.0-2.4","3082651","co38680","norming","","","{""curiosity"":2,""confidence"":0}","[0,1]","../img/tt/1125tt.jpg","",""
"3574.249999999709","","","recognition","survey-text","37","360706","0.0-6.0-3.4","3082651","co38680","norming","","","{""guess"":""music""}","","../img/tt/1125tt.jpg","",""
"null","../img/gs/1125gs.jpg","null","reveal","image-keyboard-response","38","362716","0.0-6.0-4.4","3082651","co38680","norming","","","","","","",""
"null","../img/tt/1125tt.jpg","null","mooney2","image-keyboard-response","39","364732","0.0-6.0-5.4","3082651","co38680","norming","","","","","","",""
"2580.380000000354","","","post_reveal_questions","survey-likert","40","367314","0.0-6.0-6.4","3082651","co38680","norming","","","{""aha"":3}","[0]","../img/tt/1125tt.jpg","",""
"null","<div style=""font-size:60px;""> </div>","null","fixation","html-keyboard-response","41","367522","0.0-6.0-0.5","3082651","co38680","norming","","","","","","",""
"null","../img/tt/094tt.jpg","null","mooney1","image-keyboard-response","42","370535","0.0-6.0-1.5","3082651","co38680","norming","","","","","","",""
"4626.269999999728","","","post_mooney1_questions","survey-likert","43","375164","0.0-6.0-2.5","3082651","co38680","norming","","","{""curiosity"":4,""confidence"":4}","[0,1]","../img/tt/094tt.jpg","",""
"3813.884999999602","","","recognition","survey-text","44","378980","0.0-6.0-3.5","3082651","co38680","norming","","","{""guess"":""fox""}","","../img/tt/094tt.jpg","",""
"null","../img/gs/094gs.jpg","null","reveal","image-keyboard-response","45","380990","0.0-6.0-4.5","3082651","co38680","norming","","","","","","",""
"null","../img/tt/094tt.jpg","null","mooney2","image-keyboard-response","46","382995","0.0-6.0-5.5","3082651","co38680","norming","","","","","","",""
"2743.4000000003143","","","post_reveal_questions","survey-likert","47","385740","0.0-6.0-6.5","3082651","co38680","norming","","","{""aha"":5}","[0]","../img/tt/094tt.jpg","",""
"null","<div style=""font-size:60px;""> </div>","null","fixation","html-keyboard-response","48","385941","0.0-6.0-0.6","3082651","co38680","norming","","","","","","",""
"null","../img/tt/222tt.jpg","null","mooney1","image-keyboard-response","49","388952","0.0-6.0-1.6","3082651","co38680","norming","","","","","","",""
"4705.910000000615","","","post_mooney1_questions","survey-likert","50","393660","0.0-6.0-2.6","3082651","co38680","norming","","","{""curiosity"":1,""confidence"":2}","[0,1]","../img/tt/222tt.jpg","",""
"1910.2800000000861","","","recognition","survey-text","51","395572","0.0-6.0-3.6","3082651","co38680","norming","","","{""guess"":""tank""}","","../img/tt/222tt.jpg","",""
"null","../img/gs/222gs.jpg","null","reveal","image-keyboard-response","52","397575","0.0-6.0-4.6","3082651","co38680","norming","","","","","","",""
"null","../img/tt/222tt.jpg","null","mooney2","image-keyboard-response","53","399577","0.0-6.0-5.6","3082651","co38680","norming","","","","","","",""
"4289.0299999999115","","","post_reveal_questions","survey-likert","54","403868","0.0-6.0-6.6","3082651","co38680","norming","","","{""aha"":2}","[0]","../img/tt/222tt.jpg","",""
"null","<div style=""font-size:60px;""> </div>","null","fixation","html-keyboard-response","55","404069","0.0-6.0-0.7","3082651","co38680","norming","","","","","","",""
"null","../img/tt/118tt.jpg","null","mooney1","image-keyboard-response","56","407081","0.0-6.0-1.7","3082651","co38680","norming","","","","","","",""
"12360.705000000016","","","post_mooney1_questions","survey-likert","57","419444","0.0-6.0-2.7","3082651","co38680","norming","","","{""curiosity"":4,""confidence"":0}","[0,1]","../img/tt/118tt.jpg","",""
"1390.534999999567","","","recognition","survey-text","58","420836","0.0-6.0-3.7","3082651","co38680","norming","","","{""guess"":""bed""}","","../img/tt/118tt.jpg","",""
"null","../img/gs/118gs.jpg","null","reveal","image-keyboard-response","59","422841","0.0-6.0-4.7","3082651","co38680","norming","","","","","","",""
"null","../img/tt/118tt.jpg","null","mooney2","image-keyboard-response","60","424852","0.0-6.0-5.7","3082651","co38680","norming","","","","","","",""
"2245.4900000002817","","","post_reveal_questions","survey-likert","61","427100","0.0-6.0-6.7","3082651","co38680","norming","","","{""aha"":5}","[0]","../img/tt/118tt.jpg","",""
"null","<div style=""font-size:60px;""> </div>","null","fixation","html-keyboard-response","62","427305","0.0-6.0-0.8","3082651","co38680","norming","","","","","","",""
"null","../img/tt/019tt.jpg","null","mooney1","image-keyboard-response","63","430309","0.0-6.0-1.8","3082651","co38680","norming","","","","","","",""
"6452.409999999858","","","post_mooney1_questions","survey-likert","64","436765","0.0-6.0-2.8","3082651","co38680","norming","","","{""curiosity"":2,""confidence"":6}","[0,1]","../img/tt/019tt.jpg","",""
"1526.0799999996088","","","recognition","survey-text","65","438293","0.0-6.0-3.8","3082651","co38680","norming","","","{""guess"":""tang""}","","../img/tt/019tt.jpg","",""
"null","../img/gs/019gs.jpg","null","reveal","image-keyboard-response","66","440301","0.0-6.0-4.8","3082651","co38680","norming","","","","","","",""
"null","../img/tt/019tt.jpg","null","mooney2","image-keyboard-response","67","442310","0.0-6.0-5.8","3082651","co38680","norming","","","","","","",""
"12916.7399999997","","","post_reveal_questions","survey-likert","68","455229","0.0-6.0-6.8","3082651","co38680","norming","","","{""aha"":1}","[0]","../img/tt/019tt.jpg","",""
"null","<div style=""font-size:60px;""> </div>","null","fixation","html-keyboard-response","69","455432","0.0-6.0-0.9","3082651","co38680","norming","","","","","","",""
"null","../img/tt/1146tt.jpg","null","mooney1","image-keyboard-response","70","458442","0.0-6.0-1.9","3082651","co38680","norming","","","","","","",""
"4256.204999999667","","","post_mooney1_questions","survey-likert","71","462701","0.0-6.0-2.9","3082651","co38680","norming","","","{""curiosity"":4,""confidence"":2}","[0,1]","../img/tt/1146tt.jpg","",""
"4550.234999999695","","","recognition","survey-text","72","467253","0.0-6.0-3.9","3082651","co38680","norming","","","{""guess"":""car""}","","../img/tt/1146tt.jpg","",""
"null","../img/gs/1146gs.jpg","null","reveal","image-keyboard-response","73","469263","0.0-6.0-4.9","3082651","co38680","norming","","","","","","",""
"null","../img/tt/1146tt.jpg","null","mooney2","image-keyboard-response","74","471273","0.0-6.0-5.9","3082651","co38680","norming","","","","","","",""
"2281.4399999997113","","","post_reveal_questions","survey-likert","75","473557","0.0-6.0-6.9","3082651","co38680","norming","","","{""aha"":4}","[0]","../img/tt/1146tt.jpg","",""
"null","<div style=""font-size:60px;""> </div>","null","fixation","html-keyboard-response","76","473760","0.0-6.0-0.10","3082651","co38680","norming","","","","","","",""
"null","../img/tt/076tt.jpg","null","mooney1","image-keyboard-response","77","476761","0.0-6.0-1.10","3082651","co38680","norming","","","","","","",""
"4721.335000000137","","","post_mooney1_questions","survey-likert","78","481485","0.0-6.0-2.10","3082651","co38680","norming","","","{""curiosity"":3,""confidence"":6}","[0,1]","../img/tt/076tt.jpg","",""
"3749.084999999497","","","recognition","survey-text","79","485236","0.0-6.0-3.10","3082651","co38680","norming","","","{""guess"":""roller skates""}","","../img/tt/076tt.jpg","",""
"null","../img/gs/076gs.jpg","null","reveal","image-keyboard-response","80","487238","0.0-6.0-4.10","3082651","co38680","norming","","","","","","",""
"null","../img/tt/076tt.jpg","null","mooney2","image-keyboard-response","81","489240","0.0-6.0-5.10","3082651","co38680","norming","","","","","","",""
"9434.764999999956","","","post_reveal_questions","survey-likert","82","498670","0.0-6.0-6.10","3082651","co38680","norming","","","{""aha"":0}","[0]","../img/tt/076tt.jpg","",""
"null","<div style=""font-size:60px;""> </div>","null","fixation","html-keyboard-response","83","498878","0.0-6.0-0.11","3082651","co38680","norming","","","","","","",""
"null","../img/tt/270tt.jpg","null","mooney1","image-keyboard-response","84","501889","0.0-6.0-1.11","3082651","co38680","norming","","","","","","",""
"10482.219999999856","","","post_mooney1_questions","survey-likert","85","512374","0.0-6.0-2.11","3082651","co38680","norming","","","{""curiosity"":2,""confidence"":1}","[0,1]","../img/tt/270tt.jpg","",""
"4550.185000000056","","","recognition","survey-text","86","516926","0.0-6.0-3.11","3082651","co38680","norming","","","{""guess"":""moose""}","","../img/tt/270tt.jpg","",""
"null","../img/gs/270gs.jpg","null","reveal","image-keyboard-response","87","518928","0.0-6.0-4.11","3082651","co38680","norming","","","","","","",""
"null","../img/tt/270tt.jpg","null","mooney2","image-keyboard-response","88","520938","0.0-6.0-5.11","3082651","co38680","norming","","","","","","",""
"6649.939999999362","","","post_reveal_questions","survey-likert","89","527590","0.0-6.0-6.11","3082651","co38680","norming","","","{""aha"":1}","[0]","../img/tt/270tt.jpg","",""
"null","<div style=""font-size:60px;""> </div>","null","fixation","html-keyboard-response","90","527794","0.0-6.0-0.12","3082651","co38680","norming","","","","","","",""
"null","../img/tt/273tt.jpg","null","mooney1","image-keyboard-response","91","530795","0.0-6.0-1.12","3082651","co38680","norming","","","","","","",""
"4048.064999999944","","","post_mooney1_questions","survey-likert","92","534846","0.0-6.0-2.12","3082651","co38680","norming","","","{""curiosity"":0,""confidence"":6}","[0,1]","../img/tt/273tt.jpg","",""
"1918.179999999702","","","recognition","survey-text","93","536766","0.0-6.0-3.12","3082651","co38680","norming","","","{""guess"":""teeth""}","","../img/tt/273tt.jpg","",""
"null","../img/gs/273gs.jpg","null","reveal","image-keyboard-response","94","538772","0.0-6.0-4.12","3082651","co38680","norming","","","","","","",""
"null","../img/tt/273tt.jpg","null","mooney2","image-keyboard-response","95","540781","0.0-6.0-5.12","3082651","co38680","norming","","","","","","",""
"2430.6049999995157","","","post_reveal_questions","survey-likert","96","543214","0.0-6.0-6.12","3082651","co38680","norming","","","{""aha"":0}","[0]","../img/tt/273tt.jpg","",""
"null","<div style=""font-size:60px;""> </div>","null","fixation","html-keyboard-response","97","543420","0.0-6.0-0.13","3082651","co38680","norming","","","","","","",""
"null","../img/tt/306tt.jpg","null","mooney1","image-keyboard-response","98","546425","0.0-6.0-1.13","3082651","co38680","norming","","","","","","",""
"9665.924999999348","","","post_mooney1_questions","survey-likert","99","556099","0.0-6.0-2.13","3082651","co38680","norming","","","{""curiosity"":2,""confidence"":1}","[0,1]","../img/tt/306tt.jpg","",""
"5726.225000000326","","","recognition","survey-text","100","561827","0.0-6.0-3.13","3082651","co38680","norming","","","{""guess"":""stier""}","","../img/tt/306tt.jpg","",""
"null","../img/gs/306gs.jpg","null","reveal","image-keyboard-response","101","563834","0.0-6.0-4.13","3082651","co38680","norming","","","","","","",""
"null","../img/tt/306tt.jpg","null","mooney2","image-keyboard-response","102","565837","0.0-6.0-5.13","3082651","co38680","norming","","","","","","",""
"2244.4550000000745","","","post_reveal_questions","survey-likert","103","568083","0.0-6.0-6.13","3082651","co38680","norming","","","{""aha"":4}","[0]","../img/tt/306tt.jpg","",""
"null","<div style=""font-size:60px;""> </div>","null","fixation","html-keyboard-response","104","568284","0.0-6.0-0.14","3082651","co38680","norming","","","","","","",""
"null","../img/tt/412tt.jpg","null","mooney1","image-keyboard-response","105","571292","0.0-6.0-1.14","3082651","co38680","norming","","","","","","",""
"6636.774999999907","","","post_mooney1_questions","survey-likert","106","577931","0.0-6.0-2.14","3082651","co38680","norming","","","{""curiosity"":2,""confidence"":2}","[0,1]","../img/tt/412tt.jpg","",""
"6710.1949999995995","","","recognition","survey-text","107","584643","0.0-6.0-3.14","3082651","co38680","norming","","","{""guess"":""drank""}","","../img/tt/412tt.jpg","",""
"null","../img/gs/412gs.jpg","null","reveal","image-keyboard-response","108","586650","0.0-6.0-4.14","3082651","co38680","norming","","","","","","",""
"null","../img/tt/412tt.jpg","null","mooney2","image-keyboard-response","109","588658","0.0-6.0-5.14","3082651","co38680","norming","","","","","","",""
"3062.5149999996647","","","post_reveal_questions","survey-likert","110","591723","0.0-6.0-6.14","3082651","co38680","norming","","","{""aha"":5}","[0]","../img/tt/412tt.jpg","",""
"null","<div style=""font-size:60px;""> </div>","null","fixation","html-keyboard-response","111","591925","0.0-6.0-0.15","3082651","co38680","norming","","","","","","",""
"null","../img/tt/1188tt.jpg","null","mooney1","image-keyboard-response","112","594929","0.0-6.0-1.15","3082651","co38680","norming","","","","","","",""
"7249.540000000736","","","post_mooney1_questions","survey-likert","113","602180","0.0-6.0-2.15","3082651","co38680","norming","","","{""curiosity"":2,""confidence"":4}","[0,1]","../img/tt/1188tt.jpg","",""
"3533.760000000242","","","recognition","survey-text","114","605715","0.0-6.0-3.15","3082651","co38680","norming","","","{""guess"":""rugby player""}","","../img/tt/1188tt.jpg","",""
"null","../img/gs/1188gs.jpg","null","reveal","image-keyboard-response","115","607716","0.0-6.0-4.15","3082651","co38680","norming","","","","","","",""
"null","../img/tt/1188tt.jpg","null","mooney2","image-keyboard-response","116","609726","0.0-6.0-5.15","3082651","co38680","norming","","","","","","",""
"2580.609999999986","","","post_reveal_questions","survey-likert","117","612307","0.0-6.0-6.15","3082651","co38680","norming","","","{""aha"":4}","[0]","../img/tt/1188tt.jpg","",""
"null","<div style=""font-size:60px;""> </div>","null","fixation","html-keyboard-response","118","612508","0.0-6.0-0.16","3082651","co38680","norming","","","","","","",""
"null","../img/tt/1202tt.jpg","null","mooney1","image-keyboard-response","119","615519","0.0-6.0-1.16","3082651","co38680","norming","","","","","","",""
"5246.445000000764","","","post_mooney1_questions","survey-likert","120","620768","0.0-6.0-2.16","3082651","co38680","norming","","","{""curiosity"":5,""confidence"":0}","[0,1]","../img/tt/1202tt.jpg","",""
"6406.019999999437","","","recognition","survey-text","121","627176","0.0-6.0-3.16","3082651","co38680","norming","","","{""guess"":""forest""}","","../img/tt/1202tt.jpg","",""
"null","../img/gs/1202gs.jpg","null","reveal","image-keyboard-response","122","629180","0.0-6.0-4.16","3082651","co38680","norming","","","","","","",""
"null","../img/tt/1202tt.jpg","null","mooney2","image-keyboard-response","123","631182","0.0-6.0-5.16","3082651","co38680","norming","","","","","","",""
"3399.9100000000326","","","post_reveal_questions","survey-likert","124","634584","0.0-6.0-6.16","3082651","co38680","norming","","","{""aha"":5}","[0]","../img/tt/1202tt.jpg","",""
"null","<div style=""font-size:60px;""> </div>","null","fixation","html-keyboard-response","125","634786","0.0-6.0-0.17","3082651","co38680","norming","","","","","","",""
"null","../img/tt/524tt.jpg","null","mooney1","image-keyboard-response","126","637789","0.0-6.0-1.17","3082651","co38680","norming","","","","","","",""
"4594.169999999343","","","post_mooney1_questions","survey-likert","127","642384","0.0-6.0-2.17","3082651","co38680","norming","","","{""curiosity"":2,""confidence"":5}","[0,1]","../img/tt/524tt.jpg","",""
"1590.2400000004563","","","recognition","survey-text","128","643976","0.0-6.0-3.17","3082651","co38680","norming","","","{""guess"":""cow""}","","../img/tt/524tt.jpg","",""
"null","../img/gs/524gs.jpg","null","reveal","image-keyboard-response","129","645983","0.0-6.0-4.17","3082651","co38680","norming","","","","","","",""
"null","../img/tt/524tt.jpg","null","mooney2","image-keyboard-response","130","647986","0.0-6.0-5.17","3082651","co38680","norming","","","","","","",""
"3043.7749999992084","","","post_reveal_questions","survey-likert","131","651032","0.0-6.0-6.17","3082651","co38680","norming","","","{""aha"":5}","[0]","../img/tt/524tt.jpg","",""
"null","<div style=""font-size:60px;""> </div>","null","fixation","html-keyboard-response","132","651233","0.0-6.0-0.18","3082651","co38680","norming","","","","","","",""
"null","../img/tt/1242tt.jpg","null","mooney1","image-keyboard-response","133","654238","0.0-6.0-1.18","3082651","co38680","norming","","","","","","",""
"5527.190000000759","","","post_mooney1_questions","survey-likert","134","659768","0.0-6.0-2.18","3082651","co38680","norming","","","{""curiosity"":3,""confidence"":0}","[0,1]","../img/tt/1242tt.jpg","",""
"3406.450000000419","","","recognition","survey-text","135","663176","0.0-6.0-3.18","3082651","co38680","norming","","","{""guess"":""animal""}","","../img/tt/1242tt.jpg","",""
"null","../img/gs/1242gs.jpg","null","reveal","image-keyboard-response","136","665187","0.0-6.0-4.18","3082651","co38680","norming","","","","","","",""
"null","../img/tt/1242tt.jpg","null","mooney2","image-keyboard-response","137","667198","0.0-6.0-5.18","3082651","co38680","norming","","","","","","",""
"6728.38000000047","","","post_reveal_questions","survey-likert","138","673928","0.0-6.0-6.18","3082651","co38680","norming","","","{""aha"":2}","[0]","../img/tt/1242tt.jpg","",""
"null","<div style=""font-size:60px;""> </div>","null","fixation","html-keyboard-response","139","674130","0.0-6.0-0.19","3082651","co38680","norming","","","","","","",""
"null","../img/tt/1089tt.jpg","null","mooney1","image-keyboard-response","140","677141","0.0-6.0-1.19","3082651","co38680","norming","","","","","","",""
"7328.945000000298","","","post_mooney1_questions","survey-likert","141","684473","0.0-6.0-2.19","3082651","co38680","norming","","","{""curiosity"":3,""confidence"":2}","[0,1]","../img/tt/1089tt.jpg","",""
"2142.345000000205","","","recognition","survey-text","142","686616","0.0-6.0-3.19","3082651","co38680","norming","","","{""guess"":""elephant""}","","../img/tt/1089tt.jpg","",""
"null","../img/gs/1089gs.jpg","null","reveal","image-keyboard-response","143","688617","0.0-6.0-4.19","3082651","co38680","norming","","","","","","",""
"null","../img/tt/1089tt.jpg","null","mooney2","image-keyboard-response","144","690619","0.0-6.0-5.19","3082651","co38680","norming","","","","","","",""
"3299.5999999993946","","","post_reveal_questions","survey-likert","145","693920","0.0-6.0-6.19","3082651","co38680","norming","","","{""aha"":1}","[0]","../img/tt/1089tt.jpg","",""
"null","<div style=""font-size:60px;""> </div>","null","fixation","html-keyboard-response","146","694124","0.0-6.0-0.20","3082651","co38680","norming","","","","","","",""
"null","../img/tt/1251tt.jpg","null","mooney1","image-keyboard-response","147","697136","0.0-6.0-1.20","3082651","co38680","norming","","","","","","",""
"7541.90000000014","","","post_mooney1_questions","survey-likert","148","704680","0.0-6.0-2.20","3082651","co38680","norming","","","{""curiosity"":1,""confidence"":1}","[0,1]","../img/tt/1251tt.jpg","",""
"1838.2349999992875","","","recognition","survey-text","149","706520","0.0-6.0-3.20","3082651","co38680","norming","","","{""guess"":""cliff""}","","../img/tt/1251tt.jpg","",""
"null","../img/gs/1251gs.jpg","null","reveal","image-keyboard-response","150","708525","0.0-6.0-4.20","3082651","co38680","norming","","","","","","",""
"null","../img/tt/1251tt.jpg","null","mooney2","image-keyboard-response","151","710532","0.0-6.0-5.20","3082651","co38680","norming","","","","","","",""
"3633.945000000531","","","post_reveal_questions","survey-likert","152","714168","0.0-6.0-6.20","3082651","co38680","norming","","","{""aha"":5}","[0]","../img/tt/1251tt.jpg","",""
"null","<div style=""font-size:60px;""> </div>","null","fixation","html-keyboard-response","153","714370","0.0-6.0-0.21","3082651","co38680","norming","","","","","","",""
"null","../img/tt/053tt.jpg","null","mooney1","image-keyboard-response","154","717372","0.0-6.0-1.21","3082651","co38680","norming","","","","","","",""
"9961.865000000224","","","post_mooney1_questions","survey-likert","155","727337","0.0-6.0-2.21","3082651","co38680","norming","","","{""curiosity"":5,""confidence"":0}","[0,1]","../img/tt/053tt.jpg","",""
"2910.300000000396","","","recognition","survey-text","156","730248","0.0-6.0-3.21","3082651","co38680","norming","","","{""guess"":""""}","","../img/tt/053tt.jpg","",""
"null","../img/gs/053gs.jpg","null","reveal","image-keyboard-response","157","732251","0.0-6.0-4.21","3082651","co38680","norming","","","","","","",""
"null","../img/tt/053tt.jpg","null","mooney2","image-keyboard-response","158","734253","0.0-6.0-5.21","3082651","co38680","norming","","","","","","",""
"3472.780000000028","","","post_reveal_questions","survey-likert","159","737720","0.0-6.0-6.21","3082651","co38680","norming","","","{""aha"":5}","[0]","../img/tt/053tt.jpg","",""
"null","<div style=""font-size:60px;""> </div>","null","fixation","html-keyboard-response","160","737926","0.0-6.0-0.22","3082651","co38680","norming","","","","","","",""
"null","../img/tt/085tt.jpg","null","mooney1","image-keyboard-response","161","740929","0.0-6.0-1.22","3082651","co38680","norming","","","","","","",""
"7989.029999999679","","","post_mooney1_questions","survey-likert","162","748921","0.0-6.0-2.22","3082651","co38680","norming","","","{""curiosity"":5,""confidence"":1}","[0,1]","../img/tt/085tt.jpg","",""
"19078.100000000675","","","recognition","survey-text","163","768000","0.0-6.0-3.22","3082651","co38680","norming","","","{""guess"":""music instrument""}","","../img/tt/085tt.jpg","",""
"null","../img/gs/085gs.jpg","null","reveal","image-keyboard-response","164","770009","0.0-6.0-4.22","3082651","co38680","norming","","","","","","",""
"null","../img/tt/085tt.jpg","null","mooney2","image-keyboard-response","165","772012","0.0-6.0-5.22","3082651","co38680","norming","","","","","","",""
"4226.070000000647","","","post_reveal_questions","survey-likert","166","776240","0.0-6.0-6.22","3082651","co38680","norming","","","{""aha"":6}","[0]","../img/tt/085tt.jpg","",""
"null","<div style=""font-size:60px;""> </div>","null","fixation","html-keyboard-response","167","776447","0.0-6.0-0.23","3082651","co38680","norming","","","","","","",""
"null","../img/tt/1205tt.jpg","null","mooney1","image-keyboard-response","168","779458","0.0-6.0-1.23","3082651","co38680","norming","","","","","","",""
"13572.390000000247","","","post_mooney1_questions","survey-likert","169","793033","0.0-6.0-2.23","3082651","co38680","norming","","","{""curiosity"":5,""confidence"":0}","[0,1]","../img/tt/1205tt.jpg","",""
"2630.1300000004703","","","recognition","survey-text","170","795664","0.0-6.0-3.23","3082651","co38680","norming","","","{""guess"":""hek""}","","../img/tt/1205tt.jpg","",""
"null","../img/gs/1205gs.jpg","null","reveal","image-keyboard-response","171","797675","0.0-6.0-4.23","3082651","co38680","norming","","","","","","",""
"null","../img/tt/1205tt.jpg","null","mooney2","image-keyboard-response","172","799683","0.0-6.0-5.23","3082651","co38680","norming","","","","","","",""
"5179.9099999998","","","post_reveal_questions","survey-likert","173","804865","0.0-6.0-6.23","3082651","co38680","norming","","","{""aha"":4}","[0]","../img/tt/1205tt.jpg","",""
"null","<div style=""font-size:60px;""> </div>","null","fixation","html-keyboard-response","174","805067","0.0-6.0-0.24","3082651","co38680","norming","","","","","","",""
"null","../img/tt/481tt.jpg","null","mooney1","image-keyboard-response","175","808072","0.0-6.0-1.24","3082651","co38680","norming","","","","","","",""
"6854.655000000144","","","post_mooney1_questions","survey-likert","176","814930","0.0-6.0-2.24","3082651","co38680","norming","","","{""curiosity"":5,""confidence"":1}","[0,1]","../img/tt/481tt.jpg","",""
"3926.054999999935","","","recognition","survey-text","177","818857","0.0-6.0-3.24","3082651","co38680","norming","","","{""guess"":""tiny bear""}","","../img/tt/481tt.jpg","",""
"null","../img/gs/481gs.jpg","null","reveal","image-keyboard-response","178","820859","0.0-6.0-4.24","3082651","co38680","norming","","","","","","",""
"null","../img/tt/481tt.jpg","null","mooney2","image-keyboard-response","179","822861","0.0-6.0-5.24","3082651","co38680","norming","","","","","","",""
"3049.935000000056","","","post_reveal_questions","survey-likert","180","825913","0.0-6.0-6.24","3082651","co38680","norming","","","{""aha"":2}","[0]","../img/tt/481tt.jpg","",""
"null","<div style=""font-size:60px;""> </div>","null","fixation","html-keyboard-response","181","826114","0.0-6.0-0.25","3082651","co38680","norming","","","","","","",""
"null","../img/tt/440tt.jpg","null","mooney1","image-keyboard-response","182","829118","0.0-6.0-1.25","3082651","co38680","norming","","","","","","",""
"5225.010000000126","","","post_mooney1_questions","survey-likert","183","834345","0.0-6.0-2.25","3082651","co38680","norming","","","{""curiosity"":4,""confidence"":1}","[0,1]","../img/tt/440tt.jpg","",""
"2158.3550000005635","","","recognition","survey-text","184","836505","0.0-6.0-3.25","3082651","co38680","norming","","","{""guess"":""camel""}","","../img/tt/440tt.jpg","",""
"null","../img/gs/440gs.jpg","null","reveal","image-keyboard-response","185","838513","0.0-6.0-4.25","3082651","co38680","norming","","","","","","",""
"null","../img/tt/440tt.jpg","null","mooney2","image-keyboard-response","186","840521","0.0-6.0-5.25","3082651","co38680","norming","","","","","","",""
"4327.094999999739","","","post_reveal_questions","survey-likert","187","844849","0.0-6.0-6.25","3082651","co38680","norming","","","{""aha"":5}","[0]","../img/tt/440tt.jpg","",""
"null","<div style=""font-size:60px;""> </div>","null","fixation","html-keyboard-response","188","845059","0.0-6.0-0.26","3082651","co38680","norming","","","","","","",""
"null","../img/tt/358tt.jpg","null","mooney1","image-keyboard-response","189","848061","0.0-6.0-1.26","3082651","co38680","norming","","","","","","",""
"10818.83500000008","","","post_mooney1_questions","survey-likert","190","858874","0.0-6.0-2.26","3082651","co38680","norming","","","{""curiosity"":5,""confidence"":3}","[0,1]","../img/tt/358tt.jpg","",""
"3030.084999999497","","","recognition","survey-text","191","861905","0.0-6.0-3.26","3082651","co38680","norming","","","{""guess"":""camel""}","","../img/tt/358tt.jpg","",""
"null","../img/gs/358gs.jpg","null","reveal","image-keyboard-response","192","863915","0.0-6.0-4.26","3082651","co38680","norming","","","","","","",""
"null","../img/tt/358tt.jpg","null","mooney2","image-keyboard-response","193","865925","0.0-6.0-5.26","3082651","co38680","norming","","","","","","",""
"4243.59999999986","","","post_reveal_questions","survey-likert","194","870169","0.0-6.0-6.26","3082651","co38680","norming","","","{""aha"":1}","[0]","../img/tt/358tt.jpg","",""
"null","<div style=""font-size:60px;""> </div>","null","fixation","html-keyboard-response","195","870378","0.0-6.0-0.27","3082651","co38680","norming","","","","","","",""
"null","../img/tt/580tt.jpg","null","mooney1","image-keyboard-response","196","873389","0.0-6.0-1.27","3082651","co38680","norming","","","","","","",""
"7963.654999999562","","","post_mooney1_questions","survey-likert","197","881353","0.0-6.0-2.27","3082651","co38680","norming","","","{""curiosity"":6,""confidence"":0}","[0,1]","../img/tt/580tt.jpg","",""
"3701.7600000000093","","","recognition","survey-text","198","885057","0.0-6.0-3.27","3082651","co38680","norming","","","{""guess"":""mask""}","","../img/tt/580tt.jpg","",""
"null","../img/gs/580gs.jpg","null","reveal","image-keyboard-response","199","887058","0.0-6.0-4.27","3082651","co38680","norming","","","","","","",""
"null","../img/tt/580tt.jpg","null","mooney2","image-keyboard-response","200","889065","0.0-6.0-5.27","3082651","co38680","norming","","","","","","",""
"2471.45000000007","","","post_reveal_questions","survey-likert","201","891537","0.0-6.0-6.27","3082651","co38680","norming","","","{""aha"":3}","[0]","../img/tt/580tt.jpg","",""
"null","<div style=""font-size:60px;""> </div>","null","fixation","html-keyboard-response","202","891743","0.0-6.0-0.28","3082651","co38680","norming","","","","","","",""
"null","../img/tt/1196tt.jpg","null","mooney1","image-keyboard-response","203","894750","0.0-6.0-1.28","3082651","co38680","norming","","","","","","",""
"5602.669999999343","","","post_mooney1_questions","survey-likert","204","900353","0.0-6.0-2.28","3082651","co38680","norming","","","{""curiosity"":3,""confidence"":5}","[0,1]","../img/tt/1196tt.jpg","",""
"5006.04000000027","","","recognition","survey-text","205","905361","0.0-6.0-3.28","3082651","co38680","norming","","","{""guess"":""judo pyramid""}","","../img/tt/1196tt.jpg","",""
"null","../img/gs/1196gs.jpg","null","reveal","image-keyboard-response","206","907368","0.0-6.0-4.28","3082651","co38680","norming","","","","","","",""
"null","../img/tt/1196tt.jpg","null","mooney2","image-keyboard-response","207","909373","0.0-6.0-5.28","3082651","co38680","norming","","","","","","",""
"3858.570000000298","","","post_reveal_questions","survey-likert","208","913233","0.0-6.0-6.28","3082651","co38680","norming","","","{""aha"":1}","[0]","../img/tt/1196tt.jpg","",""
"null","<div style=""font-size:60px;""> </div>","null","fixation","html-keyboard-response","209","913434","0.0-6.0-0.29","3082651","co38680","norming","","","","","","",""
"null","../img/tt/032tt.jpg","null","mooney1","image-keyboard-response","210","916444","0.0-6.0-1.29","3082651","co38680","norming","","","","","","",""
"5860.550000000396","","","post_mooney1_questions","survey-likert","211","922307","0.0-6.0-2.29","3082651","co38680","norming","","","{""curiosity"":6,""confidence"":0}","[0,1]","../img/tt/032tt.jpg","",""
"3918.0500000002794","","","recognition","survey-text","212","926227","0.0-6.0-3.29","3082651","co38680","norming","","","{""guess"":""a,imals""}","","../img/tt/032tt.jpg","",""
"null","../img/gs/032gs.jpg","null","reveal","image-keyboard-response","213","928233","0.0-6.0-4.29","3082651","co38680","norming","","","","","","",""
"null","../img/tt/032tt.jpg","null","mooney2","image-keyboard-response","214","930237","0.0-6.0-5.29","3082651","co38680","norming","","","","","","",""
"4084.700000000419","","","post_reveal_questions","survey-likert","215","934323","0.0-6.0-6.29","3082651","co38680","norming","","","{""aha"":5}","[0]","../img/tt/032tt.jpg","",""
"null","<div style=""font-size:60px;""> </div>","null","fixation","html-keyboard-response","216","934524","0.0-6.0-0.30","3082651","co38680","norming","","","","","","",""
"null","../img/tt/111tt.jpg","null","mooney1","image-keyboard-response","217","937526","0.0-6.0-1.30","3082651","co38680","norming","","","","","","",""
"5402.854999999399","","","post_mooney1_questions","survey-likert","218","942931","0.0-6.0-2.30","3082651","co38680","norming","","","{""curiosity"":5,""confidence"":2}","[0,1]","../img/tt/111tt.jpg","",""
"3134.1149999998743","","","recognition","survey-text","219","946067","0.0-6.0-3.30","3082651","co38680","norming","","","{""guess"":""flower stemp""}","","../img/tt/111tt.jpg","",""
"null","../img/gs/111gs.jpg","null","reveal","image-keyboard-response","220","948077","0.0-6.0-4.30","3082651","co38680","norming","","","","","","",""
"null","../img/tt/111tt.jpg","null","mooney2","image-keyboard-response","221","950085","0.0-6.0-5.30","3082651","co38680","norming","","","","","","",""
"2868.510000000242","","","post_reveal_questions","survey-likert","222","952955","0.0-6.0-6.30","3082651","co38680","norming","","","{""aha"":6}","[0]","../img/tt/111tt.jpg","",""
"null","<div style=""font-size:60px;""> </div>","null","fixation","html-keyboard-response","223","953156","0.0-6.0-0.31","3082651","co38680","norming","","","","","","",""
"null","../img/tt/559tt.jpg","null","mooney1","image-keyboard-response","224","956166","0.0-6.0-1.31","3082651","co38680","norming","","","","","","",""
"5084.404999999562","","","post_mooney1_questions","survey-likert","225","961251","0.0-6.0-2.31","3082651","co38680","norming","","","{""curiosity"":4,""confidence"":1}","[0,1]","../img/tt/559tt.jpg","",""
"1502.2399999998743","","","recognition","survey-text","226","962755","0.0-6.0-3.31","3082651","co38680","norming","","","{""guess"":""desk""}","","../img/tt/559tt.jpg","",""
"null","../img/gs/559gs.jpg","null","reveal","image-keyboard-response","227","964762","0.0-6.0-4.31","3082651","co38680","norming","","","","","","",""
"null","../img/tt/559tt.jpg","null","mooney2","image-keyboard-response","228","966773","0.0-6.0-5.31","3082651","co38680","norming","","","","","","",""
"3100.024999999674","","","post_reveal_questions","survey-likert","229","969875","0.0-6.0-6.31","3082651","co38680","norming","","","{""aha"":3}","[0]","../img/tt/559tt.jpg","",""
"null","<div style=""font-size:60px;""> </div>","null","fixation","html-keyboard-response","230","970076","0.0-6.0-0.32","3082651","co38680","norming","","","","","","",""
"null","../img/tt/105tt.jpg","null","mooney1","image-keyboard-response","231","973083","0.0-6.0-1.32","3082651","co38680","norming","","","","","","",""
"5821.085000000545","","","post_mooney1_questions","survey-likert","232","978915","0.0-6.0-2.32","3082651","co38680","norming","","","{""curiosity"":6,""confidence"":0}","[0,1]","../img/tt/105tt.jpg","",""
"8982.154999999679","","","recognition","survey-text","233","987898","0.0-6.0-3.32","3082651","co38680","norming","","","{""guess"":""photo negatives""}","","../img/tt/105tt.jpg","",""
"null","../img/gs/105gs.jpg","null","reveal","image-keyboard-response","234","989901","0.0-6.0-4.32","3082651","co38680","norming","","","","","","",""
"null","../img/tt/105tt.jpg","null","mooney2","image-keyboard-response","235","991904","0.0-6.0-5.32","3082651","co38680","norming","","","","","","",""
"13032.90000000014","","","post_reveal_questions","survey-likert","236","1004939","0.0-6.0-6.32","3082651","co38680","norming","","","{""aha"":2}","[0]","../img/tt/105tt.jpg","",""
"null","<div style=""font-size:60px;""> </div>","null","fixation","html-keyboard-response","237","1005140","0.0-6.0-0.33","3082651","co38680","norming","","","","","","",""
"null","../img/tt/126tt.jpg","null","mooney1","image-keyboard-response","238","1008150","0.0-6.0-1.33","3082651","co38680","norming","","","","","","",""
"4521.609999999753","","","post_mooney1_questions","survey-likert","239","1012674","0.0-6.0-2.33","3082651","co38680","norming","","","{""curiosity"":4,""confidence"":2}","[0,1]","../img/tt/126tt.jpg","",""
"1622.5949999998556","","","recognition","survey-text","240","1014299","0.0-6.0-3.33","3082651","co38680","norming","","","{""guess"":""cow""}","","../img/tt/126tt.jpg","",""
"null","../img/gs/126gs.jpg","null","reveal","image-keyboard-response","241","1016301","0.0-6.0-4.33","3082651","co38680","norming","","","","","","",""
"null","../img/tt/126tt.jpg","null","mooney2","image-keyboard-response","242","1018303","0.0-6.0-5.33","3082651","co38680","norming","","","","","","",""
"2009.0100000007078","","","post_reveal_questions","survey-likert","243","1020314","0.0-6.0-6.33","3082651","co38680","norming","","","{""aha"":4}","[0]","../img/tt/126tt.jpg","",""
"null","<div style=""font-size:60px;""> </div>","null","fixation","html-keyboard-response","244","1020516","0.0-6.0-0.34","3082651","co38680","norming","","","","","","",""
"null","../img/tt/436tt.jpg","null","mooney1","image-keyboard-response","245","1023520","0.0-6.0-1.34","3082651","co38680","norming","","","","","","",""
"5215.965000000317","","","post_mooney1_questions","survey-likert","246","1028739","0.0-6.0-2.34","3082651","co38680","norming","","","{""curiosity"":5,""confidence"":2}","[0,1]","../img/tt/436tt.jpg","",""
"3093.8350000006612","","","recognition","survey-text","247","1031834","0.0-6.0-3.34","3082651","co38680","norming","","","{""guess"":""hand""}","","../img/tt/436tt.jpg","",""
"null","../img/gs/436gs.jpg","null","reveal","image-keyboard-response","248","1033836","0.0-6.0-4.34","3082651","co38680","norming","","","","","","",""
"null","../img/tt/436tt.jpg","null","mooney2","image-keyboard-response","249","1035837","0.0-6.0-5.34","3082651","co38680","norming","","","","","","",""
"7740.170000000042","","","post_reveal_questions","survey-likert","250","1043578","0.0-6.0-6.34","3082651","co38680","norming","","","{""aha"":2}","[0]","../img/tt/436tt.jpg","",""
"null","<div style=""font-size:60px;""> </div>","null","fixation","html-keyboard-response","251","1043781","0.0-6.0-0.35","3082651","co38680","norming","","","","","","",""
"null","../img/tt/438tt.jpg","null","mooney1","image-keyboard-response","252","1046782","0.0-6.0-1.35","3082651","co38680","norming","","","","","","",""
"5617.724999999977","","","post_mooney1_questions","survey-likert","253","1052402","0.0-6.0-2.35","3082651","co38680","norming","","","{""curiosity"":6,""confidence"":0}","[0,1]","../img/tt/438tt.jpg","",""
"6582.084999999963","","","recognition","survey-text","254","1058986","0.0-6.0-3.35","3082651","co38680","norming","","","{""guess"":""ketting""}","","../img/tt/438tt.jpg","",""
"null","../img/gs/438gs.jpg","null","reveal","image-keyboard-response","255","1060996","0.0-6.0-4.35","3082651","co38680","norming","","","","","","",""
"null","../img/tt/438tt.jpg","null","mooney2","image-keyboard-response","256","1062999","0.0-6.0-5.35","3082651","co38680","norming","","","","","","",""
"4377.454999999842","","","post_reveal_questions","survey-likert","257","1067378","0.0-6.0-6.35","3082651","co38680","norming","","","{""aha"":1}","[0]","../img/tt/438tt.jpg","",""
"null","<div style=""font-size:60px;""> </div>","null","fixation","html-keyboard-response","258","1067580","0.0-6.0-0.36","3082651","co38680","norming","","","","","","",""
"null","../img/tt/1101tt.jpg","null","mooney1","image-keyboard-response","259","1070584","0.0-6.0-1.36","3082651","co38680","norming","","","","","","",""
"10391.26500000013","","","post_mooney1_questions","survey-likert","260","1080978","0.0-6.0-2.36","3082651","co38680","norming","","","{""curiosity"":4,""confidence"":3}","[0,1]","../img/tt/1101tt.jpg","",""
"3142.1549999995623","","","recognition","survey-text","261","1084122","0.0-6.0-3.36","3082651","co38680","norming","","","{""guess"":""person sport""}","","../img/tt/1101tt.jpg","",""
"null","../img/gs/1101gs.jpg","null","reveal","image-keyboard-response","262","1086129","0.0-6.0-4.36","3082651","co38680","norming","","","","","","",""
"null","../img/tt/1101tt.jpg","null","mooney2","image-keyboard-response","263","1088133","0.0-6.0-5.36","3082651","co38680","norming","","","","","","",""
"3002.9199999999255","","","post_reveal_questions","survey-likert","264","1091138","0.0-6.0-6.36","3082651","co38680","norming","","","{""aha"":1}","[0]","../img/tt/1101tt.jpg","",""
"null","<div style=""font-size:60px;""> </div>","null","fixation","html-keyboard-response","265","1091340","0.0-6.0-0.37","3082651","co38680","norming","","","","","","",""
"null","../img/tt/1283tt.jpg","null","mooney1","image-keyboard-response","266","1094344","0.0-6.0-1.37","3082651","co38680","norming","","","","","","",""
"6903.300000000047","","","post_mooney1_questions","survey-likert","267","1101249","0.0-6.0-2.37","3082651","co38680","norming","","","{""curiosity"":4,""confidence"":1}","[0,1]","../img/tt/1283tt.jpg","",""
"4038.2399999999907","","","recognition","survey-text","268","1105289","0.0-6.0-3.37","3082651","co38680","norming","","","{""guess"":""cat kind""}","","../img/tt/1283tt.jpg","",""
"null","../img/gs/1283gs.jpg","null","reveal","image-keyboard-response","269","1107296","0.0-6.0-4.37","3082651","co38680","norming","","","","","","",""
"null","../img/tt/1283tt.jpg","null","mooney2","image-keyboard-response","270","1109297","0.0-6.0-5.37","3082651","co38680","norming","","","","","","",""
"5038.670000000857","","","post_reveal_questions","survey-likert","271","1114337","0.0-6.0-6.37","3082651","co38680","norming","","","{""aha"":2}","[0]","../img/tt/1283tt.jpg","",""
"null","<div style=""font-size:60px;""> </div>","null","fixation","html-keyboard-response","272","1114548","0.0-6.0-0.38","3082651","co38680","norming","","","","","","",""
"null","../img/tt/1227tt.jpg","null","mooney1","image-keyboard-response","273","1117555","0.0-6.0-1.38","3082651","co38680","norming","","","","","","",""
"5291.339999999851","","","post_mooney1_questions","survey-likert","274","1122849","0.0-6.0-2.38","3082651","co38680","norming","","","{""curiosity"":3,""confidence"":5}","[0,1]","../img/tt/1227tt.jpg","",""
"1878.1650000000373","","","recognition","survey-text","275","1124729","0.0-6.0-3.38","3082651","co38680","norming","","","{""guess"":""chicken""}","","../img/tt/1227tt.jpg","",""
"null","../img/gs/1227gs.jpg","null","reveal","image-keyboard-response","276","1126731","0.0-6.0-4.38","3082651","co38680","norming","","","","","","",""
"null","../img/tt/1227tt.jpg","null","mooney2","image-keyboard-response","277","1128734","0.0-6.0-5.38","3082651","co38680","norming","","","","","","",""
"3312.9600000001956","","","post_reveal_questions","survey-likert","278","1132049","0.0-6.0-6.38","3082651","co38680","norming","","","{""aha"":0}","[0]","../img/tt/1227tt.jpg","",""
"null","<div style=""font-size:60px;""> </div>","null","fixation","html-keyboard-response","279","1132251","0.0-6.0-0.39","3082651","co38680","norming","","","","","","",""
"null","../img/tt/296tt.jpg","null","mooney1","image-keyboard-response","280","1135254","0.0-6.0-1.39","3082651","co38680","norming","","","","","","",""
"6352.850000000326","","","post_mooney1_questions","survey-likert","281","1141609","0.0-6.0-2.39","3082651","co38680","norming","","","{""curiosity"":3,""confidence"":4}","[0,1]","../img/tt/296tt.jpg","",""
"2189.510000000242","","","recognition","survey-text","282","1143801","0.0-6.0-3.39","3082651","co38680","norming","","","{""guess"":""laptop""}","","../img/tt/296tt.jpg","",""
"null","../img/gs/296gs.jpg","null","reveal","image-keyboard-response","283","1145806","0.0-6.0-4.39","3082651","co38680","norming","","","","","","",""
"null","../img/tt/296tt.jpg","null","mooney2","image-keyboard-response","284","1147811","0.0-6.0-5.39","3082651","co38680","norming","","","","","","",""
"4756.695000000065","","","post_reveal_questions","survey-likert","285","1152569","0.0-6.0-6.39","3082651","co38680","norming","","","{""aha"":3}","[0]","../img/tt/296tt.jpg","",""
"null","<div style=""font-size:60px;""> </div>","null","fixation","html-keyboard-response","286","1152775","0.0-6.0-0.40","3082651","co38680","norming","","","","","","",""
"null","../img/tt/1002tt.jpg","null","mooney1","image-keyboard-response","287","1155780","0.0-6.0-1.40","3082651","co38680","norming","","","","","","",""
"19956.209999999264","","","post_mooney1_questions","survey-likert","288","1175733","0.0-6.0-2.40","3082651","co38680","norming","","","{""curiosity"":4,""confidence"":0}","[0,1]","../img/tt/1002tt.jpg","",""
"2174.3750000004657","","","recognition","survey-text","289","1177909","0.0-6.0-3.40","3082651","co38680","norming","","","{""guess"":""bed""}","","../img/tt/1002tt.jpg","",""
"null","../img/gs/1002gs.jpg","null","reveal","image-keyboard-response","290","1179912","0.0-6.0-4.40","3082651","co38680","norming","","","","","","",""
"null","../img/tt/1002tt.jpg","null","mooney2","image-keyboard-response","291","1181914","0.0-6.0-5.40","3082651","co38680","norming","","","","","","",""
"3352.4900000002235","","","post_reveal_questions","survey-likert","292","1185269","0.0-6.0-6.40","3082651","co38680","norming","","","{""aha"":0}","[0]","../img/tt/1002tt.jpg","",""
"null","<div style=""font-size:60px;""> </div>","null","fixation","html-keyboard-response","293","1185478","0.0-6.0-0.41","3082651","co38680","norming","","","","","","",""
"null","../img/tt/1260tt.jpg","null","mooney1","image-keyboard-response","294","1188488","0.0-6.0-1.41","3082651","co38680","norming","","","","","","",""
"3514.350000000326","","","post_mooney1_questions","survey-likert","295","1192005","0.0-6.0-2.41","3082651","co38680","norming","","","{""curiosity"":5,""confidence"":1}","[0,1]","../img/tt/1260tt.jpg","",""
"3773.994999999646","","","recognition","survey-text","296","1195781","0.0-6.0-3.41","3082651","co38680","norming","","","{""guess"":""lizard""}","","../img/tt/1260tt.jpg","",""
"null","../img/gs/1260gs.jpg","null","reveal","image-keyboard-response","297","1197788","0.0-6.0-4.41","3082651","co38680","norming","","","","","","",""
"null","../img/tt/1260tt.jpg","null","mooney2","image-keyboard-response","298","1199790","0.0-6.0-5.41","3082651","co38680","norming","","","","","","",""
"2038.380000000121","","","post_reveal_questions","survey-likert","299","1201829","0.0-6.0-6.41","3082651","co38680","norming","","","{""aha"":0}","[0]","../img/tt/1260tt.jpg","",""
"null","<div style=""font-size:60px;""> </div>","null","fixation","html-keyboard-response","300","1202032","0.0-6.0-0.42","3082651","co38680","norming","","","","","","",""
"null","../img/tt/1307tt.jpg","null","mooney1","image-keyboard-response","301","1205037","0.0-6.0-1.42","3082651","co38680","norming","","","","","","",""
"14085.890000000363","","","post_mooney1_questions","survey-likert","302","1219125","0.0-6.0-2.42","3082651","co38680","norming","","","{""curiosity"":5,""confidence"":1}","[0,1]","../img/tt/1307tt.jpg","",""
"4222.050000000279","","","recognition","survey-text","303","1223349","0.0-6.0-3.42","3082651","co38680","norming","","","{""guess"":""holding in a hand""}","","../img/tt/1307tt.jpg","",""
"null","../img/gs/1307gs.jpg","null","reveal","image-keyboard-response","304","1225363","0.0-6.0-4.42","3082651","co38680","norming","","","","","","",""
"null","../img/tt/1307tt.jpg","null","mooney2","image-keyboard-response","305","1227365","0.0-6.0-5.42","3082651","co38680","norming","","","","","","",""
"3033.5649999997113","","","post_reveal_questions","survey-likert","306","1230403","0.0-6.0-6.42","3082651","co38680","norming","","","{""aha"":0}","[0]","../img/tt/1307tt.jpg","",""
"null","<div style=""font-size:60px;""> </div>","null","fixation","html-keyboard-response","307","1230612","0.0-6.0-0.43","3082651","co38680","norming","","","","","","",""
"null","../img/tt/1199tt.jpg","null","mooney1","image-keyboard-response","308","1233624","0.0-6.0-1.43","3082651","co38680","norming","","","","","","",""
"6072.210000000196","","","post_mooney1_questions","survey-likert","309","1239699","0.0-6.0-2.43","3082651","co38680","norming","","","{""curiosity"":4,""confidence"":4}","[0,1]","../img/tt/1199tt.jpg","",""
"2037.9950000005774","","","recognition","survey-text","310","1241738","0.0-6.0-3.43","3082651","co38680","norming","","","{""guess"":""karate""}","","../img/tt/1199tt.jpg","",""
"null","../img/gs/1199gs.jpg","null","reveal","image-keyboard-response","311","1243739","0.0-6.0-4.43","3082651","co38680","norming","","","","","","",""
"null","../img/tt/1199tt.jpg","null","mooney2","image-keyboard-response","312","1245742","0.0-6.0-5.43","3082651","co38680","norming","","","","","","",""
"6042.1349999997765","","","post_reveal_questions","survey-likert","313","1251786","0.0-6.0-6.43","3082651","co38680","norming","","","{""aha"":0}","[0]","../img/tt/1199tt.jpg","",""
"null","<div style=""font-size:60px;""> </div>","null","fixation","html-keyboard-response","314","1251988","0.0-6.0-0.44","3082651","co38680","norming","","","","","","",""
"null","../img/tt/189tt.jpg","null","mooney1","image-keyboard-response","315","1254993","0.0-6.0-1.44","3082651","co38680","norming","","","","","","",""
"9462.40500000026","","","post_mooney1_questions","survey-likert","316","1264459","0.0-6.0-2.44","3082651","co38680","norming","","","{""curiosity"":3,""confidence"":6}","[0,1]","../img/tt/189tt.jpg","",""
"8334.205000000075","","","recognition","survey-text","317","1272794","0.0-6.0-3.44","3082651","co38680","norming","","","{""guess"":""hangmat""}","","../img/tt/189tt.jpg","",""
"null","../img/gs/189gs.jpg","null","reveal","image-keyboard-response","318","1274797","0.0-6.0-4.44","3082651","co38680","norming","","","","","","",""
"null","../img/tt/189tt.jpg","null","mooney2","image-keyboard-response","319","1276805","0.0-6.0-5.44","3082651","co38680","norming","","","","","","",""
"7939.779999999795","","","post_reveal_questions","survey-likert","320","1284747","0.0-6.0-6.44","3082651","co38680","norming","","","{""aha"":4}","[0]","../img/tt/189tt.jpg","",""
"null","<div style=""font-size:60px;""> </div>","null","fixation","html-keyboard-response","321","1284948","0.0-6.0-0.45","3082651","co38680","norming","","","","","","",""
"null","../img/tt/098tt.jpg","null","mooney1","image-keyboard-response","322","1287951","0.0-6.0-1.45","3082651","co38680","norming","","","","","","",""
"3737.2299999997485","","","post_mooney1_questions","survey-likert","323","1291691","0.0-6.0-2.45","3082651","co38680","norming","","","{""curiosity"":5,""confidence"":0}","[0,1]","../img/tt/098tt.jpg","",""
"1805.9450000000652","","","recognition","survey-text","324","1293499","0.0-6.0-3.45","3082651","co38680","norming","","","{""guess"":""face""}","","../img/tt/098tt.jpg","",""
"null","../img/gs/098gs.jpg","null","reveal","image-keyboard-response","325","1295502","0.0-6.0-4.45","3082651","co38680","norming","","","","","","",""
"null","../img/tt/098tt.jpg","null","mooney2","image-keyboard-response","326","1297510","0.0-6.0-5.45","3082651","co38680","norming","","","","","","",""
"4954.699999999255","","","post_reveal_questions","survey-likert","327","1302467","0.0-6.0-6.45","3082651","co38680","norming","","","{""aha"":0}","[0]","../img/tt/098tt.jpg","",""
"null","<div style=""font-size:60px;""> </div>","null","fixation","html-keyboard-response","328","1302675","0.0-6.0-0.46","3082651","co38680","norming","","","","","","",""
"null","../img/tt/163tt.jpg","null","mooney1","image-keyboard-response","329","1305678","0.0-6.0-1.46","3082651","co38680","norming","","","","","","",""
"4489.314999999711","","","post_mooney1_questions","survey-likert","330","1310171","0.0-6.0-2.46","3082651","co38680","norming","","","{""curiosity"":6,""confidence"":5}","[0,1]","../img/tt/163tt.jpg","",""
"1790.3399999996182","","","recognition","survey-text","331","1311963","0.0-6.0-3.46","3082651","co38680","norming","","","{""guess"":""flower""}","","../img/tt/163tt.jpg","",""
"null","../img/gs/163gs.jpg","null","reveal","image-keyboard-response","332","1313965","0.0-6.0-4.46","3082651","co38680","norming","","","","","","",""
"null","../img/tt/163tt.jpg","null","mooney2","image-keyboard-response","333","1315971","0.0-6.0-5.46","3082651","co38680","norming","","","","","","",""
"2085.6149999999907","","","post_reveal_questions","survey-likert","334","1318059","0.0-6.0-6.46","3082651","co38680","norming","","","{""aha"":0}","[0]","../img/tt/163tt.jpg","",""
"null","<div style=""font-size:60px;""> </div>","null","fixation","html-keyboard-response","335","1318260","0.0-6.0-0.47","3082651","co38680","norming","","","","","","",""
"null","../img/tt/1363tt.jpg","null","mooney1","image-keyboard-response","336","1321264","0.0-6.0-1.47","3082651","co38680","norming","","","","","","",""
"10583.754999999655","","","post_mooney1_questions","survey-likert","337","1331851","0.0-6.0-2.47","3082651","co38680","norming","","","{""curiosity"":6,""confidence"":2}","[0,1]","../img/tt/1363tt.jpg","",""
"7789.730000000447","","","recognition","survey-text","338","1339643","0.0-6.0-3.47","3082651","co38680","norming","","","{""guess"":""chinese soeplepel""}","","../img/tt/1363tt.jpg","",""
"null","../img/gs/1363gs.jpg","null","reveal","image-keyboard-response","339","1341649","0.0-6.0-4.47","3082651","co38680","norming","","","","","","",""
"null","../img/tt/1363tt.jpg","null","mooney2","image-keyboard-response","340","1343658","0.0-6.0-5.47","3082651","co38680","norming","","","","","","",""
"3758.2050000000745","","","post_reveal_questions","survey-likert","341","1347419","0.0-6.0-6.47","3082651","co38680","norming","","","{""aha"":2}","[0]","../img/tt/1363tt.jpg","",""
"null","<div style=""font-size:60px;""> </div>","null","fixation","html-keyboard-response","342","1347620","0.0-6.0-0.48","3082651","co38680","norming","","","","","","",""
"null","../img/tt/442tt.jpg","null","mooney1","image-keyboard-response","343","1350626","0.0-6.0-1.48","3082651","co38680","norming","","","","","","",""
"4822.510000000009","","","post_mooney1_questions","survey-likert","344","1355452","0.0-6.0-2.48","3082651","co38680","norming","","","{""curiosity"":4,""confidence"":0}","[0,1]","../img/tt/442tt.jpg","",""
"5870.004999999655","","","recognition","survey-text","345","1361323","0.0-6.0-3.48","3082651","co38680","norming","","","{""guess"":""""}","","../img/tt/442tt.jpg","",""
"null","../img/gs/442gs.jpg","null","reveal","image-keyboard-response","346","1363327","0.0-6.0-4.48","3082651","co38680","norming","","","","","","",""
"null","../img/tt/442tt.jpg","null","mooney2","image-keyboard-response","347","1365330","0.0-6.0-5.48","3082651","co38680","norming","","","","","","",""
"3174.6599999996834","","","post_reveal_questions","survey-likert","348","1368507","0.0-6.0-6.48","3082651","co38680","norming","","","{""aha"":0}","[0]","../img/tt/442tt.jpg","",""
"null","<div style=""font-size:60px;""> </div>","null","fixation","html-keyboard-response","349","1368708","0.0-6.0-0.49","3082651","co38680","norming","","","","","","",""
"null","../img/tt/1269tt.jpg","null","mooney1","image-keyboard-response","350","1371720","0.0-6.0-1.49","3082651","co38680","norming","","","","","","",""
"20048.060000000056","","","post_mooney1_questions","survey-likert","351","1391771","0.0-6.0-2.49","3082651","co38680","norming","","","{""curiosity"":5,""confidence"":3}","[0,1]","../img/tt/1269tt.jpg","",""
"5374.230000000447","","","recognition","survey-text","352","1397147","0.0-6.0-3.49","3082651","co38680","norming","","","{""guess"":""koala achtig""}","","../img/tt/1269tt.jpg","",""
"null","../img/gs/1269gs.jpg","null","reveal","image-keyboard-response","353","1399150","0.0-6.0-4.49","3082651","co38680","norming","","","","","","",""
"null","../img/tt/1269tt.jpg","null","mooney2","image-keyboard-response","354","1401153","0.0-6.0-5.49","3082651","co38680","norming","","","","","","",""
"3408.140000000363","","","post_reveal_questions","survey-likert","355","1404563","0.0-6.0-6.49","3082651","co38680","norming","","","{""aha"":1}","[0]","../img/tt/1269tt.jpg","",""
"null","<div style=""font-size:60px;""> </div>","null","fixation","html-keyboard-response","356","1404769","0.0-6.0-0.50","3082651","co38680","norming","","","","","","",""
"null","../img/tt/1243tt.jpg","null","mooney1","image-keyboard-response","357","1407772","0.0-6.0-1.50","3082651","co38680","norming","","","","","","",""
"9206.745000000345","","","post_mooney1_questions","survey-likert","358","1416974","0.0-6.0-2.50","3082651","co38680","norming","","","{""curiosity"":3,""confidence"":4}","[0,1]","../img/tt/1243tt.jpg","",""
"1718","","","recognition","survey-text","359","1418694","0.0-6.0-3.50","3082651","co38680","norming","","","{""guess"":""bear""}","","../img/tt/1243tt.jpg","",""
"null","../img/gs/1243gs.jpg","null","reveal","image-keyboard-response","360","1420699","0.0-6.0-4.50","3082651","co38680","norming","","","","","","",""
"null","../img/tt/1243tt.jpg","null","mooney2","image-keyboard-response","361","1422707","0.0-6.0-5.50","3082651","co38680","norming","","","","","","",""
"3296.409999999916","","","post_reveal_questions","survey-likert","362","1426006","0.0-6.0-6.50","3082651","co38680","norming","","","{""aha"":0}","[0]","../img/tt/1243tt.jpg","",""
"null","<div style=""font-size:60px;""> </div>","null","fixation","html-keyboard-response","363","1426212","0.0-6.0-0.51","3082651","co38680","norming","","","","","","",""
"null","../img/tt/1128tt.jpg","null","mooney1","image-keyboard-response","364","1429216","0.0-6.0-1.51","3082651","co38680","norming","","","","","","",""
"7381.005000000121","","","post_mooney1_questions","survey-likert","365","1436598","0.0-6.0-2.51","3082651","co38680","norming","","","{""curiosity"":6,""confidence"":2}","[0,1]","../img/tt/1128tt.jpg","",""
"1934.089999999851","","","recognition","survey-text","366","1438534","0.0-6.0-3.51","3082651","co38680","norming","","","{""guess"":""mol""}","","../img/tt/1128tt.jpg","",""
"null","../img/gs/1128gs.jpg","null","reveal","image-keyboard-response","367","1440540","0.0-6.0-4.51","3082651","co38680","norming","","","","","","",""
"null","../img/tt/1128tt.jpg","null","mooney2","image-keyboard-response","368","1442543","0.0-6.0-5.51","3082651","co38680","norming","","","","","","",""
"2844.9000000001397","","","post_reveal_questions","survey-likert","369","1445390","0.0-6.0-6.51","3082651","co38680","norming","","","{""aha"":0}","[0]","../img/tt/1128tt.jpg","",""
"null","<div style=""font-size:60px;""> </div>","null","fixation","html-keyboard-response","370","1445596","0.0-6.0-0.52","3082651","co38680","norming","","","","","","",""
"null","../img/tt/1127tt.jpg","null","mooney1","image-keyboard-response","371","1448599","0.0-6.0-1.52","3082651","co38680","norming","","","","","","",""
"6020.1800000004005","","","post_mooney1_questions","survey-likert","372","1454622","0.0-6.0-2.52","3082651","co38680","norming","","","{""curiosity"":2,""confidence"":4}","[0,1]","../img/tt/1127tt.jpg","",""
"2566.2899999998044","","","recognition","survey-text","373","1457190","0.0-6.0-3.52","3082651","co38680","norming","","","{""guess"":""judo""}","","../img/tt/1127tt.jpg","",""
"null","../img/gs/1127gs.jpg","null","reveal","image-keyboard-response","374","1459198","0.0-6.0-4.52","3082651","co38680","norming","","","","","","",""
"null","../img/tt/1127tt.jpg","null","mooney2","image-keyboard-response","375","1461200","0.0-6.0-5.52","3082651","co38680","norming","","","","","","",""
"2619.564999999944","","","post_reveal_questions","survey-likert","376","1463822","0.0-6.0-6.52","3082651","co38680","norming","","","{""aha"":0}","[0]","../img/tt/1127tt.jpg","",""
"null","<div style=""font-size:60px;""> </div>","null","fixation","html-keyboard-response","377","1464031","0.0-6.0-0.53","3082651","co38680","norming","","","","","","",""
"null","../img/tt/300tt.jpg","null","mooney1","image-keyboard-response","378","1467035","0.0-6.0-1.53","3082651","co38680","norming","","","","","","",""
"4936.84999999986","","","post_mooney1_questions","survey-likert","379","1471975","0.0-6.0-2.53","3082651","co38680","norming","","","{""curiosity"":5,""confidence"":2}","[0,1]","../img/tt/300tt.jpg","",""
"2174.095000000205","","","recognition","survey-text","380","1474157","0.0-6.0-3.53","3082651","co38680","norming","","","{""guess"":""monkey""}","","../img/tt/300tt.jpg","",""
"null","../img/gs/300gs.jpg","null","reveal","image-keyboard-response","381","1476161","0.0-6.0-4.53","3082651","co38680","norming","","","","","","",""
"null","../img/tt/300tt.jpg","null","mooney2","image-keyboard-response","382","1478168","0.0-6.0-5.53","3082651","co38680","norming","","","","","","",""
"8146.619999999413","","","post_reveal_questions","survey-likert","383","1486317","0.0-6.0-6.53","3082651","co38680","norming","","","{""aha"":0}","[0]","../img/tt/300tt.jpg","",""
"null","<div style=""font-size:60px;""> </div>","null","fixation","html-keyboard-response","384","1486519","0.0-6.0-0.54","3082651","co38680","norming","","","","","","",""
"null","../img/tt/357tt.jpg","null","mooney1","image-keyboard-response","385","1489527","0.0-6.0-1.54","3082651","co38680","norming","","","","","","",""
"3179.4050000007264","","","post_mooney1_questions","survey-likert","386","1492710","0.0-6.0-2.54","3082651","co38680","norming","","","{""curiosity"":5,""confidence"":0}","[0,1]","../img/tt/357tt.jpg","",""
"1142.1500000006054","","","recognition","survey-text","387","1493853","0.0-6.0-3.54","3082651","co38680","norming","","","{""guess"":""""}","","../img/tt/357tt.jpg","",""
"null","../img/gs/357gs.jpg","null","reveal","image-keyboard-response","388","1495857","0.0-6.0-4.54","3082651","co38680","norming","","","","","","",""
"null","../img/tt/357tt.jpg","null","mooney2","image-keyboard-response","389","1497859","0.0-6.0-5.54","3082651","co38680","norming","","","","","","",""
"2913.4300000006333","","","post_reveal_questions","survey-likert","390","1500773","0.0-6.0-6.54","3082651","co38680","norming","","","{""aha"":0}","[0]","../img/tt/357tt.jpg","",""
"null","<div style=""font-size:60px;""> </div>","null","fixation","html-keyboard-response","391","1500984","0.0-6.0-0.55","3082651","co38680","norming","","","","","","",""
"null","../img/tt/049tt.jpg","null","mooney1","image-keyboard-response","392","1503988","0.0-6.0-1.55","3082651","co38680","norming","","","","","","",""
"8494.464999999618","","","post_mooney1_questions","survey-likert","393","1512485","0.0-6.0-2.55","3082651","co38680","norming","","","{""curiosity"":3,""confidence"":3}","[0,1]","../img/tt/049tt.jpg","",""
"4214.000000000931","","","recognition","survey-text","394","1516701","0.0-6.0-3.55","3082651","co38680","norming","","","{""guess"":""animal face""}","","../img/tt/049tt.jpg","",""
"null","../img/gs/049gs.jpg","null","reveal","image-keyboard-response","395","1518712","0.0-6.0-4.55","3082651","co38680","norming","","","","","","",""
"null","../img/tt/049tt.jpg","null","mooney2","image-keyboard-response","396","1520722","0.0-6.0-5.55","3082651","co38680","norming","","","","","","",""
"2840.2800000002608","","","post_reveal_questions","survey-likert","397","1523565","0.0-6.0-6.55","3082651","co38680","norming","","","{""aha"":0}","[0]","../img/tt/049tt.jpg","",""
"null","<div style=""font-size:60px;""> </div>","null","fixation","html-keyboard-response","398","1523772","0.0-6.0-0.56","3082651","co38680","norming","","","","","","",""
"null","../img/tt/1027tt.jpg","null","mooney1","image-keyboard-response","399","1526781","0.0-6.0-1.56","3082651","co38680","norming","","","","","","",""
"6981.084999999497","","","post_mooney1_questions","survey-likert","400","1533765","0.0-6.0-2.56","3082651","co38680","norming","","","{""curiosity"":3,""confidence"":1}","[0,1]","../img/tt/1027tt.jpg","",""
"7542.309999999823","","","recognition","survey-text","401","1541308","0.0-6.0-3.56","3082651","co38680","norming","","","{""guess"":""cow""}","","../img/tt/1027tt.jpg","",""
"null","../img/gs/1027gs.jpg","null","reveal","image-keyboard-response","402","1543311","0.0-6.0-4.56","3082651","co38680","norming","","","","","","",""
"null","../img/tt/1027tt.jpg","null","mooney2","image-keyboard-response","403","1545321","0.0-6.0-5.56","3082651","co38680","norming","","","","","","",""
"3583.714999999851","","","post_reveal_questions","survey-likert","404","1548908","0.0-6.0-6.56","3082651","co38680","norming","","","{""aha"":4}","[0]","../img/tt/1027tt.jpg","",""
"null","<div style=""font-size:60px;""> </div>","null","fixation","html-keyboard-response","405","1549109","0.0-6.0-0.57","3082651","co38680","norming","","","","","","",""
"null","../img/tt/1217tt.jpg","null","mooney1","image-keyboard-response","406","1552117","0.0-6.0-1.57","3082651","co38680","norming","","","","","","",""
"5302.754999999655","","","post_mooney1_questions","survey-likert","407","1557428","0.0-6.0-2.57","3082651","co38680","norming","","","{""curiosity"":5,""confidence"":2}","[0,1]","../img/tt/1217tt.jpg","",""
"3605.9700000006706","","","recognition","survey-text","408","1561036","0.0-6.0-3.57","3082651","co38680","norming","","","{""guess"":""people dancing""}","","../img/tt/1217tt.jpg","",""
"null","../img/gs/1217gs.jpg","null","reveal","image-keyboard-response","409","1563039","0.0-6.0-4.57","3082651","co38680","norming","","","","","","",""
"null","../img/tt/1217tt.jpg","null","mooney2","image-keyboard-response","410","1565041","0.0-6.0-5.57","3082651","co38680","norming","","","","","","",""
"7104.049999999814","","","post_reveal_questions","survey-likert","411","1572148","0.0-6.0-6.57","3082651","co38680","norming","","","{""aha"":1}","[0]","../img/tt/1217tt.jpg","",""
"null","<div style=""font-size:60px;""> </div>","null","fixation","html-keyboard-response","412","1572357","0.0-6.0-0.58","3082651","co38680","norming","","","","","","",""
"null","../img/tt/1262tt.jpg","null","mooney1","image-keyboard-response","413","1575369","0.0-6.0-1.58","3082651","co38680","norming","","","","","","",""
"7161.304999999469","","","post_mooney1_questions","survey-likert","414","1582532","0.0-6.0-2.58","3082651","co38680","norming","","","{""curiosity"":5,""confidence"":1}","[0,1]","../img/tt/1262tt.jpg","",""
"1685.625","","","recognition","survey-text","415","1584220","0.0-6.0-3.58","3082651","co38680","norming","","","{""guess"":""mouse""}","","../img/tt/1262tt.jpg","",""
"null","../img/gs/1262gs.jpg","null","reveal","image-keyboard-response","416","1586223","0.0-6.0-4.58","3082651","co38680","norming","","","","","","",""
"null","../img/tt/1262tt.jpg","null","mooney2","image-keyboard-response","417","1588225","0.0-6.0-5.58","3082651","co38680","norming","","","","","","",""
"2783.975000000326","","","post_reveal_questions","survey-likert","418","1591012","0.0-6.0-6.58","3082651","co38680","norming","","","{""aha"":2}","[0]","../img/tt/1262tt.jpg","",""
"null","<div style=""font-size:60px;""> </div>","null","fixation","html-keyboard-response","419","1591213","0.0-6.0-0.59","3082651","co38680","norming","","","","","","",""
"null","../img/tt/1186tt.jpg","null","mooney1","image-keyboard-response","420","1594216","0.0-6.0-1.59","3082651","co38680","norming","","","","","","",""
"10296.42500000028","","","post_mooney1_questions","survey-likert","421","1604515","0.0-6.0-2.59","3082651","co38680","norming","","","{""curiosity"":5,""confidence"":4}","[0,1]","../img/tt/1186tt.jpg","",""
"4885.969999999506","","","recognition","survey-text","422","1609403","0.0-6.0-3.59","3082651","co38680","norming","","","{""guess"":""people army""}","","../img/tt/1186tt.jpg","",""
"null","../img/gs/1186gs.jpg","null","reveal","image-keyboard-response","423","1611406","0.0-6.0-4.59","3082651","co38680","norming","","","","","","",""
"null","../img/tt/1186tt.jpg","null","mooney2","image-keyboard-response","424","1613407","0.0-6.0-5.59","3082651","co38680","norming","","","","","","",""
"3272.929999999935","","","post_reveal_questions","survey-likert","425","1616683","0.0-6.0-6.59","3082651","co38680","norming","","","{""aha"":1}","[0]","../img/tt/1186tt.jpg","",""
"null","<div style=""font-size:60px;""> </div>","null","fixation","html-keyboard-response","426","1616894","0.0-6.0-0.60","3082651","co38680","norming","","","","","","",""
"null","../img/tt/046tt.jpg","null","mooney1","image-keyboard-response","427","1619897","0.0-6.0-1.60","3082651","co38680","norming","","","","","","",""
"11352.60999999987","","","post_mooney1_questions","survey-likert","428","1631251","0.0-6.0-2.60","3082651","co38680","norming","","","{""curiosity"":4,""confidence"":4}","[0,1]","../img/tt/046tt.jpg","",""
"2629.9250000002794","","","recognition","survey-text","429","1633883","0.0-6.0-3.60","3082651","co38680","norming","","","{""guess"":""woman hat""}","","../img/tt/046tt.jpg","",""
"null","../img/gs/046gs.jpg","null","reveal","image-keyboard-response","430","1635893","0.0-6.0-4.60","3082651","co38680","norming","","","","","","",""
"null","../img/tt/046tt.jpg","null","mooney2","image-keyboard-response","431","1637894","0.0-6.0-5.60","3082651","co38680","norming","","","","","","",""
"3372.2450000003446","","","post_reveal_questions","survey-likert","432","1641267","0.0-6.0-6.60","3082651","co38680","norming","","","{""aha"":0}","[0]","../img/tt/046tt.jpg","",""
"null","<div style=""font-size:60px;""> </div>","null","fixation","html-keyboard-response","433","1641474","0.0-6.0-0.61","3082651","co38680","norming","","","","","","",""
"null","../img/tt/064tt.jpg","null","mooney1","image-keyboard-response","434","1644478","0.0-6.0-1.61","3082651","co38680","norming","","","","","","",""
"3969.904999999795","","","post_mooney1_questions","survey-likert","435","1648451","0.0-6.0-2.61","3082651","co38680","norming","","","{""curiosity"":4,""confidence"":0}","[0,1]","../img/tt/064tt.jpg","",""
"629.8399999996182","","","recognition","survey-text","436","1649083","0.0-6.0-3.61","3082651","co38680","norming","","","{""guess"":""""}","","../img/tt/064tt.jpg","",""
"null","../img/gs/064gs.jpg","null","reveal","image-keyboard-response","437","1651093","0.0-6.0-4.61","3082651","co38680","norming","","","","","","",""
"null","../img/tt/064tt.jpg","null","mooney2","image-keyboard-response","438","1653104","0.0-6.0-5.61","3082651","co38680","norming","","","","","","",""
"3328.2600000000093","","","post_reveal_questions","survey-likert","439","1656437","0.0-6.0-6.61","3082651","co38680","norming","","","{""aha"":0}","[0]","../img/tt/064tt.jpg","",""
"null","<div style=""font-size:60px;""> </div>","null","fixation","html-keyboard-response","440","1656646","0.0-6.0-0.62","3082651","co38680","norming","","","","","","",""
"null","../img/tt/013tt.jpg","null","mooney1","image-keyboard-response","441","1659652","0.0-6.0-1.62","3082651","co38680","norming","","","","","","",""
"4613.225000000093","","","post_mooney1_questions","survey-likert","442","1664269","0.0-6.0-2.62","3082651","co38680","norming","","","{""curiosity"":6,""confidence"":0}","[0,1]","../img/tt/013tt.jpg","",""
"685.910000000149","","","recognition","survey-text","443","1664957","0.0-6.0-3.62","3082651","co38680","norming","","","{""guess"":""""}","","../img/tt/013tt.jpg","",""
"null","../img/gs/013gs.jpg","null","reveal","image-keyboard-response","444","1666959","0.0-6.0-4.62","3082651","co38680","norming","","","","","","",""
"null","../img/tt/013tt.jpg","null","mooney2","image-keyboard-response","445","1668962","0.0-6.0-5.62","3082651","co38680","norming","","","","","","",""
"3120.3850000000093","","","post_reveal_questions","survey-likert","446","1672085","0.0-6.0-6.62","3082651","co38680","norming","","","{""aha"":0}","[0]","../img/tt/013tt.jpg","",""
"null","<div style=""font-size:60px;""> </div>","null","fixation","html-keyboard-response","447","1672288","0.0-6.0-0.63","3082651","co38680","norming","","","","","","",""
"null","../img/tt/1142tt.jpg","null","mooney1","image-keyboard-response","448","1675300","0.0-6.0-1.63","3082651","co38680","norming","","","","","","",""
"7405.249999999767","","","post_mooney1_questions","survey-likert","449","1682709","0.0-6.0-2.63","3082651","co38680","norming","","","{""curiosity"":5,""confidence"":2}","[0,1]","../img/tt/1142tt.jpg","",""
"2214.1350000000093","","","recognition","survey-text","450","1684925","0.0-6.0-3.63","3082651","co38680","norming","","","{""guess"":""indiaan""}","","../img/tt/1142tt.jpg","",""
"null","../img/gs/1142gs.jpg","null","reveal","image-keyboard-response","451","1686937","0.0-6.0-4.63","3082651","co38680","norming","","","","","","",""
"null","../img/tt/1142tt.jpg","null","mooney2","image-keyboard-response","452","1688948","0.0-6.0-5.63","3082651","co38680","norming","","","","","","",""
"4422.315000000643","","","post_reveal_questions","survey-likert","453","1693373","0.0-6.0-6.63","3082651","co38680","norming","","","{""aha"":1}","[0]","../img/tt/1142tt.jpg","",""
"null","<div style=""font-size:60px;""> </div>","null","fixation","html-keyboard-response","454","1693575","0.0-6.0-0.64","3082651","co38680","norming","","","","","","",""
"null","../img/tt/1175tt.jpg","null","mooney1","image-keyboard-response","455","1696583","0.0-6.0-1.64","3082651","co38680","norming","","","","","","",""
"7906.264999999665","","","post_mooney1_questions","survey-likert","456","1704493","0.0-6.0-2.64","3082651","co38680","norming","","","{""curiosity"":5,""confidence"":2}","[0,1]","../img/tt/1175tt.jpg","",""
"8286.320000000298","","","recognition","survey-text","457","1712781","0.0-6.0-3.64","3082651","co38680","norming","","","{""guess"":""people concert""}","","../img/tt/1175tt.jpg","",""
"null","../img/gs/1175gs.jpg","null","reveal","image-keyboard-response","458","1714786","0.0-6.0-4.64","3082651","co38680","norming","","","","","","",""
"null","../img/tt/1175tt.jpg","null","mooney2","image-keyboard-response","459","1716792","0.0-6.0-5.64","3082651","co38680","norming","","","","","","",""
"3894.3750000009313","","","post_reveal_questions","survey-likert","460","1720689","0.0-6.0-6.64","3082651","co38680","norming","","","{""aha"":0}","[0]","../img/tt/1175tt.jpg","",""
"null","<div style=""font-size:60px;""> </div>","null","fixation","html-keyboard-response","461","1720899","0.0-6.0-0.65","3082651","co38680","norming","","","","","","",""
"null","../img/tt/1069tt.jpg","null","mooney1","image-keyboard-response","462","1723907","0.0-6.0-1.65","3082651","co38680","norming","","","","","","",""
"6253.259999999544","","","post_mooney1_questions","survey-likert","463","1730161","0.0-6.0-2.65","3082651","co38680","norming","","","{""curiosity"":5,""confidence"":0}","[0,1]","../img/tt/1069tt.jpg","",""
"366.0149999996647","","","recognition","survey-text","464","1730529","0.0-6.0-3.65","3082651","co38680","norming","","","{""guess"":""""}","","../img/tt/1069tt.jpg","",""
"null","../img/gs/1069gs.jpg","null","reveal","image-keyboard-response","465","1732534","0.0-6.0-4.65","3082651","co38680","norming","","","","","","",""
"null","../img/tt/1069tt.jpg","null","mooney2","image-keyboard-response","466","1734540","0.0-6.0-5.65","3082651","co38680","norming","","","","","","",""
"4290.810000000289","","","post_reveal_questions","survey-likert","467","1738833","0.0-6.0-6.65","3082651","co38680","norming","","","{""aha"":4}","[0]","../img/tt/1069tt.jpg","",""
"null","<div style=""font-size:60px;""> </div>","null","fixation","html-keyboard-response","468","1739041","0.0-6.0-0.66","3082651","co38680","norming","","","","","","",""
"null","../img/tt/1279tt.jpg","null","mooney1","image-keyboard-response","469","1742052","0.0-6.0-1.66","3082651","co38680","norming","","","","","","",""
"3306.4149999998044","","","post_mooney1_questions","survey-likert","470","1745362","0.0-6.0-2.66","3082651","co38680","norming","","","{""curiosity"":5,""confidence"":0}","[0,1]","../img/tt/1279tt.jpg","",""
"413.65000000037253","","","recognition","survey-text","471","1745777","0.0-6.0-3.66","3082651","co38680","norming","","","{""guess"":""""}","","../img/tt/1279tt.jpg","",""
"null","../img/gs/1279gs.jpg","null","reveal","image-keyboard-response","472","1747781","0.0-6.0-4.66","3082651","co38680","norming","","","","","","",""
"null","../img/tt/1279tt.jpg","null","mooney2","image-keyboard-response","473","1749783","0.0-6.0-5.66","3082651","co38680","norming","","","","","","",""
"2793.2249999993946","","","post_reveal_questions","survey-likert","474","1752577","0.0-6.0-6.66","3082651","co38680","norming","","","{""aha"":0}","[0]","../img/tt/1279tt.jpg","",""
"null","<div style=""font-size:60px;""> </div>","null","fixation","html-keyboard-response","475","1752779","0.0-6.0-0.67","3082651","co38680","norming","","","","","","",""
"null","../img/tt/084tt.jpg","null","mooney1","image-keyboard-response","476","1755784","0.0-6.0-1.67","3082651","co38680","norming","","","","","","",""
"5471.869999999413","","","post_mooney1_questions","survey-likert","477","1761257","0.0-6.0-2.67","3082651","co38680","norming","","","{""curiosity"":5,""confidence"":3}","[0,1]","../img/tt/084tt.jpg","",""
"4613.695000000065","","","recognition","survey-text","478","1765873","0.0-6.0-3.67","3082651","co38680","norming","","","{""guess"":""peacock""}","","../img/tt/084tt.jpg","",""
"null","../img/gs/084gs.jpg","null","reveal","image-keyboard-response","479","1767883","0.0-6.0-4.67","3082651","co38680","norming","","","","","","",""
"null","../img/tt/084tt.jpg","null","mooney2","image-keyboard-response","480","1769885","0.0-6.0-5.67","3082651","co38680","norming","","","","","","",""
"4827.360000000335","","","post_reveal_questions","survey-likert","481","1774713","0.0-6.0-6.67","3082651","co38680","norming","","","{""aha"":3}","[0]","../img/tt/084tt.jpg","",""
"null","<div style=""font-size:60px;""> </div>","null","fixation","html-keyboard-response","482","1774914","0.0-6.0-0.68","3082651","co38680","norming","","","","","","",""
"null","../img/tt/1250tt.jpg","null","mooney1","image-keyboard-response","483","1777924","0.0-6.0-1.68","3082651","co38680","norming","","","","","","",""
"5459.58499999973","","","post_mooney1_questions","survey-likert","484","1783386","0.0-6.0-2.68","3082651","co38680","norming","","","{""curiosity"":6,""confidence"":2}","[0,1]","../img/tt/1250tt.jpg","",""
"6502.329999999376","","","recognition","survey-text","485","1789890","0.0-6.0-3.68","3082651","co38680","norming","","","{""guess"":""see lions""}","","../img/tt/1250tt.jpg","",""
"null","../img/gs/1250gs.jpg","null","reveal","image-keyboard-response","486","1791892","0.0-6.0-4.68","3082651","co38680","norming","","","","","","",""
"null","../img/tt/1250tt.jpg","null","mooney2","image-keyboard-response","487","1793894","0.0-6.0-5.68","3082651","co38680","norming","","","","","","",""
"2218.380000000121","","","post_reveal_questions","survey-likert","488","1796114","0.0-6.0-6.68","3082651","co38680","norming","","","{""aha"":0}","[0]","../img/tt/1250tt.jpg","",""
"null","<div style=""font-size:60px;""> </div>","null","fixation","html-keyboard-response","489","1796315","0.0-6.0-0.69","3082651","co38680","norming","","","","","","",""
"null","../img/tt/1239tt.jpg","null","mooney1","image-keyboard-response","490","1799318","0.0-6.0-1.69","3082651","co38680","norming","","","","","","",""
"4263.91999999946","","","post_mooney1_questions","survey-likert","491","1803586","0.0-6.0-2.69","3082651","co38680","norming","","","{""curiosity"":3,""confidence"":6}","[0,1]","../img/tt/1239tt.jpg","",""
"1214.2599999997765","","","recognition","survey-text","492","1804802","0.0-6.0-3.69","3082651","co38680","norming","","","{""guess"":""dog""}","","../img/tt/1239tt.jpg","",""
"null","../img/gs/1239gs.jpg","null","reveal","image-keyboard-response","493","1806805","0.0-6.0-4.69","3082651","co38680","norming","","","","","","",""
"null","../img/tt/1239tt.jpg","null","mooney2","image-keyboard-response","494","1808808","0.0-6.0-5.69","3082651","co38680","norming","","","","","","",""
"7215.449999999721","","","post_reveal_questions","survey-likert","495","1816026","0.0-6.0-6.69","3082651","co38680","norming","","","{""aha"":4}","[0]","../img/tt/1239tt.jpg","",""
"null","<div style=""font-size:60px;""> </div>","null","fixation","html-keyboard-response","496","1816227","0.0-6.0-0.70","3082651","co38680","norming","","","","","","",""
"null","../img/tt/584tt.jpg","null","mooney1","image-keyboard-response","497","1819236","0.0-6.0-1.70","3082651","co38680","norming","","","","","","",""
"5770.924999999814","","","post_mooney1_questions","survey-likert","498","1825010","0.0-6.0-2.70","3082651","co38680","norming","","","{""curiosity"":4,""confidence"":4}","[0,1]","../img/tt/584tt.jpg","",""
"2910.030000000028","","","recognition","survey-text","499","1827921","0.0-6.0-3.70","3082651","co38680","norming","","","{""guess"":""hands circle""}","","../img/tt/584tt.jpg","",""
"null","../img/gs/584gs.jpg","null","reveal","image-keyboard-response","500","1829926","0.0-6.0-4.70","3082651","co38680","norming","","","","","","",""
"null","../img/tt/584tt.jpg","null","mooney2","image-keyboard-response","501","1831935","0.0-6.0-5.70","3082651","co38680","norming","","","","","","",""
"4225.629999999888","","","post_reveal_questions","survey-likert","502","1836162","0.0-6.0-6.70","3082651","co38680","norming","","","{""aha"":0}","[0]","../img/tt/584tt.jpg","",""
"null","<div style=""font-size:60px;""> </div>","null","fixation","html-keyboard-response","503","1836364","0.0-6.0-0.71","3082651","co38680","norming","","","","","","",""
"null","../img/tt/1078tt.jpg","null","mooney1","image-keyboard-response","504","1839367","0.0-6.0-1.71","3082651","co38680","norming","","","","","","",""
"8463.08000000054","","","post_mooney1_questions","survey-likert","505","1847834","0.0-6.0-2.71","3082651","co38680","norming","","","{""curiosity"":4,""confidence"":1}","[0,1]","../img/tt/1078tt.jpg","",""
"4581.999999999534","","","recognition","survey-text","506","1852418","0.0-6.0-3.71","3082651","co38680","norming","","","{""guess"":""person desk""}","","../img/tt/1078tt.jpg","",""
"null","../img/gs/1078gs.jpg","null","reveal","image-keyboard-response","507","1854420","0.0-6.0-4.71","3082651","co38680","norming","","","","","","",""
"null","../img/tt/1078tt.jpg","null","mooney2","image-keyboard-response","508","1856423","0.0-6.0-5.71","3082651","co38680","norming","","","","","","",""
"2040.8499999993946","","","post_reveal_questions","survey-likert","509","1858466","0.0-6.0-6.71","3082651","co38680","norming","","","{""aha"":0}","[0]","../img/tt/1078tt.jpg","",""
"null","<div style=""font-size:60px;""> </div>","null","fixation","html-keyboard-response","510","1858673","0.0-6.0-0.72","3082651","co38680","norming","","","","","","",""
"null","../img/tt/1044tt.jpg","null","mooney1","image-keyboard-response","511","1861676","0.0-6.0-1.72","3082651","co38680","norming","","","","","","",""
"4042.8300000003073","","","post_mooney1_questions","survey-likert","512","1865722","0.0-6.0-2.72","3082651","co38680","norming","","","{""curiosity"":5,""confidence"":0}","[0,1]","../img/tt/1044tt.jpg","",""
"1126.0450000001583","","","recognition","survey-text","513","1866850","0.0-6.0-3.72","3082651","co38680","norming","","","{""guess"":""""}","","../img/tt/1044tt.jpg","",""
"null","../img/gs/1044gs.jpg","null","reveal","image-keyboard-response","514","1868860","0.0-6.0-4.72","3082651","co38680","norming","","","","","","",""
"null","../img/tt/1044tt.jpg","null","mooney2","image-keyboard-response","515","1870866","0.0-6.0-5.72","3082651","co38680","norming","","","","","","",""
"1991.4050000007264","","","post_reveal_questions","survey-likert","516","1872858","0.0-6.0-6.72","3082651","co38680","norming","","","{""aha"":0}","[0]","../img/tt/1044tt.jpg","",""
"null","<div style=""font-size:60px;""> </div>","null","fixation","html-keyboard-response","517","1873060","0.0-6.0-0.73","3082651","co38680","norming","","","","","","",""
"null","../img/tt/078tt.jpg","null","mooney1","image-keyboard-response","518","1876061","0.0-6.0-1.73","3082651","co38680","norming","","","","","","",""
"3786.2050000003073","","","post_mooney1_questions","survey-likert","519","1879850","0.0-6.0-2.73","3082651","co38680","norming","","","{""curiosity"":4,""confidence"":2}","[0,1]","../img/tt/078tt.jpg","",""
"2790.6100000001024","","","recognition","survey-text","520","1882642","0.0-6.0-3.73","3082651","co38680","norming","","","{""guess"":""grapes""}","","../img/tt/078tt.jpg","",""
"null","../img/gs/078gs.jpg","null","reveal","image-keyboard-response","521","1884644","0.0-6.0-4.73","3082651","co38680","norming","","","","","","",""
"null","../img/tt/078tt.jpg","null","mooney2","image-keyboard-response","522","1886650","0.0-6.0-5.73","3082651","co38680","norming","","","","","","",""
"4205.504999999888","","","post_reveal_questions","survey-likert","523","1890858","0.0-6.0-6.73","3082651","co38680","norming","","","{""aha"":3}","[0]","../img/tt/078tt.jpg","",""
"null","<div style=""font-size:60px;""> </div>","null","fixation","html-keyboard-response","524","1891059","0.0-6.0-0.74","3082651","co38680","norming","","","","","","",""
"null","../img/tt/1255tt.jpg","null","mooney1","image-keyboard-response","525","1894063","0.0-6.0-1.74","3082651","co38680","norming","","","","","","",""
"4783.990000000689","","","post_mooney1_questions","survey-likert","526","1898850","0.0-6.0-2.74","3082651","co38680","norming","","","{""curiosity"":6,""confidence"":1}","[0,1]","../img/tt/1255tt.jpg","",""
"1934.0249999994412","","","recognition","survey-text","527","1900782","0.0-6.0-3.74","3082651","co38680","norming","","","{""guess"":""bunny""}","","../img/tt/1255tt.jpg","",""
"null","../img/gs/1255gs.jpg","null","reveal","image-keyboard-response","528","1902783","0.0-6.0-4.74","3082651","co38680","norming","","","","","","",""
"null","../img/tt/1255tt.jpg","null","mooney2","image-keyboard-response","529","1904786","0.0-6.0-5.74","3082651","co38680","norming","","","","","","",""
"3089.5399999998044","","","post_reveal_questions","survey-likert","530","1907878","0.0-6.0-6.74","3082651","co38680","norming","","","{""aha"":5}","[0]","../img/tt/1255tt.jpg","",""
"null","<div style=""font-size:60px;""> </div>","null","fixation","html-keyboard-response","531","1908082","0.0-6.0-0.75","3082651","co38680","norming","","","","","","",""
"null","../img/tt/1154tt.jpg","null","mooney1","image-keyboard-response","532","1911085","0.0-6.0-1.75","3082651","co38680","norming","","","","","","",""
"7398.004999999888","","","post_mooney1_questions","survey-likert","533","1918486","0.0-6.0-2.75","3082651","co38680","norming","","","{""curiosity"":5,""confidence"":2}","[0,1]","../img/tt/1154tt.jpg","",""
"2981.6700000001583","","","recognition","survey-text","534","1921470","0.0-6.0-3.75","3082651","co38680","norming","","","{""guess"":""crossing street""}","","../img/tt/1154tt.jpg","",""
"null","../img/gs/1154gs.jpg","null","reveal","image-keyboard-response","535","1923482","0.0-6.0-4.75","3082651","co38680","norming","","","","","","",""
"null","../img/tt/1154tt.jpg","null","mooney2","image-keyboard-response","536","1925485","0.0-6.0-5.75","3082651","co38680","norming","","","","","","",""
"1959.5050000008196","","","post_reveal_questions","survey-likert","537","1927446","0.0-6.0-6.75","3082651","co38680","norming","","","{""aha"":0}","[0]","../img/tt/1154tt.jpg","",""
"null","<div style=""font-size:60px;""> </div>","null","fixation","html-keyboard-response","538","1927653","0.0-6.0-0.76","3082651","co38680","norming","","","","","","",""
"null","../img/tt/056tt.jpg","null","mooney1","image-keyboard-response","539","1930660","0.0-6.0-1.76","3082651","co38680","norming","","","","","","",""
"7654.594999999972","","","post_mooney1_questions","survey-likert","540","1938318","0.0-6.0-2.76","3082651","co38680","norming","","","{""curiosity"":6,""confidence"":5}","[0,1]","../img/tt/056tt.jpg","",""
"10061.984999999171","","","recognition","survey-text","541","1948382","0.0-6.0-3.76","3082651","co38680","norming","","","{""guess"":""howling wolf""}","","../img/tt/056tt.jpg","",""
"null","../img/gs/056gs.jpg","null","reveal","image-keyboard-response","542","1950393","0.0-6.0-4.76","3082651","co38680","norming","","","","","","",""
"null","../img/tt/056tt.jpg","null","mooney2","image-keyboard-response","543","1952396","0.0-6.0-5.76","3082651","co38680","norming","","","","","","",""
"2271.2150000005495","","","post_reveal_questions","survey-likert","544","1954670","0.0-6.0-6.76","3082651","co38680","norming","","","{""aha"":1}","[0]","../img/tt/056tt.jpg","",""
"null","<div style=""font-size:60px;""> </div>","null","fixation","html-keyboard-response","545","1954872","0.0-6.0-0.77","3082651","co38680","norming","","","","","","",""
"null","../img/tt/416tt.jpg","null","mooney1","image-keyboard-response","546","1957876","0.0-6.0-1.77","3082651","co38680","norming","","","","","","",""
"4985.009999999544","","","post_mooney1_questions","survey-likert","547","1962863","0.0-6.0-2.77","3082651","co38680","norming","","","{""curiosity"":4,""confidence"":5}","[0,1]","../img/tt/416tt.jpg","",""
"6734.010000000242","","","recognition","survey-text","548","1969599","0.0-6.0-3.77","3082651","co38680","norming","","","{""guess"":""struisvogel""}","","../img/tt/416tt.jpg","",""
"null","../img/gs/416gs.jpg","null","reveal","image-keyboard-response","549","1971602","0.0-6.0-4.77","3082651","co38680","norming","","","","","","",""
"null","../img/tt/416tt.jpg","null","mooney2","image-keyboard-response","550","1973609","0.0-6.0-5.77","3082651","co38680","norming","","","","","","",""
"2178.5449999996927","","","post_reveal_questions","survey-likert","551","1975791","0.0-6.0-6.77","3082651","co38680","norming","","","{""aha"":4}","[0]","../img/tt/416tt.jpg","",""
