"rt","stimulus","key_press","test_part","trial_type","trial_index","time_elapsed","internal_node_id","totalTime","subject","experiment_name","button_pressed","success","responses","question_order","currentStim","old","correct"
"18654.749999999924","Welcome to the experiment. This is an online experiment so please don't close the tab/window until we say goodbye.  Press any key to begin.","32","instructions","html-keyboard-response","0","18669","0.0-0.0","2450080","co38152","norming","","","","","","",""
"46594.16499999997","<div style='word-wrap: break-word; width: 900px'><h3>Please consider this information carefully before deciding whether to participate in this research</h3><ul style='text-align: left; font-size: .8em;'><li><b>Purpose of the research</b>: To examine how people process images.</li><li><b>What you will do in this research</b>:  Stimuli (images) will be presented on the computer and you will be asked different questions about them.</li><li><b>Time required</b>: Participation will take between 45 and 60 minutes to complete.</li><li><b>Risks</b>:  There are no anticipated risks associated with participating in this study. The effects of participating should be comparable to those you would experience from viewing a computer monitor for 30 minutes and using a mouse or keyboard.</li><li><b>Benefits</b>:  This study provides no benefits to you individually except for the credit. The study provides important information about the nature of perception and learning.</li><li><b>Confidentiality</b>:  Your participation in this study will remain confidential. No personally identifiable information will be associated with your data. Your de-identified data may be shared with other researchers and used in future projects.</li><li><b>Participation and withdrawal</b>:  Your participation in this study is completely voluntary and you may refuse to participate or you may choose to withdraw at any time without penalty.</li><li><b>How to contact the researchers</b>: If you have questions or concerns about your participation or payment, or want to request a summary of research findings, please contact Sander Van de Cruys (KU Leuven), at sander.vandecruys@kuleuven.be.</li></ul><p>The nature and purpose of this research have been sufficiently explained and I agree to participate in this study.  I understand that I am free to withdraw at any time without incurring any penalty.</p><p>Please consent by clicking the button below to continue. Otherwise, please exit the study at this time.</p></div>","","instructions","html-button-response","1","65271","0.0-1.0","2450080","co38152","norming","0","","","","","",""
"","","","instructions","fullscreen","2","70800","0.0-2.0","2450080","co38152","norming","","true","","","","",""
"41260.68499999997","","","sona","survey-html-form","3","112067","0.0-3.0","2450080","co38152","norming","","","[{""name"":""sonaid"",""value"":""38152""},{""name"":""debrief"",""value"":""yes""},{""name"":""datajoin"",""value"":""yes""}]","","","",""
"32125.62999999999","<div style='word-wrap: break-word; width: 900px'><h3>Instructions</h3><p>This experiment will have 3 parts. In the first part you will see a series of distorted images like the one below on the left. As you can see in the righthand image, the distorted images are derived from actual photographs. In what follows, you will <strong>briefly</strong> be presented with <strong>only</strong> the distorted image.</p> <div style='float: left; margin-right: 20px;'><img src='../img/018tt.jpg' height='250' width='250'></img></div><div style='float: right; margin-left: 20px;'><img src='../img/018gs.jpg' height='250' width='250'></img></div><p>Subsequently you will be asked a few questions about the image: One question on how <strong>curious</strong> you are about the solution and one on how <strong>confident</strong> you are that you know the solution.</p>Next, we ask you to make a guess on what is in the image. Note that it is OK to name just the <strong>basic level category</strong>. For example when you see a parrot in the image, 'parrot' will obviously be a correct answer but also correct is 'bird'. However, 'animal' will <strong>not</strong> be counted as a correct response. For the example above, 'rose' would be correct or 'flower', but not 'plant'. When soccer players are depicted, 'soccer', 'football', 'soccer players' will be correct, but not 'humans', 'outdoors', or 'sports'. You do not need to describe the image in full, just name the main object in it <strong>in one or two words</strong>. All images depict objects from one of the following broad level categories: animals, inanimate objects, plants, sports, vehicles, and food. Recognizing means knowing <strong>more</strong> than these broad labels for a given image. But we always encourage you to <strong>make a guess</strong> if you can. Note that you are allowed to use <strong>Dutch and English</strong> in your answers, whatever comes easiest for you.</p><p>Press any key to continue.</p></div>","32","instructions","html-keyboard-response","4","144197","0.0-4.0","2450080","co38152","norming","","","","","","",""
"120572.37499999997","<div style='word-wrap: break-word; width: 900px'><h3>Instructions</h3> <p>Next, the solution image will be revealed to you and you'll be asked to indicate how strong your <strong>aha-experience</strong> was after seeing the solution. This describes the positive feeling of the 'click' you sometimes experience, when the pieces of the 'puzzle' fall together and you suddenly have 'insight' in the image.</p><img src='aha.jpg' height='188' width='250'></img><p>Note that there are no right or wrong answers. We are interested in what <strong>you</strong> see in the image and how <strong>you</strong> feel about it.</p><p>Press any key to start the experiment.</p></div>","32","instructions","html-keyboard-response","5","264773","0.0-5.0","2450080","co38152","norming","","","","","","",""
"null","<div style=""font-size:60px;""> </div>","null","fixation","html-keyboard-response","6","264983","0.0-6.0-0.0","2450080","co38152","norming","","","","","","",""
"null","../img/tt/1202tt.jpg","null","mooney1","image-keyboard-response","7","267990","0.0-6.0-1.0","2450080","co38152","norming","","","","","","",""
"6555.319999999949","","","post_mooney1_questions","survey-likert","8","274549","0.0-6.0-2.0","2450080","co38152","norming","","","{""curiosity"":6,""confidence"":0}","[0,1]","../img/tt/1202tt.jpg","",""
"11693.334999999905","","","recognition","survey-text","9","286244","0.0-6.0-3.0","2450080","co38152","norming","","","{""guess"":""a building""}","","../img/tt/1202tt.jpg","",""
"null","../img/gs/1202gs.jpg","null","reveal","image-keyboard-response","10","288253","0.0-6.0-4.0","2450080","co38152","norming","","","","","","",""
"null","../img/tt/1202tt.jpg","null","mooney2","image-keyboard-response","11","290255","0.0-6.0-5.0","2450080","co38152","norming","","","","","","",""
"3931.1900000000023","","","post_reveal_questions","survey-likert","12","294188","0.0-6.0-6.0","2450080","co38152","norming","","","{""aha"":4}","[0]","../img/tt/1202tt.jpg","",""
"null","<div style=""font-size:60px;""> </div>","null","fixation","html-keyboard-response","13","294394","0.0-6.0-0.1","2450080","co38152","norming","","","","","","",""
"null","../img/tt/1086tt.jpg","null","mooney1","image-keyboard-response","14","297402","0.0-6.0-1.1","2450080","co38152","norming","","","","","","",""
"4615.230000000098","","","post_mooney1_questions","survey-likert","15","302020","0.0-6.0-2.1","2450080","co38152","norming","","","{""curiosity"":5,""confidence"":0}","[0,1]","../img/tt/1086tt.jpg","",""
"4734.189999999944","","","recognition","survey-text","16","306756","0.0-6.0-3.1","2450080","co38152","norming","","","{""guess"":""""}","","../img/tt/1086tt.jpg","",""
"null","../img/gs/1086gs.jpg","null","reveal","image-keyboard-response","17","308765","0.0-6.0-4.1","2450080","co38152","norming","","","","","","",""
"null","../img/tt/1086tt.jpg","null","mooney2","image-keyboard-response","18","310774","0.0-6.0-5.1","2450080","co38152","norming","","","","","","",""
"3651.519999999902","","","post_reveal_questions","survey-likert","19","314428","0.0-6.0-6.1","2450080","co38152","norming","","","{""aha"":6}","[0]","../img/tt/1086tt.jpg","",""
"null","<div style=""font-size:60px;""> </div>","null","fixation","html-keyboard-response","20","314630","0.0-6.0-0.2","2450080","co38152","norming","","","","","","",""
"null","../img/tt/517tt.jpg","null","mooney1","image-keyboard-response","21","317638","0.0-6.0-1.2","2450080","co38152","norming","","","","","","",""
"4587.189999999944","","","post_mooney1_questions","survey-likert","22","322228","0.0-6.0-2.2","2450080","co38152","norming","","","{""curiosity"":5,""confidence"":0}","[0,1]","../img/tt/517tt.jpg","",""
"886.2150000000256","","","recognition","survey-text","23","323116","0.0-6.0-3.2","2450080","co38152","norming","","","{""guess"":""""}","","../img/tt/517tt.jpg","",""
"null","../img/gs/517gs.jpg","null","reveal","image-keyboard-response","24","325128","0.0-6.0-4.2","2450080","co38152","norming","","","","","","",""
"null","../img/tt/517tt.jpg","null","mooney2","image-keyboard-response","25","327132","0.0-6.0-5.2","2450080","co38152","norming","","","","","","",""
"1782.4050000001444","","","post_reveal_questions","survey-likert","26","328916","0.0-6.0-6.2","2450080","co38152","norming","","","{""aha"":4}","[0]","../img/tt/517tt.jpg","",""
"null","<div style=""font-size:60px;""> </div>","null","fixation","html-keyboard-response","27","329118","0.0-6.0-0.3","2450080","co38152","norming","","","","","","",""
"null","../img/tt/1087tt.jpg","null","mooney1","image-keyboard-response","28","332128","0.0-6.0-1.3","2450080","co38152","norming","","","","","","",""
"7202.134999999951","","","post_mooney1_questions","survey-likert","29","339332","0.0-6.0-2.3","2450080","co38152","norming","","","{""curiosity"":6,""confidence"":0}","[0,1]","../img/tt/1087tt.jpg","",""
"4958.104999999981","","","recognition","survey-text","30","344292","0.0-6.0-3.3","2450080","co38152","norming","","","{""guess"":""a tree""}","","../img/tt/1087tt.jpg","",""
"null","../img/gs/1087gs.jpg","null","reveal","image-keyboard-response","31","346303","0.0-6.0-4.3","2450080","co38152","norming","","","","","","",""
"null","../img/tt/1087tt.jpg","null","mooney2","image-keyboard-response","32","348307","0.0-6.0-5.3","2450080","co38152","norming","","","","","","",""
"1823.5449999999255","","","post_reveal_questions","survey-likert","33","350132","0.0-6.0-6.3","2450080","co38152","norming","","","{""aha"":5}","[0]","../img/tt/1087tt.jpg","",""
"null","<div style=""font-size:60px;""> </div>","null","fixation","html-keyboard-response","34","350339","0.0-6.0-0.4","2450080","co38152","norming","","","","","","",""
"null","../img/tt/405tt.jpg","null","mooney1","image-keyboard-response","35","353349","0.0-6.0-1.4","2450080","co38152","norming","","","","","","",""
"5980.815000000119","","","post_mooney1_questions","survey-likert","36","359333","0.0-6.0-2.4","2450080","co38152","norming","","","{""curiosity"":2,""confidence"":4}","[0,1]","../img/tt/405tt.jpg","",""
"3718.1350000000675","","","recognition","survey-text","37","363052","0.0-6.0-3.4","2450080","co38152","norming","","","{""guess"":""koala""}","","../img/tt/405tt.jpg","",""
"null","../img/gs/405gs.jpg","null","reveal","image-keyboard-response","38","365061","0.0-6.0-4.4","2450080","co38152","norming","","","","","","",""
"null","../img/tt/405tt.jpg","null","mooney2","image-keyboard-response","39","367065","0.0-6.0-5.4","2450080","co38152","norming","","","","","","",""
"4106.1650000000955","","","post_reveal_questions","survey-likert","40","371172","0.0-6.0-6.4","2450080","co38152","norming","","","{""aha"":0}","[0]","../img/tt/405tt.jpg","",""
"null","<div style=""font-size:60px;""> </div>","null","fixation","html-keyboard-response","41","371376","0.0-6.0-0.5","2450080","co38152","norming","","","","","","",""
"null","../img/tt/1241tt.jpg","null","mooney1","image-keyboard-response","42","374384","0.0-6.0-1.5","2450080","co38152","norming","","","","","","",""
"5626.624999999884","","","post_mooney1_questions","survey-likert","43","380012","0.0-6.0-2.5","2450080","co38152","norming","","","{""curiosity"":3,""confidence"":5}","[0,1]","../img/tt/1241tt.jpg","",""
"3070.3499999999767","","","recognition","survey-text","44","383084","0.0-6.0-3.5","2450080","co38152","norming","","","{""guess"":""vos""}","","../img/tt/1241tt.jpg","",""
"null","../img/gs/1241gs.jpg","null","reveal","image-keyboard-response","45","385091","0.0-6.0-4.5","2450080","co38152","norming","","","","","","",""
"null","../img/tt/1241tt.jpg","null","mooney2","image-keyboard-response","46","387101","0.0-6.0-5.5","2450080","co38152","norming","","","","","","",""
"2510.7899999998044","","","post_reveal_questions","survey-likert","47","389614","0.0-6.0-6.5","2450080","co38152","norming","","","{""aha"":2}","[0]","../img/tt/1241tt.jpg","",""
"null","<div style=""font-size:60px;""> </div>","null","fixation","html-keyboard-response","48","389822","0.0-6.0-0.6","2450080","co38152","norming","","","","","","",""
"null","../img/tt/1247tt.jpg","null","mooney1","image-keyboard-response","49","392825","0.0-6.0-1.6","2450080","co38152","norming","","","","","","",""
"4105.9749999999185","","","post_mooney1_questions","survey-likert","50","396934","0.0-6.0-2.6","2450080","co38152","norming","","","{""curiosity"":5,""confidence"":1}","[0,1]","../img/tt/1247tt.jpg","",""
"2525.935000000114","","","recognition","survey-text","51","399462","0.0-6.0-3.6","2450080","co38152","norming","","","{""guess"":""""}","","../img/tt/1247tt.jpg","",""
"null","../img/gs/1247gs.jpg","null","reveal","image-keyboard-response","52","401467","0.0-6.0-4.6","2450080","co38152","norming","","","","","","",""
"null","../img/tt/1247tt.jpg","null","mooney2","image-keyboard-response","53","403470","0.0-6.0-5.6","2450080","co38152","norming","","","","","","",""
"1549.8099999999977","","","post_reveal_questions","survey-likert","54","405022","0.0-6.0-6.6","2450080","co38152","norming","","","{""aha"":6}","[0]","../img/tt/1247tt.jpg","",""
"null","<div style=""font-size:60px;""> </div>","null","fixation","html-keyboard-response","55","405224","0.0-6.0-0.7","2450080","co38152","norming","","","","","","",""
"null","../img/tt/522tt.jpg","null","mooney1","image-keyboard-response","56","408233","0.0-6.0-1.7","2450080","co38152","norming","","","","","","",""
"5146.924999999988","","","post_mooney1_questions","survey-likert","57","413382","0.0-6.0-2.7","2450080","co38152","norming","","","{""curiosity"":5,""confidence"":1}","[0,1]","../img/tt/522tt.jpg","",""
"3078.425000000163","","","recognition","survey-text","58","416462","0.0-6.0-3.7","2450080","co38152","norming","","","{""guess"":""flower""}","","../img/tt/522tt.jpg","",""
"null","../img/gs/522gs.jpg","null","reveal","image-keyboard-response","59","418464","0.0-6.0-4.7","2450080","co38152","norming","","","","","","",""
"null","../img/tt/522tt.jpg","null","mooney2","image-keyboard-response","60","420468","0.0-6.0-5.7","2450080","co38152","norming","","","","","","",""
"2591.6650000001537","","","post_reveal_questions","survey-likert","61","423062","0.0-6.0-6.7","2450080","co38152","norming","","","{""aha"":5}","[0]","../img/tt/522tt.jpg","",""
"null","<div style=""font-size:60px;""> </div>","null","fixation","html-keyboard-response","62","423271","0.0-6.0-0.8","2450080","co38152","norming","","","","","","",""
"null","../img/tt/1151tt.jpg","null","mooney1","image-keyboard-response","63","426277","0.0-6.0-1.8","2450080","co38152","norming","","","","","","",""
"5062.405000000144","","","post_mooney1_questions","survey-likert","64","431342","0.0-6.0-2.8","2450080","co38152","norming","","","{""curiosity"":5,""confidence"":1}","[0,1]","../img/tt/1151tt.jpg","",""
"4230.1350000000675","","","recognition","survey-text","65","435574","0.0-6.0-3.8","2450080","co38152","norming","","","{""guess"":""flower""}","","../img/tt/1151tt.jpg","",""
"null","../img/gs/1151gs.jpg","null","reveal","image-keyboard-response","66","437583","0.0-6.0-4.8","2450080","co38152","norming","","","","","","",""
"null","../img/tt/1151tt.jpg","null","mooney2","image-keyboard-response","67","439585","0.0-6.0-5.8","2450080","co38152","norming","","","","","","",""
"2298.8099999999977","","","post_reveal_questions","survey-likert","68","441886","0.0-6.0-6.8","2450080","co38152","norming","","","{""aha"":6}","[0]","../img/tt/1151tt.jpg","",""
"null","<div style=""font-size:60px;""> </div>","null","fixation","html-keyboard-response","69","442096","0.0-6.0-0.9","2450080","co38152","norming","","","","","","",""
"null","../img/tt/477tt.jpg","null","mooney1","image-keyboard-response","70","445107","0.0-6.0-1.9","2450080","co38152","norming","","","","","","",""
"4048.3849999998347","","","post_mooney1_questions","survey-likert","71","449149","0.0-6.0-2.9","2450080","co38152","norming","","","{""curiosity"":4,""confidence"":3}","[0,1]","../img/tt/477tt.jpg","",""
"3238.034999999858","","","recognition","survey-text","72","452389","0.0-6.0-3.9","2450080","co38152","norming","","","{""guess"":""fish""}","","../img/tt/477tt.jpg","",""
"null","../img/gs/477gs.jpg","null","reveal","image-keyboard-response","73","454399","0.0-6.0-4.9","2450080","co38152","norming","","","","","","",""
"null","../img/tt/477tt.jpg","null","mooney2","image-keyboard-response","74","456402","0.0-6.0-5.9","2450080","co38152","norming","","","","","","",""
"2329.25","","","post_reveal_questions","survey-likert","75","458733","0.0-6.0-6.9","2450080","co38152","norming","","","{""aha"":1}","[0]","../img/tt/477tt.jpg","",""
"null","<div style=""font-size:60px;""> </div>","null","fixation","html-keyboard-response","76","458935","0.0-6.0-0.10","2450080","co38152","norming","","","","","","",""
"null","../img/tt/442tt.jpg","null","mooney1","image-keyboard-response","77","461942","0.0-6.0-1.10","2450080","co38152","norming","","","","","","",""
"4837.340000000026","","","post_mooney1_questions","survey-likert","78","466781","0.0-6.0-2.10","2450080","co38152","norming","","","{""curiosity"":5,""confidence"":0}","[0,1]","../img/tt/442tt.jpg","",""
"1366.0749999998952","","","recognition","survey-text","79","468149","0.0-6.0-3.10","2450080","co38152","norming","","","{""guess"":""""}","","../img/tt/442tt.jpg","",""
"null","../img/gs/442gs.jpg","null","reveal","image-keyboard-response","80","470155","0.0-6.0-4.10","2450080","co38152","norming","","","","","","",""
"null","../img/tt/442tt.jpg","null","mooney2","image-keyboard-response","81","472156","0.0-6.0-5.10","2450080","co38152","norming","","","","","","",""
"1478.4199999999255","","","post_reveal_questions","survey-likert","82","473637","0.0-6.0-6.10","2450080","co38152","norming","","","{""aha"":1}","[0]","../img/tt/442tt.jpg","",""
"null","<div style=""font-size:60px;""> </div>","null","fixation","html-keyboard-response","83","473844","0.0-6.0-0.11","2450080","co38152","norming","","","","","","",""
"null","../img/tt/1148tt.jpg","null","mooney1","image-keyboard-response","84","476846","0.0-6.0-1.11","2450080","co38152","norming","","","","","","",""
"5445.015000000014","","","post_mooney1_questions","survey-likert","85","482293","0.0-6.0-2.11","2450080","co38152","norming","","","{""curiosity"":5,""confidence"":0}","[0,1]","../img/tt/1148tt.jpg","",""
"7486.100000000035","","","recognition","survey-text","86","489781","0.0-6.0-3.11","2450080","co38152","norming","","","{""guess"":""ballerina""}","","../img/tt/1148tt.jpg","",""
"null","../img/gs/1148gs.jpg","null","reveal","image-keyboard-response","87","491782","0.0-6.0-4.11","2450080","co38152","norming","","","","","","",""
"null","../img/tt/1148tt.jpg","null","mooney2","image-keyboard-response","88","493785","0.0-6.0-5.11","2450080","co38152","norming","","","","","","",""
"3097.005000000063","","","post_reveal_questions","survey-likert","89","496885","0.0-6.0-6.11","2450080","co38152","norming","","","{""aha"":5}","[0]","../img/tt/1148tt.jpg","",""
"null","<div style=""font-size:60px;""> </div>","null","fixation","html-keyboard-response","90","497090","0.0-6.0-0.12","2450080","co38152","norming","","","","","","",""
"null","../img/tt/1143tt.jpg","null","mooney1","image-keyboard-response","91","500099","0.0-6.0-1.12","2450080","co38152","norming","","","","","","",""
"4167.014999999956","","","post_mooney1_questions","survey-likert","92","504269","0.0-6.0-2.12","2450080","co38152","norming","","","{""curiosity"":3,""confidence"":4}","[0,1]","../img/tt/1143tt.jpg","",""
"3541.959999999788","","","recognition","survey-text","93","507813","0.0-6.0-3.12","2450080","co38152","norming","","","{""guess"":""fitness""}","","../img/tt/1143tt.jpg","",""
"null","../img/gs/1143gs.jpg","null","reveal","image-keyboard-response","94","509825","0.0-6.0-4.12","2450080","co38152","norming","","","","","","",""
"null","../img/tt/1143tt.jpg","null","mooney2","image-keyboard-response","95","511828","0.0-6.0-5.12","2450080","co38152","norming","","","","","","",""
"1394.005000000121","","","post_reveal_questions","survey-likert","96","513222","0.0-6.0-6.12","2450080","co38152","norming","","","{""aha"":1}","[0]","../img/tt/1143tt.jpg","",""
"null","<div style=""font-size:60px;""> </div>","null","fixation","html-keyboard-response","97","513425","0.0-6.0-0.13","2450080","co38152","norming","","","","","","",""
"null","../img/tt/044tt.jpg","null","mooney1","image-keyboard-response","98","516431","0.0-6.0-1.13","2450080","co38152","norming","","","","","","",""
"4260.959999999846","","","post_mooney1_questions","survey-likert","99","520694","0.0-6.0-2.13","2450080","co38152","norming","","","{""curiosity"":1,""confidence"":5}","[0,1]","../img/tt/044tt.jpg","",""
"3494.1649999998044","","","recognition","survey-text","100","524190","0.0-6.0-3.13","2450080","co38152","norming","","","{""guess"":""laptop""}","","../img/tt/044tt.jpg","",""
"null","../img/gs/044gs.jpg","null","reveal","image-keyboard-response","101","526193","0.0-6.0-4.13","2450080","co38152","norming","","","","","","",""
"null","../img/tt/044tt.jpg","null","mooney2","image-keyboard-response","102","528204","0.0-6.0-5.13","2450080","co38152","norming","","","","","","",""
"3080.1550000001444","","","post_reveal_questions","survey-likert","103","531286","0.0-6.0-6.13","2450080","co38152","norming","","","{""aha"":5}","[0]","../img/tt/044tt.jpg","",""
"null","<div style=""font-size:60px;""> </div>","null","fixation","html-keyboard-response","104","531489","0.0-6.0-0.14","2450080","co38152","norming","","","","","","",""
"null","../img/tt/534tt.jpg","null","mooney1","image-keyboard-response","105","534492","0.0-6.0-1.14","2450080","co38152","norming","","","","","","",""
"4487.409999999916","","","post_mooney1_questions","survey-likert","106","538982","0.0-6.0-2.14","2450080","co38152","norming","","","{""curiosity"":1,""confidence"":5}","[0,1]","../img/tt/534tt.jpg","",""
"5507.665000000037","","","recognition","survey-text","107","544494","0.0-6.0-3.14","2450080","co38152","norming","","","{""guess"":""cactus""}","","../img/tt/534tt.jpg","",""
"null","../img/gs/534gs.jpg","null","reveal","image-keyboard-response","108","546505","0.0-6.0-4.14","2450080","co38152","norming","","","","","","",""
"null","../img/tt/534tt.jpg","null","mooney2","image-keyboard-response","109","548510","0.0-6.0-5.14","2450080","co38152","norming","","","","","","",""
"2621.2299999999814","","","post_reveal_questions","survey-likert","110","551134","0.0-6.0-6.14","2450080","co38152","norming","","","{""aha"":2}","[0]","../img/tt/534tt.jpg","",""
"null","<div style=""font-size:60px;""> </div>","null","fixation","html-keyboard-response","111","551344","0.0-6.0-0.15","2450080","co38152","norming","","","","","","",""
"null","../img/tt/1024tt.jpg","null","mooney1","image-keyboard-response","112","554354","0.0-6.0-1.15","2450080","co38152","norming","","","","","","",""
"4665.805000000168","","","post_mooney1_questions","survey-likert","113","559023","0.0-6.0-2.15","2450080","co38152","norming","","","{""curiosity"":4,""confidence"":1}","[0,1]","../img/tt/1024tt.jpg","",""
"1054.0400000000373","","","recognition","survey-text","114","560078","0.0-6.0-3.15","2450080","co38152","norming","","","{""guess"":""""}","","../img/tt/1024tt.jpg","",""
"null","../img/gs/1024gs.jpg","null","reveal","image-keyboard-response","115","562086","0.0-6.0-4.15","2450080","co38152","norming","","","","","","",""
"null","../img/tt/1024tt.jpg","null","mooney2","image-keyboard-response","116","564089","0.0-6.0-5.15","2450080","co38152","norming","","","","","","",""
"1506.565000000177","","","post_reveal_questions","survey-likert","117","565598","0.0-6.0-6.15","2450080","co38152","norming","","","{""aha"":0}","[0]","../img/tt/1024tt.jpg","",""
"null","<div style=""font-size:60px;""> </div>","null","fixation","html-keyboard-response","118","565803","0.0-6.0-0.16","2450080","co38152","norming","","","","","","",""
"null","../img/tt/1278tt.jpg","null","mooney1","image-keyboard-response","119","568807","0.0-6.0-1.16","2450080","co38152","norming","","","","","","",""
"3883.005000000121","","","post_mooney1_questions","survey-likert","120","572694","0.0-6.0-2.16","2450080","co38152","norming","","","{""curiosity"":5,""confidence"":0}","[0,1]","../img/tt/1278tt.jpg","",""
"950.2999999999302","","","recognition","survey-text","121","573646","0.0-6.0-3.16","2450080","co38152","norming","","","{""guess"":""""}","","../img/tt/1278tt.jpg","",""
"null","../img/gs/1278gs.jpg","null","reveal","image-keyboard-response","122","575649","0.0-6.0-4.16","2450080","co38152","norming","","","","","","",""
"null","../img/tt/1278tt.jpg","null","mooney2","image-keyboard-response","123","577658","0.0-6.0-5.16","2450080","co38152","norming","","","","","","",""
"1633.5400000000373","","","post_reveal_questions","survey-likert","124","579294","0.0-6.0-6.16","2450080","co38152","norming","","","{""aha"":3}","[0]","../img/tt/1278tt.jpg","",""
"null","<div style=""font-size:60px;""> </div>","null","fixation","html-keyboard-response","125","579496","0.0-6.0-0.17","2450080","co38152","norming","","","","","","",""
"null","../img/tt/1191tt.jpg","null","mooney1","image-keyboard-response","126","582504","0.0-6.0-1.17","2450080","co38152","norming","","","","","","",""
"3651.494999999879","","","post_mooney1_questions","survey-likert","127","586158","0.0-6.0-2.17","2450080","co38152","norming","","","{""curiosity"":4,""confidence"":2}","[0,1]","../img/tt/1191tt.jpg","",""
"3326.2900000000373","","","recognition","survey-text","128","589486","0.0-6.0-3.17","2450080","co38152","norming","","","{""guess"":""a dear""}","","../img/tt/1191tt.jpg","",""
"null","../img/gs/1191gs.jpg","null","reveal","image-keyboard-response","129","591488","0.0-6.0-4.17","2450080","co38152","norming","","","","","","",""
"null","../img/tt/1191tt.jpg","null","mooney2","image-keyboard-response","130","593490","0.0-6.0-5.17","2450080","co38152","norming","","","","","","",""
"3680.8950000000186","","","post_reveal_questions","survey-likert","131","597174","0.0-6.0-6.17","2450080","co38152","norming","","","{""aha"":4}","[0]","../img/tt/1191tt.jpg","",""
"null","<div style=""font-size:60px;""> </div>","null","fixation","html-keyboard-response","132","597379","0.0-6.0-0.18","2450080","co38152","norming","","","","","","",""
"null","../img/tt/1250tt.jpg","null","mooney1","image-keyboard-response","133","600391","0.0-6.0-1.18","2450080","co38152","norming","","","","","","",""
"5860.880000000121","","","post_mooney1_questions","survey-likert","134","606254","0.0-6.0-2.18","2450080","co38152","norming","","","{""curiosity"":5,""confidence"":3}","[0,1]","../img/tt/1250tt.jpg","",""
"2366.1699999999255","","","recognition","survey-text","135","608622","0.0-6.0-3.18","2450080","co38152","norming","","","{""guess"":""seal""}","","../img/tt/1250tt.jpg","",""
"null","../img/gs/1250gs.jpg","null","reveal","image-keyboard-response","136","610633","0.0-6.0-4.18","2450080","co38152","norming","","","","","","",""
"null","../img/tt/1250tt.jpg","null","mooney2","image-keyboard-response","137","612634","0.0-6.0-5.18","2450080","co38152","norming","","","","","","",""
"2058.804999999935","","","post_reveal_questions","survey-likert","138","614694","0.0-6.0-6.18","2450080","co38152","norming","","","{""aha"":1}","[0]","../img/tt/1250tt.jpg","",""
"null","<div style=""font-size:60px;""> </div>","null","fixation","html-keyboard-response","139","614896","0.0-6.0-0.19","2450080","co38152","norming","","","","","","",""
"null","../img/tt/481tt.jpg","null","mooney1","image-keyboard-response","140","617899","0.0-6.0-1.19","2450080","co38152","norming","","","","","","",""
"4466.320000000065","","","post_mooney1_questions","survey-likert","141","622366","0.0-6.0-2.19","2450080","co38152","norming","","","{""curiosity"":0,""confidence"":6}","[0,1]","../img/tt/481tt.jpg","",""
"2414.399999999907","","","recognition","survey-text","142","624782","0.0-6.0-3.19","2450080","co38152","norming","","","{""guess"":""dog""}","","../img/tt/481tt.jpg","",""
"null","../img/gs/481gs.jpg","null","reveal","image-keyboard-response","143","626789","0.0-6.0-4.19","2450080","co38152","norming","","","","","","",""
"null","../img/tt/481tt.jpg","null","mooney2","image-keyboard-response","144","628790","0.0-6.0-5.19","2450080","co38152","norming","","","","","","",""
"2701.1549999999115","","","post_reveal_questions","survey-likert","145","631494","0.0-6.0-6.19","2450080","co38152","norming","","","{""aha"":1}","[0]","../img/tt/481tt.jpg","",""
"null","<div style=""font-size:60px;""> </div>","null","fixation","html-keyboard-response","146","631695","0.0-6.0-0.20","2450080","co38152","norming","","","","","","",""
"null","../img/tt/315tt.jpg","null","mooney1","image-keyboard-response","147","634706","0.0-6.0-1.20","2450080","co38152","norming","","","","","","",""
"4289.8150000000605","","","post_mooney1_questions","survey-likert","148","638998","0.0-6.0-2.20","2450080","co38152","norming","","","{""curiosity"":4,""confidence"":0}","[0,1]","../img/tt/315tt.jpg","",""
"1182.0199999999022","","","recognition","survey-text","149","640182","0.0-6.0-3.20","2450080","co38152","norming","","","{""guess"":""""}","","../img/tt/315tt.jpg","",""
"null","../img/gs/315gs.jpg","null","reveal","image-keyboard-response","150","642188","0.0-6.0-4.20","2450080","co38152","norming","","","","","","",""
"null","../img/tt/315tt.jpg","null","mooney2","image-keyboard-response","151","644190","0.0-6.0-5.20","2450080","co38152","norming","","","","","","",""
"1557.9449999999488","","","post_reveal_questions","survey-likert","152","645750","0.0-6.0-6.20","2450080","co38152","norming","","","{""aha"":6}","[0]","../img/tt/315tt.jpg","",""
"null","<div style=""font-size:60px;""> </div>","null","fixation","html-keyboard-response","153","645953","0.0-6.0-0.21","2450080","co38152","norming","","","","","","",""
"null","../img/tt/118tt.jpg","null","mooney1","image-keyboard-response","154","648961","0.0-6.0-1.21","2450080","co38152","norming","","","","","","",""
"4826.305000000051","","","post_mooney1_questions","survey-likert","155","653790","0.0-6.0-2.21","2450080","co38152","norming","","","{""curiosity"":5,""confidence"":1}","[0,1]","../img/tt/118tt.jpg","",""
"2958.3200000001816","","","recognition","survey-text","156","656750","0.0-6.0-3.21","2450080","co38152","norming","","","{""guess"":""stairs""}","","../img/tt/118tt.jpg","",""
"null","../img/gs/118gs.jpg","null","reveal","image-keyboard-response","157","658756","0.0-6.0-4.21","2450080","co38152","norming","","","","","","",""
"null","../img/tt/118tt.jpg","null","mooney2","image-keyboard-response","158","660766","0.0-6.0-5.21","2450080","co38152","norming","","","","","","",""
"1534.2250000000931","","","post_reveal_questions","survey-likert","159","662302","0.0-6.0-6.21","2450080","co38152","norming","","","{""aha"":5}","[0]","../img/tt/118tt.jpg","",""
"null","<div style=""font-size:60px;""> </div>","null","fixation","html-keyboard-response","160","662513","0.0-6.0-0.22","2450080","co38152","norming","","","","","","",""
"null","../img/tt/049tt.jpg","null","mooney1","image-keyboard-response","161","665521","0.0-6.0-1.22","2450080","co38152","norming","","","","","","",""
"4402.940000000177","","","post_mooney1_questions","survey-likert","162","669926","0.0-6.0-2.22","2450080","co38152","norming","","","{""curiosity"":5,""confidence"":1}","[0,1]","../img/tt/049tt.jpg","",""
"902.2000000000698","","","recognition","survey-text","163","670830","0.0-6.0-3.22","2450080","co38152","norming","","","{""guess"":""""}","","../img/tt/049tt.jpg","",""
"null","../img/gs/049gs.jpg","null","reveal","image-keyboard-response","164","672832","0.0-6.0-4.22","2450080","co38152","norming","","","","","","",""
"null","../img/tt/049tt.jpg","null","mooney2","image-keyboard-response","165","674834","0.0-6.0-5.22","2450080","co38152","norming","","","","","","",""
"1321.8800000000047","","","post_reveal_questions","survey-likert","166","676158","0.0-6.0-6.22","2450080","co38152","norming","","","{""aha"":3}","[0]","../img/tt/049tt.jpg","",""
"null","<div style=""font-size:60px;""> </div>","null","fixation","html-keyboard-response","167","676359","0.0-6.0-0.23","2450080","co38152","norming","","","","","","",""
"null","../img/tt/1027tt.jpg","null","mooney1","image-keyboard-response","168","679365","0.0-6.0-1.23","2450080","co38152","norming","","","","","","",""
"3686.2600000000093","","","post_mooney1_questions","survey-likert","169","683054","0.0-6.0-2.23","2450080","co38152","norming","","","{""curiosity"":1,""confidence"":5}","[0,1]","../img/tt/1027tt.jpg","",""
"2317.8549999997485","","","recognition","survey-text","170","685374","0.0-6.0-3.23","2450080","co38152","norming","","","{""guess"":""cow""}","","../img/tt/1027tt.jpg","",""
"null","../img/gs/1027gs.jpg","null","reveal","image-keyboard-response","171","687381","0.0-6.0-4.23","2450080","co38152","norming","","","","","","",""
"null","../img/tt/1027tt.jpg","null","mooney2","image-keyboard-response","172","689386","0.0-6.0-5.23","2450080","co38152","norming","","","","","","",""
"2449.685000000056","","","post_reveal_questions","survey-likert","173","691838","0.0-6.0-6.23","2450080","co38152","norming","","","{""aha"":4}","[0]","../img/tt/1027tt.jpg","",""
"null","<div style=""font-size:60px;""> </div>","null","fixation","html-keyboard-response","174","692041","0.0-6.0-0.24","2450080","co38152","norming","","","","","","",""
"null","../img/tt/189tt.jpg","null","mooney1","image-keyboard-response","175","695046","0.0-6.0-1.24","2450080","co38152","norming","","","","","","",""
"3036.9550000000745","","","post_mooney1_questions","survey-likert","176","698086","0.0-6.0-2.24","2450080","co38152","norming","","","{""curiosity"":5,""confidence"":1}","[0,1]","../img/tt/189tt.jpg","",""
"630.1850000000559","","","recognition","survey-text","177","698718","0.0-6.0-3.24","2450080","co38152","norming","","","{""guess"":""""}","","../img/tt/189tt.jpg","",""
"null","../img/gs/189gs.jpg","null","reveal","image-keyboard-response","178","700726","0.0-6.0-4.24","2450080","co38152","norming","","","","","","",""
"null","../img/tt/189tt.jpg","null","mooney2","image-keyboard-response","179","702728","0.0-6.0-5.24","2450080","co38152","norming","","","","","","",""
"1921.9750000000931","","","post_reveal_questions","survey-likert","180","704654","0.0-6.0-6.24","2450080","co38152","norming","","","{""aha"":2}","[0]","../img/tt/189tt.jpg","",""
"null","<div style=""font-size:60px;""> </div>","null","fixation","html-keyboard-response","181","704855","0.0-6.0-0.25","2450080","co38152","norming","","","","","","",""
"null","../img/tt/378tt.jpg","null","mooney1","image-keyboard-response","182","707867","0.0-6.0-1.25","2450080","co38152","norming","","","","","","",""
"2489.804999999935","","","post_mooney1_questions","survey-likert","183","710358","0.0-6.0-2.25","2450080","co38152","norming","","","{""curiosity"":5,""confidence"":4}","[0,1]","../img/tt/378tt.jpg","",""
"822.2399999999907","","","recognition","survey-text","184","711182","0.0-6.0-3.25","2450080","co38152","norming","","","{""guess"":""""}","","../img/tt/378tt.jpg","",""
"null","../img/gs/378gs.jpg","null","reveal","image-keyboard-response","185","713193","0.0-6.0-4.25","2450080","co38152","norming","","","","","","",""
"null","../img/tt/378tt.jpg","null","mooney2","image-keyboard-response","186","715195","0.0-6.0-5.25","2450080","co38152","norming","","","","","","",""
"2297.2449999999953","","","post_reveal_questions","survey-likert","187","717494","0.0-6.0-6.25","2450080","co38152","norming","","","{""aha"":6}","[0]","../img/tt/378tt.jpg","",""
"null","<div style=""font-size:60px;""> </div>","null","fixation","html-keyboard-response","188","717695","0.0-6.0-0.26","2450080","co38152","norming","","","","","","",""
"null","../img/tt/1243tt.jpg","null","mooney1","image-keyboard-response","189","720708","0.0-6.0-1.26","2450080","co38152","norming","","","","","","",""
"3359.944999999949","","","post_mooney1_questions","survey-likert","190","724071","0.0-6.0-2.26","2450080","co38152","norming","","","{""curiosity"":1,""confidence"":1}","[0,1]","../img/tt/1243tt.jpg","",""
"774.1149999999907","","","recognition","survey-text","191","724846","0.0-6.0-3.26","2450080","co38152","norming","","","{""guess"":""""}","","../img/tt/1243tt.jpg","",""
"null","../img/gs/1243gs.jpg","null","reveal","image-keyboard-response","192","726854","0.0-6.0-4.26","2450080","co38152","norming","","","","","","",""
"null","../img/tt/1243tt.jpg","null","mooney2","image-keyboard-response","193","728856","0.0-6.0-5.26","2450080","co38152","norming","","","","","","",""
"1747.859999999986","","","post_reveal_questions","survey-likert","194","730606","0.0-6.0-6.26","2450080","co38152","norming","","","{""aha"":5}","[0]","../img/tt/1243tt.jpg","",""
"null","<div style=""font-size:60px;""> </div>","null","fixation","html-keyboard-response","195","730807","0.0-6.0-0.27","2450080","co38152","norming","","","","","","",""
"null","../img/tt/052tt.jpg","null","mooney1","image-keyboard-response","196","733815","0.0-6.0-1.27","2450080","co38152","norming","","","","","","",""
"3220.9150000001537","","","post_mooney1_questions","survey-likert","197","737038","0.0-6.0-2.27","2450080","co38152","norming","","","{""curiosity"":5,""confidence"":0}","[0,1]","../img/tt/052tt.jpg","",""
"565.8999999997905","","","recognition","survey-text","198","737606","0.0-6.0-3.27","2450080","co38152","norming","","","{""guess"":""""}","","../img/tt/052tt.jpg","",""
"null","../img/gs/052gs.jpg","null","reveal","image-keyboard-response","199","739612","0.0-6.0-4.27","2450080","co38152","norming","","","","","","",""
"null","../img/tt/052tt.jpg","null","mooney2","image-keyboard-response","200","741615","0.0-6.0-5.27","2450080","co38152","norming","","","","","","",""
"1700.6700000001583","","","post_reveal_questions","survey-likert","201","743318","0.0-6.0-6.27","2450080","co38152","norming","","","{""aha"":5}","[0]","../img/tt/052tt.jpg","",""
"null","<div style=""font-size:60px;""> </div>","null","fixation","html-keyboard-response","202","743521","0.0-6.0-0.28","2450080","co38152","norming","","","","","","",""
"null","../img/tt/416tt.jpg","null","mooney1","image-keyboard-response","203","746529","0.0-6.0-1.28","2450080","co38152","norming","","","","","","",""
"4866.3450000000885","","","post_mooney1_questions","survey-likert","204","751398","0.0-6.0-2.28","2450080","co38152","norming","","","{""curiosity"":2,""confidence"":5}","[0,1]","../img/tt/416tt.jpg","",""
"3750.0999999999767","","","recognition","survey-text","205","755150","0.0-6.0-3.28","2450080","co38152","norming","","","{""guess"":""flamingo""}","","../img/tt/416tt.jpg","",""
"null","../img/gs/416gs.jpg","null","reveal","image-keyboard-response","206","757154","0.0-6.0-4.28","2450080","co38152","norming","","","","","","",""
"null","../img/tt/416tt.jpg","null","mooney2","image-keyboard-response","207","759156","0.0-6.0-5.28","2450080","co38152","norming","","","","","","",""
"1895.1649999999208","","","post_reveal_questions","survey-likert","208","761054","0.0-6.0-6.28","2450080","co38152","norming","","","{""aha"":4}","[0]","../img/tt/416tt.jpg","",""
"null","<div style=""font-size:60px;""> </div>","null","fixation","html-keyboard-response","209","761265","0.0-6.0-0.29","2450080","co38152","norming","","","","","","",""
"null","../img/tt/1200tt.jpg","null","mooney1","image-keyboard-response","210","764270","0.0-6.0-1.29","2450080","co38152","norming","","","","","","",""
"6766.409999999916","","","post_mooney1_questions","survey-likert","211","771038","0.0-6.0-2.29","2450080","co38152","norming","","","{""curiosity"":5,""confidence"":2}","[0,1]","../img/tt/1200tt.jpg","",""
"2334.17499999993","","","recognition","survey-text","212","773374","0.0-6.0-3.29","2450080","co38152","norming","","","{""guess"":""boat""}","","../img/tt/1200tt.jpg","",""
"null","../img/gs/1200gs.jpg","null","reveal","image-keyboard-response","213","775381","0.0-6.0-4.29","2450080","co38152","norming","","","","","","",""
"null","../img/tt/1200tt.jpg","null","mooney2","image-keyboard-response","214","777384","0.0-6.0-5.29","2450080","co38152","norming","","","","","","",""
"1843.259999999893","","","post_reveal_questions","survey-likert","215","779230","0.0-6.0-6.29","2450080","co38152","norming","","","{""aha"":2}","[0]","../img/tt/1200tt.jpg","",""
"null","<div style=""font-size:60px;""> </div>","null","fixation","html-keyboard-response","216","779432","0.0-6.0-0.30","2450080","co38152","norming","","","","","","",""
"null","../img/tt/094tt.jpg","null","mooney1","image-keyboard-response","217","782433","0.0-6.0-1.30","2450080","co38152","norming","","","","","","",""
"2993.890000000014","","","post_mooney1_questions","survey-likert","218","785430","0.0-6.0-2.30","2450080","co38152","norming","","","{""curiosity"":2,""confidence"":2}","[0,1]","../img/tt/094tt.jpg","",""
"725.9449999999488","","","recognition","survey-text","219","786158","0.0-6.0-3.30","2450080","co38152","norming","","","{""guess"":""""}","","../img/tt/094tt.jpg","",""
"null","../img/gs/094gs.jpg","null","reveal","image-keyboard-response","220","788161","0.0-6.0-4.30","2450080","co38152","norming","","","","","","",""
"null","../img/tt/094tt.jpg","null","mooney2","image-keyboard-response","221","790163","0.0-6.0-5.30","2450080","co38152","norming","","","","","","",""
"1568.9899999999907","","","post_reveal_questions","survey-likert","222","791734","0.0-6.0-6.30","2450080","co38152","norming","","","{""aha"":1}","[0]","../img/tt/094tt.jpg","",""
"null","<div style=""font-size:60px;""> </div>","null","fixation","html-keyboard-response","223","791944","0.0-6.0-0.31","2450080","co38152","norming","","","","","","",""
"null","../img/tt/406tt.jpg","null","mooney1","image-keyboard-response","224","794945","0.0-6.0-1.31","2450080","co38152","norming","","","","","","",""
"2641.9799999999814","","","post_mooney1_questions","survey-likert","225","797590","0.0-6.0-2.31","2450080","co38152","norming","","","{""curiosity"":4,""confidence"":2}","[0,1]","../img/tt/406tt.jpg","",""
"565.8649999999907","","","recognition","survey-text","226","798158","0.0-6.0-3.31","2450080","co38152","norming","","","{""guess"":""""}","","../img/tt/406tt.jpg","",""
"null","../img/gs/406gs.jpg","null","reveal","image-keyboard-response","227","800160","0.0-6.0-4.31","2450080","co38152","norming","","","","","","",""
"null","../img/tt/406tt.jpg","null","mooney2","image-keyboard-response","228","802171","0.0-6.0-5.31","2450080","co38152","norming","","","","","","",""
"1960.1950000001816","","","post_reveal_questions","survey-likert","229","804134","0.0-6.0-6.31","2450080","co38152","norming","","","{""aha"":5}","[0]","../img/tt/406tt.jpg","",""
"null","<div style=""font-size:60px;""> </div>","null","fixation","html-keyboard-response","230","804335","0.0-6.0-0.32","2450080","co38152","norming","","","","","","",""
"null","../img/tt/1255tt.jpg","null","mooney1","image-keyboard-response","231","807343","0.0-6.0-1.32","2450080","co38152","norming","","","","","","",""
"2858.8800000000047","","","post_mooney1_questions","survey-likert","232","810206","0.0-6.0-2.32","2450080","co38152","norming","","","{""curiosity"":5,""confidence"":0}","[0,1]","../img/tt/1255tt.jpg","",""
"966.0300000000279","","","recognition","survey-text","233","811174","0.0-6.0-3.32","2450080","co38152","norming","","","{""guess"":""""}","","../img/tt/1255tt.jpg","",""
"null","../img/gs/1255gs.jpg","null","reveal","image-keyboard-response","234","813183","0.0-6.0-4.32","2450080","co38152","norming","","","","","","",""
"null","../img/tt/1255tt.jpg","null","mooney2","image-keyboard-response","235","815186","0.0-6.0-5.32","2450080","co38152","norming","","","","","","",""
"1377.2449999999953","","","post_reveal_questions","survey-likert","236","816566","0.0-6.0-6.32","2450080","co38152","norming","","","{""aha"":1}","[0]","../img/tt/1255tt.jpg","",""
"null","<div style=""font-size:60px;""> </div>","null","fixation","html-keyboard-response","237","816774","0.0-6.0-0.33","2450080","co38152","norming","","","","","","",""
"null","../img/tt/019tt.jpg","null","mooney1","image-keyboard-response","238","819784","0.0-6.0-1.33","2450080","co38152","norming","","","","","","",""
"3619.5149999998976","","","post_mooney1_questions","survey-likert","239","823406","0.0-6.0-2.33","2450080","co38152","norming","","","{""curiosity"":5,""confidence"":0}","[0,1]","../img/tt/019tt.jpg","",""
"590.0300000000279","","","recognition","survey-text","240","823998","0.0-6.0-3.33","2450080","co38152","norming","","","{""guess"":""""}","","../img/tt/019tt.jpg","",""
"null","../img/gs/019gs.jpg","null","reveal","image-keyboard-response","241","826007","0.0-6.0-4.33","2450080","co38152","norming","","","","","","",""
"null","../img/tt/019tt.jpg","null","mooney2","image-keyboard-response","242","828009","0.0-6.0-5.33","2450080","co38152","norming","","","","","","",""
"1242.9149999998044","","","post_reveal_questions","survey-likert","243","829254","0.0-6.0-6.33","2450080","co38152","norming","","","{""aha"":1}","[0]","../img/tt/019tt.jpg","",""
"null","<div style=""font-size:60px;""> </div>","null","fixation","html-keyboard-response","244","829463","0.0-6.0-0.34","2450080","co38152","norming","","","","","","",""
"null","../img/tt/076tt.jpg","null","mooney1","image-keyboard-response","245","832472","0.0-6.0-1.34","2450080","co38152","norming","","","","","","",""
"4675.375","","","post_mooney1_questions","survey-likert","246","837150","0.0-6.0-2.34","2450080","co38152","norming","","","{""curiosity"":2,""confidence"":4}","[0,1]","../img/tt/076tt.jpg","",""
"3310.1450000000186","","","recognition","survey-text","247","840462","0.0-6.0-3.34","2450080","co38152","norming","","","{""guess"":""skates""}","","../img/tt/076tt.jpg","",""
"null","../img/gs/076gs.jpg","null","reveal","image-keyboard-response","248","842466","0.0-6.0-4.34","2450080","co38152","norming","","","","","","",""
"null","../img/tt/076tt.jpg","null","mooney2","image-keyboard-response","249","844475","0.0-6.0-5.34","2450080","co38152","norming","","","","","","",""
"2664.5799999998417","","","post_reveal_questions","survey-likert","250","847142","0.0-6.0-6.34","2450080","co38152","norming","","","{""aha"":4}","[0]","../img/tt/076tt.jpg","",""
"null","<div style=""font-size:60px;""> </div>","null","fixation","html-keyboard-response","251","847350","0.0-6.0-0.35","2450080","co38152","norming","","","","","","",""
"null","../img/tt/1127tt.jpg","null","mooney1","image-keyboard-response","252","850353","0.0-6.0-1.35","2450080","co38152","norming","","","","","","",""
"2657.670000000042","","","post_mooney1_questions","survey-likert","253","853014","0.0-6.0-2.35","2450080","co38152","norming","","","{""curiosity"":1,""confidence"":1}","[0,1]","../img/tt/1127tt.jpg","",""
"565.9950000001118","","","recognition","survey-text","254","853582","0.0-6.0-3.35","2450080","co38152","norming","","","{""guess"":""""}","","../img/tt/1127tt.jpg","",""
"null","../img/gs/1127gs.jpg","null","reveal","image-keyboard-response","255","855588","0.0-6.0-4.35","2450080","co38152","norming","","","","","","",""
"null","../img/tt/1127tt.jpg","null","mooney2","image-keyboard-response","256","857591","0.0-6.0-5.35","2450080","co38152","norming","","","","","","",""
"2436.564999999944","","","post_reveal_questions","survey-likert","257","860030","0.0-6.0-6.35","2450080","co38152","norming","","","{""aha"":4}","[0]","../img/tt/1127tt.jpg","",""
"null","<div style=""font-size:60px;""> </div>","null","fixation","html-keyboard-response","258","860239","0.0-6.0-0.36","2450080","co38152","norming","","","","","","",""
"null","../img/tt/319tt.jpg","null","mooney1","image-keyboard-response","259","863249","0.0-6.0-1.36","2450080","co38152","norming","","","","","","",""
"2579.8699999999953","","","post_mooney1_questions","survey-likert","260","865830","0.0-6.0-2.36","2450080","co38152","norming","","","{""curiosity"":2,""confidence"":0}","[0,1]","../img/tt/319tt.jpg","",""
"781.5999999998603","","","recognition","survey-text","261","866614","0.0-6.0-3.36","2450080","co38152","norming","","","{""guess"":""""}","","../img/tt/319tt.jpg","",""
"null","../img/gs/319gs.jpg","null","reveal","image-keyboard-response","262","868615","0.0-6.0-4.36","2450080","co38152","norming","","","","","","",""
"null","../img/tt/319tt.jpg","null","mooney2","image-keyboard-response","263","870624","0.0-6.0-5.36","2450080","co38152","norming","","","","","","",""
"1971.6750000000466","","","post_reveal_questions","survey-likert","264","872598","0.0-6.0-6.36","2450080","co38152","norming","","","{""aha"":4}","[0]","../img/tt/319tt.jpg","",""
"null","<div style=""font-size:60px;""> </div>","null","fixation","html-keyboard-response","265","872806","0.0-6.0-0.37","2450080","co38152","norming","","","","","","",""
"null","../img/tt/357tt.jpg","null","mooney1","image-keyboard-response","266","875811","0.0-6.0-1.37","2450080","co38152","norming","","","","","","",""
"3920.2099999999627","","","post_mooney1_questions","survey-likert","267","879735","0.0-6.0-2.37","2450080","co38152","norming","","","{""curiosity"":1,""confidence"":0}","[0,1]","../img/tt/357tt.jpg","",""
"677.7999999999302","","","recognition","survey-text","268","880414","0.0-6.0-3.37","2450080","co38152","norming","","","{""guess"":""""}","","../img/tt/357tt.jpg","",""
"null","../img/gs/357gs.jpg","null","reveal","image-keyboard-response","269","882422","0.0-6.0-4.37","2450080","co38152","norming","","","","","","",""
"null","../img/tt/357tt.jpg","null","mooney2","image-keyboard-response","270","884430","0.0-6.0-5.37","2450080","co38152","norming","","","","","","",""
"2261.355000000098","","","post_reveal_questions","survey-likert","271","886694","0.0-6.0-6.37","2450080","co38152","norming","","","{""aha"":4}","[0]","../img/tt/357tt.jpg","",""
"null","<div style=""font-size:60px;""> </div>","null","fixation","html-keyboard-response","272","886902","0.0-6.0-0.38","2450080","co38152","norming","","","","","","",""
"null","../img/tt/549tt.jpg","null","mooney1","image-keyboard-response","273","889907","0.0-6.0-1.38","2450080","co38152","norming","","","","","","",""
"3578.005000000121","","","post_mooney1_questions","survey-likert","274","893486","0.0-6.0-2.38","2450080","co38152","norming","","","{""curiosity"":5,""confidence"":1}","[0,1]","../img/tt/549tt.jpg","",""
"638.2399999999907","","","recognition","survey-text","275","894126","0.0-6.0-3.38","2450080","co38152","norming","","","{""guess"":""""}","","../img/tt/549tt.jpg","",""
"null","../img/gs/549gs.jpg","null","reveal","image-keyboard-response","276","896132","0.0-6.0-4.38","2450080","co38152","norming","","","","","","",""
"null","../img/tt/549tt.jpg","null","mooney2","image-keyboard-response","277","898134","0.0-6.0-5.38","2450080","co38152","norming","","","","","","",""
"2276.2949999999255","","","post_reveal_questions","survey-likert","278","900414","0.0-6.0-6.38","2450080","co38152","norming","","","{""aha"":6}","[0]","../img/tt/549tt.jpg","",""
"null","<div style=""font-size:60px;""> </div>","null","fixation","html-keyboard-response","279","900615","0.0-6.0-0.39","2450080","co38152","norming","","","","","","",""
"null","../img/tt/599tt.jpg","null","mooney1","image-keyboard-response","280","903625","0.0-6.0-1.39","2450080","co38152","norming","","","","","","",""
"3892.2099999999627","","","post_mooney1_questions","survey-likert","281","907518","0.0-6.0-2.39","2450080","co38152","norming","","","{""curiosity"":5,""confidence"":2}","[0,1]","../img/tt/599tt.jpg","",""
"4109.9949999997625","","","recognition","survey-text","282","911630","0.0-6.0-3.39","2450080","co38152","norming","","","{""guess"":""dear""}","","../img/tt/599tt.jpg","",""
"null","../img/gs/599gs.jpg","null","reveal","image-keyboard-response","283","913631","0.0-6.0-4.39","2450080","co38152","norming","","","","","","",""
"null","../img/tt/599tt.jpg","null","mooney2","image-keyboard-response","284","915636","0.0-6.0-5.39","2450080","co38152","norming","","","","","","",""
"4824.754999999888","","","post_reveal_questions","survey-likert","285","920462","0.0-6.0-6.39","2450080","co38152","norming","","","{""aha"":2}","[0]","../img/tt/599tt.jpg","",""
"null","<div style=""font-size:60px;""> </div>","null","fixation","html-keyboard-response","286","920671","0.0-6.0-0.40","2450080","co38152","norming","","","","","","",""
"null","../img/tt/1269tt.jpg","null","mooney1","image-keyboard-response","287","923677","0.0-6.0-1.40","2450080","co38152","norming","","","","","","",""
"3015.7049999998417","","","post_mooney1_questions","survey-likert","288","926694","0.0-6.0-2.40","2450080","co38152","norming","","","{""curiosity"":5,""confidence"":5}","[0,1]","../img/tt/1269tt.jpg","",""
"2326.359999999986","","","recognition","survey-text","289","929022","0.0-6.0-3.40","2450080","co38152","norming","","","{""guess"":""vos""}","","../img/tt/1269tt.jpg","",""
"null","../img/gs/1269gs.jpg","null","reveal","image-keyboard-response","290","931026","0.0-6.0-4.40","2450080","co38152","norming","","","","","","",""
"null","../img/tt/1269tt.jpg","null","mooney2","image-keyboard-response","291","933035","0.0-6.0-5.40","2450080","co38152","norming","","","","","","",""
"2633.9949999999953","","","post_reveal_questions","survey-likert","292","935670","0.0-6.0-6.40","2450080","co38152","norming","","","{""aha"":4}","[0]","../img/tt/1269tt.jpg","",""
"null","<div style=""font-size:60px;""> </div>","null","fixation","html-keyboard-response","293","935874","0.0-6.0-0.41","2450080","co38152","norming","","","","","","",""
"null","../img/tt/515tt.jpg","null","mooney1","image-keyboard-response","294","938883","0.0-6.0-1.41","2450080","co38152","norming","","","","","","",""
"3176.9950000001118","","","post_mooney1_questions","survey-likert","295","942063","0.0-6.0-2.41","2450080","co38152","norming","","","{""curiosity"":4,""confidence"":0}","[0,1]","../img/tt/515tt.jpg","",""
"1149.9399999998277","","","recognition","survey-text","296","943214","0.0-6.0-3.41","2450080","co38152","norming","","","{""guess"":""""}","","../img/tt/515tt.jpg","",""
"null","../img/gs/515gs.jpg","null","reveal","image-keyboard-response","297","945220","0.0-6.0-4.41","2450080","co38152","norming","","","","","","",""
"null","../img/tt/515tt.jpg","null","mooney2","image-keyboard-response","298","947222","0.0-6.0-5.41","2450080","co38152","norming","","","","","","",""
"1381.4750000002095","","","post_reveal_questions","survey-likert","299","948606","0.0-6.0-6.41","2450080","co38152","norming","","","{""aha"":4}","[0]","../img/tt/515tt.jpg","",""
"null","<div style=""font-size:60px;""> </div>","null","fixation","html-keyboard-response","300","948812","0.0-6.0-0.42","2450080","co38152","norming","","","","","","",""
"null","../img/tt/013tt.jpg","null","mooney1","image-keyboard-response","301","951819","0.0-6.0-1.42","2450080","co38152","norming","","","","","","",""
"4384.645000000019","","","post_mooney1_questions","survey-likert","302","956207","0.0-6.0-2.42","2450080","co38152","norming","","","{""curiosity"":2,""confidence"":0}","[0,1]","../img/tt/013tt.jpg","",""
"789.6549999997951","","","recognition","survey-text","303","956998","0.0-6.0-3.42","2450080","co38152","norming","","","{""guess"":""""}","","../img/tt/013tt.jpg","",""
"null","../img/gs/013gs.jpg","null","reveal","image-keyboard-response","304","959001","0.0-6.0-4.42","2450080","co38152","norming","","","","","","",""
"null","../img/tt/013tt.jpg","null","mooney2","image-keyboard-response","305","961004","0.0-6.0-5.42","2450080","co38152","norming","","","","","","",""
"1157.9949999999953","","","post_reveal_questions","survey-likert","306","962167","0.0-6.0-6.42","2450080","co38152","norming","","","{""aha"":0}","[0]","../img/tt/013tt.jpg","",""
"null","<div style=""font-size:60px;""> </div>","null","fixation","html-keyboard-response","307","962375","0.0-6.0-0.43","2450080","co38152","norming","","","","","","",""
"null","../img/tt/270tt.jpg","null","mooney1","image-keyboard-response","308","965383","0.0-6.0-1.43","2450080","co38152","norming","","","","","","",""
"2942.875","","","post_mooney1_questions","survey-likert","309","968327","0.0-6.0-2.43","2450080","co38152","norming","","","{""curiosity"":5,""confidence"":2}","[0,1]","../img/tt/270tt.jpg","",""
"2070.0250000000233","","","recognition","survey-text","310","970398","0.0-6.0-3.43","2450080","co38152","norming","","","{""guess"":""dear""}","","../img/tt/270tt.jpg","",""
"null","../img/gs/270gs.jpg","null","reveal","image-keyboard-response","311","972409","0.0-6.0-4.43","2450080","co38152","norming","","","","","","",""
"null","../img/tt/270tt.jpg","null","mooney2","image-keyboard-response","312","974418","0.0-6.0-5.43","2450080","co38152","norming","","","","","","",""
"1953.7499999998836","","","post_reveal_questions","survey-likert","313","976374","0.0-6.0-6.43","2450080","co38152","norming","","","{""aha"":5}","[0]","../img/tt/270tt.jpg","",""
"null","<div style=""font-size:60px;""> </div>","null","fixation","html-keyboard-response","314","976579","0.0-6.0-0.44","2450080","co38152","norming","","","","","","",""
"null","../img/tt/078tt.jpg","null","mooney1","image-keyboard-response","315","979588","0.0-6.0-1.44","2450080","co38152","norming","","","","","","",""
"4585.819999999949","","","post_mooney1_questions","survey-likert","316","984175","0.0-6.0-2.44","2450080","co38152","norming","","","{""curiosity"":3,""confidence"":2}","[0,1]","../img/tt/078tt.jpg","",""
"573.9549999998417","","","recognition","survey-text","317","984750","0.0-6.0-3.44","2450080","co38152","norming","","","{""guess"":""""}","","../img/tt/078tt.jpg","",""
"null","../img/gs/078gs.jpg","null","reveal","image-keyboard-response","318","986753","0.0-6.0-4.44","2450080","co38152","norming","","","","","","",""
"null","../img/tt/078tt.jpg","null","mooney2","image-keyboard-response","319","988755","0.0-6.0-5.44","2450080","co38152","norming","","","","","","",""
"3615.204999999958","","","post_reveal_questions","survey-likert","320","992374","0.0-6.0-6.44","2450080","co38152","norming","","","{""aha"":1}","[0]","../img/tt/078tt.jpg","",""
"null","<div style=""font-size:60px;""> </div>","null","fixation","html-keyboard-response","321","992578","0.0-6.0-0.45","2450080","co38152","norming","","","","","","",""
"null","../img/tt/1046tt.jpg","null","mooney1","image-keyboard-response","322","995590","0.0-6.0-1.45","2450080","co38152","norming","","","","","","",""
"3412.939999999944","","","post_mooney1_questions","survey-likert","323","999003","0.0-6.0-2.45","2450080","co38152","norming","","","{""curiosity"":1,""confidence"":1}","[0,1]","../img/tt/1046tt.jpg","",""
"845.7949999999255","","","recognition","survey-text","324","999850","0.0-6.0-3.45","2450080","co38152","norming","","","{""guess"":""""}","","../img/tt/1046tt.jpg","",""
"null","../img/gs/1046gs.jpg","null","reveal","image-keyboard-response","325","1001856","0.0-6.0-4.45","2450080","co38152","norming","","","","","","",""
"null","../img/tt/1046tt.jpg","null","mooney2","image-keyboard-response","326","1003860","0.0-6.0-5.45","2450080","co38152","norming","","","","","","",""
"1677.3600000001024","","","post_reveal_questions","survey-likert","327","1005539","0.0-6.0-6.45","2450080","co38152","norming","","","{""aha"":4}","[0]","../img/tt/1046tt.jpg","",""
"null","<div style=""font-size:60px;""> </div>","null","fixation","html-keyboard-response","328","1005748","0.0-6.0-0.46","2450080","co38152","norming","","","","","","",""
"null","../img/tt/1044tt.jpg","null","mooney1","image-keyboard-response","329","1008752","0.0-6.0-1.46","2450080","co38152","norming","","","","","","",""
"5457.195000000182","","","post_mooney1_questions","survey-likert","330","1014211","0.0-6.0-2.46","2450080","co38152","norming","","","{""curiosity"":6,""confidence"":0}","[0,1]","../img/tt/1044tt.jpg","",""
"646.074999999837","","","recognition","survey-text","331","1014858","0.0-6.0-3.46","2450080","co38152","norming","","","{""guess"":""""}","","../img/tt/1044tt.jpg","",""
"null","../img/gs/1044gs.jpg","null","reveal","image-keyboard-response","332","1016869","0.0-6.0-4.46","2450080","co38152","norming","","","","","","",""
"null","../img/tt/1044tt.jpg","null","mooney2","image-keyboard-response","333","1018872","0.0-6.0-5.46","2450080","co38152","norming","","","","","","",""
"2135.6300000000047","","","post_reveal_questions","survey-likert","334","1021011","0.0-6.0-6.46","2450080","co38152","norming","","","{""aha"":6}","[0]","../img/tt/1044tt.jpg","",""
"null","<div style=""font-size:60px;""> </div>","null","fixation","html-keyboard-response","335","1021212","0.0-6.0-0.47","2450080","co38152","norming","","","","","","",""
"null","../img/tt/1279tt.jpg","null","mooney1","image-keyboard-response","336","1024217","0.0-6.0-1.47","2450080","co38152","norming","","","","","","",""
"2726.0700000001816","","","post_mooney1_questions","survey-likert","337","1026947","0.0-6.0-2.47","2450080","co38152","norming","","","{""curiosity"":4,""confidence"":1}","[0,1]","../img/tt/1279tt.jpg","",""
"629.8099999999395","","","recognition","survey-text","338","1027579","0.0-6.0-3.47","2450080","co38152","norming","","","{""guess"":""""}","","../img/tt/1279tt.jpg","",""
"null","../img/gs/1279gs.jpg","null","reveal","image-keyboard-response","339","1029585","0.0-6.0-4.47","2450080","co38152","norming","","","","","","",""
"null","../img/tt/1279tt.jpg","null","mooney2","image-keyboard-response","340","1031587","0.0-6.0-5.47","2450080","co38152","norming","","","","","","",""
"1557.2449999999953","","","post_reveal_questions","survey-likert","341","1033146","0.0-6.0-6.47","2450080","co38152","norming","","","{""aha"":0}","[0]","../img/tt/1279tt.jpg","",""
"null","<div style=""font-size:60px;""> </div>","null","fixation","html-keyboard-response","342","1033348","0.0-6.0-0.48","2450080","co38152","norming","","","","","","",""
"null","../img/tt/1006tt.jpg","null","mooney1","image-keyboard-response","343","1036356","0.0-6.0-1.48","2450080","co38152","norming","","","","","","",""
"4467.604999999865","","","post_mooney1_questions","survey-likert","344","1040827","0.0-6.0-2.48","2450080","co38152","norming","","","{""curiosity"":2,""confidence"":3}","[0,1]","../img/tt/1006tt.jpg","",""
"3518.085000000079","","","recognition","survey-text","345","1044347","0.0-6.0-3.48","2450080","co38152","norming","","","{""guess"":""mountain""}","","../img/tt/1006tt.jpg","",""
"null","../img/gs/1006gs.jpg","null","reveal","image-keyboard-response","346","1046350","0.0-6.0-4.48","2450080","co38152","norming","","","","","","",""
"null","../img/tt/1006tt.jpg","null","mooney2","image-keyboard-response","347","1048352","0.0-6.0-5.48","2450080","co38152","norming","","","","","","",""
"4239.619999999879","","","post_reveal_questions","survey-likert","348","1052595","0.0-6.0-6.48","2450080","co38152","norming","","","{""aha"":1}","[0]","../img/tt/1006tt.jpg","",""
"null","<div style=""font-size:60px;""> </div>","null","fixation","html-keyboard-response","349","1052798","0.0-6.0-0.49","2450080","co38152","norming","","","","","","",""
"null","../img/tt/412tt.jpg","null","mooney1","image-keyboard-response","350","1055808","0.0-6.0-1.49","2450080","co38152","norming","","","","","","",""
"3166.939999999944","","","post_mooney1_questions","survey-likert","351","1058982","0.0-6.0-2.49","2450080","co38152","norming","","","{""curiosity"":5,""confidence"":1}","[0,1]","../img/tt/412tt.jpg","",""
"1589.9350000000559","","","recognition","survey-text","352","1060574","0.0-6.0-3.49","2450080","co38152","norming","","","{""guess"":""""}","","../img/tt/412tt.jpg","",""
"null","../img/gs/412gs.jpg","null","reveal","image-keyboard-response","353","1062582","0.0-6.0-4.49","2450080","co38152","norming","","","","","","",""
"null","../img/tt/412tt.jpg","null","mooney2","image-keyboard-response","354","1064588","0.0-6.0-5.49","2450080","co38152","norming","","","","","","",""
"1358.8500000000931","","","post_reveal_questions","survey-likert","355","1065950","0.0-6.0-6.49","2450080","co38152","norming","","","{""aha"":2}","[0]","../img/tt/412tt.jpg","",""
"null","<div style=""font-size:60px;""> </div>","null","fixation","html-keyboard-response","356","1066158","0.0-6.0-0.50","2450080","co38152","norming","","","","","","",""
"null","../img/tt/1175tt.jpg","null","mooney1","image-keyboard-response","357","1069163","0.0-6.0-1.50","2450080","co38152","norming","","","","","","",""
"3101.739999999525","","","post_mooney1_questions","survey-likert","358","1072270","0.0-6.0-2.50","2450080","co38152","norming","","","{""curiosity"":5,""confidence"":1}","[0,1]","../img/tt/1175tt.jpg","",""
"653.875","","","recognition","survey-text","359","1072926","0.0-6.0-3.50","2450080","co38152","norming","","","{""guess"":""""}","","../img/tt/1175tt.jpg","",""
"null","../img/gs/1175gs.jpg","null","reveal","image-keyboard-response","360","1074927","0.0-6.0-4.50","2450080","co38152","norming","","","","","","",""
"null","../img/tt/1175tt.jpg","null","mooney2","image-keyboard-response","361","1076931","0.0-6.0-5.50","2450080","co38152","norming","","","","","","",""
"1640.280000000028","","","post_reveal_questions","survey-likert","362","1078574","0.0-6.0-6.50","2450080","co38152","norming","","","{""aha"":5}","[0]","../img/tt/1175tt.jpg","",""
"null","<div style=""font-size:60px;""> </div>","null","fixation","html-keyboard-response","363","1078777","0.0-6.0-0.51","2450080","co38152","norming","","","","","","",""
"null","../img/tt/468tt.jpg","null","mooney1","image-keyboard-response","364","1081783","0.0-6.0-1.51","2450080","co38152","norming","","","","","","",""
"4507.510000000009","","","post_mooney1_questions","survey-likert","365","1086294","0.0-6.0-2.51","2450080","co38152","norming","","","{""curiosity"":2,""confidence"":4}","[0,1]","../img/tt/468tt.jpg","",""
"2054.20999999973","","","recognition","survey-text","366","1088350","0.0-6.0-3.51","2450080","co38152","norming","","","{""guess"":""hat""}","","../img/tt/468tt.jpg","",""
"null","../img/gs/468gs.jpg","null","reveal","image-keyboard-response","367","1090352","0.0-6.0-4.51","2450080","co38152","norming","","","","","","",""
"null","../img/tt/468tt.jpg","null","mooney2","image-keyboard-response","368","1092358","0.0-6.0-5.51","2450080","co38152","norming","","","","","","",""
"1804.244999999879","","","post_reveal_questions","survey-likert","369","1094166","0.0-6.0-6.51","2450080","co38152","norming","","","{""aha"":5}","[0]","../img/tt/468tt.jpg","",""
"null","<div style=""font-size:60px;""> </div>","null","fixation","html-keyboard-response","370","1094375","0.0-6.0-0.52","2450080","co38152","norming","","","","","","",""
"null","../img/tt/552tt.jpg","null","mooney1","image-keyboard-response","371","1097384","0.0-6.0-1.52","2450080","co38152","norming","","","","","","",""
"3234.2050000003073","","","post_mooney1_questions","survey-likert","372","1100622","0.0-6.0-2.52","2450080","co38152","norming","","","{""curiosity"":1,""confidence"":1}","[0,1]","../img/tt/552tt.jpg","",""
"853.7450000003446","","","recognition","survey-text","373","1101477","0.0-6.0-3.52","2450080","co38152","norming","","","{""guess"":""""}","","../img/tt/552tt.jpg","",""
"null","../img/gs/552gs.jpg","null","reveal","image-keyboard-response","374","1103484","0.0-6.0-4.52","2450080","co38152","norming","","","","","","",""
"null","../img/tt/552tt.jpg","null","mooney2","image-keyboard-response","375","1105485","0.0-6.0-5.52","2450080","co38152","norming","","","","","","",""
"1517.9600000001956","","","post_reveal_questions","survey-likert","376","1107006","0.0-6.0-6.52","2450080","co38152","norming","","","{""aha"":6}","[0]","../img/tt/552tt.jpg","",""
"null","<div style=""font-size:60px;""> </div>","null","fixation","html-keyboard-response","377","1107214","0.0-6.0-0.53","2450080","co38152","norming","","","","","","",""
"null","../img/tt/1362tt.jpg","null","mooney1","image-keyboard-response","378","1110227","0.0-6.0-1.53","2450080","co38152","norming","","","","","","",""
"3168.0049999998882","","","post_mooney1_questions","survey-likert","379","1113398","0.0-6.0-2.53","2450080","co38152","norming","","","{""curiosity"":6,""confidence"":4}","[0,1]","../img/tt/1362tt.jpg","",""
"1797.6899999999441","","","recognition","survey-text","380","1115198","0.0-6.0-3.53","2450080","co38152","norming","","","{""guess"":""hat""}","","../img/tt/1362tt.jpg","",""
"null","../img/gs/1362gs.jpg","null","reveal","image-keyboard-response","381","1117203","0.0-6.0-4.53","2450080","co38152","norming","","","","","","",""
"null","../img/tt/1362tt.jpg","null","mooney2","image-keyboard-response","382","1119209","0.0-6.0-5.53","2450080","co38152","norming","","","","","","",""
"2636.489999999758","","","post_reveal_questions","survey-likert","383","1121848","0.0-6.0-6.53","2450080","co38152","norming","","","{""aha"":5}","[0]","../img/tt/1362tt.jpg","",""
"null","<div style=""font-size:60px;""> </div>","null","fixation","html-keyboard-response","384","1122055","0.0-6.0-0.54","2450080","co38152","norming","","","","","","",""
"null","../img/tt/1033tt.jpg","null","mooney1","image-keyboard-response","385","1125067","0.0-6.0-1.54","2450080","co38152","norming","","","","","","",""
"3986.2299999999814","","","post_mooney1_questions","survey-likert","386","1129056","0.0-6.0-2.54","2450080","co38152","norming","","","{""curiosity"":5,""confidence"":0}","[0,1]","../img/tt/1033tt.jpg","",""
"1302.030000000028","","","recognition","survey-text","387","1130360","0.0-6.0-3.54","2450080","co38152","norming","","","{""guess"":""""}","","../img/tt/1033tt.jpg","",""
"null","../img/gs/1033gs.jpg","null","reveal","image-keyboard-response","388","1132362","0.0-6.0-4.54","2450080","co38152","norming","","","","","","",""
"null","../img/tt/1033tt.jpg","null","mooney2","image-keyboard-response","389","1134364","0.0-6.0-5.54","2450080","co38152","norming","","","","","","",""
"2112.594999999972","","","post_reveal_questions","survey-likert","390","1136480","0.0-6.0-6.54","2450080","co38152","norming","","","{""aha"":6}","[0]","../img/tt/1033tt.jpg","",""
"null","<div style=""font-size:60px;""> </div>","null","fixation","html-keyboard-response","391","1136682","0.0-6.0-0.55","2450080","co38152","norming","","","","","","",""
"null","../img/tt/1237tt.jpg","null","mooney1","image-keyboard-response","392","1139686","0.0-6.0-1.55","2450080","co38152","norming","","","","","","",""
"2565.9850000001024","","","post_mooney1_questions","survey-likert","393","1142256","0.0-6.0-2.55","2450080","co38152","norming","","","{""curiosity"":1,""confidence"":5}","[0,1]","../img/tt/1237tt.jpg","",""
"3661.6450000002515","","","recognition","survey-text","394","1145920","0.0-6.0-3.55","2450080","co38152","norming","","","{""guess"":""duck""}","","../img/tt/1237tt.jpg","",""
"null","../img/gs/1237gs.jpg","null","reveal","image-keyboard-response","395","1147929","0.0-6.0-4.55","2450080","co38152","norming","","","","","","",""
"null","../img/tt/1237tt.jpg","null","mooney2","image-keyboard-response","396","1149939","0.0-6.0-5.55","2450080","co38152","norming","","","","","","",""
"3331.9599999999627","","","post_reveal_questions","survey-likert","397","1153272","0.0-6.0-6.55","2450080","co38152","norming","","","{""aha"":5}","[0]","../img/tt/1237tt.jpg","",""
"null","<div style=""font-size:60px;""> </div>","null","fixation","html-keyboard-response","398","1153474","0.0-6.0-0.56","2450080","co38152","norming","","","","","","",""
"null","../img/tt/1128tt.jpg","null","mooney1","image-keyboard-response","399","1156478","0.0-6.0-1.56","2450080","co38152","norming","","","","","","",""
"5278.304999999702","","","post_mooney1_questions","survey-likert","400","1161760","0.0-6.0-2.56","2450080","co38152","norming","","","{""curiosity"":4,""confidence"":0}","[0,1]","../img/tt/1128tt.jpg","",""
"1006.5550000004005","","","recognition","survey-text","401","1162768","0.0-6.0-3.56","2450080","co38152","norming","","","{""guess"":""""}","","../img/tt/1128tt.jpg","",""
"null","../img/gs/1128gs.jpg","null","reveal","image-keyboard-response","402","1164770","0.0-6.0-4.56","2450080","co38152","norming","","","","","","",""
"null","../img/tt/1128tt.jpg","null","mooney2","image-keyboard-response","403","1166778","0.0-6.0-5.56","2450080","co38152","norming","","","","","","",""
"1291.1099999996368","","","post_reveal_questions","survey-likert","404","1168072","0.0-6.0-6.56","2450080","co38152","norming","","","{""aha"":6}","[0]","../img/tt/1128tt.jpg","",""
"null","<div style=""font-size:60px;""> </div>","null","fixation","html-keyboard-response","405","1168276","0.0-6.0-0.57","2450080","co38152","norming","","","","","","",""
"null","../img/tt/1069tt.jpg","null","mooney1","image-keyboard-response","406","1171281","0.0-6.0-1.57","2450080","co38152","norming","","","","","","",""
"4090.530000000028","","","post_mooney1_questions","survey-likert","407","1175376","0.0-6.0-2.57","2450080","co38152","norming","","","{""curiosity"":1,""confidence"":0}","[0,1]","../img/tt/1069tt.jpg","",""
"901.9900000002235","","","recognition","survey-text","408","1176280","0.0-6.0-3.57","2450080","co38152","norming","","","{""guess"":""""}","","../img/tt/1069tt.jpg","",""
"null","../img/gs/1069gs.jpg","null","reveal","image-keyboard-response","409","1178281","0.0-6.0-4.57","2450080","co38152","norming","","","","","","",""
"null","../img/tt/1069tt.jpg","null","mooney2","image-keyboard-response","410","1180295","0.0-6.0-5.57","2450080","co38152","norming","","","","","","",""
"1264.4399999999441","","","post_reveal_questions","survey-likert","411","1181563","0.0-6.0-6.57","2450080","co38152","norming","","","{""aha"":0}","[0]","../img/tt/1069tt.jpg","",""
"null","<div style=""font-size:60px;""> </div>","null","fixation","html-keyboard-response","412","1181765","0.0-6.0-0.58","2450080","co38152","norming","","","","","","",""
"null","../img/tt/307tt.jpg","null","mooney1","image-keyboard-response","413","1184770","0.0-6.0-1.58","2450080","co38152","norming","","","","","","",""
"4213.070000000298","","","post_mooney1_questions","survey-likert","414","1188987","0.0-6.0-2.58","2450080","co38152","norming","","","{""curiosity"":4,""confidence"":0}","[0,1]","../img/tt/307tt.jpg","",""
"621.9050000000279","","","recognition","survey-text","415","1189610","0.0-6.0-3.58","2450080","co38152","norming","","","{""guess"":""""}","","../img/tt/307tt.jpg","",""
"null","../img/gs/307gs.jpg","null","reveal","image-keyboard-response","416","1191619","0.0-6.0-4.58","2450080","co38152","norming","","","","","","",""
"null","../img/tt/307tt.jpg","null","mooney2","image-keyboard-response","417","1193622","0.0-6.0-5.58","2450080","co38152","norming","","","","","","",""
"1289.8200000000652","","","post_reveal_questions","survey-likert","418","1194915","0.0-6.0-6.58","2450080","co38152","norming","","","{""aha"":2}","[0]","../img/tt/307tt.jpg","",""
"null","<div style=""font-size:60px;""> </div>","null","fixation","html-keyboard-response","419","1195121","0.0-6.0-0.59","2450080","co38152","norming","","","","","","",""
"null","../img/tt/456tt.jpg","null","mooney1","image-keyboard-response","420","1198127","0.0-6.0-1.59","2450080","co38152","norming","","","","","","",""
"3568.225000000093","","","post_mooney1_questions","survey-likert","421","1201698","0.0-6.0-2.59","2450080","co38152","norming","","","{""curiosity"":4,""confidence"":4}","[0,1]","../img/tt/456tt.jpg","",""
"2974.2350000001024","","","recognition","survey-text","422","1204675","0.0-6.0-3.59","2450080","co38152","norming","","","{""guess"":""snake""}","","../img/tt/456tt.jpg","",""
"null","../img/gs/456gs.jpg","null","reveal","image-keyboard-response","423","1206683","0.0-6.0-4.59","2450080","co38152","norming","","","","","","",""
"null","../img/tt/456tt.jpg","null","mooney2","image-keyboard-response","424","1208686","0.0-6.0-5.59","2450080","co38152","norming","","","","","","",""
"1466.179999999702","","","post_reveal_questions","survey-likert","425","1210155","0.0-6.0-6.59","2450080","co38152","norming","","","{""aha"":5}","[0]","../img/tt/456tt.jpg","",""
"null","<div style=""font-size:60px;""> </div>","null","fixation","html-keyboard-response","426","1210359","0.0-6.0-0.60","2450080","co38152","norming","","","","","","",""
"null","../img/tt/1290tt.jpg","null","mooney1","image-keyboard-response","427","1213368","0.0-6.0-1.60","2450080","co38152","norming","","","","","","",""
"3062.8799999998882","","","post_mooney1_questions","survey-likert","428","1216435","0.0-6.0-2.60","2450080","co38152","norming","","","{""curiosity"":4,""confidence"":1}","[0,1]","../img/tt/1290tt.jpg","",""
"830.0150000001304","","","recognition","survey-text","429","1217266","0.0-6.0-3.60","2450080","co38152","norming","","","{""guess"":""""}","","../img/tt/1290tt.jpg","",""
"null","../img/gs/1290gs.jpg","null","reveal","image-keyboard-response","430","1219276","0.0-6.0-4.60","2450080","co38152","norming","","","","","","",""
"null","../img/tt/1290tt.jpg","null","mooney2","image-keyboard-response","431","1221277","0.0-6.0-5.60","2450080","co38152","norming","","","","","","",""
"1754.625","","","post_reveal_questions","survey-likert","432","1223035","0.0-6.0-6.60","2450080","co38152","norming","","","{""aha"":6}","[0]","../img/tt/1290tt.jpg","",""
"null","<div style=""font-size:60px;""> </div>","null","fixation","html-keyboard-response","433","1223239","0.0-6.0-0.61","2450080","co38152","norming","","","","","","",""
"null","../img/tt/1181tt.jpg","null","mooney1","image-keyboard-response","434","1226248","0.0-6.0-1.61","2450080","co38152","norming","","","","","","",""
"4551.399999999674","","","post_mooney1_questions","survey-likert","435","1230803","0.0-6.0-2.61","2450080","co38152","norming","","","{""curiosity"":4,""confidence"":0}","[0,1]","../img/tt/1181tt.jpg","",""
"509.9550000000745","","","recognition","survey-text","436","1231314","0.0-6.0-3.61","2450080","co38152","norming","","","{""guess"":""""}","","../img/tt/1181tt.jpg","",""
"null","../img/gs/1181gs.jpg","null","reveal","image-keyboard-response","437","1233323","0.0-6.0-4.61","2450080","co38152","norming","","","","","","",""
"null","../img/tt/1181tt.jpg","null","mooney2","image-keyboard-response","438","1235334","0.0-6.0-5.61","2450080","co38152","norming","","","","","","",""
"2593.965000000084","","","post_reveal_questions","survey-likert","439","1237931","0.0-6.0-6.61","2450080","co38152","norming","","","{""aha"":5}","[0]","../img/tt/1181tt.jpg","",""
"null","<div style=""font-size:60px;""> </div>","null","fixation","html-keyboard-response","440","1238136","0.0-6.0-0.62","2450080","co38152","norming","","","","","","",""
"null","../img/tt/435tt.jpg","null","mooney1","image-keyboard-response","441","1241151","0.0-6.0-1.62","2450080","co38152","norming","","","","","","",""
"3635.1500000001397","","","post_mooney1_questions","survey-likert","442","1244789","0.0-6.0-2.62","2450080","co38152","norming","","","{""curiosity"":2,""confidence"":4}","[0,1]","../img/tt/435tt.jpg","",""
"3502.2200000004377","","","recognition","survey-text","443","1248293","0.0-6.0-3.62","2450080","co38152","norming","","","{""guess"":""pool""}","","../img/tt/435tt.jpg","",""
"null","../img/gs/435gs.jpg","null","reveal","image-keyboard-response","444","1250301","0.0-6.0-4.62","2450080","co38152","norming","","","","","","",""
"null","../img/tt/435tt.jpg","null","mooney2","image-keyboard-response","445","1252313","0.0-6.0-5.62","2450080","co38152","norming","","","","","","",""
"4065.7000000001863","","","post_reveal_questions","survey-likert","446","1256381","0.0-6.0-6.62","2450080","co38152","norming","","","{""aha"":5}","[0]","../img/tt/435tt.jpg","",""
"null","<div style=""font-size:60px;""> </div>","null","fixation","html-keyboard-response","447","1256583","0.0-6.0-0.63","2450080","co38152","norming","","","","","","",""
"null","../img/tt/040tt.jpg","null","mooney1","image-keyboard-response","448","1259586","0.0-6.0-1.63","2450080","co38152","norming","","","","","","",""
"2696.155000000028","","","post_mooney1_questions","survey-likert","449","1262286","0.0-6.0-2.63","2450080","co38152","norming","","","{""curiosity"":5,""confidence"":0}","[0,1]","../img/tt/040tt.jpg","",""
"533.815000000177","","","recognition","survey-text","450","1262821","0.0-6.0-3.63","2450080","co38152","norming","","","{""guess"":""""}","","../img/tt/040tt.jpg","",""
"null","../img/gs/040gs.jpg","null","reveal","image-keyboard-response","451","1264826","0.0-6.0-4.63","2450080","co38152","norming","","","","","","",""
"null","../img/tt/040tt.jpg","null","mooney2","image-keyboard-response","452","1266828","0.0-6.0-5.63","2450080","co38152","norming","","","","","","",""
"2278.5800000003073","","","post_reveal_questions","survey-likert","453","1269109","0.0-6.0-6.63","2450080","co38152","norming","","","{""aha"":5}","[0]","../img/tt/040tt.jpg","",""
"null","<div style=""font-size:60px;""> </div>","null","fixation","html-keyboard-response","454","1269313","0.0-6.0-0.64","2450080","co38152","norming","","","","","","",""
"null","../img/tt/1188tt.jpg","null","mooney1","image-keyboard-response","455","1272321","0.0-6.0-1.64","2450080","co38152","norming","","","","","","",""
"3472.8199999998324","","","post_mooney1_questions","survey-likert","456","1275797","0.0-6.0-2.64","2450080","co38152","norming","","","{""curiosity"":5,""confidence"":0}","[0,1]","../img/tt/1188tt.jpg","",""
"717.8650000002235","","","recognition","survey-text","457","1276517","0.0-6.0-3.64","2450080","co38152","norming","","","{""guess"":""""}","","../img/tt/1188tt.jpg","",""
"null","../img/gs/1188gs.jpg","null","reveal","image-keyboard-response","458","1278523","0.0-6.0-4.64","2450080","co38152","norming","","","","","","",""
"null","../img/tt/1188tt.jpg","null","mooney2","image-keyboard-response","459","1280525","0.0-6.0-5.64","2450080","co38152","norming","","","","","","",""
"1261.2649999998976","","","post_reveal_questions","survey-likert","460","1281789","0.0-6.0-6.64","2450080","co38152","norming","","","{""aha"":4}","[0]","../img/tt/1188tt.jpg","",""
"null","<div style=""font-size:60px;""> </div>","null","fixation","html-keyboard-response","461","1281991","0.0-6.0-0.65","2450080","co38152","norming","","","","","","",""
"null","../img/tt/1156tt.jpg","null","mooney1","image-keyboard-response","462","1284997","0.0-6.0-1.65","2450080","co38152","norming","","","","","","",""
"4389.0800000000745","","","post_mooney1_questions","survey-likert","463","1289390","0.0-6.0-2.65","2450080","co38152","norming","","","{""curiosity"":4,""confidence"":5}","[0,1]","../img/tt/1156tt.jpg","",""
"3509.780000000028","","","recognition","survey-text","464","1292901","0.0-6.0-3.65","2450080","co38152","norming","","","{""guess"":""beach""}","","../img/tt/1156tt.jpg","",""
"null","../img/gs/1156gs.jpg","null","reveal","image-keyboard-response","465","1294907","0.0-6.0-4.65","2450080","co38152","norming","","","","","","",""
"null","../img/tt/1156tt.jpg","null","mooney2","image-keyboard-response","466","1296910","0.0-6.0-5.65","2450080","co38152","norming","","","","","","",""
"2964.155000000028","","","post_reveal_questions","survey-likert","467","1299877","0.0-6.0-6.65","2450080","co38152","norming","","","{""aha"":4}","[0]","../img/tt/1156tt.jpg","",""
"null","<div style=""font-size:60px;""> </div>","null","fixation","html-keyboard-response","468","1300087","0.0-6.0-0.66","2450080","co38152","norming","","","","","","",""
"null","../img/tt/1043tt.jpg","null","mooney1","image-keyboard-response","469","1303093","0.0-6.0-1.66","2450080","co38152","norming","","","","","","",""
"3518.899999999907","","","post_mooney1_questions","survey-likert","470","1306616","0.0-6.0-2.66","2450080","co38152","norming","","","{""curiosity"":4,""confidence"":2}","[0,1]","../img/tt/1043tt.jpg","",""
"3229.6999999999534","","","recognition","survey-text","471","1309847","0.0-6.0-3.66","2450080","co38152","norming","","","{""guess"":""boat""}","","../img/tt/1043tt.jpg","",""
"null","../img/gs/1043gs.jpg","null","reveal","image-keyboard-response","472","1311855","0.0-6.0-4.66","2450080","co38152","norming","","","","","","",""
"null","../img/tt/1043tt.jpg","null","mooney2","image-keyboard-response","473","1313866","0.0-6.0-5.66","2450080","co38152","norming","","","","","","",""
"3666.529999999795","","","post_reveal_questions","survey-likert","474","1317535","0.0-6.0-6.66","2450080","co38152","norming","","","{""aha"":4}","[0]","../img/tt/1043tt.jpg","",""
"null","<div style=""font-size:60px;""> </div>","null","fixation","html-keyboard-response","475","1317736","0.0-6.0-0.67","2450080","co38152","norming","","","","","","",""
"null","../img/tt/1224tt.jpg","null","mooney1","image-keyboard-response","476","1320739","0.0-6.0-1.67","2450080","co38152","norming","","","","","","",""
"3313.219999999972","","","post_mooney1_questions","survey-likert","477","1324056","0.0-6.0-2.67","2450080","co38152","norming","","","{""curiosity"":4,""confidence"":2}","[0,1]","../img/tt/1224tt.jpg","",""
"677.4350000000559","","","recognition","survey-text","478","1324735","0.0-6.0-3.67","2450080","co38152","norming","","","{""guess"":""""}","","../img/tt/1224tt.jpg","",""
"null","../img/gs/1224gs.jpg","null","reveal","image-keyboard-response","479","1326744","0.0-6.0-4.67","2450080","co38152","norming","","","","","","",""
"null","../img/tt/1224tt.jpg","null","mooney2","image-keyboard-response","480","1328748","0.0-6.0-5.67","2450080","co38152","norming","","","","","","",""
"1344.7750000001397","","","post_reveal_questions","survey-likert","481","1330095","0.0-6.0-6.67","2450080","co38152","norming","","","{""aha"":5}","[0]","../img/tt/1224tt.jpg","",""
"null","<div style=""font-size:60px;""> </div>","null","fixation","html-keyboard-response","482","1330306","0.0-6.0-0.68","2450080","co38152","norming","","","","","","",""
"null","../img/tt/1217tt.jpg","null","mooney1","image-keyboard-response","483","1333312","0.0-6.0-1.68","2450080","co38152","norming","","","","","","",""
"2851.8400000003166","","","post_mooney1_questions","survey-likert","484","1336168","0.0-6.0-2.68","2450080","co38152","norming","","","{""curiosity"":4,""confidence"":0}","[0,1]","../img/tt/1217tt.jpg","",""
"917.6799999999348","","","recognition","survey-text","485","1337087","0.0-6.0-3.68","2450080","co38152","norming","","","{""guess"":""""}","","../img/tt/1217tt.jpg","",""
"null","../img/gs/1217gs.jpg","null","reveal","image-keyboard-response","486","1339093","0.0-6.0-4.68","2450080","co38152","norming","","","","","","",""
"null","../img/tt/1217tt.jpg","null","mooney2","image-keyboard-response","487","1341104","0.0-6.0-5.68","2450080","co38152","norming","","","","","","",""
"3027.660000000382","","","post_reveal_questions","survey-likert","488","1344135","0.0-6.0-6.68","2450080","co38152","norming","","","{""aha"":1}","[0]","../img/tt/1217tt.jpg","",""
"null","<div style=""font-size:60px;""> </div>","null","fixation","html-keyboard-response","489","1344337","0.0-6.0-0.69","2450080","co38152","norming","","","","","","",""
"null","../img/tt/358tt.jpg","null","mooney1","image-keyboard-response","490","1347341","0.0-6.0-1.69","2450080","co38152","norming","","","","","","",""
"4703.02500000014","","","post_mooney1_questions","survey-likert","491","1352048","0.0-6.0-2.69","2450080","co38152","norming","","","{""curiosity"":5,""confidence"":1}","[0,1]","../img/tt/358tt.jpg","",""
"893.7350000001024","","","recognition","survey-text","492","1352943","0.0-6.0-3.69","2450080","co38152","norming","","","{""guess"":""""}","","../img/tt/358tt.jpg","",""
"null","../img/gs/358gs.jpg","null","reveal","image-keyboard-response","493","1354950","0.0-6.0-4.69","2450080","co38152","norming","","","","","","",""
"null","../img/tt/358tt.jpg","null","mooney2","image-keyboard-response","494","1356957","0.0-6.0-5.69","2450080","co38152","norming","","","","","","",""
"3047.7899999998044","","","post_reveal_questions","survey-likert","495","1360008","0.0-6.0-6.69","2450080","co38152","norming","","","{""aha"":2}","[0]","../img/tt/358tt.jpg","",""
"null","<div style=""font-size:60px;""> </div>","null","fixation","html-keyboard-response","496","1360218","0.0-6.0-0.70","2450080","co38152","norming","","","","","","",""
"null","../img/tt/1260tt.jpg","null","mooney1","image-keyboard-response","497","1363226","0.0-6.0-1.70","2450080","co38152","norming","","","","","","",""
"3621.225000000326","","","post_mooney1_questions","survey-likert","498","1366851","0.0-6.0-2.70","2450080","co38152","norming","","","{""curiosity"":1,""confidence"":0}","[0,1]","../img/tt/1260tt.jpg","",""
"501.9650000000838","","","recognition","survey-text","499","1367355","0.0-6.0-3.70","2450080","co38152","norming","","","{""guess"":""""}","","../img/tt/1260tt.jpg","",""
"null","../img/gs/1260gs.jpg","null","reveal","image-keyboard-response","500","1369361","0.0-6.0-4.70","2450080","co38152","norming","","","","","","",""
"null","../img/tt/1260tt.jpg","null","mooney2","image-keyboard-response","501","1371371","0.0-6.0-5.70","2450080","co38152","norming","","","","","","",""
"3261.070000000065","","","post_reveal_questions","survey-likert","502","1374635","0.0-6.0-6.70","2450080","co38152","norming","","","{""aha"":1}","[0]","../img/tt/1260tt.jpg","",""
"null","<div style=""font-size:60px;""> </div>","null","fixation","html-keyboard-response","503","1374842","0.0-6.0-0.71","2450080","co38152","norming","","","","","","",""
"null","../img/tt/1309tt.jpg","null","mooney1","image-keyboard-response","504","1377847","0.0-6.0-1.71","2450080","co38152","norming","","","","","","",""
"3256.345000000205","","","post_mooney1_questions","survey-likert","505","1381107","0.0-6.0-2.71","2450080","co38152","norming","","","{""curiosity"":4,""confidence"":1}","[0,1]","../img/tt/1309tt.jpg","",""
"2773.730000000447","","","recognition","survey-text","506","1383883","0.0-6.0-3.71","2450080","co38152","norming","","","{""guess"":""woods""}","","../img/tt/1309tt.jpg","",""
"null","../img/gs/1309gs.jpg","null","reveal","image-keyboard-response","507","1385883","0.0-6.0-4.71","2450080","co38152","norming","","","","","","",""
"null","../img/tt/1309tt.jpg","null","mooney2","image-keyboard-response","508","1387886","0.0-6.0-5.71","2450080","co38152","norming","","","","","","",""
"2508.1450000002515","","","post_reveal_questions","survey-likert","509","1390395","0.0-6.0-6.71","2450080","co38152","norming","","","{""aha"":4}","[0]","../img/tt/1309tt.jpg","",""
"null","<div style=""font-size:60px;""> </div>","null","fixation","html-keyboard-response","510","1390602","0.0-6.0-0.72","2450080","co38152","norming","","","","","","",""
"null","../img/tt/091tt.jpg","null","mooney1","image-keyboard-response","511","1393607","0.0-6.0-1.72","2450080","co38152","norming","","","","","","",""
"4184.569999999832","","","post_mooney1_questions","survey-likert","512","1397795","0.0-6.0-2.72","2450080","co38152","norming","","","{""curiosity"":4,""confidence"":4}","[0,1]","../img/tt/091tt.jpg","",""
"3318.274999999674","","","recognition","survey-text","513","1401115","0.0-6.0-3.72","2450080","co38152","norming","","","{""guess"":""animal""}","","../img/tt/091tt.jpg","",""
"null","../img/gs/091gs.jpg","null","reveal","image-keyboard-response","514","1403118","0.0-6.0-4.72","2450080","co38152","norming","","","","","","",""
"null","../img/tt/091tt.jpg","null","mooney2","image-keyboard-response","515","1405120","0.0-6.0-5.72","2450080","co38152","norming","","","","","","",""
"2712.179999999935","","","post_reveal_questions","survey-likert","516","1407835","0.0-6.0-6.72","2450080","co38152","norming","","","{""aha"":2}","[0]","../img/tt/091tt.jpg","",""
"null","<div style=""font-size:60px;""> </div>","null","fixation","html-keyboard-response","517","1408043","0.0-6.0-0.73","2450080","co38152","norming","","","","","","",""
"null","../img/tt/1275tt.jpg","null","mooney1","image-keyboard-response","518","1411050","0.0-6.0-1.73","2450080","co38152","norming","","","","","","",""
"4221.0250000003725","","","post_mooney1_questions","survey-likert","519","1415275","0.0-6.0-2.73","2450080","co38152","norming","","","{""curiosity"":5,""confidence"":1}","[0,1]","../img/tt/1275tt.jpg","",""
"477.94999999995343","","","recognition","survey-text","520","1415755","0.0-6.0-3.73","2450080","co38152","norming","","","{""guess"":""""}","","../img/tt/1275tt.jpg","",""
"null","../img/gs/1275gs.jpg","null","reveal","image-keyboard-response","521","1417762","0.0-6.0-4.73","2450080","co38152","norming","","","","","","",""
"null","../img/tt/1275tt.jpg","null","mooney2","image-keyboard-response","522","1419771","0.0-6.0-5.73","2450080","co38152","norming","","","","","","",""
"2029.0900000000838","","","post_reveal_questions","survey-likert","523","1421803","0.0-6.0-6.73","2450080","co38152","norming","","","{""aha"":1}","[0]","../img/tt/1275tt.jpg","",""
"null","<div style=""font-size:60px;""> </div>","null","fixation","html-keyboard-response","524","1422005","0.0-6.0-0.74","2450080","co38152","norming","","","","","","",""
"null","../img/tt/063tt.jpg","null","mooney1","image-keyboard-response","525","1425015","0.0-6.0-1.74","2450080","co38152","norming","","","","","","",""
"4832.340000000084","","","post_mooney1_questions","survey-likert","526","1429851","0.0-6.0-2.74","2450080","co38152","norming","","","{""curiosity"":2,""confidence"":5}","[0,1]","../img/tt/063tt.jpg","",""
"5998.095000000438","","","recognition","survey-text","527","1435851","0.0-6.0-3.74","2450080","co38152","norming","","","{""guess"":""type machine""}","","../img/tt/063tt.jpg","",""
"null","../img/gs/063gs.jpg","null","reveal","image-keyboard-response","528","1437862","0.0-6.0-4.74","2450080","co38152","norming","","","","","","",""
"null","../img/tt/063tt.jpg","null","mooney2","image-keyboard-response","529","1439864","0.0-6.0-5.74","2450080","co38152","norming","","","","","","",""
"2207.910000000149","","","post_reveal_questions","survey-likert","530","1442075","0.0-6.0-6.74","2450080","co38152","norming","","","{""aha"":6}","[0]","../img/tt/063tt.jpg","",""
"null","<div style=""font-size:60px;""> </div>","null","fixation","html-keyboard-response","531","1442285","0.0-6.0-0.75","2450080","co38152","norming","","","","","","",""
"null","../img/tt/1004tt.jpg","null","mooney1","image-keyboard-response","532","1445290","0.0-6.0-1.75","2450080","co38152","norming","","","","","","",""
"4325.054999999935","","","post_mooney1_questions","survey-likert","533","1449619","0.0-6.0-2.75","2450080","co38152","norming","","","{""curiosity"":4,""confidence"":0}","[0,1]","../img/tt/1004tt.jpg","",""
"790.2749999999069","","","recognition","survey-text","534","1450411","0.0-6.0-3.75","2450080","co38152","norming","","","{""guess"":""""}","","../img/tt/1004tt.jpg","",""
"null","../img/gs/1004gs.jpg","null","reveal","image-keyboard-response","535","1452416","0.0-6.0-4.75","2450080","co38152","norming","","","","","","",""
"null","../img/tt/1004tt.jpg","null","mooney2","image-keyboard-response","536","1454419","0.0-6.0-5.75","2450080","co38152","norming","","","","","","",""
"1757.125","","","post_reveal_questions","survey-likert","537","1456179","0.0-6.0-6.75","2450080","co38152","norming","","","{""aha"":2}","[0]","../img/tt/1004tt.jpg","",""
"null","<div style=""font-size:60px;""> </div>","null","fixation","html-keyboard-response","538","1456386","0.0-6.0-0.76","2450080","co38152","norming","","","","","","",""
"null","../img/tt/436tt.jpg","null","mooney1","image-keyboard-response","539","1459393","0.0-6.0-1.76","2450080","co38152","norming","","","","","","",""
"3551.0100000000093","","","post_mooney1_questions","survey-likert","540","1462947","0.0-6.0-2.76","2450080","co38152","norming","","","{""curiosity"":5,""confidence"":4}","[0,1]","../img/tt/436tt.jpg","",""
"4597.925000000047","","","recognition","survey-text","541","1467547","0.0-6.0-3.76","2450080","co38152","norming","","","{""guess"":""salamander""}","","../img/tt/436tt.jpg","",""
"null","../img/gs/436gs.jpg","null","reveal","image-keyboard-response","542","1469549","0.0-6.0-4.76","2450080","co38152","norming","","","","","","",""
"null","../img/tt/436tt.jpg","null","mooney2","image-keyboard-response","543","1471551","0.0-6.0-5.76","2450080","co38152","norming","","","","","","",""
"2168.2700000000186","","","post_reveal_questions","survey-likert","544","1473723","0.0-6.0-6.76","2450080","co38152","norming","","","{""aha"":3}","[0]","../img/tt/436tt.jpg","",""
"null","<div style=""font-size:60px;""> </div>","null","fixation","html-keyboard-response","545","1473932","0.0-6.0-0.77","2450080","co38152","norming","","","","","","",""
"null","../img/tt/273tt.jpg","null","mooney1","image-keyboard-response","546","1476933","0.0-6.0-1.77","2450080","co38152","norming","","","","","","",""
"3826.6450000000186","","","post_mooney1_questions","survey-likert","547","1480763","0.0-6.0-2.77","2450080","co38152","norming","","","{""curiosity"":5,""confidence"":0}","[0,1]","../img/tt/273tt.jpg","",""
"741.9600000004284","","","recognition","survey-text","548","1481507","0.0-6.0-3.77","2450080","co38152","norming","","","{""guess"":""""}","","../img/tt/273tt.jpg","",""
"null","../img/gs/273gs.jpg","null","reveal","image-keyboard-response","549","1483510","0.0-6.0-4.77","2450080","co38152","norming","","","","","","",""
"null","../img/tt/273tt.jpg","null","mooney2","image-keyboard-response","550","1485513","0.0-6.0-5.77","2450080","co38152","norming","","","","","","",""
"1823.5199999997858","","","post_reveal_questions","survey-likert","551","1487339","0.0-6.0-6.77","2450080","co38152","norming","","","{""aha"":6}","[0]","../img/tt/273tt.jpg","",""
"null","<div style=""font-size:60px;""> </div>","null","fixation","html-keyboard-response","552","1487546","0.0-6.0-0.78","2450080","co38152","norming","","","","","","",""
"null","../img/tt/123tt.jpg","null","mooney1","image-keyboard-response","553","1490556","0.0-6.0-1.78","2450080","co38152","norming","","","","","","",""
