"rt","stimulus","key_press","test_part","trial_type","trial_index","time_elapsed","internal_node_id","totalTime","subject","experiment_name","button_pressed","success","responses","question_order","currentStim","old","correct"
"11762.56999999896","Welcome to the experiment. This is an online experiment so please don't close the tab/window until we say goodbye.  Press any key to begin.","13","instructions","html-keyboard-response","0","11787","0.0-0.0","3359938","co38104","norming","","","","","","",""
"7710.419999999431","<div style='word-wrap: break-word; width: 900px'><h3>Please consider this information carefully before deciding whether to participate in this research</h3><ul style='text-align: left; font-size: .8em;'><li><b>Purpose of the research</b>: To examine how people process images.</li><li><b>What you will do in this research</b>:  Stimuli (images) will be presented on the computer and you will be asked different questions about them.</li><li><b>Time required</b>: Participation will take between 45 and 60 minutes to complete.</li><li><b>Risks</b>:  There are no anticipated risks associated with participating in this study. The effects of participating should be comparable to those you would experience from viewing a computer monitor for 30 minutes and using a mouse or keyboard.</li><li><b>Benefits</b>:  This study provides no benefits to you individually except for the credit. The study provides important information about the nature of perception and learning.</li><li><b>Confidentiality</b>:  Your participation in this study will remain confidential. No personally identifiable information will be associated with your data. Your de-identified data may be shared with other researchers and used in future projects.</li><li><b>Participation and withdrawal</b>:  Your participation in this study is completely voluntary and you may refuse to participate or you may choose to withdraw at any time without penalty.</li><li><b>How to contact the researchers</b>: If you have questions or concerns about your participation or payment, or want to request a summary of research findings, please contact Sander Van de Cruys (KU Leuven), at sander.vandecruys@kuleuven.be.</li></ul><p>The nature and purpose of this research have been sufficiently explained and I agree to participate in this study.  I understand that I am free to withdraw at any time without incurring any penalty.</p><p>Please consent by clicking the button below to continue. Otherwise, please exit the study at this time.</p></div>","","instructions","html-button-response","1","19498","0.0-1.0","3359938","co38104","norming","0","","","","","",""
"","","","instructions","fullscreen","2","28782","0.0-2.0","3359938","co38104","norming","","true","","","","",""
"28938.959999999497","","","sona","survey-html-form","3","57726","0.0-3.0","3359938","co38104","norming","","","[{""name"":""sonaid"",""value"":""38104""},{""name"":""debrief"",""value"":""yes""},{""name"":""datajoin"",""value"":""yes""}]","","","",""
"121242.9000000011","<div style='word-wrap: break-word; width: 900px'><h3>Instructions</h3><p>This experiment will have 3 parts. In the first part you will see a series of distorted images like the one below on the left. As you can see in the righthand image, the distorted images are derived from actual photographs. In what follows, you will <strong>briefly</strong> be presented with <strong>only</strong> the distorted image.</p> <div style='float: left; margin-right: 20px;'><img src='../img/018tt.jpg' height='250' width='250'></img></div><div style='float: right; margin-left: 20px;'><img src='../img/018gs.jpg' height='250' width='250'></img></div><p>Subsequently you will be asked a few questions about the image: One question on how <strong>curious</strong> you are about the solution and one on how <strong>confident</strong> you are that you know the solution.</p>Next, we ask you to make a guess on what is in the image. Note that it is OK to name just the <strong>basic level category</strong>. For example when you see a parrot in the image, 'parrot' will obviously be a correct answer but also correct is 'bird'. However, 'animal' will <strong>not</strong> be counted as a correct response. For the example above, 'rose' would be correct or 'flower', but not 'plant'. When soccer players are depicted, 'soccer', 'football', 'soccer players' will be correct, but not 'humans', 'outdoors', or 'sports'. You do not need to describe the image in full, just name the main object in it <strong>in one or two words</strong>. All images depict objects from one of the following broad level categories: animals, inanimate objects, plants, sports, vehicles, and food. Recognizing means knowing <strong>more</strong> than these broad labels for a given image. But we always encourage you to <strong>make a guess</strong> if you can. Note that you are allowed to use <strong>Dutch and English</strong> in your answers, whatever comes easiest for you.</p><p>Press any key to continue.</p></div>","13","instructions","html-keyboard-response","4","178962","0.0-4.0","3359938","co38104","norming","","","","","","",""
"9103.165000000445","<div style='word-wrap: break-word; width: 900px'><h3>Instructions</h3> <p>Next, the solution image will be revealed to you and you'll be asked to indicate how strong your <strong>aha-experience</strong> was after seeing the solution. This describes the positive feeling of the 'click' you sometimes experience, when the pieces of the 'puzzle' fall together and you suddenly have 'insight' in the image.</p><img src='aha.jpg' height='188' width='250'></img><p>Note that there are no right or wrong answers. We are interested in what <strong>you</strong> see in the image and how <strong>you</strong> feel about it.</p><p>Press any key to start the experiment.</p></div>","13","instructions","html-keyboard-response","5","188066","0.0-5.0","3359938","co38104","norming","","","","","","",""
"null","<div style=""font-size:60px;""> </div>","null","fixation","html-keyboard-response","6","188267","0.0-6.0-0.0","3359938","co38104","norming","","","","","","",""
"null","../img/tt/135tt.jpg","null","mooney1","image-keyboard-response","7","191274","0.0-6.0-1.0","3359938","co38104","norming","","","","","","",""
"8582.819999999629","","","post_mooney1_questions","survey-likert","8","199859","0.0-6.0-2.0","3359938","co38104","norming","","","{""curiosity"":5,""confidence"":0}","[0,1]","../img/tt/135tt.jpg","",""
"14341.384999999718","","","recognition","survey-text","9","214202","0.0-6.0-3.0","3359938","co38104","norming","","","{""guess"":""Handschoen""}","","../img/tt/135tt.jpg","",""
"null","../img/gs/135gs.jpg","null","reveal","image-keyboard-response","10","216210","0.0-6.0-4.0","3359938","co38104","norming","","","","","","",""
"null","../img/tt/135tt.jpg","null","mooney2","image-keyboard-response","11","218220","0.0-6.0-5.0","3359938","co38104","norming","","","","","","",""
"10531.28999999899","","","post_reveal_questions","survey-likert","12","228754","0.0-6.0-6.0","3359938","co38104","norming","","","{""aha"":0}","[0]","../img/tt/135tt.jpg","",""
"null","<div style=""font-size:60px;""> </div>","null","fixation","html-keyboard-response","13","228962","0.0-6.0-0.1","3359938","co38104","norming","","","","","","",""
"null","../img/tt/1279tt.jpg","null","mooney1","image-keyboard-response","14","231972","0.0-6.0-1.1","3359938","co38104","norming","","","","","","",""
"12627.604999997857","","","post_mooney1_questions","survey-likert","15","244611","0.0-6.0-2.1","3359938","co38104","norming","","","{""curiosity"":4,""confidence"":0}","[0,1]","../img/tt/1279tt.jpg","",""
"1821.9699999972363","","","recognition","survey-text","16","246434","0.0-6.0-3.1","3359938","co38104","norming","","","{""guess"":""""}","","../img/tt/1279tt.jpg","",""
"null","../img/gs/1279gs.jpg","null","reveal","image-keyboard-response","17","248436","0.0-6.0-4.1","3359938","co38104","norming","","","","","","",""
"null","../img/tt/1279tt.jpg","null","mooney2","image-keyboard-response","18","250448","0.0-6.0-5.1","3359938","co38104","norming","","","","","","",""
"2192.7900000009686","","","post_reveal_questions","survey-likert","19","252643","0.0-6.0-6.1","3359938","co38104","norming","","","{""aha"":0}","[0]","../img/tt/1279tt.jpg","",""
"null","<div style=""font-size:60px;""> </div>","null","fixation","html-keyboard-response","20","252852","0.0-6.0-0.2","3359938","co38104","norming","","","","","","",""
"null","../img/tt/1228tt.jpg","null","mooney1","image-keyboard-response","21","255858","0.0-6.0-1.2","3359938","co38104","norming","","","","","","",""
"6013.950000000477","","","post_mooney1_questions","survey-likert","22","261875","0.0-6.0-2.2","3359938","co38104","norming","","","{""curiosity"":5,""confidence"":2}","[0,1]","../img/tt/1228tt.jpg","",""
"3694.039999998524","","","recognition","survey-text","23","265570","0.0-6.0-3.2","3359938","co38104","norming","","","{""guess"":""Bird""}","","../img/tt/1228tt.jpg","",""
"null","../img/gs/1228gs.jpg","null","reveal","image-keyboard-response","24","267578","0.0-6.0-4.2","3359938","co38104","norming","","","","","","",""
"null","../img/tt/1228tt.jpg","null","mooney2","image-keyboard-response","25","269580","0.0-6.0-5.2","3359938","co38104","norming","","","","","","",""
"3340.6899999972666","","","post_reveal_questions","survey-likert","26","272923","0.0-6.0-6.2","3359938","co38104","norming","","","{""aha"":0}","[0]","../img/tt/1228tt.jpg","",""
"null","<div style=""font-size:60px;""> </div>","null","fixation","html-keyboard-response","27","273124","0.0-6.0-0.3","3359938","co38104","norming","","","","","","",""
"null","../img/tt/329tt.jpg","null","mooney1","image-keyboard-response","28","276130","0.0-6.0-1.3","3359938","co38104","norming","","","","","","",""
"10405.969999999797","","","post_mooney1_questions","survey-likert","29","286539","0.0-6.0-2.3","3359938","co38104","norming","","","{""curiosity"":5,""confidence"":0}","[0,1]","../img/tt/329tt.jpg","",""
"958.1699999980628","","","recognition","survey-text","30","287498","0.0-6.0-3.3","3359938","co38104","norming","","","{""guess"":""""}","","../img/tt/329tt.jpg","",""
"null","../img/gs/329gs.jpg","null","reveal","image-keyboard-response","31","289500","0.0-6.0-4.3","3359938","co38104","norming","","","","","","",""
"null","../img/tt/329tt.jpg","null","mooney2","image-keyboard-response","32","291506","0.0-6.0-5.3","3359938","co38104","norming","","","","","","",""
"5415.560000001278","","","post_reveal_questions","survey-likert","33","296922","0.0-6.0-6.3","3359938","co38104","norming","","","{""aha"":1}","[0]","../img/tt/329tt.jpg","",""
"null","<div style=""font-size:60px;""> </div>","null","fixation","html-keyboard-response","34","297130","0.0-6.0-0.4","3359938","co38104","norming","","","","","","",""
"null","../img/tt/096tt.jpg","null","mooney1","image-keyboard-response","35","300140","0.0-6.0-1.4","3359938","co38104","norming","","","","","","",""
"10868.404999997409","","","post_mooney1_questions","survey-likert","36","311011","0.0-6.0-2.4","3359938","co38104","norming","","","{""curiosity"":5,""confidence"":1}","[0,1]","../img/tt/096tt.jpg","",""
"7565.954999998212","","","recognition","survey-text","37","318579","0.0-6.0-3.4","3359938","co38104","norming","","","{""guess"":""Tuinwerkgerief ""}","","../img/tt/096tt.jpg","",""
"null","../img/gs/096gs.jpg","null","reveal","image-keyboard-response","38","320586","0.0-6.0-4.4","3359938","co38104","norming","","","","","","",""
"null","../img/tt/096tt.jpg","null","mooney2","image-keyboard-response","39","322598","0.0-6.0-5.4","3359938","co38104","norming","","","","","","",""
"3147.7599999998347","","","post_reveal_questions","survey-likert","40","325747","0.0-6.0-6.4","3359938","co38104","norming","","","{""aha"":0}","[0]","../img/tt/096tt.jpg","",""
"null","<div style=""font-size:60px;""> </div>","null","fixation","html-keyboard-response","41","325952","0.0-6.0-0.5","3359938","co38104","norming","","","","","","",""
"null","../img/tt/1012tt.jpg","null","mooney1","image-keyboard-response","42","328961","0.0-6.0-1.5","3359938","co38104","norming","","","","","","",""
"9639.050000001618","","","post_mooney1_questions","survey-likert","43","338603","0.0-6.0-2.5","3359938","co38104","norming","","","{""curiosity"":4,""confidence"":0}","[0,1]","../img/tt/1012tt.jpg","",""
"4662.024999997811","","","recognition","survey-text","44","343267","0.0-6.0-3.5","3359938","co38104","norming","","","{""guess"":""Neushoorn""}","","../img/tt/1012tt.jpg","",""
"null","../img/gs/1012gs.jpg","null","reveal","image-keyboard-response","45","345270","0.0-6.0-4.5","3359938","co38104","norming","","","","","","",""
"null","../img/tt/1012tt.jpg","null","mooney2","image-keyboard-response","46","347273","0.0-6.0-5.5","3359938","co38104","norming","","","","","","",""
"3423.6700000001583","","","post_reveal_questions","survey-likert","47","350699","0.0-6.0-6.5","3359938","co38104","norming","","","{""aha"":0}","[0]","../img/tt/1012tt.jpg","",""
"null","<div style=""font-size:60px;""> </div>","null","fixation","html-keyboard-response","48","350909","0.0-6.0-0.6","3359938","co38104","norming","","","","","","",""
"null","../img/tt/1123tt.jpg","null","mooney1","image-keyboard-response","49","353917","0.0-6.0-1.6","3359938","co38104","norming","","","","","","",""
"8403.884999999718","","","post_mooney1_questions","survey-likert","50","362323","0.0-6.0-2.6","3359938","co38104","norming","","","{""curiosity"":5,""confidence"":1}","[0,1]","../img/tt/1123tt.jpg","",""
"4254.104999999981","","","recognition","survey-text","51","366579","0.0-6.0-3.6","3359938","co38104","norming","","","{""guess"":""A woman""}","","../img/tt/1123tt.jpg","",""
"null","../img/gs/1123gs.jpg","null","reveal","image-keyboard-response","52","368585","0.0-6.0-4.6","3359938","co38104","norming","","","","","","",""
"null","../img/tt/1123tt.jpg","null","mooney2","image-keyboard-response","53","370596","0.0-6.0-5.6","3359938","co38104","norming","","","","","","",""
"3125.2700000004843","","","post_reveal_questions","survey-likert","54","373724","0.0-6.0-6.6","3359938","co38104","norming","","","{""aha"":0}","[0]","../img/tt/1123tt.jpg","",""
"null","<div style=""font-size:60px;""> </div>","null","fixation","html-keyboard-response","55","373925","0.0-6.0-0.7","3359938","co38104","norming","","","","","","",""
"null","../img/tt/1205tt.jpg","null","mooney1","image-keyboard-response","56","376930","0.0-6.0-1.7","3359938","co38104","norming","","","","","","",""
"6087.270000000019","","","post_mooney1_questions","survey-likert","57","383020","0.0-6.0-2.7","3359938","co38104","norming","","","{""curiosity"":4,""confidence"":0}","[0,1]","../img/tt/1205tt.jpg","",""
"1086.0199999987963","","","recognition","survey-text","58","384108","0.0-6.0-3.7","3359938","co38104","norming","","","{""guess"":""""}","","../img/tt/1205tt.jpg","",""
"null","../img/gs/1205gs.jpg","null","reveal","image-keyboard-response","59","386110","0.0-6.0-4.7","3359938","co38104","norming","","","","","","",""
"null","../img/tt/1205tt.jpg","null","mooney2","image-keyboard-response","60","388115","0.0-6.0-5.7","3359938","co38104","norming","","","","","","",""
"3351.2699999992037","","","post_reveal_questions","survey-likert","61","391468","0.0-6.0-6.7","3359938","co38104","norming","","","{""aha"":0}","[0]","../img/tt/1205tt.jpg","",""
"null","<div style=""font-size:60px;""> </div>","null","fixation","html-keyboard-response","62","391677","0.0-6.0-0.8","3359938","co38104","norming","","","","","","",""
"null","../img/tt/507tt.jpg","null","mooney1","image-keyboard-response","63","394682","0.0-6.0-1.8","3359938","co38104","norming","","","","","","",""
"5398.819999998552","","","post_mooney1_questions","survey-likert","64","400084","0.0-6.0-2.8","3359938","co38104","norming","","","{""curiosity"":5,""confidence"":0}","[0,1]","../img/tt/507tt.jpg","",""
"3349.849999998696","","","recognition","survey-text","65","403436","0.0-6.0-3.8","3359938","co38104","norming","","","{""guess"":""Dog""}","","../img/tt/507tt.jpg","",""
"null","../img/gs/507gs.jpg","null","reveal","image-keyboard-response","66","405446","0.0-6.0-4.8","3359938","co38104","norming","","","","","","",""
"null","../img/tt/507tt.jpg","null","mooney2","image-keyboard-response","67","407452","0.0-6.0-5.8","3359938","co38104","norming","","","","","","",""
"2278.0500000008033","","","post_reveal_questions","survey-likert","68","409732","0.0-6.0-6.8","3359938","co38104","norming","","","{""aha"":0}","[0]","../img/tt/507tt.jpg","",""
"null","<div style=""font-size:60px;""> </div>","null","fixation","html-keyboard-response","69","409941","0.0-6.0-0.9","3359938","co38104","norming","","","","","","",""
"null","../img/tt/1189tt.jpg","null","mooney1","image-keyboard-response","70","412953","0.0-6.0-1.9","3359938","co38104","norming","","","","","","",""
"10519.729999999981","","","post_mooney1_questions","survey-likert","71","423476","0.0-6.0-2.9","3359938","co38104","norming","","","{""curiosity"":4,""confidence"":0}","[0,1]","../img/tt/1189tt.jpg","",""
"1454.4050000004354","","","recognition","survey-text","72","424932","0.0-6.0-3.9","3359938","co38104","norming","","","{""guess"":""""}","","../img/tt/1189tt.jpg","",""
"null","../img/gs/1189gs.jpg","null","reveal","image-keyboard-response","73","426939","0.0-6.0-4.9","3359938","co38104","norming","","","","","","",""
"null","../img/tt/1189tt.jpg","null","mooney2","image-keyboard-response","74","428951","0.0-6.0-5.9","3359938","co38104","norming","","","","","","",""
"5859.645000000426","","","post_reveal_questions","survey-likert","75","434813","0.0-6.0-6.9","3359938","co38104","norming","","","{""aha"":0}","[0]","../img/tt/1189tt.jpg","",""
"null","<div style=""font-size:60px;""> </div>","null","fixation","html-keyboard-response","76","435014","0.0-6.0-0.10","3359938","co38104","norming","","","","","","",""
"null","../img/tt/1236tt.jpg","null","mooney1","image-keyboard-response","77","438017","0.0-6.0-1.10","3359938","co38104","norming","","","","","","",""
"8433.300000000629","","","post_mooney1_questions","survey-likert","78","446453","0.0-6.0-2.10","3359938","co38104","norming","","","{""curiosity"":5,""confidence"":0}","[0,1]","../img/tt/1236tt.jpg","",""
"3165.229999998701","","","recognition","survey-text","79","449621","0.0-6.0-3.10","3359938","co38104","norming","","","{""guess"":""Men""}","","../img/tt/1236tt.jpg","",""
"null","../img/gs/1236gs.jpg","null","reveal","image-keyboard-response","80","451631","0.0-6.0-4.10","3359938","co38104","norming","","","","","","",""
"null","../img/tt/1236tt.jpg","null","mooney2","image-keyboard-response","81","453632","0.0-6.0-5.10","3359938","co38104","norming","","","","","","",""
"3538.54499999946","","","post_reveal_questions","survey-likert","82","457173","0.0-6.0-6.10","3359938","co38104","norming","","","{""aha"":0}","[0]","../img/tt/1236tt.jpg","",""
"null","<div style=""font-size:60px;""> </div>","null","fixation","html-keyboard-response","83","457376","0.0-6.0-0.11","3359938","co38104","norming","","","","","","",""
"null","../img/tt/1190tt.jpg","null","mooney1","image-keyboard-response","84","460381","0.0-6.0-1.11","3359938","co38104","norming","","","","","","",""
"6125.560000000405","","","post_mooney1_questions","survey-likert","85","466509","0.0-6.0-2.11","3359938","co38104","norming","","","{""curiosity"":4,""confidence"":0}","[0,1]","../img/tt/1190tt.jpg","",""
"717.9450000003562","","","recognition","survey-text","86","467229","0.0-6.0-3.11","3359938","co38104","norming","","","{""guess"":""""}","","../img/tt/1190tt.jpg","",""
"null","../img/gs/1190gs.jpg","null","reveal","image-keyboard-response","87","469238","0.0-6.0-4.11","3359938","co38104","norming","","","","","","",""
"null","../img/tt/1190tt.jpg","null","mooney2","image-keyboard-response","88","471248","0.0-6.0-5.11","3359938","co38104","norming","","","","","","",""
"3220.2649999998976","","","post_reveal_questions","survey-likert","89","474469","0.0-6.0-6.11","3359938","co38104","norming","","","{""aha"":0}","[0]","../img/tt/1190tt.jpg","",""
"null","<div style=""font-size:60px;""> </div>","null","fixation","html-keyboard-response","90","474671","0.0-6.0-0.12","3359938","co38104","norming","","","","","","",""
"null","../img/tt/477tt.jpg","null","mooney1","image-keyboard-response","91","477681","0.0-6.0-1.12","3359938","co38104","norming","","","","","","",""
"6345.840000001772","","","post_mooney1_questions","survey-likert","92","484029","0.0-6.0-2.12","3359938","co38104","norming","","","{""curiosity"":4,""confidence"":0}","[0,1]","../img/tt/477tt.jpg","",""
"926.0199999989709","","","recognition","survey-text","93","484957","0.0-6.0-3.12","3359938","co38104","norming","","","{""guess"":""""}","","../img/tt/477tt.jpg","",""
"null","../img/gs/477gs.jpg","null","reveal","image-keyboard-response","94","486958","0.0-6.0-4.12","3359938","co38104","norming","","","","","","",""
"null","../img/tt/477tt.jpg","null","mooney2","image-keyboard-response","95","488963","0.0-6.0-5.12","3359938","co38104","norming","","","","","","",""
"5880.440000000875","","","post_reveal_questions","survey-likert","96","494846","0.0-6.0-6.12","3359938","co38104","norming","","","{""aha"":1}","[0]","../img/tt/477tt.jpg","",""
"null","<div style=""font-size:60px;""> </div>","null","fixation","html-keyboard-response","97","495054","0.0-6.0-0.13","3359938","co38104","norming","","","","","","",""
"null","../img/tt/1242tt.jpg","null","mooney1","image-keyboard-response","98","498062","0.0-6.0-1.13","3359938","co38104","norming","","","","","","",""
"6061.045000002137","","","post_mooney1_questions","survey-likert","99","504126","0.0-6.0-2.13","3359938","co38104","norming","","","{""curiosity"":5,""confidence"":0}","[0,1]","../img/tt/1242tt.jpg","",""
"581.8849999996019","","","recognition","survey-text","100","504710","0.0-6.0-3.13","3359938","co38104","norming","","","{""guess"":""""}","","../img/tt/1242tt.jpg","",""
"null","../img/gs/1242gs.jpg","null","reveal","image-keyboard-response","101","506719","0.0-6.0-4.13","3359938","co38104","norming","","","","","","",""
"null","../img/tt/1242tt.jpg","null","mooney2","image-keyboard-response","102","508725","0.0-6.0-5.13","3359938","co38104","norming","","","","","","",""
"2790.5099999989616","","","post_reveal_questions","survey-likert","103","511518","0.0-6.0-6.13","3359938","co38104","norming","","","{""aha"":1}","[0]","../img/tt/1242tt.jpg","",""
"null","<div style=""font-size:60px;""> </div>","null","fixation","html-keyboard-response","104","511721","0.0-6.0-0.14","3359938","co38104","norming","","","","","","",""
"null","../img/tt/184tt.jpg","null","mooney1","image-keyboard-response","105","514729","0.0-6.0-1.14","3359938","co38104","norming","","","","","","",""
"6586.6150000002235","","","post_mooney1_questions","survey-likert","106","521318","0.0-6.0-2.14","3359938","co38104","norming","","","{""curiosity"":4,""confidence"":0}","[0,1]","../img/tt/184tt.jpg","",""
"5013.909999997821","","","recognition","survey-text","107","526334","0.0-6.0-3.14","3359938","co38104","norming","","","{""guess"":""Beer""}","","../img/tt/184tt.jpg","",""
"null","../img/gs/184gs.jpg","null","reveal","image-keyboard-response","108","528337","0.0-6.0-4.14","3359938","co38104","norming","","","","","","",""
"null","../img/tt/184tt.jpg","null","mooney2","image-keyboard-response","109","530347","0.0-6.0-5.14","3359938","co38104","norming","","","","","","",""
"4120.2899999989895","","","post_reveal_questions","survey-likert","110","534470","0.0-6.0-6.14","3359938","co38104","norming","","","{""aha"":0}","[0]","../img/tt/184tt.jpg","",""
"null","<div style=""font-size:60px;""> </div>","null","fixation","html-keyboard-response","111","534671","0.0-6.0-0.15","3359938","co38104","norming","","","","","","",""
"null","../img/tt/1066tt.jpg","null","mooney1","image-keyboard-response","112","537678","0.0-6.0-1.15","3359938","co38104","norming","","","","","","",""
"7276.969999998924","","","post_mooney1_questions","survey-likert","113","544958","0.0-6.0-2.15","3359938","co38104","norming","","","{""curiosity"":5,""confidence"":4}","[0,1]","../img/tt/1066tt.jpg","",""
"3966.034999997588","","","recognition","survey-text","114","548926","0.0-6.0-3.15","3359938","co38104","norming","","","{""guess"":""Bus ""}","","../img/tt/1066tt.jpg","",""
"null","../img/gs/1066gs.jpg","null","reveal","image-keyboard-response","115","550936","0.0-6.0-4.15","3359938","co38104","norming","","","","","","",""
"null","../img/tt/1066tt.jpg","null","mooney2","image-keyboard-response","116","552939","0.0-6.0-5.15","3359938","co38104","norming","","","","","","",""
"6058.955000000424","","","post_reveal_questions","survey-likert","117","558999","0.0-6.0-6.15","3359938","co38104","norming","","","{""aha"":2}","[0]","../img/tt/1066tt.jpg","",""
"null","<div style=""font-size:60px;""> </div>","null","fixation","html-keyboard-response","118","559201","0.0-6.0-0.16","3359938","co38104","norming","","","","","","",""
"null","../img/tt/044tt.jpg","null","mooney1","image-keyboard-response","119","562204","0.0-6.0-1.16","3359938","co38104","norming","","","","","","",""
"5746.705000001355","","","post_mooney1_questions","survey-likert","120","567951","0.0-6.0-2.16","3359938","co38104","norming","","","{""curiosity"":5,""confidence"":3}","[0,1]","../img/tt/044tt.jpg","",""
"4741.799999999814","","","recognition","survey-text","121","572695","0.0-6.0-3.16","3359938","co38104","norming","","","{""guess"":""Traktor ""}","","../img/tt/044tt.jpg","",""
"null","../img/gs/044gs.jpg","null","reveal","image-keyboard-response","122","574696","0.0-6.0-4.16","3359938","co38104","norming","","","","","","",""
"null","../img/tt/044tt.jpg","null","mooney2","image-keyboard-response","123","576698","0.0-6.0-5.16","3359938","co38104","norming","","","","","","",""
"3842.880000000121","","","post_reveal_questions","survey-likert","124","580543","0.0-6.0-6.16","3359938","co38104","norming","","","{""aha"":0}","[0]","../img/tt/044tt.jpg","",""
"null","<div style=""font-size:60px;""> </div>","null","fixation","html-keyboard-response","125","580747","0.0-6.0-0.17","3359938","co38104","norming","","","","","","",""
"null","../img/tt/108tt.jpg","null","mooney1","image-keyboard-response","126","583751","0.0-6.0-1.17","3359938","co38104","norming","","","","","","",""
"6253.574999998906","","","post_mooney1_questions","survey-likert","127","590007","0.0-6.0-2.17","3359938","co38104","norming","","","{""curiosity"":4,""confidence"":0}","[0,1]","../img/tt/108tt.jpg","",""
"773.6950000035577","","","recognition","survey-text","128","590782","0.0-6.0-3.17","3359938","co38104","norming","","","{""guess"":""""}","","../img/tt/108tt.jpg","",""
"null","../img/gs/108gs.jpg","null","reveal","image-keyboard-response","129","592787","0.0-6.0-4.17","3359938","co38104","norming","","","","","","",""
"null","../img/tt/108tt.jpg","null","mooney2","image-keyboard-response","130","594797","0.0-6.0-5.17","3359938","co38104","norming","","","","","","",""
"4151.369999999646","","","post_reveal_questions","survey-likert","131","598951","0.0-6.0-6.17","3359938","co38104","norming","","","{""aha"":0}","[0]","../img/tt/108tt.jpg","",""
"null","<div style=""font-size:60px;""> </div>","null","fixation","html-keyboard-response","132","599154","0.0-6.0-0.18","3359938","co38104","norming","","","","","","",""
"null","../img/tt/1127tt.jpg","null","mooney1","image-keyboard-response","133","602157","0.0-6.0-1.18","3359938","co38104","norming","","","","","","",""
"6703.265000000014","","","post_mooney1_questions","survey-likert","134","608863","0.0-6.0-2.18","3359938","co38104","norming","","","{""curiosity"":6,""confidence"":2}","[0,1]","../img/tt/1127tt.jpg","",""
"10365.490000000107","","","recognition","survey-text","135","619224","0.0-6.0-3.18","3359938","co38104","norming","","","{""guess"":""2 fighting people ""}","","../img/tt/1127tt.jpg","",""
"null","../img/gs/1127gs.jpg","null","reveal","image-keyboard-response","136","621233","0.0-6.0-4.18","3359938","co38104","norming","","","","","","",""
"null","../img/tt/1127tt.jpg","null","mooney2","image-keyboard-response","137","623235","0.0-6.0-5.18","3359938","co38104","norming","","","","","","",""
"5148.00499999919","","","post_reveal_questions","survey-likert","138","628385","0.0-6.0-6.18","3359938","co38104","norming","","","{""aha"":5}","[0]","../img/tt/1127tt.jpg","",""
"null","<div style=""font-size:60px;""> </div>","null","fixation","html-keyboard-response","139","628586","0.0-6.0-0.19","3359938","co38104","norming","","","","","","",""
"null","../img/tt/552tt.jpg","null","mooney1","image-keyboard-response","140","631598","0.0-6.0-1.19","3359938","co38104","norming","","","","","","",""
"6016.344999999972","","","post_mooney1_questions","survey-likert","141","637617","0.0-6.0-2.19","3359938","co38104","norming","","","{""curiosity"":5,""confidence"":1}","[0,1]","../img/tt/552tt.jpg","",""
"2214.1799999990035","","","recognition","survey-text","142","639833","0.0-6.0-3.19","3359938","co38104","norming","","","{""guess"":""Dog ""}","","../img/tt/552tt.jpg","",""
"null","../img/gs/552gs.jpg","null","reveal","image-keyboard-response","143","641837","0.0-6.0-4.19","3359938","co38104","norming","","","","","","",""
"null","../img/tt/552tt.jpg","null","mooney2","image-keyboard-response","144","643839","0.0-6.0-5.19","3359938","co38104","norming","","","","","","",""
"2950.850000001141","","","post_reveal_questions","survey-likert","145","646793","0.0-6.0-6.19","3359938","co38104","norming","","","{""aha"":0}","[0]","../img/tt/552tt.jpg","",""
"null","<div style=""font-size:60px;""> </div>","null","fixation","html-keyboard-response","146","646995","0.0-6.0-0.20","3359938","co38104","norming","","","","","","",""
"null","../img/tt/442tt.jpg","null","mooney1","image-keyboard-response","147","650000","0.0-6.0-1.20","3359938","co38104","norming","","","","","","",""
"7789.7850000008475","","","post_mooney1_questions","survey-likert","148","657793","0.0-6.0-2.20","3359938","co38104","norming","","","{""curiosity"":4,""confidence"":0}","[0,1]","../img/tt/442tt.jpg","",""
"941.9750000016065","","","recognition","survey-text","149","658736","0.0-6.0-3.20","3359938","co38104","norming","","","{""guess"":""""}","","../img/tt/442tt.jpg","",""
"null","../img/gs/442gs.jpg","null","reveal","image-keyboard-response","150","660738","0.0-6.0-4.20","3359938","co38104","norming","","","","","","",""
"null","../img/tt/442tt.jpg","null","mooney2","image-keyboard-response","151","662739","0.0-6.0-5.20","3359938","co38104","norming","","","","","","",""
"3563.3100000013364","","","post_reveal_questions","survey-likert","152","666305","0.0-6.0-6.20","3359938","co38104","norming","","","{""aha"":0}","[0]","../img/tt/442tt.jpg","",""
"null","<div style=""font-size:60px;""> </div>","null","fixation","html-keyboard-response","153","666506","0.0-6.0-0.21","3359938","co38104","norming","","","","","","",""
"null","../img/tt/121tt.jpg","null","mooney1","image-keyboard-response","154","669510","0.0-6.0-1.21","3359938","co38104","norming","","","","","","",""
"7856.354999999865","","","post_mooney1_questions","survey-likert","155","677377","0.0-6.0-2.21","3359938","co38104","norming","","","{""curiosity"":3,""confidence"":0}","[0,1]","../img/tt/121tt.jpg","",""
"549.8299999999581","","","recognition","survey-text","156","677928","0.0-6.0-3.21","3359938","co38104","norming","","","{""guess"":""""}","","../img/tt/121tt.jpg","",""
"null","../img/gs/121gs.jpg","null","reveal","image-keyboard-response","157","679938","0.0-6.0-4.21","3359938","co38104","norming","","","","","","",""
"null","../img/tt/121tt.jpg","null","mooney2","image-keyboard-response","158","681939","0.0-6.0-5.21","3359938","co38104","norming","","","","","","",""
"3346.649999999441","","","post_reveal_questions","survey-likert","159","685288","0.0-6.0-6.21","3359938","co38104","norming","","","{""aha"":0}","[0]","../img/tt/121tt.jpg","",""
"null","<div style=""font-size:60px;""> </div>","null","fixation","html-keyboard-response","160","685490","0.0-6.0-0.22","3359938","co38104","norming","","","","","","",""
"null","../img/tt/412tt.jpg","null","mooney1","image-keyboard-response","161","688494","0.0-6.0-1.22","3359938","co38104","norming","","","","","","",""
"6287.840000000899","","","post_mooney1_questions","survey-likert","162","694785","0.0-6.0-2.22","3359938","co38104","norming","","","{""curiosity"":4,""confidence"":0}","[0,1]","../img/tt/412tt.jpg","",""
"1894.0750000001863","","","recognition","survey-text","163","696680","0.0-6.0-3.22","3359938","co38104","norming","","","{""guess"":""""}","","../img/tt/412tt.jpg","",""
"null","../img/gs/412gs.jpg","null","reveal","image-keyboard-response","164","698682","0.0-6.0-4.22","3359938","co38104","norming","","","","","","",""
"null","../img/tt/412tt.jpg","null","mooney2","image-keyboard-response","165","700693","0.0-6.0-5.22","3359938","co38104","norming","","","","","","",""
"3417.1249999998836","","","post_reveal_questions","survey-likert","166","704112","0.0-6.0-6.22","3359938","co38104","norming","","","{""aha"":0}","[0]","../img/tt/412tt.jpg","",""
"null","<div style=""font-size:60px;""> </div>","null","fixation","html-keyboard-response","167","704314","0.0-6.0-0.23","3359938","co38104","norming","","","","","","",""
"null","../img/tt/076tt.jpg","null","mooney1","image-keyboard-response","168","707317","0.0-6.0-1.23","3359938","co38104","norming","","","","","","",""
"5304.439999999944","","","post_mooney1_questions","survey-likert","169","712625","0.0-6.0-2.23","3359938","co38104","norming","","","{""curiosity"":5,""confidence"":1}","[0,1]","../img/tt/076tt.jpg","",""
"6662.05500000075","","","recognition","survey-text","170","719288","0.0-6.0-3.23","3359938","co38104","norming","","","{""guess"":""schoen""}","","../img/tt/076tt.jpg","",""
"null","../img/gs/076gs.jpg","null","reveal","image-keyboard-response","171","721293","0.0-6.0-4.23","3359938","co38104","norming","","","","","","",""
"null","../img/tt/076tt.jpg","null","mooney2","image-keyboard-response","172","723303","0.0-6.0-5.23","3359938","co38104","norming","","","","","","",""
"3630.4349999991246","","","post_reveal_questions","survey-likert","173","726936","0.0-6.0-6.23","3359938","co38104","norming","","","{""aha"":6}","[0]","../img/tt/076tt.jpg","",""
"null","<div style=""font-size:60px;""> </div>","null","fixation","html-keyboard-response","174","727142","0.0-6.0-0.24","3359938","co38104","norming","","","","","","",""
"null","../img/tt/1006tt.jpg","null","mooney1","image-keyboard-response","175","730145","0.0-6.0-1.24","3359938","co38104","norming","","","","","","",""
"4957.115000001038","","","post_mooney1_questions","survey-likert","176","735103","0.0-6.0-2.24","3359938","co38104","norming","","","{""curiosity"":4,""confidence"":0}","[0,1]","../img/tt/1006tt.jpg","",""
"846.0899999990361","","","recognition","survey-text","177","735950","0.0-6.0-3.24","3359938","co38104","norming","","","{""guess"":""""}","","../img/tt/1006tt.jpg","",""
"null","../img/gs/1006gs.jpg","null","reveal","image-keyboard-response","178","737961","0.0-6.0-4.24","3359938","co38104","norming","","","","","","",""
"null","../img/tt/1006tt.jpg","null","mooney2","image-keyboard-response","179","739969","0.0-6.0-5.24","3359938","co38104","norming","","","","","","",""
"4195.359999998007","","","post_reveal_questions","survey-likert","180","744166","0.0-6.0-6.24","3359938","co38104","norming","","","{""aha"":2}","[0]","../img/tt/1006tt.jpg","",""
"null","<div style=""font-size:60px;""> </div>","null","fixation","html-keyboard-response","181","744368","0.0-6.0-0.25","3359938","co38104","norming","","","","","","",""
"null","../img/tt/306tt.jpg","null","mooney1","image-keyboard-response","182","747372","0.0-6.0-1.25","3359938","co38104","norming","","","","","","",""
"5071.285000001779","","","post_mooney1_questions","survey-likert","183","752446","0.0-6.0-2.25","3359938","co38104","norming","","","{""curiosity"":4,""confidence"":0}","[0,1]","../img/tt/306tt.jpg","",""
"670.4449999998324","","","recognition","survey-text","184","753118","0.0-6.0-3.25","3359938","co38104","norming","","","{""guess"":""""}","","../img/tt/306tt.jpg","",""
"null","../img/gs/306gs.jpg","null","reveal","image-keyboard-response","185","755126","0.0-6.0-4.25","3359938","co38104","norming","","","","","","",""
"null","../img/tt/306tt.jpg","null","mooney2","image-keyboard-response","186","757136","0.0-6.0-5.25","3359938","co38104","norming","","","","","","",""
"4869.445000000298","","","post_reveal_questions","survey-likert","187","762006","0.0-6.0-6.25","3359938","co38104","norming","","","{""aha"":0}","[0]","../img/tt/306tt.jpg","",""
"null","<div style=""font-size:60px;""> </div>","null","fixation","html-keyboard-response","188","762217","0.0-6.0-0.26","3359938","co38104","norming","","","","","","",""
"null","../img/tt/098tt.jpg","null","mooney1","image-keyboard-response","189","765222","0.0-6.0-1.26","3359938","co38104","norming","","","","","","",""
"4119.249999999767","","","post_mooney1_questions","survey-likert","190","769343","0.0-6.0-2.26","3359938","co38104","norming","","","{""curiosity"":4,""confidence"":0}","[0,1]","../img/tt/098tt.jpg","",""
"766.1950000000652","","","recognition","survey-text","191","770110","0.0-6.0-3.26","3359938","co38104","norming","","","{""guess"":""""}","","../img/tt/098tt.jpg","",""
"null","../img/gs/098gs.jpg","null","reveal","image-keyboard-response","192","772111","0.0-6.0-4.26","3359938","co38104","norming","","","","","","",""
"null","../img/tt/098tt.jpg","null","mooney2","image-keyboard-response","193","774115","0.0-6.0-5.26","3359938","co38104","norming","","","","","","",""
"2848.949999999604","","","post_reveal_questions","survey-likert","194","776967","0.0-6.0-6.26","3359938","co38104","norming","","","{""aha"":0}","[0]","../img/tt/098tt.jpg","",""
"null","<div style=""font-size:60px;""> </div>","null","fixation","html-keyboard-response","195","777171","0.0-6.0-0.27","3359938","co38104","norming","","","","","","",""
"null","../img/tt/1122tt.jpg","null","mooney1","image-keyboard-response","196","780177","0.0-6.0-1.27","3359938","co38104","norming","","","","","","",""
"7410.804999999469","","","post_mooney1_questions","survey-likert","197","787591","0.0-6.0-2.27","3359938","co38104","norming","","","{""curiosity"":6,""confidence"":1}","[0,1]","../img/tt/1122tt.jpg","",""
"6030.155000000494","","","recognition","survey-text","198","793616","0.0-6.0-3.27","3359938","co38104","norming","","","{""guess"":""Boot op water ""}","","../img/tt/1122tt.jpg","",""
"null","../img/gs/1122gs.jpg","null","reveal","image-keyboard-response","199","795618","0.0-6.0-4.27","3359938","co38104","norming","","","","","","",""
"null","../img/tt/1122tt.jpg","null","mooney2","image-keyboard-response","200","797623","0.0-6.0-5.27","3359938","co38104","norming","","","","","","",""
"5446.415000002249","","","post_reveal_questions","survey-likert","201","803072","0.0-6.0-6.27","3359938","co38104","norming","","","{""aha"":6}","[0]","../img/tt/1122tt.jpg","",""
"null","<div style=""font-size:60px;""> </div>","null","fixation","html-keyboard-response","202","803277","0.0-6.0-0.28","3359938","co38104","norming","","","","","","",""
"null","../img/tt/416tt.jpg","null","mooney1","image-keyboard-response","203","806287","0.0-6.0-1.28","3359938","co38104","norming","","","","","","",""
"8094.02499999851","","","post_mooney1_questions","survey-likert","204","814384","0.0-6.0-2.28","3359938","co38104","norming","","","{""curiosity"":6,""confidence"":2}","[0,1]","../img/tt/416tt.jpg","",""
"5541.874999998952","","","recognition","survey-text","205","819928","0.0-6.0-3.28","3359938","co38104","norming","","","{""guess"":""Dakloze""}","","../img/tt/416tt.jpg","",""
"null","../img/gs/416gs.jpg","null","reveal","image-keyboard-response","206","821934","0.0-6.0-4.28","3359938","co38104","norming","","","","","","",""
"null","../img/tt/416tt.jpg","null","mooney2","image-keyboard-response","207","823937","0.0-6.0-5.28","3359938","co38104","norming","","","","","","",""
"3109.4349999985425","","","post_reveal_questions","survey-likert","208","827048","0.0-6.0-6.28","3359938","co38104","norming","","","{""aha"":0}","[0]","../img/tt/416tt.jpg","",""
"null","<div style=""font-size:60px;""> </div>","null","fixation","html-keyboard-response","209","827255","0.0-6.0-0.29","3359938","co38104","norming","","","","","","",""
"null","../img/tt/1171tt.jpg","null","mooney1","image-keyboard-response","210","830258","0.0-6.0-1.29","3359938","co38104","norming","","","","","","",""
"6931.239999998128","","","post_mooney1_questions","survey-likert","211","837192","0.0-6.0-2.29","3359938","co38104","norming","","","{""curiosity"":4,""confidence"":1}","[0,1]","../img/tt/1171tt.jpg","",""
"3374.3050000012154","","","recognition","survey-text","212","840568","0.0-6.0-3.29","3359938","co38104","norming","","","{""guess"":""Sklet ""}","","../img/tt/1171tt.jpg","",""
"null","../img/gs/1171gs.jpg","null","reveal","image-keyboard-response","213","842574","0.0-6.0-4.29","3359938","co38104","norming","","","","","","",""
"null","../img/tt/1171tt.jpg","null","mooney2","image-keyboard-response","214","844585","0.0-6.0-5.29","3359938","co38104","norming","","","","","","",""
"3940.890000001644","","","post_reveal_questions","survey-likert","215","848528","0.0-6.0-6.29","3359938","co38104","norming","","","{""aha"":1}","[0]","../img/tt/1171tt.jpg","",""
"null","<div style=""font-size:60px;""> </div>","null","fixation","html-keyboard-response","216","848731","0.0-6.0-0.30","3359938","co38104","norming","","","","","","",""
"null","../img/tt/1181tt.jpg","null","mooney1","image-keyboard-response","217","851738","0.0-6.0-1.30","3359938","co38104","norming","","","","","","",""
"5749.289999999688","","","post_mooney1_questions","survey-likert","218","857492","0.0-6.0-2.30","3359938","co38104","norming","","","{""curiosity"":5,""confidence"":2}","[0,1]","../img/tt/1181tt.jpg","",""
"8662.02500000142","","","recognition","survey-text","219","866156","0.0-6.0-3.30","3359938","co38104","norming","","","{""guess"":""2 mannen ""}","","../img/tt/1181tt.jpg","",""
"null","../img/gs/1181gs.jpg","null","reveal","image-keyboard-response","220","868161","0.0-6.0-4.30","3359938","co38104","norming","","","","","","",""
"null","../img/tt/1181tt.jpg","null","mooney2","image-keyboard-response","221","870169","0.0-6.0-5.30","3359938","co38104","norming","","","","","","",""
"3945.82000000088","","","post_reveal_questions","survey-likert","222","874115","0.0-6.0-6.30","3359938","co38104","norming","","","{""aha"":5}","[0]","../img/tt/1181tt.jpg","",""
"null","<div style=""font-size:60px;""> </div>","null","fixation","html-keyboard-response","223","874326","0.0-6.0-0.31","3359938","co38104","norming","","","","","","",""
"null","../img/tt/189tt.jpg","null","mooney1","image-keyboard-response","224","877328","0.0-6.0-1.31","3359938","co38104","norming","","","","","","",""
"5418.194999998435","","","post_mooney1_questions","survey-likert","225","882747","0.0-6.0-2.31","3359938","co38104","norming","","","{""curiosity"":5,""confidence"":2}","[0,1]","../img/tt/189tt.jpg","",""
"10005.690000001807","","","recognition","survey-text","226","892755","0.0-6.0-3.31","3359938","co38104","norming","","","{""guess"":""Persoon op bureaustoel ""}","","../img/tt/189tt.jpg","",""
"null","../img/gs/189gs.jpg","null","reveal","image-keyboard-response","227","894757","0.0-6.0-4.31","3359938","co38104","norming","","","","","","",""
"null","../img/tt/189tt.jpg","null","mooney2","image-keyboard-response","228","896762","0.0-6.0-5.31","3359938","co38104","norming","","","","","","",""
"3608.2949999981793","","","post_reveal_questions","survey-likert","229","900372","0.0-6.0-6.31","3359938","co38104","norming","","","{""aha"":5}","[0]","../img/tt/189tt.jpg","",""
"null","<div style=""font-size:60px;""> </div>","null","fixation","html-keyboard-response","230","900579","0.0-6.0-0.32","3359938","co38104","norming","","","","","","",""
"null","../img/tt/091tt.jpg","null","mooney1","image-keyboard-response","231","903588","0.0-6.0-1.32","3359938","co38104","norming","","","","","","",""
"3030.5699999990175","","","post_mooney1_questions","survey-likert","232","906620","0.0-6.0-2.32","3359938","co38104","norming","","","{""curiosity"":5,""confidence"":2}","[0,1]","../img/tt/091tt.jpg","",""
"3596.4899999998743","","","recognition","survey-text","233","910220","0.0-6.0-3.32","3359938","co38104","norming","","","{""guess"":""Balet ""}","","../img/tt/091tt.jpg","",""
"null","../img/gs/091gs.jpg","null","reveal","image-keyboard-response","234","912226","0.0-6.0-4.32","3359938","co38104","norming","","","","","","",""
"null","../img/tt/091tt.jpg","null","mooney2","image-keyboard-response","235","914234","0.0-6.0-5.32","3359938","co38104","norming","","","","","","",""
"2333.454999999958","","","post_reveal_questions","survey-likert","236","916570","0.0-6.0-6.32","3359938","co38104","norming","","","{""aha"":0}","[0]","../img/tt/091tt.jpg","",""
"null","<div style=""font-size:60px;""> </div>","null","fixation","html-keyboard-response","237","916772","0.0-6.0-0.33","3359938","co38104","norming","","","","","","",""
"null","../img/tt/1097tt.jpg","null","mooney1","image-keyboard-response","238","919781","0.0-6.0-1.33","3359938","co38104","norming","","","","","","",""
"8145.764999997569","","","post_mooney1_questions","survey-likert","239","927930","0.0-6.0-2.33","3359938","co38104","norming","","","{""curiosity"":6,""confidence"":5}","[0,1]","../img/tt/1097tt.jpg","",""
"16317.960000000312","","","recognition","survey-text","240","944250","0.0-6.0-3.33","3359938","co38104","norming","","","{""guess"":""Persoon aan het peddelen op plank ""}","","../img/tt/1097tt.jpg","",""
"null","../img/gs/1097gs.jpg","null","reveal","image-keyboard-response","241","946257","0.0-6.0-4.33","3359938","co38104","norming","","","","","","",""
"null","../img/tt/1097tt.jpg","null","mooney2","image-keyboard-response","242","948268","0.0-6.0-5.33","3359938","co38104","norming","","","","","","",""
"3746.630000001518","","","post_reveal_questions","survey-likert","243","952018","0.0-6.0-6.33","3359938","co38104","norming","","","{""aha"":6}","[0]","../img/tt/1097tt.jpg","",""
"null","<div style=""font-size:60px;""> </div>","null","fixation","html-keyboard-response","244","952220","0.0-6.0-0.34","3359938","co38104","norming","","","","","","",""
"null","../img/tt/559tt.jpg","null","mooney1","image-keyboard-response","245","955231","0.0-6.0-1.34","3359938","co38104","norming","","","","","","",""
"4457.909999997355","","","post_mooney1_questions","survey-likert","246","959690","0.0-6.0-2.34","3359938","co38104","norming","","","{""curiosity"":6,""confidence"":2}","[0,1]","../img/tt/559tt.jpg","",""
"11862.059999999474","","","recognition","survey-text","247","971554","0.0-6.0-3.34","3359938","co38104","norming","","","{""guess"":""computer in zijaanzicht ""}","","../img/tt/559tt.jpg","",""
"null","../img/gs/559gs.jpg","null","reveal","image-keyboard-response","248","973556","0.0-6.0-4.34","3359938","co38104","norming","","","","","","",""
"null","../img/tt/559tt.jpg","null","mooney2","image-keyboard-response","249","975558","0.0-6.0-5.34","3359938","co38104","norming","","","","","","",""
"3313.5750000001863","","","post_reveal_questions","survey-likert","250","978874","0.0-6.0-6.34","3359938","co38104","norming","","","{""aha"":0}","[0]","../img/tt/559tt.jpg","",""
"null","<div style=""font-size:60px;""> </div>","null","fixation","html-keyboard-response","251","979075","0.0-6.0-0.35","3359938","co38104","norming","","","","","","",""
"null","../img/tt/1027tt.jpg","null","mooney1","image-keyboard-response","252","982079","0.0-6.0-1.35","3359938","co38104","norming","","","","","","",""
"6272.000000000931","","","post_mooney1_questions","survey-likert","253","988354","0.0-6.0-2.35","3359938","co38104","norming","","","{""curiosity"":5,""confidence"":1}","[0,1]","../img/tt/1027tt.jpg","",""
"3646.129999997327","","","recognition","survey-text","254","992002","0.0-6.0-3.35","3359938","co38104","norming","","","{""guess"":""Lama ""}","","../img/tt/1027tt.jpg","",""
"null","../img/gs/1027gs.jpg","null","reveal","image-keyboard-response","255","994004","0.0-6.0-4.35","3359938","co38104","norming","","","","","","",""
"null","../img/tt/1027tt.jpg","null","mooney2","image-keyboard-response","256","996005","0.0-6.0-5.35","3359938","co38104","norming","","","","","","",""
"3930.1200000009267","","","post_reveal_questions","survey-likert","257","999938","0.0-6.0-6.35","3359938","co38104","norming","","","{""aha"":5}","[0]","../img/tt/1027tt.jpg","",""
"null","<div style=""font-size:60px;""> </div>","null","fixation","html-keyboard-response","258","1000142","0.0-6.0-0.36","3359938","co38104","norming","","","","","","",""
"null","../img/tt/296tt.jpg","null","mooney1","image-keyboard-response","259","1003146","0.0-6.0-1.36","3359938","co38104","norming","","","","","","",""
"8903.010000001872","","","post_mooney1_questions","survey-likert","260","1012050","0.0-6.0-2.36","3359938","co38104","norming","","","{""curiosity"":5,""confidence"":1}","[0,1]","../img/tt/296tt.jpg","",""
"10942.040000001783","","","recognition","survey-text","261","1022994","0.0-6.0-3.36","3359938","co38104","norming","","","{""guess"":""geruite vloer met doodskist ""}","","../img/tt/296tt.jpg","",""
"null","../img/gs/296gs.jpg","null","reveal","image-keyboard-response","262","1024995","0.0-6.0-4.36","3359938","co38104","norming","","","","","","",""
"null","../img/tt/296tt.jpg","null","mooney2","image-keyboard-response","263","1026998","0.0-6.0-5.36","3359938","co38104","norming","","","","","","",""
"4394.755000001169","","","post_reveal_questions","survey-likert","264","1031394","0.0-6.0-6.36","3359938","co38104","norming","","","{""aha"":5}","[0]","../img/tt/296tt.jpg","",""
"null","<div style=""font-size:60px;""> </div>","null","fixation","html-keyboard-response","265","1031595","0.0-6.0-0.37","3359938","co38104","norming","","","","","","",""
"null","../img/tt/1217tt.jpg","null","mooney1","image-keyboard-response","266","1034607","0.0-6.0-1.37","3359938","co38104","norming","","","","","","",""
"3663.830000001355","","","post_mooney1_questions","survey-likert","267","1038274","0.0-6.0-2.37","3359938","co38104","norming","","","{""curiosity"":6,""confidence"":5}","[0,1]","../img/tt/1217tt.jpg","",""
"8886.060000000638","","","recognition","survey-text","268","1047162","0.0-6.0-3.37","3359938","co38104","norming","","","{""guess"":""Basketbal spelers ""}","","../img/tt/1217tt.jpg","",""
"null","../img/gs/1217gs.jpg","null","reveal","image-keyboard-response","269","1049167","0.0-6.0-4.37","3359938","co38104","norming","","","","","","",""
"null","../img/tt/1217tt.jpg","null","mooney2","image-keyboard-response","270","1051171","0.0-6.0-5.37","3359938","co38104","norming","","","","","","",""
"4374.240000001155","","","post_reveal_questions","survey-likert","271","1055546","0.0-6.0-6.37","3359938","co38104","norming","","","{""aha"":5}","[0]","../img/tt/1217tt.jpg","",""
"null","<div style=""font-size:60px;""> </div>","null","fixation","html-keyboard-response","272","1055751","0.0-6.0-0.38","3359938","co38104","norming","","","","","","",""
"null","../img/tt/079tt.jpg","null","mooney1","image-keyboard-response","273","1058757","0.0-6.0-1.38","3359938","co38104","norming","","","","","","",""
"5050.279999999562","","","post_mooney1_questions","survey-likert","274","1063810","0.0-6.0-2.38","3359938","co38104","norming","","","{""curiosity"":5,""confidence"":0}","[0,1]","../img/tt/079tt.jpg","",""
"653.875","","","recognition","survey-text","275","1064466","0.0-6.0-3.38","3359938","co38104","norming","","","{""guess"":""""}","","../img/tt/079tt.jpg","",""
"null","../img/gs/079gs.jpg","null","reveal","image-keyboard-response","276","1066471","0.0-6.0-4.38","3359938","co38104","norming","","","","","","",""
"null","../img/tt/079tt.jpg","null","mooney2","image-keyboard-response","277","1068473","0.0-6.0-5.38","3359938","co38104","norming","","","","","","",""
"3230.1050000025425","","","post_reveal_questions","survey-likert","278","1071706","0.0-6.0-6.38","3359938","co38104","norming","","","{""aha"":1}","[0]","../img/tt/079tt.jpg","",""
"null","<div style=""font-size:60px;""> </div>","null","fixation","html-keyboard-response","279","1071908","0.0-6.0-0.39","3359938","co38104","norming","","","","","","",""
"null","../img/tt/1040tt.jpg","null","mooney1","image-keyboard-response","280","1074917","0.0-6.0-1.39","3359938","co38104","norming","","","","","","",""
"4425.995000001276","","","post_mooney1_questions","survey-likert","281","1079346","0.0-6.0-2.39","3359938","co38104","norming","","","{""curiosity"":5,""confidence"":0}","[0,1]","../img/tt/1040tt.jpg","",""
"749.5049999998882","","","recognition","survey-text","282","1080097","0.0-6.0-3.39","3359938","co38104","norming","","","{""guess"":""""}","","../img/tt/1040tt.jpg","",""
"null","../img/gs/1040gs.jpg","null","reveal","image-keyboard-response","283","1082105","0.0-6.0-4.39","3359938","co38104","norming","","","","","","",""
"null","../img/tt/1040tt.jpg","null","mooney2","image-keyboard-response","284","1084107","0.0-6.0-5.39","3359938","co38104","norming","","","","","","",""
"2724.3650000018533","","","post_reveal_questions","survey-likert","285","1086834","0.0-6.0-6.39","3359938","co38104","norming","","","{""aha"":1}","[0]","../img/tt/1040tt.jpg","",""
"null","<div style=""font-size:60px;""> </div>","null","fixation","html-keyboard-response","286","1087044","0.0-6.0-0.40","3359938","co38104","norming","","","","","","",""
"null","../img/tt/052tt.jpg","null","mooney1","image-keyboard-response","287","1090054","0.0-6.0-1.40","3359938","co38104","norming","","","","","","",""
"5242.474999999162","","","post_mooney1_questions","survey-likert","288","1095298","0.0-6.0-2.40","3359938","co38104","norming","","","{""curiosity"":6,""confidence"":2}","[0,1]","../img/tt/052tt.jpg","",""
"4286","","","recognition","survey-text","289","1099577","0.0-6.0-3.40","3359938","co38104","norming","","","{""guess"":""Trommel ""}","","../img/tt/052tt.jpg","",""
"null","../img/gs/052gs.jpg","null","reveal","image-keyboard-response","290","1101579","0.0-6.0-4.40","3359938","co38104","norming","","","","","","",""
"null","../img/tt/052tt.jpg","null","mooney2","image-keyboard-response","291","1103581","0.0-6.0-5.40","3359938","co38104","norming","","","","","","",""
"3201.1199999980163","","","post_reveal_questions","survey-likert","292","1106785","0.0-6.0-6.40","3359938","co38104","norming","","","{""aha"":6}","[0]","../img/tt/052tt.jpg","",""
"null","<div style=""font-size:60px;""> </div>","null","fixation","html-keyboard-response","293","1106991","0.0-6.0-0.41","3359938","co38104","norming","","","","","","",""
"null","../img/tt/112tt.jpg","null","mooney1","image-keyboard-response","294","1109998","0.0-6.0-1.41","3359938","co38104","norming","","","","","","",""
"14752.680000001332","","","post_mooney1_questions","survey-likert","295","1124753","0.0-6.0-2.41","3359938","co38104","norming","","","{""curiosity"":5,""confidence"":1}","[0,1]","../img/tt/112tt.jpg","",""
"5013.93999999715","","","recognition","survey-text","296","1129769","0.0-6.0-3.41","3359938","co38104","norming","","","{""guess"":""Metaaldetector ""}","","../img/tt/112tt.jpg","",""
"null","../img/gs/112gs.jpg","null","reveal","image-keyboard-response","297","1131773","0.0-6.0-4.41","3359938","co38104","norming","","","","","","",""
"null","../img/tt/112tt.jpg","null","mooney2","image-keyboard-response","298","1133784","0.0-6.0-5.41","3359938","co38104","norming","","","","","","",""
"3430.0299999995623","","","post_reveal_questions","survey-likert","299","1137217","0.0-6.0-6.41","3359938","co38104","norming","","","{""aha"":6}","[0]","../img/tt/112tt.jpg","",""
"null","<div style=""font-size:60px;""> </div>","null","fixation","html-keyboard-response","300","1137418","0.0-6.0-0.42","3359938","co38104","norming","","","","","","",""
"null","../img/tt/1070tt.jpg","null","mooney1","image-keyboard-response","301","1140424","0.0-6.0-1.42","3359938","co38104","norming","","","","","","",""
"5133.419999998296","","","post_mooney1_questions","survey-likert","302","1145561","0.0-6.0-2.42","3359938","co38104","norming","","","{""curiosity"":6,""confidence"":2}","[0,1]","../img/tt/1070tt.jpg","",""
"9198.129999997094","","","recognition","survey-text","303","1154761","0.0-6.0-3.42","3359938","co38104","norming","","","{""guess"":""Broodje kebab""}","","../img/tt/1070tt.jpg","",""
"null","../img/gs/1070gs.jpg","null","reveal","image-keyboard-response","304","1156772","0.0-6.0-4.42","3359938","co38104","norming","","","","","","",""
"null","../img/tt/1070tt.jpg","null","mooney2","image-keyboard-response","305","1158779","0.0-6.0-5.42","3359938","co38104","norming","","","","","","",""
"3817.8100000005215","","","post_reveal_questions","survey-likert","306","1162603","0.0-6.0-6.42","3359938","co38104","norming","","","{""aha"":5}","[0]","../img/tt/1070tt.jpg","",""
"null","<div style=""font-size:60px;""> </div>","null","fixation","html-keyboard-response","307","1162806","0.0-6.0-0.43","3359938","co38104","norming","","","","","","",""
"null","../img/tt/1260tt.jpg","null","mooney1","image-keyboard-response","308","1165810","0.0-6.0-1.43","3359938","co38104","norming","","","","","","",""
"4141.540000000503","","","post_mooney1_questions","survey-likert","309","1169955","0.0-6.0-2.43","3359938","co38104","norming","","","{""curiosity"":6,""confidence"":1}","[0,1]","../img/tt/1260tt.jpg","",""
"5373.989999999991","","","recognition","survey-text","310","1175330","0.0-6.0-3.43","3359938","co38104","norming","","","{""guess"":""Zaklamp ""}","","../img/tt/1260tt.jpg","",""
"null","../img/gs/1260gs.jpg","null","reveal","image-keyboard-response","311","1177338","0.0-6.0-4.43","3359938","co38104","norming","","","","","","",""
"null","../img/tt/1260tt.jpg","null","mooney2","image-keyboard-response","312","1179339","0.0-6.0-5.43","3359938","co38104","norming","","","","","","",""
"2717.075000000419","","","post_reveal_questions","survey-likert","313","1182058","0.0-6.0-6.43","3359938","co38104","norming","","","{""aha"":0}","[0]","../img/tt/1260tt.jpg","",""
"null","<div style=""font-size:60px;""> </div>","null","fixation","html-keyboard-response","314","1182266","0.0-6.0-0.44","3359938","co38104","norming","","","","","","",""
"null","../img/tt/1126tt.jpg","null","mooney1","image-keyboard-response","315","1185274","0.0-6.0-1.44","3359938","co38104","norming","","","","","","",""
"3870.95500000217","","","post_mooney1_questions","survey-likert","316","1189146","0.0-6.0-2.44","3359938","co38104","norming","","","{""curiosity"":6,""confidence"":4}","[0,1]","../img/tt/1126tt.jpg","",""
"8510.20500000217","","","recognition","survey-text","317","1197658","0.0-6.0-3.44","3359938","co38104","norming","","","{""guess"":""Bergbeklimmer ""}","","../img/tt/1126tt.jpg","",""
"null","../img/gs/1126gs.jpg","null","reveal","image-keyboard-response","318","1199659","0.0-6.0-4.44","3359938","co38104","norming","","","","","","",""
"null","../img/tt/1126tt.jpg","null","mooney2","image-keyboard-response","319","1201668","0.0-6.0-5.44","3359938","co38104","norming","","","","","","",""
"3586.3449999997392","","","post_reveal_questions","survey-likert","320","1205258","0.0-6.0-6.44","3359938","co38104","norming","","","{""aha"":5}","[0]","../img/tt/1126tt.jpg","",""
"null","<div style=""font-size:60px;""> </div>","null","fixation","html-keyboard-response","321","1205467","0.0-6.0-0.45","3359938","co38104","norming","","","","","","",""
"null","../img/tt/064tt.jpg","null","mooney1","image-keyboard-response","322","1208479","0.0-6.0-1.45","3359938","co38104","norming","","","","","","",""
"5312.915000002366","","","post_mooney1_questions","survey-likert","323","1213795","0.0-6.0-2.45","3359938","co38104","norming","","","{""curiosity"":6,""confidence"":3}","[0,1]","../img/tt/064tt.jpg","",""
"19758.14000000176","","","recognition","survey-text","324","1233546","0.0-6.0-3.45","3359938","co38104","norming","","","{""guess"":""schildpad met lange nek op steen ""}","","../img/tt/064tt.jpg","",""
"null","../img/gs/064gs.jpg","null","reveal","image-keyboard-response","325","1235548","0.0-6.0-4.45","3359938","co38104","norming","","","","","","",""
"null","../img/tt/064tt.jpg","null","mooney2","image-keyboard-response","326","1237556","0.0-6.0-5.45","3359938","co38104","norming","","","","","","",""
"3563.054999998538","","","post_reveal_questions","survey-likert","327","1241122","0.0-6.0-6.45","3359938","co38104","norming","","","{""aha"":5}","[0]","../img/tt/064tt.jpg","",""
"null","<div style=""font-size:60px;""> </div>","null","fixation","html-keyboard-response","328","1241324","0.0-6.0-0.46","3359938","co38104","norming","","","","","","",""
"null","../img/tt/1255tt.jpg","null","mooney1","image-keyboard-response","329","1244328","0.0-6.0-1.46","3359938","co38104","norming","","","","","","",""
"3694.8899999989662","","","post_mooney1_questions","survey-likert","330","1248026","0.0-6.0-2.46","3359938","co38104","norming","","","{""curiosity"":6,""confidence"":0}","[0,1]","../img/tt/1255tt.jpg","",""
"5806.1699999999255","","","recognition","survey-text","331","1253834","0.0-6.0-3.46","3359938","co38104","norming","","","{""guess"":""stuisvogel ""}","","../img/tt/1255tt.jpg","",""
"null","../img/gs/1255gs.jpg","null","reveal","image-keyboard-response","332","1255835","0.0-6.0-4.46","3359938","co38104","norming","","","","","","",""
"null","../img/tt/1255tt.jpg","null","mooney2","image-keyboard-response","333","1257841","0.0-6.0-5.46","3359938","co38104","norming","","","","","","",""
"3557.939999999013","","","post_reveal_questions","survey-likert","334","1261402","0.0-6.0-6.46","3359938","co38104","norming","","","{""aha"":1}","[0]","../img/tt/1255tt.jpg","",""
"null","<div style=""font-size:60px;""> </div>","null","fixation","html-keyboard-response","335","1261604","0.0-6.0-0.47","3359938","co38104","norming","","","","","","",""
"null","../img/tt/1161tt.jpg","null","mooney1","image-keyboard-response","336","1264611","0.0-6.0-1.47","3359938","co38104","norming","","","","","","",""
"3819.8049999992363","","","post_mooney1_questions","survey-likert","337","1268434","0.0-6.0-2.47","3359938","co38104","norming","","","{""curiosity"":6,""confidence"":4}","[0,1]","../img/tt/1161tt.jpg","",""
"14309.769999999786","","","recognition","survey-text","338","1282754","0.0-6.0-3.47","3359938","co38104","norming","","","{""guess"":""Bergbeklimmer vanuit bovenzicht ""}","","../img/tt/1161tt.jpg","",""
"null","../img/gs/1161gs.jpg","null","reveal","image-keyboard-response","339","1284758","0.0-6.0-4.47","3359938","co38104","norming","","","","","","",""
"null","../img/tt/1161tt.jpg","null","mooney2","image-keyboard-response","340","1286761","0.0-6.0-5.47","3359938","co38104","norming","","","","","","",""
"4886.85500000068","","","post_reveal_questions","survey-likert","341","1291650","0.0-6.0-6.47","3359938","co38104","norming","","","{""aha"":6}","[0]","../img/tt/1161tt.jpg","",""
"null","<div style=""font-size:60px;""> </div>","null","fixation","html-keyboard-response","342","1291855","0.0-6.0-0.48","3359938","co38104","norming","","","","","","",""
"null","../img/tt/1125tt.jpg","null","mooney1","image-keyboard-response","343","1294860","0.0-6.0-1.48","3359938","co38104","norming","","","","","","",""
"5202.834999999963","","","post_mooney1_questions","survey-likert","344","1300067","0.0-6.0-2.48","3359938","co38104","norming","","","{""curiosity"":6,""confidence"":0}","[0,1]","../img/tt/1125tt.jpg","",""
"6813.945000001695","","","recognition","survey-text","345","1306882","0.0-6.0-3.48","3359938","co38104","norming","","","{""guess"":""Manneke pis ""}","","../img/tt/1125tt.jpg","",""
"null","../img/gs/1125gs.jpg","null","reveal","image-keyboard-response","346","1308891","0.0-6.0-4.48","3359938","co38104","norming","","","","","","",""
"null","../img/tt/1125tt.jpg","null","mooney2","image-keyboard-response","347","1310901","0.0-6.0-5.48","3359938","co38104","norming","","","","","","",""
"3618.4849999989383","","","post_reveal_questions","survey-likert","348","1314522","0.0-6.0-6.48","3359938","co38104","norming","","","{""aha"":1}","[0]","../img/tt/1125tt.jpg","",""
"null","<div style=""font-size:60px;""> </div>","null","fixation","html-keyboard-response","349","1314727","0.0-6.0-0.49","3359938","co38104","norming","","","","","","",""
"null","../img/tt/1130tt.jpg","null","mooney1","image-keyboard-response","350","1317732","0.0-6.0-1.49","3359938","co38104","norming","","","","","","",""
"6387.070000000764","","","post_mooney1_questions","survey-likert","351","1324123","0.0-6.0-2.49","3359938","co38104","norming","","","{""curiosity"":6,""confidence"":3}","[0,1]","../img/tt/1130tt.jpg","",""
"14469.999999997439","","","recognition","survey-text","352","1338595","0.0-6.0-3.49","3359938","co38104","norming","","","{""guess"":""schijdsrechter die arm naar voor uitsteekt ""}","","../img/tt/1130tt.jpg","",""
"null","../img/gs/1130gs.jpg","null","reveal","image-keyboard-response","353","1340605","0.0-6.0-4.49","3359938","co38104","norming","","","","","","",""
"null","../img/tt/1130tt.jpg","null","mooney2","image-keyboard-response","354","1342608","0.0-6.0-5.49","3359938","co38104","norming","","","","","","",""
"2536.2050000003073","","","post_reveal_questions","survey-likert","355","1345147","0.0-6.0-6.49","3359938","co38104","norming","","","{""aha"":5}","[0]","../img/tt/1130tt.jpg","",""
"null","<div style=""font-size:60px;""> </div>","null","fixation","html-keyboard-response","356","1345348","0.0-6.0-0.50","3359938","co38104","norming","","","","","","",""
"null","../img/tt/1061tt.jpg","null","mooney1","image-keyboard-response","357","1348352","0.0-6.0-1.50","3359938","co38104","norming","","","","","","",""
"4689.659999999916","","","post_mooney1_questions","survey-likert","358","1353043","0.0-6.0-2.50","3359938","co38104","norming","","","{""curiosity"":5,""confidence"":1}","[0,1]","../img/tt/1061tt.jpg","",""
"13518.109999997308","","","recognition","survey-text","359","1366563","0.0-6.0-3.50","3359938","co38104","norming","","","{""guess"":""man op land met opblaasboot ""}","","../img/tt/1061tt.jpg","",""
"null","../img/gs/1061gs.jpg","null","reveal","image-keyboard-response","360","1368567","0.0-6.0-4.50","3359938","co38104","norming","","","","","","",""
"null","../img/tt/1061tt.jpg","null","mooney2","image-keyboard-response","361","1370578","0.0-6.0-5.50","3359938","co38104","norming","","","","","","",""
"5821.629999998491","","","post_reveal_questions","survey-likert","362","1376403","0.0-6.0-6.50","3359938","co38104","norming","","","{""aha"":1}","[0]","../img/tt/1061tt.jpg","",""
"null","<div style=""font-size:60px;""> </div>","null","fixation","html-keyboard-response","363","1376604","0.0-6.0-0.51","3359938","co38104","norming","","","","","","",""
"null","../img/tt/1033tt.jpg","null","mooney1","image-keyboard-response","364","1379613","0.0-6.0-1.51","3359938","co38104","norming","","","","","","",""
"12322.800000001676","","","post_mooney1_questions","survey-likert","365","1391939","0.0-6.0-2.51","3359938","co38104","norming","","","{""curiosity"":6,""confidence"":3}","[0,1]","../img/tt/1033tt.jpg","",""
"4429.915000000736","","","recognition","survey-text","366","1396371","0.0-6.0-3.51","3359938","co38104","norming","","","{""guess"":""honkballers""}","","../img/tt/1033tt.jpg","",""
"null","../img/gs/1033gs.jpg","null","reveal","image-keyboard-response","367","1398373","0.0-6.0-4.51","3359938","co38104","norming","","","","","","",""
"null","../img/tt/1033tt.jpg","null","mooney2","image-keyboard-response","368","1400376","0.0-6.0-5.51","3359938","co38104","norming","","","","","","",""
"3303.9550000031013","","","post_reveal_questions","survey-likert","369","1403683","0.0-6.0-6.51","3359938","co38104","norming","","","{""aha"":5}","[0]","../img/tt/1033tt.jpg","",""
"null","<div style=""font-size:60px;""> </div>","null","fixation","html-keyboard-response","370","1403884","0.0-6.0-0.52","3359938","co38104","norming","","","","","","",""
"null","../img/tt/315tt.jpg","null","mooney1","image-keyboard-response","371","1406891","0.0-6.0-1.52","3359938","co38104","norming","","","","","","",""
"5291.525000000605","","","post_mooney1_questions","survey-likert","372","1412186","0.0-6.0-2.52","3359938","co38104","norming","","","{""curiosity"":6,""confidence"":0}","[0,1]","../img/tt/315tt.jpg","",""
"997.9150000000373","","","recognition","survey-text","373","1413186","0.0-6.0-3.52","3359938","co38104","norming","","","{""guess"":""""}","","../img/tt/315tt.jpg","",""
"null","../img/gs/315gs.jpg","null","reveal","image-keyboard-response","374","1415187","0.0-6.0-4.52","3359938","co38104","norming","","","","","","",""
"null","../img/tt/315tt.jpg","null","mooney2","image-keyboard-response","375","1417189","0.0-6.0-5.52","3359938","co38104","norming","","","","","","",""
"6068.914999999804","","","post_reveal_questions","survey-likert","376","1423259","0.0-6.0-6.52","3359938","co38104","norming","","","{""aha"":5}","[0]","../img/tt/315tt.jpg","",""
"null","<div style=""font-size:60px;""> </div>","null","fixation","html-keyboard-response","377","1423461","0.0-6.0-0.53","3359938","co38104","norming","","","","","","",""
"null","../img/tt/1211tt.jpg","null","mooney1","image-keyboard-response","378","1426470","0.0-6.0-1.53","3359938","co38104","norming","","","","","","",""
"3465","","","post_mooney1_questions","survey-likert","379","1429939","0.0-6.0-2.53","3359938","co38104","norming","","","{""curiosity"":6,""confidence"":0}","[0,1]","../img/tt/1211tt.jpg","",""
"729.9149999998044","","","recognition","survey-text","380","1430675","0.0-6.0-3.53","3359938","co38104","norming","","","{""guess"":""""}","","../img/tt/1211tt.jpg","",""
"null","../img/gs/1211gs.jpg","null","reveal","image-keyboard-response","381","1432677","0.0-6.0-4.53","3359938","co38104","norming","","","","","","",""
"null","../img/tt/1211tt.jpg","null","mooney2","image-keyboard-response","382","1434682","0.0-6.0-5.53","3359938","co38104","norming","","","","","","",""
"5078.545000000391","","","post_reveal_questions","survey-likert","383","1439763","0.0-6.0-6.53","3359938","co38104","norming","","","{""aha"":5}","[0]","../img/tt/1211tt.jpg","",""
"null","<div style=""font-size:60px;""> </div>","null","fixation","html-keyboard-response","384","1439964","0.0-6.0-0.54","3359938","co38104","norming","","","","","","",""
"null","../img/tt/300tt.jpg","null","mooney1","image-keyboard-response","385","1442975","0.0-6.0-1.54","3359938","co38104","norming","","","","","","",""
"8032.029999998398","","","post_mooney1_questions","survey-likert","386","1451011","0.0-6.0-2.54","3359938","co38104","norming","","","{""curiosity"":6,""confidence"":1}","[0,1]","../img/tt/300tt.jpg","",""
"5725.829999999376","","","recognition","survey-text","387","1456738","0.0-6.0-3.54","3359938","co38104","norming","","","{""guess"":""Indiaan ""}","","../img/tt/300tt.jpg","",""
"null","../img/gs/300gs.jpg","null","reveal","image-keyboard-response","388","1458740","0.0-6.0-4.54","3359938","co38104","norming","","","","","","",""
"null","../img/tt/300tt.jpg","null","mooney2","image-keyboard-response","389","1460748","0.0-6.0-5.54","3359938","co38104","norming","","","","","","",""
"3301.240000000689","","","post_reveal_questions","survey-likert","390","1464051","0.0-6.0-6.54","3359938","co38104","norming","","","{""aha"":2}","[0]","../img/tt/300tt.jpg","",""
"null","<div style=""font-size:60px;""> </div>","null","fixation","html-keyboard-response","391","1464252","0.0-6.0-0.55","3359938","co38104","norming","","","","","","",""
"null","../img/tt/094tt.jpg","null","mooney1","image-keyboard-response","392","1467255","0.0-6.0-1.55","3359938","co38104","norming","","","","","","",""
"4170.710000002058","","","post_mooney1_questions","survey-likert","393","1471427","0.0-6.0-2.55","3359938","co38104","norming","","","{""curiosity"":6,""confidence"":2}","[0,1]","../img/tt/094tt.jpg","",""
"6230.024999997113","","","recognition","survey-text","394","1477659","0.0-6.0-3.55","3359938","co38104","norming","","","{""guess"":""Koe die scheel kijkt ""}","","../img/tt/094tt.jpg","",""
"null","../img/gs/094gs.jpg","null","reveal","image-keyboard-response","395","1479660","0.0-6.0-4.55","3359938","co38104","norming","","","","","","",""
"null","../img/tt/094tt.jpg","null","mooney2","image-keyboard-response","396","1481662","0.0-6.0-5.55","3359938","co38104","norming","","","","","","",""
"4890.070000001229","","","post_reveal_questions","survey-likert","397","1486555","0.0-6.0-6.55","3359938","co38104","norming","","","{""aha"":1}","[0]","../img/tt/094tt.jpg","",""
"null","<div style=""font-size:60px;""> </div>","null","fixation","html-keyboard-response","398","1486756","0.0-6.0-0.56","3359938","co38104","norming","","","","","","",""
"null","../img/tt/1089tt.jpg","null","mooney1","image-keyboard-response","399","1489762","0.0-6.0-1.56","3359938","co38104","norming","","","","","","",""
"6781.264999997802","","","post_mooney1_questions","survey-likert","400","1496547","0.0-6.0-2.56","3359938","co38104","norming","","","{""curiosity"":5,""confidence"":0}","[0,1]","../img/tt/1089tt.jpg","",""
"2406.230000000447","","","recognition","survey-text","401","1498955","0.0-6.0-3.56","3359938","co38104","norming","","","{""guess"":""Bed""}","","../img/tt/1089tt.jpg","",""
"null","../img/gs/1089gs.jpg","null","reveal","image-keyboard-response","402","1500958","0.0-6.0-4.56","3359938","co38104","norming","","","","","","",""
"null","../img/tt/1089tt.jpg","null","mooney2","image-keyboard-response","403","1502961","0.0-6.0-5.56","3359938","co38104","norming","","","","","","",""
"4480.765000000363","","","post_reveal_questions","survey-likert","404","1507443","0.0-6.0-6.56","3359938","co38104","norming","","","{""aha"":4}","[0]","../img/tt/1089tt.jpg","",""
"null","<div style=""font-size:60px;""> </div>","null","fixation","html-keyboard-response","405","1507644","0.0-6.0-0.57","3359938","co38104","norming","","","","","","",""
"null","../img/tt/319tt.jpg","null","mooney1","image-keyboard-response","406","1510647","0.0-6.0-1.57","3359938","co38104","norming","","","","","","",""
"5896.485000001034","","","post_mooney1_questions","survey-likert","407","1516547","0.0-6.0-2.57","3359938","co38104","norming","","","{""curiosity"":6,""confidence"":1}","[0,1]","../img/tt/319tt.jpg","",""
"6837.924999999814","","","recognition","survey-text","408","1523387","0.0-6.0-3.57","3359938","co38104","norming","","","{""guess"":""Koe die scheel kijkt ""}","","../img/tt/319tt.jpg","",""
"null","../img/gs/319gs.jpg","null","reveal","image-keyboard-response","409","1525391","0.0-6.0-4.57","3359938","co38104","norming","","","","","","",""
"null","../img/tt/319tt.jpg","null","mooney2","image-keyboard-response","410","1527393","0.0-6.0-5.57","3359938","co38104","norming","","","","","","",""
"3095.285000003176","","","post_reveal_questions","survey-likert","411","1530491","0.0-6.0-6.57","3359938","co38104","norming","","","{""aha"":5}","[0]","../img/tt/319tt.jpg","",""
"null","<div style=""font-size:60px;""> </div>","null","fixation","html-keyboard-response","412","1530692","0.0-6.0-0.58","3359938","co38104","norming","","","","","","",""
"null","../img/tt/380tt.jpg","null","mooney1","image-keyboard-response","413","1533696","0.0-6.0-1.58","3359938","co38104","norming","","","","","","",""
"10433.40999999782","","","post_mooney1_questions","survey-likert","414","1544131","0.0-6.0-2.58","3359938","co38104","norming","","","{""curiosity"":6,""confidence"":4}","[0,1]","../img/tt/380tt.jpg","",""
"8269.889999999665","","","recognition","survey-text","415","1552403","0.0-6.0-3.58","3359938","co38104","norming","","","{""guess"":""Galago ""}","","../img/tt/380tt.jpg","",""
"null","../img/gs/380gs.jpg","null","reveal","image-keyboard-response","416","1554404","0.0-6.0-4.58","3359938","co38104","norming","","","","","","",""
"null","../img/tt/380tt.jpg","null","mooney2","image-keyboard-response","417","1556412","0.0-6.0-5.58","3359938","co38104","norming","","","","","","",""
"2803.824999999255","","","post_reveal_questions","survey-likert","418","1559219","0.0-6.0-6.58","3359938","co38104","norming","","","{""aha"":0}","[0]","../img/tt/380tt.jpg","",""
"null","<div style=""font-size:60px;""> </div>","null","fixation","html-keyboard-response","419","1559421","0.0-6.0-0.59","3359938","co38104","norming","","","","","","",""
"null","../img/tt/126tt.jpg","null","mooney1","image-keyboard-response","420","1562431","0.0-6.0-1.59","3359938","co38104","norming","","","","","","",""
"4000.8949999972247","","","post_mooney1_questions","survey-likert","421","1566435","0.0-6.0-2.59","3359938","co38104","norming","","","{""curiosity"":6,""confidence"":0}","[0,1]","../img/tt/126tt.jpg","",""
"966.1500000003725","","","recognition","survey-text","422","1567403","0.0-6.0-3.59","3359938","co38104","norming","","","{""guess"":""""}","","../img/tt/126tt.jpg","",""
"null","../img/gs/126gs.jpg","null","reveal","image-keyboard-response","423","1569404","0.0-6.0-4.59","3359938","co38104","norming","","","","","","",""
"null","../img/tt/126tt.jpg","null","mooney2","image-keyboard-response","424","1571407","0.0-6.0-5.59","3359938","co38104","norming","","","","","","",""
"4456.2150000019465","","","post_reveal_questions","survey-likert","425","1575867","0.0-6.0-6.59","3359938","co38104","norming","","","{""aha"":2}","[0]","../img/tt/126tt.jpg","",""
"null","<div style=""font-size:60px;""> </div>","null","fixation","html-keyboard-response","426","1576068","0.0-6.0-0.60","3359938","co38104","norming","","","","","","",""
"null","../img/tt/1044tt.jpg","null","mooney1","image-keyboard-response","427","1579070","0.0-6.0-1.60","3359938","co38104","norming","","","","","","",""
"4596.020000000717","","","post_mooney1_questions","survey-likert","428","1583667","0.0-6.0-2.60","3359938","co38104","norming","","","{""curiosity"":6,""confidence"":0}","[0,1]","../img/tt/1044tt.jpg","",""
"645.8349999992643","","","recognition","survey-text","429","1584315","0.0-6.0-3.60","3359938","co38104","norming","","","{""guess"":""""}","","../img/tt/1044tt.jpg","",""
"null","../img/gs/1044gs.jpg","null","reveal","image-keyboard-response","430","1586318","0.0-6.0-4.60","3359938","co38104","norming","","","","","","",""
"null","../img/tt/1044tt.jpg","null","mooney2","image-keyboard-response","431","1588323","0.0-6.0-5.60","3359938","co38104","norming","","","","","","",""
"2236.8350000032224","","","post_reveal_questions","survey-likert","432","1590563","0.0-6.0-6.60","3359938","co38104","norming","","","{""aha"":0}","[0]","../img/tt/1044tt.jpg","",""
"null","<div style=""font-size:60px;""> </div>","null","fixation","html-keyboard-response","433","1590773","0.0-6.0-0.61","3359938","co38104","norming","","","","","","",""
"null","../img/tt/1196tt.jpg","null","mooney1","image-keyboard-response","434","1593781","0.0-6.0-1.61","3359938","co38104","norming","","","","","","",""
"5938.8650000002235","","","post_mooney1_questions","survey-likert","435","1599723","0.0-6.0-2.61","3359938","co38104","norming","","","{""curiosity"":5,""confidence"":0}","[0,1]","../img/tt/1196tt.jpg","",""
"10517.74499999755","","","recognition","survey-text","436","1610242","0.0-6.0-3.61","3359938","co38104","norming","","","{""guess"":""Persoon die zak leeg kapt""}","","../img/tt/1196tt.jpg","",""
"null","../img/gs/1196gs.jpg","null","reveal","image-keyboard-response","437","1612244","0.0-6.0-4.61","3359938","co38104","norming","","","","","","",""
"null","../img/tt/1196tt.jpg","null","mooney2","image-keyboard-response","438","1614249","0.0-6.0-5.61","3359938","co38104","norming","","","","","","",""
"3616.1849999988917","","","post_reveal_questions","survey-likert","439","1617867","0.0-6.0-6.61","3359938","co38104","norming","","","{""aha"":0}","[0]","../img/tt/1196tt.jpg","",""
"null","<div style=""font-size:60px;""> </div>","null","fixation","html-keyboard-response","440","1618070","0.0-6.0-0.62","3359938","co38104","norming","","","","","","",""
"null","../img/tt/1363tt.jpg","null","mooney1","image-keyboard-response","441","1621077","0.0-6.0-1.62","3359938","co38104","norming","","","","","","",""
"5763.125000001164","","","post_mooney1_questions","survey-likert","442","1626843","0.0-6.0-2.62","3359938","co38104","norming","","","{""curiosity"":4,""confidence"":0}","[0,1]","../img/tt/1363tt.jpg","",""
"541.8749999990687","","","recognition","survey-text","443","1627387","0.0-6.0-3.62","3359938","co38104","norming","","","{""guess"":""""}","","../img/tt/1363tt.jpg","",""
"null","../img/gs/1363gs.jpg","null","reveal","image-keyboard-response","444","1629392","0.0-6.0-4.62","3359938","co38104","norming","","","","","","",""
"null","../img/tt/1363tt.jpg","null","mooney2","image-keyboard-response","445","1631395","0.0-6.0-5.62","3359938","co38104","norming","","","","","","",""
"2861.789999999106","","","post_reveal_questions","survey-likert","446","1634259","0.0-6.0-6.62","3359938","co38104","norming","","","{""aha"":5}","[0]","../img/tt/1363tt.jpg","",""
"null","<div style=""font-size:60px;""> </div>","null","fixation","html-keyboard-response","447","1634470","0.0-6.0-0.63","3359938","co38104","norming","","","","","","",""
"null","../img/tt/1366tt.jpg","null","mooney1","image-keyboard-response","448","1637475","0.0-6.0-1.63","3359938","co38104","norming","","","","","","",""
"4916.284999999218","","","post_mooney1_questions","survey-likert","449","1642395","0.0-6.0-2.63","3359938","co38104","norming","","","{""curiosity"":6,""confidence"":1}","[0,1]","../img/tt/1366tt.jpg","",""
"6886.019999998156","","","recognition","survey-text","450","1649283","0.0-6.0-3.63","3359938","co38104","norming","","","{""guess"":""Durum ""}","","../img/tt/1366tt.jpg","",""
"null","../img/gs/1366gs.jpg","null","reveal","image-keyboard-response","451","1651289","0.0-6.0-4.63","3359938","co38104","norming","","","","","","",""
"null","../img/tt/1366tt.jpg","null","mooney2","image-keyboard-response","452","1653290","0.0-6.0-5.63","3359938","co38104","norming","","","","","","",""
"4015.344999999972","","","post_reveal_questions","survey-likert","453","1657307","0.0-6.0-6.63","3359938","co38104","norming","","","{""aha"":5}","[0]","../img/tt/1366tt.jpg","",""
"null","<div style=""font-size:60px;""> </div>","null","fixation","html-keyboard-response","454","1657514","0.0-6.0-0.64","3359938","co38104","norming","","","","","","",""
"null","../img/tt/522tt.jpg","null","mooney1","image-keyboard-response","455","1660518","0.0-6.0-1.64","3359938","co38104","norming","","","","","","",""
"8840.749999999534","","","post_mooney1_questions","survey-likert","456","1669363","0.0-6.0-2.64","3359938","co38104","norming","","","{""curiosity"":4,""confidence"":0}","[0,1]","../img/tt/522tt.jpg","",""
"1277.8749999997672","","","recognition","survey-text","457","1670642","0.0-6.0-3.64","3359938","co38104","norming","","","{""guess"":""""}","","../img/tt/522tt.jpg","",""
"null","../img/gs/522gs.jpg","null","reveal","image-keyboard-response","458","1672643","0.0-6.0-4.64","3359938","co38104","norming","","","","","","",""
"null","../img/tt/522tt.jpg","null","mooney2","image-keyboard-response","459","1674648","0.0-6.0-5.64","3359938","co38104","norming","","","","","","",""
"4825.365000000456","","","post_reveal_questions","survey-likert","460","1679475","0.0-6.0-6.64","3359938","co38104","norming","","","{""aha"":4}","[0]","../img/tt/522tt.jpg","",""
"null","<div style=""font-size:60px;""> </div>","null","fixation","html-keyboard-response","461","1679685","0.0-6.0-0.65","3359938","co38104","norming","","","","","","",""
"null","../img/tt/1290tt.jpg","null","mooney1","image-keyboard-response","462","1682691","0.0-6.0-1.65","3359938","co38104","norming","","","","","","",""
"4094.6150000018533","","","post_mooney1_questions","survey-likert","463","1686787","0.0-6.0-2.65","3359938","co38104","norming","","","{""curiosity"":5,""confidence"":3}","[0,1]","../img/tt/1290tt.jpg","",""
"2622.080000001006","","","recognition","survey-text","464","1689411","0.0-6.0-3.65","3359938","co38104","norming","","","{""guess"":""Skilift ""}","","../img/tt/1290tt.jpg","",""
"null","../img/gs/1290gs.jpg","null","reveal","image-keyboard-response","465","1691413","0.0-6.0-4.65","3359938","co38104","norming","","","","","","",""
"null","../img/tt/1290tt.jpg","null","mooney2","image-keyboard-response","466","1693415","0.0-6.0-5.65","3359938","co38104","norming","","","","","","",""
"2248.5699999998324","","","post_reveal_questions","survey-likert","467","1695667","0.0-6.0-6.65","3359938","co38104","norming","","","{""aha"":5}","[0]","../img/tt/1290tt.jpg","",""
"null","<div style=""font-size:60px;""> </div>","null","fixation","html-keyboard-response","468","1695868","0.0-6.0-0.66","3359938","co38104","norming","","","","","","",""
"null","../img/tt/1247tt.jpg","null","mooney1","image-keyboard-response","469","1698875","0.0-6.0-1.66","3359938","co38104","norming","","","","","","",""
"4813.329999997048","","","post_mooney1_questions","survey-likert","470","1703689","0.0-6.0-2.66","3359938","co38104","norming","","","{""curiosity"":5,""confidence"":4}","[0,1]","../img/tt/1247tt.jpg","",""
"2926.200000001816","","","recognition","survey-text","471","1706617","0.0-6.0-3.66","3359938","co38104","norming","","","{""guess"":""Kat ""}","","../img/tt/1247tt.jpg","",""
"null","../img/gs/1247gs.jpg","null","reveal","image-keyboard-response","472","1708621","0.0-6.0-4.66","3359938","co38104","norming","","","","","","",""
"null","../img/tt/1247tt.jpg","null","mooney2","image-keyboard-response","473","1710624","0.0-6.0-5.66","3359938","co38104","norming","","","","","","",""
"2806.089999998454","","","post_reveal_questions","survey-likert","474","1713433","0.0-6.0-6.66","3359938","co38104","norming","","","{""aha"":0}","[0]","../img/tt/1247tt.jpg","",""
"null","<div style=""font-size:60px;""> </div>","null","fixation","html-keyboard-response","475","1713636","0.0-6.0-0.67","3359938","co38104","norming","","","","","","",""
"null","../img/tt/222tt.jpg","null","mooney1","image-keyboard-response","476","1716644","0.0-6.0-1.67","3359938","co38104","norming","","","","","","",""
"7633.60499999905","","","post_mooney1_questions","survey-likert","477","1724282","0.0-6.0-2.67","3359938","co38104","norming","","","{""curiosity"":4,""confidence"":1}","[0,1]","../img/tt/222tt.jpg","",""
"9157.86999999918","","","recognition","survey-text","478","1733441","0.0-6.0-3.67","3359938","co38104","norming","","","{""guess"":""theekan""}","","../img/tt/222tt.jpg","",""
"null","../img/gs/222gs.jpg","null","reveal","image-keyboard-response","479","1735449","0.0-6.0-4.67","3359938","co38104","norming","","","","","","",""
"null","../img/tt/222tt.jpg","null","mooney2","image-keyboard-response","480","1737453","0.0-6.0-5.67","3359938","co38104","norming","","","","","","",""
"4784.995000001974","","","post_reveal_questions","survey-likert","481","1742241","0.0-6.0-6.67","3359938","co38104","norming","","","{""aha"":5}","[0]","../img/tt/222tt.jpg","",""
"null","<div style=""font-size:60px;""> </div>","null","fixation","html-keyboard-response","482","1742451","0.0-6.0-0.68","3359938","co38104","norming","","","","","","",""
"null","../img/tt/063tt.jpg","null","mooney1","image-keyboard-response","483","1745461","0.0-6.0-1.68","3359938","co38104","norming","","","","","","",""
"7464.684999999125","","","post_mooney1_questions","survey-likert","484","1752930","0.0-6.0-2.68","3359938","co38104","norming","","","{""curiosity"":4,""confidence"":1}","[0,1]","../img/tt/063tt.jpg","",""
"7518.094999999506","","","recognition","survey-text","485","1760442","0.0-6.0-3.68","3359938","co38104","norming","","","{""guess"":""Pen die in boek schrijft ""}","","../img/tt/063tt.jpg","",""
"null","../img/gs/063gs.jpg","null","reveal","image-keyboard-response","486","1762447","0.0-6.0-4.68","3359938","co38104","norming","","","","","","",""
"null","../img/tt/063tt.jpg","null","mooney2","image-keyboard-response","487","1764450","0.0-6.0-5.68","3359938","co38104","norming","","","","","","",""
"4053.4950000001118","","","post_reveal_questions","survey-likert","488","1768506","0.0-6.0-6.68","3359938","co38104","norming","","","{""aha"":1}","[0]","../img/tt/063tt.jpg","",""
"null","<div style=""font-size:60px;""> </div>","null","fixation","html-keyboard-response","489","1768708","0.0-6.0-0.69","3359938","co38104","norming","","","","","","",""
"null","../img/tt/1200tt.jpg","null","mooney1","image-keyboard-response","490","1771712","0.0-6.0-1.69","3359938","co38104","norming","","","","","","",""
"4062.429999998072","","","post_mooney1_questions","survey-likert","491","1775778","0.0-6.0-2.69","3359938","co38104","norming","","","{""curiosity"":4,""confidence"":0}","[0,1]","../img/tt/1200tt.jpg","",""
"813.9100000006147","","","recognition","survey-text","492","1776594","0.0-6.0-3.69","3359938","co38104","norming","","","{""guess"":""""}","","../img/tt/1200tt.jpg","",""
"null","../img/gs/1200gs.jpg","null","reveal","image-keyboard-response","493","1778596","0.0-6.0-4.69","3359938","co38104","norming","","","","","","",""
"null","../img/tt/1200tt.jpg","null","mooney2","image-keyboard-response","494","1780600","0.0-6.0-5.69","3359938","co38104","norming","","","","","","",""
"3975.0200000016484","","","post_reveal_questions","survey-likert","495","1784578","0.0-6.0-6.69","3359938","co38104","norming","","","{""aha"":1}","[0]","../img/tt/1200tt.jpg","",""
"null","<div style=""font-size:60px;""> </div>","null","fixation","html-keyboard-response","496","1784780","0.0-6.0-0.70","3359938","co38104","norming","","","","","","",""
"null","../img/tt/1024tt.jpg","null","mooney1","image-keyboard-response","497","1787783","0.0-6.0-1.70","3359938","co38104","norming","","","","","","",""
"4223.254999997327","","","post_mooney1_questions","survey-likert","498","1792010","0.0-6.0-2.70","3359938","co38104","norming","","","{""curiosity"":3,""confidence"":0}","[0,1]","../img/tt/1024tt.jpg","",""
"486.1449999988545","","","recognition","survey-text","499","1792498","0.0-6.0-3.70","3359938","co38104","norming","","","{""guess"":""""}","","../img/tt/1024tt.jpg","",""
"null","../img/gs/1024gs.jpg","null","reveal","image-keyboard-response","500","1794505","0.0-6.0-4.70","3359938","co38104","norming","","","","","","",""
"null","../img/tt/1024tt.jpg","null","mooney2","image-keyboard-response","501","1796508","0.0-6.0-5.70","3359938","co38104","norming","","","","","","",""
"2651.4050000004936","","","post_reveal_questions","survey-likert","502","1799162","0.0-6.0-6.70","3359938","co38104","norming","","","{""aha"":0}","[0]","../img/tt/1024tt.jpg","",""
"null","<div style=""font-size:60px;""> </div>","null","fixation","html-keyboard-response","503","1799371","0.0-6.0-0.71","3359938","co38104","norming","","","","","","",""
"null","../img/tt/1191tt.jpg","null","mooney1","image-keyboard-response","504","1802377","0.0-6.0-1.71","3359938","co38104","norming","","","","","","",""
"4805.655000000261","","","post_mooney1_questions","survey-likert","505","1807186","0.0-6.0-2.71","3359938","co38104","norming","","","{""curiosity"":5,""confidence"":2}","[0,1]","../img/tt/1191tt.jpg","",""
"8918.235000001034","","","recognition","survey-text","506","1816106","0.0-6.0-3.71","3359938","co38104","norming","","","{""guess"":""Soccer voetbal ""}","","../img/tt/1191tt.jpg","",""
"null","../img/gs/1191gs.jpg","null","reveal","image-keyboard-response","507","1818108","0.0-6.0-4.71","3359938","co38104","norming","","","","","","",""
"null","../img/tt/1191tt.jpg","null","mooney2","image-keyboard-response","508","1820117","0.0-6.0-5.71","3359938","co38104","norming","","","","","","",""
"3121.6749999986496","","","post_reveal_questions","survey-likert","509","1823244","0.0-6.0-6.71","3359938","co38104","norming","","","{""aha"":2}","[0]","../img/tt/1191tt.jpg","",""
"null","<div style=""font-size:60px;""> </div>","null","fixation","html-keyboard-response","510","1823453","0.0-6.0-0.72","3359938","co38104","norming","","","","","","",""
"null","../img/tt/517tt.jpg","null","mooney1","image-keyboard-response","511","1826465","0.0-6.0-1.72","3359938","co38104","norming","","","","","","",""
"4807.804999996675","","","post_mooney1_questions","survey-likert","512","1831276","0.0-6.0-2.72","3359938","co38104","norming","","","{""curiosity"":5,""confidence"":2}","[0,1]","../img/tt/517tt.jpg","",""
"3630.0300000002608","","","recognition","survey-text","513","1834908","0.0-6.0-3.72","3359938","co38104","norming","","","{""guess"":""Baby panda""}","","../img/tt/517tt.jpg","",""
"null","../img/gs/517gs.jpg","null","reveal","image-keyboard-response","514","1836909","0.0-6.0-4.72","3359938","co38104","norming","","","","","","",""
"null","../img/tt/517tt.jpg","null","mooney2","image-keyboard-response","515","1838912","0.0-6.0-5.72","3359938","co38104","norming","","","","","","",""
"2097.1099999987055","","","post_reveal_questions","survey-likert","516","1841012","0.0-6.0-6.72","3359938","co38104","norming","","","{""aha"":5}","[0]","../img/tt/517tt.jpg","",""
"null","<div style=""font-size:60px;""> </div>","null","fixation","html-keyboard-response","517","1841214","0.0-6.0-0.73","3359938","co38104","norming","","","","","","",""
"null","../img/tt/603tt.jpg","null","mooney1","image-keyboard-response","518","1844223","0.0-6.0-1.73","3359938","co38104","norming","","","","","","",""
"4256.819999998668","","","post_mooney1_questions","survey-likert","519","1848484","0.0-6.0-2.73","3359938","co38104","norming","","","{""curiosity"":5,""confidence"":2}","[0,1]","../img/tt/603tt.jpg","",""
"8262.28499999689","","","recognition","survey-text","520","1856748","0.0-6.0-3.73","3359938","co38104","norming","","","{""guess"":""Superheldenvrouw ""}","","../img/tt/603tt.jpg","",""
"null","../img/gs/603gs.jpg","null","reveal","image-keyboard-response","521","1858754","0.0-6.0-4.73","3359938","co38104","norming","","","","","","",""
"null","../img/tt/603tt.jpg","null","mooney2","image-keyboard-response","522","1860756","0.0-6.0-5.73","3359938","co38104","norming","","","","","","",""
"2557.084999996703","","","post_reveal_questions","survey-likert","523","1863316","0.0-6.0-6.73","3359938","co38104","norming","","","{""aha"":1}","[0]","../img/tt/603tt.jpg","",""
"null","<div style=""font-size:60px;""> </div>","null","fixation","html-keyboard-response","524","1863517","0.0-6.0-0.74","3359938","co38104","norming","","","","","","",""
"null","../img/tt/1046tt.jpg","null","mooney1","image-keyboard-response","525","1866526","0.0-6.0-1.74","3359938","co38104","norming","","","","","","",""
"4243.894999999786","","","post_mooney1_questions","survey-likert","526","1870772","0.0-6.0-2.74","3359938","co38104","norming","","","{""curiosity"":3,""confidence"":0}","[0,1]","../img/tt/1046tt.jpg","",""
"629.7400000004563","","","recognition","survey-text","527","1871403","0.0-6.0-3.74","3359938","co38104","norming","","","{""guess"":""""}","","../img/tt/1046tt.jpg","",""
"null","../img/gs/1046gs.jpg","null","reveal","image-keyboard-response","528","1873408","0.0-6.0-4.74","3359938","co38104","norming","","","","","","",""
"null","../img/tt/1046tt.jpg","null","mooney2","image-keyboard-response","529","1875411","0.0-6.0-5.74","3359938","co38104","norming","","","","","","",""
"2583.7549999996554","","","post_reveal_questions","survey-likert","530","1877996","0.0-6.0-6.74","3359938","co38104","norming","","","{""aha"":1}","[0]","../img/tt/1046tt.jpg","",""
"null","<div style=""font-size:60px;""> </div>","null","fixation","html-keyboard-response","531","1878197","0.0-6.0-0.75","3359938","co38104","norming","","","","","","",""
"null","../img/tt/001tt.jpg","null","mooney1","image-keyboard-response","532","1881207","0.0-6.0-1.75","3359938","co38104","norming","","","","","","",""
"3572.060000002384","","","post_mooney1_questions","survey-likert","533","1884781","0.0-6.0-2.75","3359938","co38104","norming","","","{""curiosity"":4,""confidence"":2}","[0,1]","../img/tt/001tt.jpg","",""
"2670.2350000014994","","","recognition","survey-text","534","1887453","0.0-6.0-3.75","3359938","co38104","norming","","","{""guess"":""Stier ""}","","../img/tt/001tt.jpg","",""
"null","../img/gs/001gs.jpg","null","reveal","image-keyboard-response","535","1889455","0.0-6.0-4.75","3359938","co38104","norming","","","","","","",""
"null","../img/tt/001tt.jpg","null","mooney2","image-keyboard-response","536","1891457","0.0-6.0-5.75","3359938","co38104","norming","","","","","","",""
"2633.714999999851","","","post_reveal_questions","survey-likert","537","1894093","0.0-6.0-6.75","3359938","co38104","norming","","","{""aha"":0}","[0]","../img/tt/001tt.jpg","",""
"null","<div style=""font-size:60px;""> </div>","null","fixation","html-keyboard-response","538","1894304","0.0-6.0-0.76","3359938","co38104","norming","","","","","","",""
"null","../img/tt/1118tt.jpg","null","mooney1","image-keyboard-response","539","1897308","0.0-6.0-1.76","3359938","co38104","norming","","","","","","",""
"9421.875","","","post_mooney1_questions","survey-likert","540","1906733","0.0-6.0-2.76","3359938","co38104","norming","","","{""curiosity"":4,""confidence"":1}","[0,1]","../img/tt/1118tt.jpg","",""
"2142.280000000028","","","recognition","survey-text","541","1908877","0.0-6.0-3.76","3359938","co38104","norming","","","{""guess"":""Wiel ""}","","../img/tt/1118tt.jpg","",""
"null","../img/gs/1118gs.jpg","null","reveal","image-keyboard-response","542","1910879","0.0-6.0-4.76","3359938","co38104","norming","","","","","","",""
"null","../img/tt/1118tt.jpg","null","mooney2","image-keyboard-response","543","1912882","0.0-6.0-5.76","3359938","co38104","norming","","","","","","",""
"3472.1049999969546","","","post_reveal_questions","survey-likert","544","1916357","0.0-6.0-6.76","3359938","co38104","norming","","","{""aha"":0}","[0]","../img/tt/1118tt.jpg","",""
"null","<div style=""font-size:60px;""> </div>","null","fixation","html-keyboard-response","545","1916567","0.0-6.0-0.77","3359938","co38104","norming","","","","","","",""
"null","../img/tt/1055tt.jpg","null","mooney1","image-keyboard-response","546","1919577","0.0-6.0-1.77","3359938","co38104","norming","","","","","","",""
"8480.329999998678","","","post_mooney1_questions","survey-likert","547","1928061","0.0-6.0-2.77","3359938","co38104","norming","","","{""curiosity"":4,""confidence"":1}","[0,1]","../img/tt/1055tt.jpg","",""
"13949.85499999905","","","recognition","survey-text","548","1942013","0.0-6.0-3.77","3359938","co38104","norming","","","{""guess"":""Man onder brug in water ""}","","../img/tt/1055tt.jpg","",""
"null","../img/gs/1055gs.jpg","null","reveal","image-keyboard-response","549","1944028","0.0-6.0-4.77","3359938","co38104","norming","","","","","","",""
"null","../img/tt/1055tt.jpg","null","mooney2","image-keyboard-response","550","1946032","0.0-6.0-5.77","3359938","co38104","norming","","","","","","",""
