"rt","stimulus","key_press","test_part","trial_type","trial_index","time_elapsed","internal_node_id","totalTime","subject","experiment_name","button_pressed","success","responses","question_order","currentStim","old","correct"
"9400.155000000268","Welcome to the experiment. This is an online experiment so please don't close the tab/window until we say goodbye.  Press any key to begin.","32","instructions","html-keyboard-response","0","9422","0.0-0.0","2790022","co38116","norming","","","","","","",""
"9008.33000000057","<div style='word-wrap: break-word; width: 900px'><h3>Please consider this information carefully before deciding whether to participate in this research</h3><ul style='text-align: left; font-size: .8em;'><li><b>Purpose of the research</b>: To examine how people process images.</li><li><b>What you will do in this research</b>:  Stimuli (images) will be presented on the computer and you will be asked different questions about them.</li><li><b>Time required</b>: Participation will take between 45 and 60 minutes to complete.</li><li><b>Risks</b>:  There are no anticipated risks associated with participating in this study. The effects of participating should be comparable to those you would experience from viewing a computer monitor for 30 minutes and using a mouse or keyboard.</li><li><b>Benefits</b>:  This study provides no benefits to you individually except for the credit. The study provides important information about the nature of perception and learning.</li><li><b>Confidentiality</b>:  Your participation in this study will remain confidential. No personally identifiable information will be associated with your data. Your de-identified data may be shared with other researchers and used in future projects.</li><li><b>Participation and withdrawal</b>:  Your participation in this study is completely voluntary and you may refuse to participate or you may choose to withdraw at any time without penalty.</li><li><b>How to contact the researchers</b>: If you have questions or concerns about your participation or payment, or want to request a summary of research findings, please contact Sander Van de Cruys (KU Leuven), at sander.vandecruys@kuleuven.be.</li></ul><p>The nature and purpose of this research have been sufficiently explained and I agree to participate in this study.  I understand that I am free to withdraw at any time without incurring any penalty.</p><p>Please consent by clicking the button below to continue. Otherwise, please exit the study at this time.</p></div>","","instructions","html-button-response","1","18434","0.0-1.0","2790022","co38116","norming","0","","","","","",""
"","","","instructions","fullscreen","2","23293","0.0-2.0","2790022","co38116","norming","","true","","","","",""
"53962.30999999989","","","sona","survey-html-form","3","77262","0.0-3.0","2790022","co38116","norming","","","[{""name"":""sonaid"",""value"":""38116""},{""name"":""debrief"",""value"":""yes""},{""name"":""datajoin"",""value"":""yes""}]","","","",""
"66091.22500000012","<div style='word-wrap: break-word; width: 900px'><h3>Instructions</h3><p>This experiment will have 3 parts. In the first part you will see a series of distorted images like the one below on the left. As you can see in the righthand image, the distorted images are derived from actual photographs. In what follows, you will <strong>briefly</strong> be presented with <strong>only</strong> the distorted image.</p> <div style='float: left; margin-right: 20px;'><img src='../img/018tt.jpg' height='250' width='250'></img></div><div style='float: right; margin-left: 20px;'><img src='../img/018gs.jpg' height='250' width='250'></img></div><p>Subsequently you will be asked a few questions about the image: One question on how <strong>curious</strong> you are about the solution and one on how <strong>confident</strong> you are that you know the solution.</p>Next, we ask you to make a guess on what is in the image. Note that it is OK to name just the <strong>basic level category</strong>. For example when you see a parrot in the image, 'parrot' will obviously be a correct answer but also correct is 'bird'. However, 'animal' will <strong>not</strong> be counted as a correct response. For the example above, 'rose' would be correct or 'flower', but not 'plant'. When soccer players are depicted, 'soccer', 'football', 'soccer players' will be correct, but not 'humans', 'outdoors', or 'sports'. You do not need to describe the image in full, just name the main object in it <strong>in one or two words</strong>. All images depict objects from one of the following broad level categories: animals, inanimate objects, plants, sports, vehicles, and food. Recognizing means knowing <strong>more</strong> than these broad labels for a given image. But we always encourage you to <strong>make a guess</strong> if you can. Note that you are allowed to use <strong>Dutch and English</strong> in your answers, whatever comes easiest for you.</p><p>Press any key to continue.</p></div>","32","instructions","html-keyboard-response","4","143355","0.0-4.0","2790022","co38116","norming","","","","","","",""
"124478.1499999999","<div style='word-wrap: break-word; width: 900px'><h3>Instructions</h3> <p>Next, the solution image will be revealed to you and you'll be asked to indicate how strong your <strong>aha-experience</strong> was after seeing the solution. This describes the positive feeling of the 'click' you sometimes experience, when the pieces of the 'puzzle' fall together and you suddenly have 'insight' in the image.</p><img src='aha.jpg' height='188' width='250'></img><p>Note that there are no right or wrong answers. We are interested in what <strong>you</strong> see in the image and how <strong>you</strong> feel about it.</p><p>Press any key to start the experiment.</p></div>","32","instructions","html-keyboard-response","5","267831","0.0-5.0","2790022","co38116","norming","","","","","","",""
"null","<div style=""font-size:60px;""> </div>","null","fixation","html-keyboard-response","6","268035","0.0-6.0-0.0","2790022","co38116","norming","","","","","","",""
"null","../img/tt/1091tt.jpg","null","mooney1","image-keyboard-response","7","271042","0.0-6.0-1.0","2790022","co38116","norming","","","","","","",""
"11968.644999999902","","","post_mooney1_questions","survey-likert","8","283015","0.0-6.0-2.0","2790022","co38116","norming","","","{""curiosity"":4,""confidence"":1}","[0,1]","../img/tt/1091tt.jpg","",""
"5421.564999999653","","","recognition","survey-text","9","288438","0.0-6.0-3.0","2790022","co38116","norming","","","{""guess"":""paard""}","","../img/tt/1091tt.jpg","",""
"null","../img/gs/1091gs.jpg","null","reveal","image-keyboard-response","10","290440","0.0-6.0-4.0","2790022","co38116","norming","","","","","","",""
"null","../img/tt/1091tt.jpg","null","mooney2","image-keyboard-response","11","292442","0.0-6.0-5.0","2790022","co38116","norming","","","","","","",""
"4009.9650000002002","","","post_reveal_questions","survey-likert","12","296454","0.0-6.0-6.0","2790022","co38116","norming","","","{""aha"":3}","[0]","../img/tt/1091tt.jpg","",""
"null","<div style=""font-size:60px;""> </div>","null","fixation","html-keyboard-response","13","296658","0.0-6.0-0.1","2790022","co38116","norming","","","","","","",""
"null","../img/tt/279tt.jpg","null","mooney1","image-keyboard-response","14","299668","0.0-6.0-1.1","2790022","co38116","norming","","","","","","",""
"6375.745000000286","","","post_mooney1_questions","survey-likert","15","306046","0.0-6.0-2.1","2790022","co38116","norming","","","{""curiosity"":3,""confidence"":6}","[0,1]","../img/tt/279tt.jpg","",""
"3693.9399999992456","","","recognition","survey-text","16","309742","0.0-6.0-3.1","2790022","co38116","norming","","","{""guess"":""koala""}","","../img/tt/279tt.jpg","",""
"null","../img/gs/279gs.jpg","null","reveal","image-keyboard-response","17","311746","0.0-6.0-4.1","2790022","co38116","norming","","","","","","",""
"null","../img/tt/279tt.jpg","null","mooney2","image-keyboard-response","18","313756","0.0-6.0-5.1","2790022","co38116","norming","","","","","","",""
"3551.534999999567","","","post_reveal_questions","survey-likert","19","317310","0.0-6.0-6.1","2790022","co38116","norming","","","{""aha"":1}","[0]","../img/tt/279tt.jpg","",""
"null","<div style=""font-size:60px;""> </div>","null","fixation","html-keyboard-response","20","317515","0.0-6.0-0.2","2790022","co38116","norming","","","","","","",""
"null","../img/tt/440tt.jpg","null","mooney1","image-keyboard-response","21","320523","0.0-6.0-1.2","2790022","co38116","norming","","","","","","",""
"6624.530000000028","","","post_mooney1_questions","survey-likert","22","327150","0.0-6.0-2.2","2790022","co38116","norming","","","{""curiosity"":5,""confidence"":0}","[0,1]","../img/tt/440tt.jpg","",""
"5861.97999999969","","","recognition","survey-text","23","333012","0.0-6.0-3.2","2790022","co38116","norming","","","{""guess"":""leeuw""}","","../img/tt/440tt.jpg","",""
"null","../img/gs/440gs.jpg","null","reveal","image-keyboard-response","24","335021","0.0-6.0-4.2","2790022","co38116","norming","","","","","","",""
"null","../img/tt/440tt.jpg","null","mooney2","image-keyboard-response","25","337024","0.0-6.0-5.2","2790022","co38116","norming","","","","","","",""
"1914.4050000004354","","","post_reveal_questions","survey-likert","26","338941","0.0-6.0-6.2","2790022","co38116","norming","","","{""aha"":5}","[0]","../img/tt/440tt.jpg","",""
"null","<div style=""font-size:60px;""> </div>","null","fixation","html-keyboard-response","27","339146","0.0-6.0-0.3","2790022","co38116","norming","","","","","","",""
"null","../img/tt/044tt.jpg","null","mooney1","image-keyboard-response","28","342148","0.0-6.0-1.3","2790022","co38116","norming","","","","","","",""
"4630.714999999327","","","post_mooney1_questions","survey-likert","29","346781","0.0-6.0-2.3","2790022","co38116","norming","","","{""curiosity"":4,""confidence"":0}","[0,1]","../img/tt/044tt.jpg","",""
"7502.004999999364","","","recognition","survey-text","30","354285","0.0-6.0-3.3","2790022","co38116","norming","","","{""guess"":""computer""}","","../img/tt/044tt.jpg","",""
"null","../img/gs/044gs.jpg","null","reveal","image-keyboard-response","31","356291","0.0-6.0-4.3","2790022","co38116","norming","","","","","","",""
"null","../img/tt/044tt.jpg","null","mooney2","image-keyboard-response","32","358298","0.0-6.0-5.3","2790022","co38116","norming","","","","","","",""
"2168.8249999997206","","","post_reveal_questions","survey-likert","33","360469","0.0-6.0-6.3","2790022","co38116","norming","","","{""aha"":4}","[0]","../img/tt/044tt.jpg","",""
"null","<div style=""font-size:60px;""> </div>","null","fixation","html-keyboard-response","34","360673","0.0-6.0-0.4","2790022","co38116","norming","","","","","","",""
"null","../img/tt/1262tt.jpg","null","mooney1","image-keyboard-response","35","363683","0.0-6.0-1.4","2790022","co38116","norming","","","","","","",""
"4584.7350000003935","","","post_mooney1_questions","survey-likert","36","368269","0.0-6.0-2.4","2790022","co38116","norming","","","{""curiosity"":4,""confidence"":0}","[0,1]","../img/tt/1262tt.jpg","",""
"894.0050000001211","","","recognition","survey-text","37","369165","0.0-6.0-3.4","2790022","co38116","norming","","","{""guess"":""""}","","../img/tt/1262tt.jpg","",""
"null","../img/gs/1262gs.jpg","null","reveal","image-keyboard-response","38","371169","0.0-6.0-4.4","2790022","co38116","norming","","","","","","",""
"null","../img/tt/1262tt.jpg","null","mooney2","image-keyboard-response","39","373176","0.0-6.0-5.4","2790022","co38116","norming","","","","","","",""
"2659.085000000254","","","post_reveal_questions","survey-likert","40","375837","0.0-6.0-6.4","2790022","co38116","norming","","","{""aha"":5}","[0]","../img/tt/1262tt.jpg","",""
"null","<div style=""font-size:60px;""> </div>","null","fixation","html-keyboard-response","41","376047","0.0-6.0-0.5","2790022","co38116","norming","","","","","","",""
"null","../img/tt/121tt.jpg","null","mooney1","image-keyboard-response","42","379052","0.0-6.0-1.5","2790022","co38116","norming","","","","","","",""
"5181.485000000044","","","post_mooney1_questions","survey-likert","43","384237","0.0-6.0-2.5","2790022","co38116","norming","","","{""curiosity"":3,""confidence"":5}","[0,1]","../img/tt/121tt.jpg","",""
"6190.0350000005565","","","recognition","survey-text","44","390434","0.0-6.0-3.5","2790022","co38116","norming","","","{""guess"":""kangaroo""}","","../img/tt/121tt.jpg","",""
"null","../img/gs/121gs.jpg","null","reveal","image-keyboard-response","45","392444","0.0-6.0-4.5","2790022","co38116","norming","","","","","","",""
"null","../img/tt/121tt.jpg","null","mooney2","image-keyboard-response","46","394449","0.0-6.0-5.5","2790022","co38116","norming","","","","","","",""
"2519.7050000005984","","","post_reveal_questions","survey-likert","47","396971","0.0-6.0-6.5","2790022","co38116","norming","","","{""aha"":3}","[0]","../img/tt/121tt.jpg","",""
"null","<div style=""font-size:60px;""> </div>","null","fixation","html-keyboard-response","48","397173","0.0-6.0-0.6","2790022","co38116","norming","","","","","","",""
"null","../img/tt/406tt.jpg","null","mooney1","image-keyboard-response","49","400180","0.0-6.0-1.6","2790022","co38116","norming","","","","","","",""
"5907.329999999958","","","post_mooney1_questions","survey-likert","50","406091","0.0-6.0-2.6","2790022","co38116","norming","","","{""curiosity"":4,""confidence"":6}","[0,1]","../img/tt/406tt.jpg","",""
"3358.279999999446","","","recognition","survey-text","51","409451","0.0-6.0-3.6","2790022","co38116","norming","","","{""guess"":""vleermuis""}","","../img/tt/406tt.jpg","",""
"null","../img/gs/406gs.jpg","null","reveal","image-keyboard-response","52","411457","0.0-6.0-4.6","2790022","co38116","norming","","","","","","",""
"null","../img/tt/406tt.jpg","null","mooney2","image-keyboard-response","53","413460","0.0-6.0-5.6","2790022","co38116","norming","","","","","","",""
"2108.88499999966","","","post_reveal_questions","survey-likert","54","415571","0.0-6.0-6.6","2790022","co38116","norming","","","{""aha"":1}","[0]","../img/tt/406tt.jpg","",""
"null","<div style=""font-size:60px;""> </div>","null","fixation","html-keyboard-response","55","415772","0.0-6.0-0.7","2790022","co38116","norming","","","","","","",""
"null","../img/tt/1362tt.jpg","null","mooney1","image-keyboard-response","56","418779","0.0-6.0-1.7","2790022","co38116","norming","","","","","","",""
"5628.8150000000605","","","post_mooney1_questions","survey-likert","57","424411","0.0-6.0-2.7","2790022","co38116","norming","","","{""curiosity"":4,""confidence"":1}","[0,1]","../img/tt/1362tt.jpg","",""
"9101.959999999963","","","recognition","survey-text","58","433514","0.0-6.0-3.7","2790022","co38116","norming","","","{""guess"":""platenspeler""}","","../img/tt/1362tt.jpg","",""
"null","../img/gs/1362gs.jpg","null","reveal","image-keyboard-response","59","435521","0.0-6.0-4.7","2790022","co38116","norming","","","","","","",""
"null","../img/tt/1362tt.jpg","null","mooney2","image-keyboard-response","60","437530","0.0-6.0-5.7","2790022","co38116","norming","","","","","","",""
"1502.5600000008708","","","post_reveal_questions","survey-likert","61","439035","0.0-6.0-6.7","2790022","co38116","norming","","","{""aha"":4}","[0]","../img/tt/1362tt.jpg","",""
"null","<div style=""font-size:60px;""> </div>","null","fixation","html-keyboard-response","62","439238","0.0-6.0-0.8","2790022","co38116","norming","","","","","","",""
"null","../img/tt/1069tt.jpg","null","mooney1","image-keyboard-response","63","442246","0.0-6.0-1.8","2790022","co38116","norming","","","","","","",""
"11490.050000000338","","","post_mooney1_questions","survey-likert","64","453741","0.0-6.0-2.8","2790022","co38116","norming","","","{""curiosity"":4,""confidence"":2}","[0,1]","../img/tt/1069tt.jpg","",""
"3006.470000000205","","","recognition","survey-text","65","456749","0.0-6.0-3.8","2790022","co38116","norming","","","{""guess"":""ram""}","","../img/tt/1069tt.jpg","",""
"null","../img/gs/1069gs.jpg","null","reveal","image-keyboard-response","66","458757","0.0-6.0-4.8","2790022","co38116","norming","","","","","","",""
"null","../img/tt/1069tt.jpg","null","mooney2","image-keyboard-response","67","460767","0.0-6.0-5.8","2790022","co38116","norming","","","","","","",""
"1683.0549999994691","","","post_reveal_questions","survey-likert","68","462453","0.0-6.0-6.8","2790022","co38116","norming","","","{""aha"":4}","[0]","../img/tt/1069tt.jpg","",""
"null","<div style=""font-size:60px;""> </div>","null","fixation","html-keyboard-response","69","462664","0.0-6.0-0.9","2790022","co38116","norming","","","","","","",""
"null","../img/tt/598tt.jpg","null","mooney1","image-keyboard-response","70","465670","0.0-6.0-1.9","2790022","co38116","norming","","","","","","",""
"3812.1599999995087","","","post_mooney1_questions","survey-likert","71","469485","0.0-6.0-2.9","2790022","co38116","norming","","","{""curiosity"":5,""confidence"":0}","[0,1]","../img/tt/598tt.jpg","",""
"925.9000000001979","","","recognition","survey-text","72","470412","0.0-6.0-3.9","2790022","co38116","norming","","","{""guess"":""""}","","../img/tt/598tt.jpg","",""
"null","../img/gs/598gs.jpg","null","reveal","image-keyboard-response","73","472416","0.0-6.0-4.9","2790022","co38116","norming","","","","","","",""
"null","../img/tt/598tt.jpg","null","mooney2","image-keyboard-response","74","474420","0.0-6.0-5.9","2790022","co38116","norming","","","","","","",""
"1719.8649999999907","","","post_reveal_questions","survey-likert","75","476140","0.0-6.0-6.9","2790022","co38116","norming","","","{""aha"":4}","[0]","../img/tt/598tt.jpg","",""
"null","<div style=""font-size:60px;""> </div>","null","fixation","html-keyboard-response","76","476342","0.0-6.0-0.10","2790022","co38116","norming","","","","","","",""
"null","../img/tt/189tt.jpg","null","mooney1","image-keyboard-response","77","479349","0.0-6.0-1.10","2790022","co38116","norming","","","","","","",""
"4716.690000000235","","","post_mooney1_questions","survey-likert","78","484069","0.0-6.0-2.10","2790022","co38116","norming","","","{""curiosity"":4,""confidence"":1}","[0,1]","../img/tt/189tt.jpg","",""
"3062.119999999588","","","recognition","survey-text","79","487133","0.0-6.0-3.10","2790022","co38116","norming","","","{""guess"":""vogel""}","","../img/tt/189tt.jpg","",""
"null","../img/gs/189gs.jpg","null","reveal","image-keyboard-response","80","489143","0.0-6.0-4.10","2790022","co38116","norming","","","","","","",""
"null","../img/tt/189tt.jpg","null","mooney2","image-keyboard-response","81","491151","0.0-6.0-5.10","2790022","co38116","norming","","","","","","",""
"4587.174999999697","","","post_reveal_questions","survey-likert","82","495741","0.0-6.0-6.10","2790022","co38116","norming","","","{""aha"":3}","[0]","../img/tt/189tt.jpg","",""
"null","<div style=""font-size:60px;""> </div>","null","fixation","html-keyboard-response","83","495951","0.0-6.0-0.11","2790022","co38116","norming","","","","","","",""
"null","../img/tt/1043tt.jpg","null","mooney1","image-keyboard-response","84","498959","0.0-6.0-1.11","2790022","co38116","norming","","","","","","",""
"4099.009999999893","","","post_mooney1_questions","survey-likert","85","503060","0.0-6.0-2.11","2790022","co38116","norming","","","{""curiosity"":4,""confidence"":0}","[0,1]","../img/tt/1043tt.jpg","",""
"910.2150000007823","","","recognition","survey-text","86","503972","0.0-6.0-3.11","2790022","co38116","norming","","","{""guess"":""""}","","../img/tt/1043tt.jpg","",""
"null","../img/gs/1043gs.jpg","null","reveal","image-keyboard-response","87","505981","0.0-6.0-4.11","2790022","co38116","norming","","","","","","",""
"null","../img/tt/1043tt.jpg","null","mooney2","image-keyboard-response","88","507984","0.0-6.0-5.11","2790022","co38116","norming","","","","","","",""
"1619.5250000000233","","","post_reveal_questions","survey-likert","89","509605","0.0-6.0-6.11","2790022","co38116","norming","","","{""aha"":4}","[0]","../img/tt/1043tt.jpg","",""
"null","<div style=""font-size:60px;""> </div>","null","fixation","html-keyboard-response","90","509812","0.0-6.0-0.12","2790022","co38116","norming","","","","","","",""
"null","../img/tt/194tt.jpg","null","mooney1","image-keyboard-response","91","512827","0.0-6.0-1.12","2790022","co38116","norming","","","","","","",""
"5513.510000000708","","","post_mooney1_questions","survey-likert","92","518343","0.0-6.0-2.12","2790022","co38116","norming","","","{""curiosity"":4,""confidence"":6}","[0,1]","../img/tt/194tt.jpg","",""
"4973.890000000247","","","recognition","survey-text","93","523318","0.0-6.0-3.12","2790022","co38116","norming","","","{""guess"":""harpiste""}","","../img/tt/194tt.jpg","",""
"null","../img/gs/194gs.jpg","null","reveal","image-keyboard-response","94","525324","0.0-6.0-4.12","2790022","co38116","norming","","","","","","",""
"null","../img/tt/194tt.jpg","null","mooney2","image-keyboard-response","95","527334","0.0-6.0-5.12","2790022","co38116","norming","","","","","","",""
"2358.164999999688","","","post_reveal_questions","survey-likert","96","529695","0.0-6.0-6.12","2790022","co38116","norming","","","{""aha"":3}","[0]","../img/tt/194tt.jpg","",""
"null","<div style=""font-size:60px;""> </div>","null","fixation","html-keyboard-response","97","529899","0.0-6.0-0.13","2790022","co38116","norming","","","","","","",""
"null","../img/tt/1049tt.jpg","null","mooney1","image-keyboard-response","98","532905","0.0-6.0-1.13","2790022","co38116","norming","","","","","","",""
"3474.9400000000605","","","post_mooney1_questions","survey-likert","99","536383","0.0-6.0-2.13","2790022","co38116","norming","","","{""curiosity"":4,""confidence"":0}","[0,1]","../img/tt/1049tt.jpg","",""
"742.0249999995576","","","recognition","survey-text","100","537126","0.0-6.0-3.13","2790022","co38116","norming","","","{""guess"":""""}","","../img/tt/1049tt.jpg","",""
"null","../img/gs/1049gs.jpg","null","reveal","image-keyboard-response","101","539129","0.0-6.0-4.13","2790022","co38116","norming","","","","","","",""
"null","../img/tt/1049tt.jpg","null","mooney2","image-keyboard-response","102","541131","0.0-6.0-5.13","2790022","co38116","norming","","","","","","",""
"2200.84499999939","","","post_reveal_questions","survey-likert","103","543334","0.0-6.0-6.13","2790022","co38116","norming","","","{""aha"":3}","[0]","../img/tt/1049tt.jpg","",""
"null","<div style=""font-size:60px;""> </div>","null","fixation","html-keyboard-response","104","543541","0.0-6.0-0.14","2790022","co38116","norming","","","","","","",""
"null","../img/tt/1217tt.jpg","null","mooney1","image-keyboard-response","105","546548","0.0-6.0-1.14","2790022","co38116","norming","","","","","","",""
"5007.370000000345","","","post_mooney1_questions","survey-likert","106","551559","0.0-6.0-2.14","2790022","co38116","norming","","","{""curiosity"":4,""confidence"":1}","[0,1]","../img/tt/1217tt.jpg","",""
"2054.1899999998277","","","recognition","survey-text","107","553614","0.0-6.0-3.14","2790022","co38116","norming","","","{""guess"":""boer""}","","../img/tt/1217tt.jpg","",""
"null","../img/gs/1217gs.jpg","null","reveal","image-keyboard-response","108","555619","0.0-6.0-4.14","2790022","co38116","norming","","","","","","",""
"null","../img/tt/1217tt.jpg","null","mooney2","image-keyboard-response","109","557623","0.0-6.0-5.14","2790022","co38116","norming","","","","","","",""
"2782.6000000004424","","","post_reveal_questions","survey-likert","110","560406","0.0-6.0-6.14","2790022","co38116","norming","","","{""aha"":5}","[0]","../img/tt/1217tt.jpg","",""
"null","<div style=""font-size:60px;""> </div>","null","fixation","html-keyboard-response","111","560609","0.0-6.0-0.15","2790022","co38116","norming","","","","","","",""
"null","../img/tt/296tt.jpg","null","mooney1","image-keyboard-response","112","563614","0.0-6.0-1.15","2790022","co38116","norming","","","","","","",""
"4005.635000000475","","","post_mooney1_questions","survey-likert","113","567622","0.0-6.0-2.15","2790022","co38116","norming","","","{""curiosity"":4,""confidence"":1}","[0,1]","../img/tt/296tt.jpg","",""
"6374.634999999194","","","recognition","survey-text","114","573993","0.0-6.0-3.15","2790022","co38116","norming","","","{""guess"":""naaimachine""}","","../img/tt/296tt.jpg","",""
"null","../img/gs/296gs.jpg","null","reveal","image-keyboard-response","115","575995","0.0-6.0-4.15","2790022","co38116","norming","","","","","","",""
"null","../img/tt/296tt.jpg","null","mooney2","image-keyboard-response","116","578004","0.0-6.0-5.15","2790022","co38116","norming","","","","","","",""
"2531.180000000051","","","post_reveal_questions","survey-likert","117","580537","0.0-6.0-6.15","2790022","co38116","norming","","","{""aha"":4}","[0]","../img/tt/296tt.jpg","",""
"null","<div style=""font-size:60px;""> </div>","null","fixation","html-keyboard-response","118","580745","0.0-6.0-0.16","2790022","co38116","norming","","","","","","",""
"null","../img/tt/036tt.jpg","null","mooney1","image-keyboard-response","119","583749","0.0-6.0-1.16","2790022","co38116","norming","","","","","","",""
"3272.989999999525","","","post_mooney1_questions","survey-likert","120","587025","0.0-6.0-2.16","2790022","co38116","norming","","","{""curiosity"":4,""confidence"":1}","[0,1]","../img/tt/036tt.jpg","",""
"6333.92499999993","","","recognition","survey-text","121","593361","0.0-6.0-3.16","2790022","co38116","norming","","","{""guess"":""spinnenweb""}","","../img/tt/036tt.jpg","",""
"null","../img/gs/036gs.jpg","null","reveal","image-keyboard-response","122","595371","0.0-6.0-4.16","2790022","co38116","norming","","","","","","",""
"null","../img/tt/036tt.jpg","null","mooney2","image-keyboard-response","123","597373","0.0-6.0-5.16","2790022","co38116","norming","","","","","","",""
"2073.760000000242","","","post_reveal_questions","survey-likert","124","599449","0.0-6.0-6.16","2790022","co38116","norming","","","{""aha"":3}","[0]","../img/tt/036tt.jpg","",""
"null","<div style=""font-size:60px;""> </div>","null","fixation","html-keyboard-response","125","599651","0.0-6.0-0.17","2790022","co38116","norming","","","","","","",""
"null","../img/tt/078tt.jpg","null","mooney1","image-keyboard-response","126","602662","0.0-6.0-1.17","2790022","co38116","norming","","","","","","",""
"6159.5349999998","","","post_mooney1_questions","survey-likert","127","608825","0.0-6.0-2.17","2790022","co38116","norming","","","{""curiosity"":3,""confidence"":6}","[0,1]","../img/tt/078tt.jpg","",""
"5925.820000000414","","","recognition","survey-text","128","614753","0.0-6.0-3.17","2790022","co38116","norming","","","{""guess"":""tros druven""}","","../img/tt/078tt.jpg","",""
"null","../img/gs/078gs.jpg","null","reveal","image-keyboard-response","129","616755","0.0-6.0-4.17","2790022","co38116","norming","","","","","","",""
"null","../img/tt/078tt.jpg","null","mooney2","image-keyboard-response","130","618757","0.0-6.0-5.17","2790022","co38116","norming","","","","","","",""
"4369.080000000424","","","post_reveal_questions","survey-likert","131","623129","0.0-6.0-6.17","2790022","co38116","norming","","","{""aha"":2}","[0]","../img/tt/078tt.jpg","",""
"null","<div style=""font-size:60px;""> </div>","null","fixation","html-keyboard-response","132","623331","0.0-6.0-0.18","2790022","co38116","norming","","","","","","",""
"null","../img/tt/522tt.jpg","null","mooney1","image-keyboard-response","133","626337","0.0-6.0-1.18","2790022","co38116","norming","","","","","","",""
"3676.5299999996787","","","post_mooney1_questions","survey-likert","134","630017","0.0-6.0-2.18","2790022","co38116","norming","","","{""curiosity"":4,""confidence"":0}","[0,1]","../img/tt/522tt.jpg","",""
"630.5050000001211","","","recognition","survey-text","135","630649","0.0-6.0-3.18","2790022","co38116","norming","","","{""guess"":""""}","","../img/tt/522tt.jpg","",""
"null","../img/gs/522gs.jpg","null","reveal","image-keyboard-response","136","632654","0.0-6.0-4.18","2790022","co38116","norming","","","","","","",""
"null","../img/tt/522tt.jpg","null","mooney2","image-keyboard-response","137","634664","0.0-6.0-5.18","2790022","co38116","norming","","","","","","",""
"1621.035000000149","","","post_reveal_questions","survey-likert","138","636287","0.0-6.0-6.18","2790022","co38116","norming","","","{""aha"":5}","[0]","../img/tt/522tt.jpg","",""
"null","<div style=""font-size:60px;""> </div>","null","fixation","html-keyboard-response","139","636494","0.0-6.0-0.19","2790022","co38116","norming","","","","","","",""
"null","../img/tt/1275tt.jpg","null","mooney1","image-keyboard-response","140","639497","0.0-6.0-1.19","2790022","co38116","norming","","","","","","",""
"3452.1249999998836","","","post_mooney1_questions","survey-likert","141","642951","0.0-6.0-2.19","2790022","co38116","norming","","","{""curiosity"":4,""confidence"":0}","[0,1]","../img/tt/1275tt.jpg","",""
"806.234999999986","","","recognition","survey-text","142","643759","0.0-6.0-3.19","2790022","co38116","norming","","","{""guess"":""""}","","../img/tt/1275tt.jpg","",""
"null","../img/gs/1275gs.jpg","null","reveal","image-keyboard-response","143","645767","0.0-6.0-4.19","2790022","co38116","norming","","","","","","",""
"null","../img/tt/1275tt.jpg","null","mooney2","image-keyboard-response","144","647776","0.0-6.0-5.19","2790022","co38116","norming","","","","","","",""
"2076.8700000008103","","","post_reveal_questions","survey-likert","145","649855","0.0-6.0-6.19","2790022","co38116","norming","","","{""aha"":5}","[0]","../img/tt/1275tt.jpg","",""
"null","<div style=""font-size:60px;""> </div>","null","fixation","html-keyboard-response","146","650066","0.0-6.0-0.20","2790022","co38116","norming","","","","","","",""
"null","../img/tt/416tt.jpg","null","mooney1","image-keyboard-response","147","653073","0.0-6.0-1.20","2790022","co38116","norming","","","","","","",""
"3667.3249999993714","","","post_mooney1_questions","survey-likert","148","656744","0.0-6.0-2.20","2790022","co38116","norming","","","{""curiosity"":5,""confidence"":1}","[0,1]","../img/tt/416tt.jpg","",""
"9293.86999999953","","","recognition","survey-text","149","666039","0.0-6.0-3.20","2790022","co38116","norming","","","{""guess"":""struisvogel""}","","../img/tt/416tt.jpg","",""
"null","../img/gs/416gs.jpg","null","reveal","image-keyboard-response","150","668042","0.0-6.0-4.20","2790022","co38116","norming","","","","","","",""
"null","../img/tt/416tt.jpg","null","mooney2","image-keyboard-response","151","670044","0.0-6.0-5.20","2790022","co38116","norming","","","","","","",""
"3170.8799999996554","","","post_reveal_questions","survey-likert","152","673215","0.0-6.0-6.20","2790022","co38116","norming","","","{""aha"":4}","[0]","../img/tt/416tt.jpg","",""
"null","<div style=""font-size:60px;""> </div>","null","fixation","html-keyboard-response","153","673418","0.0-6.0-0.21","2790022","co38116","norming","","","","","","",""
"null","../img/tt/1053tt.jpg","null","mooney1","image-keyboard-response","154","676423","0.0-6.0-1.21","2790022","co38116","norming","","","","","","",""
"3773.914999999688","","","post_mooney1_questions","survey-likert","155","680200","0.0-6.0-2.21","2790022","co38116","norming","","","{""curiosity"":4,""confidence"":2}","[0,1]","../img/tt/1053tt.jpg","",""
"2590.165000000503","","","recognition","survey-text","156","682791","0.0-6.0-3.21","2790022","co38116","norming","","","{""guess"":""koe""}","","../img/tt/1053tt.jpg","",""
"null","../img/gs/1053gs.jpg","null","reveal","image-keyboard-response","157","684793","0.0-6.0-4.21","2790022","co38116","norming","","","","","","",""
"null","../img/tt/1053tt.jpg","null","mooney2","image-keyboard-response","158","686802","0.0-6.0-5.21","2790022","co38116","norming","","","","","","",""
"2515.2000000007683","","","post_reveal_questions","survey-likert","159","689319","0.0-6.0-6.21","2790022","co38116","norming","","","{""aha"":5}","[0]","../img/tt/1053tt.jpg","",""
"null","<div style=""font-size:60px;""> </div>","null","fixation","html-keyboard-response","160","689528","0.0-6.0-0.22","2790022","co38116","norming","","","","","","",""
"null","../img/tt/1002tt.jpg","null","mooney1","image-keyboard-response","161","692537","0.0-6.0-1.22","2790022","co38116","norming","","","","","","",""
"4011.569999999716","","","post_mooney1_questions","survey-likert","162","696551","0.0-6.0-2.22","2790022","co38116","norming","","","{""curiosity"":4,""confidence"":4}","[0,1]","../img/tt/1002tt.jpg","",""
"2718.17499999993","","","recognition","survey-text","163","699271","0.0-6.0-3.22","2790022","co38116","norming","","","{""guess"":""beer""}","","../img/tt/1002tt.jpg","",""
"null","../img/gs/1002gs.jpg","null","reveal","image-keyboard-response","164","701274","0.0-6.0-4.22","2790022","co38116","norming","","","","","","",""
"null","../img/tt/1002tt.jpg","null","mooney2","image-keyboard-response","165","703286","0.0-6.0-5.22","2790022","co38116","norming","","","","","","",""
"1974.6749999994645","","","post_reveal_questions","survey-likert","166","705263","0.0-6.0-6.22","2790022","co38116","norming","","","{""aha"":4}","[0]","../img/tt/1002tt.jpg","",""
"null","<div style=""font-size:60px;""> </div>","null","fixation","html-keyboard-response","167","705472","0.0-6.0-0.23","2790022","co38116","norming","","","","","","",""
"null","../img/tt/1126tt.jpg","null","mooney1","image-keyboard-response","168","708481","0.0-6.0-1.23","2790022","co38116","norming","","","","","","",""
"3523.4950000003446","","","post_mooney1_questions","survey-likert","169","712007","0.0-6.0-2.23","2790022","co38116","norming","","","{""curiosity"":5,""confidence"":0}","[0,1]","../img/tt/1126tt.jpg","",""
"1086.339999999851","","","recognition","survey-text","170","713095","0.0-6.0-3.23","2790022","co38116","norming","","","{""guess"":""""}","","../img/tt/1126tt.jpg","",""
"null","../img/gs/1126gs.jpg","null","reveal","image-keyboard-response","171","715100","0.0-6.0-4.23","2790022","co38116","norming","","","","","","",""
"null","../img/tt/1126tt.jpg","null","mooney2","image-keyboard-response","172","717103","0.0-6.0-5.23","2790022","co38116","norming","","","","","","",""
"2061.9749999996275","","","post_reveal_questions","survey-likert","173","719167","0.0-6.0-6.23","2790022","co38116","norming","","","{""aha"":5}","[0]","../img/tt/1126tt.jpg","",""
"null","<div style=""font-size:60px;""> </div>","null","fixation","html-keyboard-response","174","719368","0.0-6.0-0.24","2790022","co38116","norming","","","","","","",""
"null","../img/tt/008tt.jpg","null","mooney1","image-keyboard-response","175","722374","0.0-6.0-1.24","2790022","co38116","norming","","","","","","",""
"4416.070000000298","","","post_mooney1_questions","survey-likert","176","726791","0.0-6.0-2.24","2790022","co38116","norming","","","{""curiosity"":4,""confidence"":1}","[0,1]","../img/tt/008tt.jpg","",""
"8102.240000000107","","","recognition","survey-text","177","734895","0.0-6.0-3.24","2790022","co38116","norming","","","{""guess"":""basketbalspeler""}","","../img/tt/008tt.jpg","",""
"null","../img/gs/008gs.jpg","null","reveal","image-keyboard-response","178","736902","0.0-6.0-4.24","2790022","co38116","norming","","","","","","",""
"null","../img/tt/008tt.jpg","null","mooney2","image-keyboard-response","179","738906","0.0-6.0-5.24","2790022","co38116","norming","","","","","","",""
"2242.7800000004936","","","post_reveal_questions","survey-likert","180","741151","0.0-6.0-6.24","2790022","co38116","norming","","","{""aha"":4}","[0]","../img/tt/008tt.jpg","",""
"null","<div style=""font-size:60px;""> </div>","null","fixation","html-keyboard-response","181","741354","0.0-6.0-0.25","2790022","co38116","norming","","","","","","",""
"null","../img/tt/1227tt.jpg","null","mooney1","image-keyboard-response","182","744361","0.0-6.0-1.25","2790022","co38116","norming","","","","","","",""
"4427.599999999977","","","post_mooney1_questions","survey-likert","183","748791","0.0-6.0-2.25","2790022","co38116","norming","","","{""curiosity"":4,""confidence"":4}","[0,1]","../img/tt/1227tt.jpg","",""
"3630.060000000405","","","recognition","survey-text","184","752423","0.0-6.0-3.25","2790022","co38116","norming","","","{""guess"":""kippen""}","","../img/tt/1227tt.jpg","",""
"null","../img/gs/1227gs.jpg","null","reveal","image-keyboard-response","185","754429","0.0-6.0-4.25","2790022","co38116","norming","","","","","","",""
"null","../img/tt/1227tt.jpg","null","mooney2","image-keyboard-response","186","756432","0.0-6.0-5.25","2790022","co38116","norming","","","","","","",""
"1429.590000000666","","","post_reveal_questions","survey-likert","187","757864","0.0-6.0-6.25","2790022","co38116","norming","","","{""aha"":3}","[0]","../img/tt/1227tt.jpg","",""
"null","<div style=""font-size:60px;""> </div>","null","fixation","html-keyboard-response","188","758065","0.0-6.0-0.26","2790022","co38116","norming","","","","","","",""
"null","../img/tt/603tt.jpg","null","mooney1","image-keyboard-response","189","761072","0.0-6.0-1.26","2790022","co38116","norming","","","","","","",""
"3364.9399999994785","","","post_mooney1_questions","survey-likert","190","764440","0.0-6.0-2.26","2790022","co38116","norming","","","{""curiosity"":4,""confidence"":1}","[0,1]","../img/tt/603tt.jpg","",""
"2958.169999999809","","","recognition","survey-text","191","767400","0.0-6.0-3.26","2790022","co38116","norming","","","{""guess"":""kikker""}","","../img/tt/603tt.jpg","",""
"null","../img/gs/603gs.jpg","null","reveal","image-keyboard-response","192","769402","0.0-6.0-4.26","2790022","co38116","norming","","","","","","",""
"null","../img/tt/603tt.jpg","null","mooney2","image-keyboard-response","193","771403","0.0-6.0-5.26","2790022","co38116","norming","","","","","","",""
"2809.8399999999674","","","post_reveal_questions","survey-likert","194","774215","0.0-6.0-6.26","2790022","co38116","norming","","","{""aha"":5}","[0]","../img/tt/603tt.jpg","",""
"null","<div style=""font-size:60px;""> </div>","null","fixation","html-keyboard-response","195","774417","0.0-6.0-0.27","2790022","co38116","norming","","","","","","",""
"null","../img/tt/1101tt.jpg","null","mooney1","image-keyboard-response","196","777421","0.0-6.0-1.27","2790022","co38116","norming","","","","","","",""
"4119.994999999995","","","post_mooney1_questions","survey-likert","197","781544","0.0-6.0-2.27","2790022","co38116","norming","","","{""curiosity"":4,""confidence"":3}","[0,1]","../img/tt/1101tt.jpg","",""
"4285.810000000289","","","recognition","survey-text","198","785832","0.0-6.0-3.27","2790022","co38116","norming","","","{""guess"":""voetballer""}","","../img/tt/1101tt.jpg","",""
"null","../img/gs/1101gs.jpg","null","reveal","image-keyboard-response","199","787835","0.0-6.0-4.27","2790022","co38116","norming","","","","","","",""
"null","../img/tt/1101tt.jpg","null","mooney2","image-keyboard-response","200","789837","0.0-6.0-5.27","2790022","co38116","norming","","","","","","",""
"2752.7150000005495","","","post_reveal_questions","survey-likert","201","792592","0.0-6.0-6.27","2790022","co38116","norming","","","{""aha"":4}","[0]","../img/tt/1101tt.jpg","",""
"null","<div style=""font-size:60px;""> </div>","null","fixation","html-keyboard-response","202","792800","0.0-6.0-0.28","2790022","co38116","norming","","","","","","",""
"null","../img/tt/1171tt.jpg","null","mooney1","image-keyboard-response","203","795808","0.0-6.0-1.28","2790022","co38116","norming","","","","","","",""
"3948.489999999758","","","post_mooney1_questions","survey-likert","204","799760","0.0-6.0-2.28","2790022","co38116","norming","","","{""curiosity"":5,""confidence"":0}","[0,1]","../img/tt/1171tt.jpg","",""
"869.870000000461","","","recognition","survey-text","205","800632","0.0-6.0-3.28","2790022","co38116","norming","","","{""guess"":""""}","","../img/tt/1171tt.jpg","",""
"null","../img/gs/1171gs.jpg","null","reveal","image-keyboard-response","206","802642","0.0-6.0-4.28","2790022","co38116","norming","","","","","","",""
"null","../img/tt/1171tt.jpg","null","mooney2","image-keyboard-response","207","804644","0.0-6.0-5.28","2790022","co38116","norming","","","","","","",""
"3057.6049999999814","","","post_reveal_questions","survey-likert","208","807704","0.0-6.0-6.28","2790022","co38116","norming","","","{""aha"":5}","[0]","../img/tt/1171tt.jpg","",""
"null","<div style=""font-size:60px;""> </div>","null","fixation","html-keyboard-response","209","807911","0.0-6.0-0.29","2790022","co38116","norming","","","","","","",""
"null","../img/tt/080tt.jpg","null","mooney1","image-keyboard-response","210","810921","0.0-6.0-1.29","2790022","co38116","norming","","","","","","",""
"4419.520000000368","","","post_mooney1_questions","survey-likert","211","815344","0.0-6.0-2.29","2790022","co38116","norming","","","{""curiosity"":4,""confidence"":0}","[0,1]","../img/tt/080tt.jpg","",""
"3126.0050000000047","","","recognition","survey-text","212","818471","0.0-6.0-3.29","2790022","co38116","norming","","","{""guess"":""ei""}","","../img/tt/080tt.jpg","",""
"null","../img/gs/080gs.jpg","null","reveal","image-keyboard-response","213","820480","0.0-6.0-4.29","2790022","co38116","norming","","","","","","",""
"null","../img/tt/080tt.jpg","null","mooney2","image-keyboard-response","214","822491","0.0-6.0-5.29","2790022","co38116","norming","","","","","","",""
"2769.3950000002515","","","post_reveal_questions","survey-likert","215","825263","0.0-6.0-6.29","2790022","co38116","norming","","","{""aha"":5}","[0]","../img/tt/080tt.jpg","",""
"null","<div style=""font-size:60px;""> </div>","null","fixation","html-keyboard-response","216","825464","0.0-6.0-0.30","2790022","co38116","norming","","","","","","",""
"null","../img/tt/1130tt.jpg","null","mooney1","image-keyboard-response","217","828469","0.0-6.0-1.30","2790022","co38116","norming","","","","","","",""
"9871.395000000019","","","post_mooney1_questions","survey-likert","218","838343","0.0-6.0-2.30","2790022","co38116","norming","","","{""curiosity"":1,""confidence"":6}","[0,1]","../img/tt/1130tt.jpg","",""
"6197.890000000363","","","recognition","survey-text","219","844543","0.0-6.0-3.30","2790022","co38116","norming","","","{""guess"":""wielrenner""}","","../img/tt/1130tt.jpg","",""
"null","../img/gs/1130gs.jpg","null","reveal","image-keyboard-response","220","846549","0.0-6.0-4.30","2790022","co38116","norming","","","","","","",""
"null","../img/tt/1130tt.jpg","null","mooney2","image-keyboard-response","221","848551","0.0-6.0-5.30","2790022","co38116","norming","","","","","","",""
"2469.4349999999395","","","post_reveal_questions","survey-likert","222","851023","0.0-6.0-6.30","2790022","co38116","norming","","","{""aha"":3}","[0]","../img/tt/1130tt.jpg","",""
"null","<div style=""font-size:60px;""> </div>","null","fixation","html-keyboard-response","223","851228","0.0-6.0-0.31","2790022","co38116","norming","","","","","","",""
"null","../img/tt/112tt.jpg","null","mooney1","image-keyboard-response","224","854234","0.0-6.0-1.31","2790022","co38116","norming","","","","","","",""
"4936.144999999669","","","post_mooney1_questions","survey-likert","225","859175","0.0-6.0-2.31","2790022","co38116","norming","","","{""curiosity"":1,""confidence"":6}","[0,1]","../img/tt/112tt.jpg","",""
"3278.140000000247","","","recognition","survey-text","226","862455","0.0-6.0-3.31","2790022","co38116","norming","","","{""guess"":""fluitje""}","","../img/tt/112tt.jpg","",""
"null","../img/gs/112gs.jpg","null","reveal","image-keyboard-response","227","864456","0.0-6.0-4.31","2790022","co38116","norming","","","","","","",""
"null","../img/tt/112tt.jpg","null","mooney2","image-keyboard-response","228","866463","0.0-6.0-5.31","2790022","co38116","norming","","","","","","",""
"3150.6600000002654","","","post_reveal_questions","survey-likert","229","869615","0.0-6.0-6.31","2790022","co38116","norming","","","{""aha"":1}","[0]","../img/tt/112tt.jpg","",""
"null","<div style=""font-size:60px;""> </div>","null","fixation","html-keyboard-response","230","869816","0.0-6.0-0.32","2790022","co38116","norming","","","","","","",""
"null","../img/tt/085tt.jpg","null","mooney1","image-keyboard-response","231","872823","0.0-6.0-1.32","2790022","co38116","norming","","","","","","",""
"4590.164999999688","","","post_mooney1_questions","survey-likert","232","877411","0.0-6.0-2.32","2790022","co38116","norming","","","{""curiosity"":5,""confidence"":0}","[0,1]","../img/tt/085tt.jpg","",""
"590.145000000135","","","recognition","survey-text","233","878002","0.0-6.0-3.32","2790022","co38116","norming","","","{""guess"":""""}","","../img/tt/085tt.jpg","",""
"null","../img/gs/085gs.jpg","null","reveal","image-keyboard-response","234","880004","0.0-6.0-4.32","2790022","co38116","norming","","","","","","",""
"null","../img/tt/085tt.jpg","null","mooney2","image-keyboard-response","235","882006","0.0-6.0-5.32","2790022","co38116","norming","","","","","","",""
"1563.8500000004424","","","post_reveal_questions","survey-likert","236","883571","0.0-6.0-6.32","2790022","co38116","norming","","","{""aha"":5}","[0]","../img/tt/085tt.jpg","",""
"null","<div style=""font-size:60px;""> </div>","null","fixation","html-keyboard-response","237","883773","0.0-6.0-0.33","2790022","co38116","norming","","","","","","",""
"null","../img/tt/1276tt.jpg","null","mooney1","image-keyboard-response","238","886781","0.0-6.0-1.33","2790022","co38116","norming","","","","","","",""
"3388.570000000065","","","post_mooney1_questions","survey-likert","239","890171","0.0-6.0-2.33","2790022","co38116","norming","","","{""curiosity"":5,""confidence"":0}","[0,1]","../img/tt/1276tt.jpg","",""
"1350.0299999996787","","","recognition","survey-text","240","891522","0.0-6.0-3.33","2790022","co38116","norming","","","{""guess"":""""}","","../img/tt/1276tt.jpg","",""
"null","../img/gs/1276gs.jpg","null","reveal","image-keyboard-response","241","893531","0.0-6.0-4.33","2790022","co38116","norming","","","","","","",""
"null","../img/tt/1276tt.jpg","null","mooney2","image-keyboard-response","242","895541","0.0-6.0-5.33","2790022","co38116","norming","","","","","","",""
"2252.395000000368","","","post_reveal_questions","survey-likert","243","897794","0.0-6.0-6.33","2790022","co38116","norming","","","{""aha"":5}","[0]","../img/tt/1276tt.jpg","",""
"null","<div style=""font-size:60px;""> </div>","null","fixation","html-keyboard-response","244","898000","0.0-6.0-0.34","2790022","co38116","norming","","","","","","",""
"null","../img/tt/507tt.jpg","null","mooney1","image-keyboard-response","245","901011","0.0-6.0-1.34","2790022","co38116","norming","","","","","","",""
"4982.745000000345","","","post_mooney1_questions","survey-likert","246","905995","0.0-6.0-2.34","2790022","co38116","norming","","","{""curiosity"":5,""confidence"":0}","[0,1]","../img/tt/507tt.jpg","",""
"989.9949999999953","","","recognition","survey-text","247","906986","0.0-6.0-3.34","2790022","co38116","norming","","","{""guess"":""""}","","../img/tt/507tt.jpg","",""
"null","../img/gs/507gs.jpg","null","reveal","image-keyboard-response","248","908995","0.0-6.0-4.34","2790022","co38116","norming","","","","","","",""
"null","../img/tt/507tt.jpg","null","mooney2","image-keyboard-response","249","910996","0.0-6.0-5.34","2790022","co38116","norming","","","","","","",""
"1965.035000000149","","","post_reveal_questions","survey-likert","250","912962","0.0-6.0-6.34","2790022","co38116","norming","","","{""aha"":4}","[0]","../img/tt/507tt.jpg","",""
"null","<div style=""font-size:60px;""> </div>","null","fixation","html-keyboard-response","251","913167","0.0-6.0-0.35","2790022","co38116","norming","","","","","","",""
"null","../img/tt/126tt.jpg","null","mooney1","image-keyboard-response","252","916169","0.0-6.0-1.35","2790022","co38116","norming","","","","","","",""
"4961.014999999781","","","post_mooney1_questions","survey-likert","253","921131","0.0-6.0-2.35","2790022","co38116","norming","","","{""curiosity"":2,""confidence"":6}","[0,1]","../img/tt/126tt.jpg","",""
"2445.649999999674","","","recognition","survey-text","254","923578","0.0-6.0-3.35","2790022","co38116","norming","","","{""guess"":""koe""}","","../img/tt/126tt.jpg","",""
"null","../img/gs/126gs.jpg","null","reveal","image-keyboard-response","255","925579","0.0-6.0-4.35","2790022","co38116","norming","","","","","","",""
"null","../img/tt/126tt.jpg","null","mooney2","image-keyboard-response","256","927582","0.0-6.0-5.35","2790022","co38116","norming","","","","","","",""
"2595.674999999581","","","post_reveal_questions","survey-likert","257","930178","0.0-6.0-6.35","2790022","co38116","norming","","","{""aha"":1}","[0]","../img/tt/126tt.jpg","",""
"null","<div style=""font-size:60px;""> </div>","null","fixation","html-keyboard-response","258","930382","0.0-6.0-0.36","2790022","co38116","norming","","","","","","",""
"null","../img/tt/1261tt.jpg","null","mooney1","image-keyboard-response","259","933383","0.0-6.0-1.36","2790022","co38116","norming","","","","","","",""
"4418.7700000002515","","","post_mooney1_questions","survey-likert","260","937801","0.0-6.0-2.36","2790022","co38116","norming","","","{""curiosity"":4,""confidence"":0}","[0,1]","../img/tt/1261tt.jpg","",""
"789.9399999995949","","","recognition","survey-text","261","938593","0.0-6.0-3.36","2790022","co38116","norming","","","{""guess"":""""}","","../img/tt/1261tt.jpg","",""
"null","../img/gs/1261gs.jpg","null","reveal","image-keyboard-response","262","940597","0.0-6.0-4.36","2790022","co38116","norming","","","","","","",""
"null","../img/tt/1261tt.jpg","null","mooney2","image-keyboard-response","263","942599","0.0-6.0-5.36","2790022","co38116","norming","","","","","","",""
"2336.7399999996414","","","post_reveal_questions","survey-likert","264","944937","0.0-6.0-6.36","2790022","co38116","norming","","","{""aha"":5}","[0]","../img/tt/1261tt.jpg","",""
"null","<div style=""font-size:60px;""> </div>","null","fixation","html-keyboard-response","265","945144","0.0-6.0-0.37","2790022","co38116","norming","","","","","","",""
"null","../img/tt/1097tt.jpg","null","mooney1","image-keyboard-response","266","948153","0.0-6.0-1.37","2790022","co38116","norming","","","","","","",""
"4639.569999999367","","","post_mooney1_questions","survey-likert","267","952793","0.0-6.0-2.37","2790022","co38116","norming","","","{""curiosity"":4,""confidence"":2}","[0,1]","../img/tt/1097tt.jpg","",""
"3749.815000000177","","","recognition","survey-text","268","956545","0.0-6.0-3.37","2790022","co38116","norming","","","{""guess"":""danser""}","","../img/tt/1097tt.jpg","",""
"null","../img/gs/1097gs.jpg","null","reveal","image-keyboard-response","269","958554","0.0-6.0-4.37","2790022","co38116","norming","","","","","","",""
"null","../img/tt/1097tt.jpg","null","mooney2","image-keyboard-response","270","960555","0.0-6.0-5.37","2790022","co38116","norming","","","","","","",""
"2788.8249999997206","","","post_reveal_questions","survey-likert","271","963345","0.0-6.0-6.37","2790022","co38116","norming","","","{""aha"":6}","[0]","../img/tt/1097tt.jpg","",""
"null","<div style=""font-size:60px;""> </div>","null","fixation","html-keyboard-response","272","963547","0.0-6.0-0.38","2790022","co38116","norming","","","","","","",""
"null","../img/tt/123tt.jpg","null","mooney1","image-keyboard-response","273","966557","0.0-6.0-1.38","2790022","co38116","norming","","","","","","",""
"3250.649999999907","","","post_mooney1_questions","survey-likert","274","969809","0.0-6.0-2.38","2790022","co38116","norming","","","{""curiosity"":4,""confidence"":1}","[0,1]","../img/tt/123tt.jpg","",""
"4589.984999999637","","","recognition","survey-text","275","974401","0.0-6.0-3.38","2790022","co38116","norming","","","{""guess"":""boekentas""}","","../img/tt/123tt.jpg","",""
"null","../img/gs/123gs.jpg","null","reveal","image-keyboard-response","276","976408","0.0-6.0-4.38","2790022","co38116","norming","","","","","","",""
"null","../img/tt/123tt.jpg","null","mooney2","image-keyboard-response","277","978413","0.0-6.0-5.38","2790022","co38116","norming","","","","","","",""
"2579.015000000247","","","post_reveal_questions","survey-likert","278","980993","0.0-6.0-6.38","2790022","co38116","norming","","","{""aha"":4}","[0]","../img/tt/123tt.jpg","",""
"null","<div style=""font-size:60px;""> </div>","null","fixation","html-keyboard-response","279","981196","0.0-6.0-0.39","2790022","co38116","norming","","","","","","",""
"null","../img/tt/1226tt.jpg","null","mooney1","image-keyboard-response","280","984201","0.0-6.0-1.39","2790022","co38116","norming","","","","","","",""
"2943.270000000717","","","post_mooney1_questions","survey-likert","281","987145","0.0-6.0-2.39","2790022","co38116","norming","","","{""curiosity"":4,""confidence"":1}","[0,1]","../img/tt/1226tt.jpg","",""
"3502.079999999376","","","recognition","survey-text","282","990649","0.0-6.0-3.39","2790022","co38116","norming","","","{""guess"":""zwaan""}","","../img/tt/1226tt.jpg","",""
"null","../img/gs/1226gs.jpg","null","reveal","image-keyboard-response","283","992651","0.0-6.0-4.39","2790022","co38116","norming","","","","","","",""
"null","../img/tt/1226tt.jpg","null","mooney2","image-keyboard-response","284","994652","0.0-6.0-5.39","2790022","co38116","norming","","","","","","",""
"1691.970000000787","","","post_reveal_questions","survey-likert","285","996345","0.0-6.0-6.39","2790022","co38116","norming","","","{""aha"":5}","[0]","../img/tt/1226tt.jpg","",""
"null","<div style=""font-size:60px;""> </div>","null","fixation","html-keyboard-response","286","996549","0.0-6.0-0.40","2790022","co38116","norming","","","","","","",""
"null","../img/tt/524tt.jpg","null","mooney1","image-keyboard-response","287","999563","0.0-6.0-1.40","2790022","co38116","norming","","","","","","",""
"2884.690000000759","","","post_mooney1_questions","survey-likert","288","1002449","0.0-6.0-2.40","2790022","co38116","norming","","","{""curiosity"":4,""confidence"":3}","[0,1]","../img/tt/524tt.jpg","",""
"2974.140000000247","","","recognition","survey-text","289","1005425","0.0-6.0-3.40","2790022","co38116","norming","","","{""guess"":""olifant""}","","../img/tt/524tt.jpg","",""
"null","../img/gs/524gs.jpg","null","reveal","image-keyboard-response","290","1007428","0.0-6.0-4.40","2790022","co38116","norming","","","","","","",""
"null","../img/tt/524tt.jpg","null","mooney2","image-keyboard-response","291","1009430","0.0-6.0-5.40","2790022","co38116","norming","","","","","","",""
"2208.055000000051","","","post_reveal_questions","survey-likert","292","1011641","0.0-6.0-6.40","2790022","co38116","norming","","","{""aha"":5}","[0]","../img/tt/524tt.jpg","",""
"null","<div style=""font-size:60px;""> </div>","null","fixation","html-keyboard-response","293","1011845","0.0-6.0-0.41","2790022","co38116","norming","","","","","","",""
"null","../img/tt/076tt.jpg","null","mooney1","image-keyboard-response","294","1014856","0.0-6.0-1.41","2790022","co38116","norming","","","","","","",""
"3494.4100000002654","","","post_mooney1_questions","survey-likert","295","1018353","0.0-6.0-2.41","2790022","co38116","norming","","","{""curiosity"":4,""confidence"":0}","[0,1]","../img/tt/076tt.jpg","",""
"645.9549999999581","","","recognition","survey-text","296","1019001","0.0-6.0-3.41","2790022","co38116","norming","","","{""guess"":""""}","","../img/tt/076tt.jpg","",""
"null","../img/gs/076gs.jpg","null","reveal","image-keyboard-response","297","1021009","0.0-6.0-4.41","2790022","co38116","norming","","","","","","",""
"null","../img/tt/076tt.jpg","null","mooney2","image-keyboard-response","298","1023020","0.0-6.0-5.41","2790022","co38116","norming","","","","","","",""
"4194.469999999506","","","post_reveal_questions","survey-likert","299","1027217","0.0-6.0-6.41","2790022","co38116","norming","","","{""aha"":3}","[0]","../img/tt/076tt.jpg","",""
"null","<div style=""font-size:60px;""> </div>","null","fixation","html-keyboard-response","300","1027422","0.0-6.0-0.42","2790022","co38116","norming","","","","","","",""
"null","../img/tt/1234tt.jpg","null","mooney1","image-keyboard-response","301","1030427","0.0-6.0-1.42","2790022","co38116","norming","","","","","","",""
"3458.4749999993946","","","post_mooney1_questions","survey-likert","302","1033889","0.0-6.0-2.42","2790022","co38116","norming","","","{""curiosity"":5,""confidence"":0}","[0,1]","../img/tt/1234tt.jpg","",""
"662.245000000461","","","recognition","survey-text","303","1034553","0.0-6.0-3.42","2790022","co38116","norming","","","{""guess"":""""}","","../img/tt/1234tt.jpg","",""
"null","../img/gs/1234gs.jpg","null","reveal","image-keyboard-response","304","1036563","0.0-6.0-4.42","2790022","co38116","norming","","","","","","",""
"null","../img/tt/1234tt.jpg","null","mooney2","image-keyboard-response","305","1038565","0.0-6.0-5.42","2790022","co38116","norming","","","","","","",""
"1949.695000000298","","","post_reveal_questions","survey-likert","306","1040521","0.0-6.0-6.42","2790022","co38116","norming","","","{""aha"":5}","[0]","../img/tt/1234tt.jpg","",""
"null","<div style=""font-size:60px;""> </div>","null","fixation","html-keyboard-response","307","1040727","0.0-6.0-0.43","2790022","co38116","norming","","","","","","",""
"null","../img/tt/1363tt.jpg","null","mooney1","image-keyboard-response","308","1043730","0.0-6.0-1.43","2790022","co38116","norming","","","","","","",""
"4852.539999999921","","","post_mooney1_questions","survey-likert","309","1048585","0.0-6.0-2.43","2790022","co38116","norming","","","{""curiosity"":5,""confidence"":3}","[0,1]","../img/tt/1363tt.jpg","",""
"4525.9399999994785","","","recognition","survey-text","310","1053113","0.0-6.0-3.43","2790022","co38116","norming","","","{""guess"":""vogelbad""}","","../img/tt/1363tt.jpg","",""
"null","../img/gs/1363gs.jpg","null","reveal","image-keyboard-response","311","1055119","0.0-6.0-4.43","2790022","co38116","norming","","","","","","",""
"null","../img/tt/1363tt.jpg","null","mooney2","image-keyboard-response","312","1057128","0.0-6.0-5.43","2790022","co38116","norming","","","","","","",""
"2526.645000000717","","","post_reveal_questions","survey-likert","313","1059654","0.0-6.0-6.43","2790022","co38116","norming","","","{""aha"":4}","[0]","../img/tt/1363tt.jpg","",""
"null","<div style=""font-size:60px;""> </div>","null","fixation","html-keyboard-response","314","1059855","0.0-6.0-0.44","2790022","co38116","norming","","","","","","",""
"null","../img/tt/559tt.jpg","null","mooney1","image-keyboard-response","315","1062858","0.0-6.0-1.44","2790022","co38116","norming","","","","","","",""
"3760.575000000419","","","post_mooney1_questions","survey-likert","316","1066622","0.0-6.0-2.44","2790022","co38116","norming","","","{""curiosity"":4,""confidence"":3}","[0,1]","../img/tt/559tt.jpg","",""
"5230.354999999516","","","recognition","survey-text","317","1071854","0.0-6.0-3.44","2790022","co38116","norming","","","{""guess"":""naaimachine""}","","../img/tt/559tt.jpg","",""
"null","../img/gs/559gs.jpg","null","reveal","image-keyboard-response","318","1073864","0.0-6.0-4.44","2790022","co38116","norming","","","","","","",""
"null","../img/tt/559tt.jpg","null","mooney2","image-keyboard-response","319","1075875","0.0-6.0-5.44","2790022","co38116","norming","","","","","","",""
"4344.415000000503","","","post_reveal_questions","survey-likert","320","1080222","0.0-6.0-6.44","2790022","co38116","norming","","","{""aha"":3}","[0]","../img/tt/559tt.jpg","",""
"null","<div style=""font-size:60px;""> </div>","null","fixation","html-keyboard-response","321","1080428","0.0-6.0-0.45","2790022","co38116","norming","","","","","","",""
"null","../img/tt/273tt.jpg","null","mooney1","image-keyboard-response","322","1083431","0.0-6.0-1.45","2790022","co38116","norming","","","","","","",""
"4267.874999999534","","","post_mooney1_questions","survey-likert","323","1087702","0.0-6.0-2.45","2790022","co38116","norming","","","{""curiosity"":2,""confidence"":4}","[0,1]","../img/tt/273tt.jpg","",""
"5669.889999999898","","","recognition","survey-text","324","1093374","0.0-6.0-3.45","2790022","co38116","norming","","","{""guess"":""mond""}","","../img/tt/273tt.jpg","",""
"null","../img/gs/273gs.jpg","null","reveal","image-keyboard-response","325","1095376","0.0-6.0-4.45","2790022","co38116","norming","","","","","","",""
"null","../img/tt/273tt.jpg","null","mooney2","image-keyboard-response","326","1097380","0.0-6.0-5.45","2790022","co38116","norming","","","","","","",""
"3503.6750000000466","","","post_reveal_questions","survey-likert","327","1100886","0.0-6.0-6.45","2790022","co38116","norming","","","{""aha"":2}","[0]","../img/tt/273tt.jpg","",""
"null","<div style=""font-size:60px;""> </div>","null","fixation","html-keyboard-response","328","1101097","0.0-6.0-0.46","2790022","co38116","norming","","","","","","",""
"null","../img/tt/1012tt.jpg","null","mooney1","image-keyboard-response","329","1104108","0.0-6.0-1.46","2790022","co38116","norming","","","","","","",""
"5225.20999999973","","","post_mooney1_questions","survey-likert","330","1109334","0.0-6.0-2.46","2790022","co38116","norming","","","{""curiosity"":3,""confidence"":5}","[0,1]","../img/tt/1012tt.jpg","",""
"3853.9999999995343","","","recognition","survey-text","331","1113190","0.0-6.0-3.46","2790022","co38116","norming","","","{""guess"":""paarden""}","","../img/tt/1012tt.jpg","",""
"null","../img/gs/1012gs.jpg","null","reveal","image-keyboard-response","332","1115198","0.0-6.0-4.46","2790022","co38116","norming","","","","","","",""
"null","../img/tt/1012tt.jpg","null","mooney2","image-keyboard-response","333","1117210","0.0-6.0-5.46","2790022","co38116","norming","","","","","","",""
"3793.780000000028","","","post_reveal_questions","survey-likert","334","1121008","0.0-6.0-6.46","2790022","co38116","norming","","","{""aha"":3}","[0]","../img/tt/1012tt.jpg","",""
"null","<div style=""font-size:60px;""> </div>","null","fixation","html-keyboard-response","335","1121209","0.0-6.0-0.47","2790022","co38116","norming","","","","","","",""
"null","../img/tt/055tt.jpg","null","mooney1","image-keyboard-response","336","1124213","0.0-6.0-1.47","2790022","co38116","norming","","","","","","",""
"8031.39000000013","","","post_mooney1_questions","survey-likert","337","1132248","0.0-6.0-2.47","2790022","co38116","norming","","","{""curiosity"":3,""confidence"":6}","[0,1]","../img/tt/055tt.jpg","",""
"3557.380000000354","","","recognition","survey-text","338","1135808","0.0-6.0-3.47","2790022","co38116","norming","","","{""guess"":""zadel""}","","../img/tt/055tt.jpg","",""
"null","../img/gs/055gs.jpg","null","reveal","image-keyboard-response","339","1137812","0.0-6.0-4.47","2790022","co38116","norming","","","","","","",""
"null","../img/tt/055tt.jpg","null","mooney2","image-keyboard-response","340","1139820","0.0-6.0-5.47","2790022","co38116","norming","","","","","","",""
"2514.909999999916","","","post_reveal_questions","survey-likert","341","1142336","0.0-6.0-6.47","2790022","co38116","norming","","","{""aha"":2}","[0]","../img/tt/055tt.jpg","",""
"null","<div style=""font-size:60px;""> </div>","null","fixation","html-keyboard-response","342","1142543","0.0-6.0-0.48","2790022","co38116","norming","","","","","","",""
"null","../img/tt/1237tt.jpg","null","mooney1","image-keyboard-response","343","1145548","0.0-6.0-1.48","2790022","co38116","norming","","","","","","",""
"8760.620000000112","","","post_mooney1_questions","survey-likert","344","1154312","0.0-6.0-2.48","2790022","co38116","norming","","","{""curiosity"":2,""confidence"":5}","[0,1]","../img/tt/1237tt.jpg","",""
"3221.95999999973","","","recognition","survey-text","345","1157536","0.0-6.0-3.48","2790022","co38116","norming","","","{""guess"":""eend""}","","../img/tt/1237tt.jpg","",""
"null","../img/gs/1237gs.jpg","null","reveal","image-keyboard-response","346","1159545","0.0-6.0-4.48","2790022","co38116","norming","","","","","","",""
"null","../img/tt/1237tt.jpg","null","mooney2","image-keyboard-response","347","1161548","0.0-6.0-5.48","2790022","co38116","norming","","","","","","",""
"2777.404999999795","","","post_reveal_questions","survey-likert","348","1164328","0.0-6.0-6.48","2790022","co38116","norming","","","{""aha"":3}","[0]","../img/tt/1237tt.jpg","",""
"null","<div style=""font-size:60px;""> </div>","null","fixation","html-keyboard-response","349","1164532","0.0-6.0-0.49","2790022","co38116","norming","","","","","","",""
"null","../img/tt/358tt.jpg","null","mooney1","image-keyboard-response","350","1167544","0.0-6.0-1.49","2790022","co38116","norming","","","","","","",""
"4156.710000000196","","","post_mooney1_questions","survey-likert","351","1171704","0.0-6.0-2.49","2790022","co38116","norming","","","{""curiosity"":4,""confidence"":3}","[0,1]","../img/tt/358tt.jpg","",""
"2117.6100000003353","","","recognition","survey-text","352","1173824","0.0-6.0-3.49","2790022","co38116","norming","","","{""guess"":""paard""}","","../img/tt/358tt.jpg","",""
"null","../img/gs/358gs.jpg","null","reveal","image-keyboard-response","353","1175827","0.0-6.0-4.49","2790022","co38116","norming","","","","","","",""
"null","../img/tt/358tt.jpg","null","mooney2","image-keyboard-response","354","1177835","0.0-6.0-5.49","2790022","co38116","norming","","","","","","",""
"2538.559999999823","","","post_reveal_questions","survey-likert","355","1180377","0.0-6.0-6.49","2790022","co38116","norming","","","{""aha"":5}","[0]","../img/tt/358tt.jpg","",""
"null","<div style=""font-size:60px;""> </div>","null","fixation","html-keyboard-response","356","1180587","0.0-6.0-0.50","2790022","co38116","norming","","","","","","",""
"null","../img/tt/1033tt.jpg","null","mooney1","image-keyboard-response","357","1183593","0.0-6.0-1.50","2790022","co38116","norming","","","","","","",""
"4029.1199999991804","","","post_mooney1_questions","survey-likert","358","1187625","0.0-6.0-2.50","2790022","co38116","norming","","","{""curiosity"":4,""confidence"":2}","[0,1]","../img/tt/1033tt.jpg","",""
"8389.81500000041","","","recognition","survey-text","359","1196016","0.0-6.0-3.50","2790022","co38116","norming","","","{""guess"":""ijshockey spelers""}","","../img/tt/1033tt.jpg","",""
"null","../img/gs/1033gs.jpg","null","reveal","image-keyboard-response","360","1198023","0.0-6.0-4.50","2790022","co38116","norming","","","","","","",""
"null","../img/tt/1033tt.jpg","null","mooney2","image-keyboard-response","361","1200033","0.0-6.0-5.50","2790022","co38116","norming","","","","","","",""
"2638.56500000041","","","post_reveal_questions","survey-likert","362","1202673","0.0-6.0-6.50","2790022","co38116","norming","","","{""aha"":4}","[0]","../img/tt/1033tt.jpg","",""
"null","<div style=""font-size:60px;""> </div>","null","fixation","html-keyboard-response","363","1202880","0.0-6.0-0.51","2790022","co38116","norming","","","","","","",""
"null","../img/tt/1146tt.jpg","null","mooney1","image-keyboard-response","364","1205888","0.0-6.0-1.51","2790022","co38116","norming","","","","","","",""
"3837.1699999999255","","","post_mooney1_questions","survey-likert","365","1209729","0.0-6.0-2.51","2790022","co38116","norming","","","{""curiosity"":5,""confidence"":0}","[0,1]","../img/tt/1146tt.jpg","",""
"750.0399999998044","","","recognition","survey-text","366","1210481","0.0-6.0-3.51","2790022","co38116","norming","","","{""guess"":""""}","","../img/tt/1146tt.jpg","",""
"null","../img/gs/1146gs.jpg","null","reveal","image-keyboard-response","367","1212487","0.0-6.0-4.51","2790022","co38116","norming","","","","","","",""
"null","../img/tt/1146tt.jpg","null","mooney2","image-keyboard-response","368","1214488","0.0-6.0-5.51","2790022","co38116","norming","","","","","","",""
"1845.8449999997392","","","post_reveal_questions","survey-likert","369","1216337","0.0-6.0-6.51","2790022","co38116","norming","","","{""aha"":5}","[0]","../img/tt/1146tt.jpg","",""
"null","<div style=""font-size:60px;""> </div>","null","fixation","html-keyboard-response","370","1216542","0.0-6.0-0.52","2790022","co38116","norming","","","","","","",""
"null","../img/tt/1224tt.jpg","null","mooney1","image-keyboard-response","371","1219549","0.0-6.0-1.52","2790022","co38116","norming","","","","","","",""
"5184.5449999999255","","","post_mooney1_questions","survey-likert","372","1224737","0.0-6.0-2.52","2790022","co38116","norming","","","{""curiosity"":4,""confidence"":1}","[0,1]","../img/tt/1224tt.jpg","",""
"1966.1950000009965","","","recognition","survey-text","373","1226705","0.0-6.0-3.52","2790022","co38116","norming","","","{""guess"":""judo""}","","../img/tt/1224tt.jpg","",""
"null","../img/gs/1224gs.jpg","null","reveal","image-keyboard-response","374","1228706","0.0-6.0-4.52","2790022","co38116","norming","","","","","","",""
"null","../img/tt/1224tt.jpg","null","mooney2","image-keyboard-response","375","1230709","0.0-6.0-5.52","2790022","co38116","norming","","","","","","",""
"2441.4749999996275","","","post_reveal_questions","survey-likert","376","1233153","0.0-6.0-6.52","2790022","co38116","norming","","","{""aha"":5}","[0]","../img/tt/1224tt.jpg","",""
"null","<div style=""font-size:60px;""> </div>","null","fixation","html-keyboard-response","377","1233360","0.0-6.0-0.53","2790022","co38116","norming","","","","","","",""
"null","../img/tt/1278tt.jpg","null","mooney1","image-keyboard-response","378","1236364","0.0-6.0-1.53","2790022","co38116","norming","","","","","","",""
"2675.689999999944","","","post_mooney1_questions","survey-likert","379","1239041","0.0-6.0-2.53","2790022","co38116","norming","","","{""curiosity"":5,""confidence"":0}","[0,1]","../img/tt/1278tt.jpg","",""
"662.0400000000373","","","recognition","survey-text","380","1239705","0.0-6.0-3.53","2790022","co38116","norming","","","{""guess"":""""}","","../img/tt/1278tt.jpg","",""
"null","../img/gs/1278gs.jpg","null","reveal","image-keyboard-response","381","1241707","0.0-6.0-4.53","2790022","co38116","norming","","","","","","",""
"null","../img/tt/1278tt.jpg","null","mooney2","image-keyboard-response","382","1243709","0.0-6.0-5.53","2790022","co38116","norming","","","","","","",""
"1849.6599999999162","","","post_reveal_questions","survey-likert","383","1245561","0.0-6.0-6.53","2790022","co38116","norming","","","{""aha"":5}","[0]","../img/tt/1278tt.jpg","",""
"null","<div style=""font-size:60px;""> </div>","null","fixation","html-keyboard-response","384","1245772","0.0-6.0-0.54","2790022","co38116","norming","","","","","","",""
"null","../img/tt/184tt.jpg","null","mooney1","image-keyboard-response","385","1248776","0.0-6.0-1.54","2790022","co38116","norming","","","","","","",""
"3293.494999999879","","","post_mooney1_questions","survey-likert","386","1252073","0.0-6.0-2.54","2790022","co38116","norming","","","{""curiosity"":4,""confidence"":1}","[0,1]","../img/tt/184tt.jpg","",""
"5414.385000000009","","","recognition","survey-text","387","1257489","0.0-6.0-3.54","2790022","co38116","norming","","","{""guess"":""stekelvarken""}","","../img/tt/184tt.jpg","",""
"null","../img/gs/184gs.jpg","null","reveal","image-keyboard-response","388","1259500","0.0-6.0-4.54","2790022","co38116","norming","","","","","","",""
"null","../img/tt/184tt.jpg","null","mooney2","image-keyboard-response","389","1261505","0.0-6.0-5.54","2790022","co38116","norming","","","","","","",""
"2365.7799999990966","","","post_reveal_questions","survey-likert","390","1263873","0.0-6.0-6.54","2790022","co38116","norming","","","{""aha"":5}","[0]","../img/tt/184tt.jpg","",""
"null","<div style=""font-size:60px;""> </div>","null","fixation","html-keyboard-response","391","1264077","0.0-6.0-0.55","2790022","co38116","norming","","","","","","",""
"null","../img/tt/1272tt.jpg","null","mooney1","image-keyboard-response","392","1267079","0.0-6.0-1.55","2790022","co38116","norming","","","","","","",""
"3959.225000000559","","","post_mooney1_questions","survey-likert","393","1271042","0.0-6.0-2.55","2790022","co38116","norming","","","{""curiosity"":4,""confidence"":1}","[0,1]","../img/tt/1272tt.jpg","",""
"4045.8950000002515","","","recognition","survey-text","394","1275089","0.0-6.0-3.55","2790022","co38116","norming","","","{""guess"":""zwemmer""}","","../img/tt/1272tt.jpg","",""
"null","../img/gs/1272gs.jpg","null","reveal","image-keyboard-response","395","1277090","0.0-6.0-4.55","2790022","co38116","norming","","","","","","",""
"null","../img/tt/1272tt.jpg","null","mooney2","image-keyboard-response","396","1279095","0.0-6.0-5.55","2790022","co38116","norming","","","","","","",""
"2087.8000000002794","","","post_reveal_questions","survey-likert","397","1281185","0.0-6.0-6.55","2790022","co38116","norming","","","{""aha"":5}","[0]","../img/tt/1272tt.jpg","",""
"null","<div style=""font-size:60px;""> </div>","null","fixation","html-keyboard-response","398","1281394","0.0-6.0-0.56","2790022","co38116","norming","","","","","","",""
"null","../img/tt/1309tt.jpg","null","mooney1","image-keyboard-response","399","1284397","0.0-6.0-1.56","2790022","co38116","norming","","","","","","",""
"3744.6350000000093","","","post_mooney1_questions","survey-likert","400","1288146","0.0-6.0-2.56","2790022","co38116","norming","","","{""curiosity"":4,""confidence"":1}","[0,1]","../img/tt/1309tt.jpg","",""
"2814.1349999997765","","","recognition","survey-text","401","1290961","0.0-6.0-3.56","2790022","co38116","norming","","","{""guess"":""auto""}","","../img/tt/1309tt.jpg","",""
"null","../img/gs/1309gs.jpg","null","reveal","image-keyboard-response","402","1292963","0.0-6.0-4.56","2790022","co38116","norming","","","","","","",""
"null","../img/tt/1309tt.jpg","null","mooney2","image-keyboard-response","403","1294972","0.0-6.0-5.56","2790022","co38116","norming","","","","","","",""
"2242.6300000005867","","","post_reveal_questions","survey-likert","404","1297217","0.0-6.0-6.56","2790022","co38116","norming","","","{""aha"":3}","[0]","../img/tt/1309tt.jpg","",""
"null","<div style=""font-size:60px;""> </div>","null","fixation","html-keyboard-response","405","1297427","0.0-6.0-0.57","2790022","co38116","norming","","","","","","",""
"null","../img/tt/1080tt.jpg","null","mooney1","image-keyboard-response","406","1300435","0.0-6.0-1.57","2790022","co38116","norming","","","","","","",""
"2831.655000000028","","","post_mooney1_questions","survey-likert","407","1303270","0.0-6.0-2.57","2790022","co38116","norming","","","{""curiosity"":4,""confidence"":0}","[0,1]","../img/tt/1080tt.jpg","",""
"613.9999999995343","","","recognition","survey-text","408","1303886","0.0-6.0-3.57","2790022","co38116","norming","","","{""guess"":""""}","","../img/tt/1080tt.jpg","",""
"null","../img/gs/1080gs.jpg","null","reveal","image-keyboard-response","409","1305895","0.0-6.0-4.57","2790022","co38116","norming","","","","","","",""
"null","../img/tt/1080tt.jpg","null","mooney2","image-keyboard-response","410","1307897","0.0-6.0-5.57","2790022","co38116","norming","","","","","","",""
"1778.375","","","post_reveal_questions","survey-likert","411","1309678","0.0-6.0-6.57","2790022","co38116","norming","","","{""aha"":5}","[0]","../img/tt/1080tt.jpg","",""
"null","<div style=""font-size:60px;""> </div>","null","fixation","html-keyboard-response","412","1309881","0.0-6.0-0.58","2790022","co38116","norming","","","","","","",""
"null","../img/tt/1055tt.jpg","null","mooney1","image-keyboard-response","413","1312887","0.0-6.0-1.58","2790022","co38116","norming","","","","","","",""
"4076.469999999972","","","post_mooney1_questions","survey-likert","414","1316967","0.0-6.0-2.58","2790022","co38116","norming","","","{""curiosity"":4,""confidence"":1}","[0,1]","../img/tt/1055tt.jpg","",""
"2789.6049999997485","","","recognition","survey-text","415","1319758","0.0-6.0-3.58","2790022","co38116","norming","","","{""guess"":""zee""}","","../img/tt/1055tt.jpg","",""
"null","../img/gs/1055gs.jpg","null","reveal","image-keyboard-response","416","1321760","0.0-6.0-4.58","2790022","co38116","norming","","","","","","",""
"null","../img/tt/1055tt.jpg","null","mooney2","image-keyboard-response","417","1323763","0.0-6.0-5.58","2790022","co38116","norming","","","","","","",""
"2617.1349999995437","","","post_reveal_questions","survey-likert","418","1326382","0.0-6.0-6.58","2790022","co38116","norming","","","{""aha"":4}","[0]","../img/tt/1055tt.jpg","",""
"null","<div style=""font-size:60px;""> </div>","null","fixation","html-keyboard-response","419","1326584","0.0-6.0-0.59","2790022","co38116","norming","","","","","","",""
"null","../img/tt/1061tt.jpg","null","mooney1","image-keyboard-response","420","1329587","0.0-6.0-1.59","2790022","co38116","norming","","","","","","",""
"6342.994999999879","","","post_mooney1_questions","survey-likert","421","1335935","0.0-6.0-2.59","2790022","co38116","norming","","","{""curiosity"":4,""confidence"":0}","[0,1]","../img/tt/1061tt.jpg","",""
"933.6300000003539","","","recognition","survey-text","422","1336870","0.0-6.0-3.59","2790022","co38116","norming","","","{""guess"":""""}","","../img/tt/1061tt.jpg","",""
"null","../img/gs/1061gs.jpg","null","reveal","image-keyboard-response","423","1338877","0.0-6.0-4.59","2790022","co38116","norming","","","","","","",""
"null","../img/tt/1061tt.jpg","null","mooney2","image-keyboard-response","424","1340879","0.0-6.0-5.59","2790022","co38116","norming","","","","","","",""
"1676.7849999996834","","","post_reveal_questions","survey-likert","425","1342558","0.0-6.0-6.59","2790022","co38116","norming","","","{""aha"":4}","[0]","../img/tt/1061tt.jpg","",""
"null","<div style=""font-size:60px;""> </div>","null","fixation","html-keyboard-response","426","1342768","0.0-6.0-0.60","2790022","co38116","norming","","","","","","",""
"null","../img/tt/1290tt.jpg","null","mooney1","image-keyboard-response","427","1345772","0.0-6.0-1.60","2790022","co38116","norming","","","","","","",""
"4240.839999999618","","","post_mooney1_questions","survey-likert","428","1350014","0.0-6.0-2.60","2790022","co38116","norming","","","{""curiosity"":4,""confidence"":1}","[0,1]","../img/tt/1290tt.jpg","",""
"3566.075000000652","","","recognition","survey-text","429","1353582","0.0-6.0-3.60","2790022","co38116","norming","","","{""guess"":""lift""}","","../img/tt/1290tt.jpg","",""
"null","../img/gs/1290gs.jpg","null","reveal","image-keyboard-response","430","1355591","0.0-6.0-4.60","2790022","co38116","norming","","","","","","",""
"null","../img/tt/1290tt.jpg","null","mooney2","image-keyboard-response","431","1357593","0.0-6.0-5.60","2790022","co38116","norming","","","","","","",""
"4346.7150000005495","","","post_reveal_questions","survey-likert","432","1361942","0.0-6.0-6.60","2790022","co38116","norming","","","{""aha"":3}","[0]","../img/tt/1290tt.jpg","",""
"null","<div style=""font-size:60px;""> </div>","null","fixation","html-keyboard-response","433","1362150","0.0-6.0-0.61","2790022","co38116","norming","","","","","","",""
"null","../img/tt/301tt.jpg","null","mooney1","image-keyboard-response","434","1365161","0.0-6.0-1.61","2790022","co38116","norming","","","","","","",""
"3502.840000000084","","","post_mooney1_questions","survey-likert","435","1368667","0.0-6.0-2.61","2790022","co38116","norming","","","{""curiosity"":4,""confidence"":0}","[0,1]","../img/tt/301tt.jpg","",""
"2509.450000000419","","","recognition","survey-text","436","1371179","0.0-6.0-3.61","2790022","co38116","norming","","","{""guess"":""""}","","../img/tt/301tt.jpg","",""
"null","../img/gs/301gs.jpg","null","reveal","image-keyboard-response","437","1373187","0.0-6.0-4.61","2790022","co38116","norming","","","","","","",""
"null","../img/tt/301tt.jpg","null","mooney2","image-keyboard-response","438","1375191","0.0-6.0-5.61","2790022","co38116","norming","","","","","","",""
"1784.9950000001118","","","post_reveal_questions","survey-likert","439","1376979","0.0-6.0-6.61","2790022","co38116","norming","","","{""aha"":4}","[0]","../img/tt/301tt.jpg","",""
"null","<div style=""font-size:60px;""> </div>","null","fixation","html-keyboard-response","440","1377184","0.0-6.0-0.62","2790022","co38116","norming","","","","","","",""
"null","../img/tt/1156tt.jpg","null","mooney1","image-keyboard-response","441","1380187","0.0-6.0-1.62","2790022","co38116","norming","","","","","","",""
"4412.834999999264","","","post_mooney1_questions","survey-likert","442","1384603","0.0-6.0-2.62","2790022","co38116","norming","","","{""curiosity"":4,""confidence"":1}","[0,1]","../img/tt/1156tt.jpg","",""
"2557.91500000027","","","recognition","survey-text","443","1387163","0.0-6.0-3.62","2790022","co38116","norming","","","{""guess"":""hert""}","","../img/tt/1156tt.jpg","",""
"null","../img/gs/1156gs.jpg","null","reveal","image-keyboard-response","444","1389164","0.0-6.0-4.62","2790022","co38116","norming","","","","","","",""
"null","../img/tt/1156tt.jpg","null","mooney2","image-keyboard-response","445","1391166","0.0-6.0-5.62","2790022","co38116","norming","","","","","","",""
"3746.8000000000466","","","post_reveal_questions","survey-likert","446","1394915","0.0-6.0-6.62","2790022","co38116","norming","","","{""aha"":4}","[0]","../img/tt/1156tt.jpg","",""
"null","<div style=""font-size:60px;""> </div>","null","fixation","html-keyboard-response","447","1395119","0.0-6.0-0.63","2790022","co38116","norming","","","","","","",""
"null","../img/tt/1027tt.jpg","null","mooney1","image-keyboard-response","448","1398128","0.0-6.0-1.63","2790022","co38116","norming","","","","","","",""
"3810.144999999553","","","post_mooney1_questions","survey-likert","449","1401939","0.0-6.0-2.63","2790022","co38116","norming","","","{""curiosity"":3,""confidence"":1}","[0,1]","../img/tt/1027tt.jpg","",""
"1982.2150000000838","","","recognition","survey-text","450","1403923","0.0-6.0-3.63","2790022","co38116","norming","","","{""guess"":""koe""}","","../img/tt/1027tt.jpg","",""
"null","../img/gs/1027gs.jpg","null","reveal","image-keyboard-response","451","1405927","0.0-6.0-4.63","2790022","co38116","norming","","","","","","",""
"null","../img/tt/1027tt.jpg","null","mooney2","image-keyboard-response","452","1407929","0.0-6.0-5.63","2790022","co38116","norming","","","","","","",""
"1534.225000000326","","","post_reveal_questions","survey-likert","453","1409467","0.0-6.0-6.63","2790022","co38116","norming","","","{""aha"":4}","[0]","../img/tt/1027tt.jpg","",""
"null","<div style=""font-size:60px;""> </div>","null","fixation","html-keyboard-response","454","1409668","0.0-6.0-0.64","2790022","co38116","norming","","","","","","",""
"null","../img/tt/517tt.jpg","null","mooney1","image-keyboard-response","455","1412675","0.0-6.0-1.64","2790022","co38116","norming","","","","","","",""
"5732.5099999997765","","","post_mooney1_questions","survey-likert","456","1418411","0.0-6.0-2.64","2790022","co38116","norming","","","{""curiosity"":4,""confidence"":0}","[0,1]","../img/tt/517tt.jpg","",""
"2165.9449999998324","","","recognition","survey-text","457","1420579","0.0-6.0-3.64","2790022","co38116","norming","","","{""guess"":""lama""}","","../img/tt/517tt.jpg","",""
"null","../img/gs/517gs.jpg","null","reveal","image-keyboard-response","458","1422582","0.0-6.0-4.64","2790022","co38116","norming","","","","","","",""
"null","../img/tt/517tt.jpg","null","mooney2","image-keyboard-response","459","1424593","0.0-6.0-5.64","2790022","co38116","norming","","","","","","",""
"4559.180000000168","","","post_reveal_questions","survey-likert","460","1429150","0.0-6.0-6.64","2790022","co38116","norming","","","{""aha"":4}","[0]","../img/tt/517tt.jpg","",""
"null","<div style=""font-size:60px;""> </div>","null","fixation","html-keyboard-response","461","1429355","0.0-6.0-0.65","2790022","co38116","norming","","","","","","",""
"null","../img/tt/552tt.jpg","null","mooney1","image-keyboard-response","462","1432358","0.0-6.0-1.65","2790022","co38116","norming","","","","","","",""
"3836.7750000006054","","","post_mooney1_questions","survey-likert","463","1436199","0.0-6.0-2.65","2790022","co38116","norming","","","{""curiosity"":4,""confidence"":5}","[0,1]","../img/tt/552tt.jpg","",""
"3574.0500000002794","","","recognition","survey-text","464","1439774","0.0-6.0-3.65","2790022","co38116","norming","","","{""guess"":""stinkdier""}","","../img/tt/552tt.jpg","",""
"null","../img/gs/552gs.jpg","null","reveal","image-keyboard-response","465","1441777","0.0-6.0-4.65","2790022","co38116","norming","","","","","","",""
"null","../img/tt/552tt.jpg","null","mooney2","image-keyboard-response","466","1443781","0.0-6.0-5.65","2790022","co38116","norming","","","","","","",""
"2734.625","","","post_reveal_questions","survey-likert","467","1446518","0.0-6.0-6.65","2790022","co38116","norming","","","{""aha"":3}","[0]","../img/tt/552tt.jpg","",""
"null","<div style=""font-size:60px;""> </div>","null","fixation","html-keyboard-response","468","1446723","0.0-6.0-0.66","2790022","co38116","norming","","","","","","",""
"null","../img/tt/1236tt.jpg","null","mooney1","image-keyboard-response","469","1449726","0.0-6.0-1.66","2790022","co38116","norming","","","","","","",""
"3068.5750000001863","","","post_mooney1_questions","survey-likert","470","1452798","0.0-6.0-2.66","2790022","co38116","norming","","","{""curiosity"":4,""confidence"":2}","[0,1]","../img/tt/1236tt.jpg","",""
"2925.9799999999814","","","recognition","survey-text","471","1455726","0.0-6.0-3.66","2790022","co38116","norming","","","{""guess"":""eend""}","","../img/tt/1236tt.jpg","",""
"null","../img/gs/1236gs.jpg","null","reveal","image-keyboard-response","472","1457737","0.0-6.0-4.66","2790022","co38116","norming","","","","","","",""
"null","../img/tt/1236tt.jpg","null","mooney2","image-keyboard-response","473","1459739","0.0-6.0-5.66","2790022","co38116","norming","","","","","","",""
"2296.5750000001863","","","post_reveal_questions","survey-likert","474","1462038","0.0-6.0-6.66","2790022","co38116","norming","","","{""aha"":4}","[0]","../img/tt/1236tt.jpg","",""
"null","<div style=""font-size:60px;""> </div>","null","fixation","html-keyboard-response","475","1462240","0.0-6.0-0.67","2790022","co38116","norming","","","","","","",""
"null","../img/tt/091tt.jpg","null","mooney1","image-keyboard-response","476","1465246","0.0-6.0-1.67","2790022","co38116","norming","","","","","","",""
"3332.1150000002235","","","post_mooney1_questions","survey-likert","477","1468582","0.0-6.0-2.67","2790022","co38116","norming","","","{""curiosity"":5,""confidence"":0}","[0,1]","../img/tt/091tt.jpg","",""
"878.0850000004284","","","recognition","survey-text","478","1469462","0.0-6.0-3.67","2790022","co38116","norming","","","{""guess"":""""}","","../img/tt/091tt.jpg","",""
"null","../img/gs/091gs.jpg","null","reveal","image-keyboard-response","479","1471470","0.0-6.0-4.67","2790022","co38116","norming","","","","","","",""
"null","../img/tt/091tt.jpg","null","mooney2","image-keyboard-response","480","1473476","0.0-6.0-5.67","2790022","co38116","norming","","","","","","",""
"1575.869999999646","","","post_reveal_questions","survey-likert","481","1475054","0.0-6.0-6.67","2790022","co38116","norming","","","{""aha"":4}","[0]","../img/tt/091tt.jpg","",""
"null","<div style=""font-size:60px;""> </div>","null","fixation","html-keyboard-response","482","1475255","0.0-6.0-0.68","2790022","co38116","norming","","","","","","",""
"null","../img/tt/442tt.jpg","null","mooney1","image-keyboard-response","483","1478257","0.0-6.0-1.68","2790022","co38116","norming","","","","","","",""
"4545.465000000084","","","post_mooney1_questions","survey-likert","484","1482806","0.0-6.0-2.68","2790022","co38116","norming","","","{""curiosity"":4,""confidence"":0}","[0,1]","../img/tt/442tt.jpg","",""
"725.9099999992177","","","recognition","survey-text","485","1483534","0.0-6.0-3.68","2790022","co38116","norming","","","{""guess"":""""}","","../img/tt/442tt.jpg","",""
"null","../img/gs/442gs.jpg","null","reveal","image-keyboard-response","486","1485538","0.0-6.0-4.68","2790022","co38116","norming","","","","","","",""
"null","../img/tt/442tt.jpg","null","mooney2","image-keyboard-response","487","1487539","0.0-6.0-5.68","2790022","co38116","norming","","","","","","",""
"1879.6899999999441","","","post_reveal_questions","survey-likert","488","1489426","0.0-6.0-6.68","2790022","co38116","norming","","","{""aha"":5}","[0]","../img/tt/442tt.jpg","",""
"null","<div style=""font-size:60px;""> </div>","null","fixation","html-keyboard-response","489","1489628","0.0-6.0-0.69","2790022","co38116","norming","","","","","","",""
"null","../img/tt/094tt.jpg","null","mooney1","image-keyboard-response","490","1492638","0.0-6.0-1.69","2790022","co38116","norming","","","","","","",""
"3279.7050000000745","","","post_mooney1_questions","survey-likert","491","1495922","0.0-6.0-2.69","2790022","co38116","norming","","","{""curiosity"":4,""confidence"":1}","[0,1]","../img/tt/094tt.jpg","",""
"1901.9550000003073","","","recognition","survey-text","492","1497825","0.0-6.0-3.69","2790022","co38116","norming","","","{""guess"":""wolf""}","","../img/tt/094tt.jpg","",""
"null","../img/gs/094gs.jpg","null","reveal","image-keyboard-response","493","1499832","0.0-6.0-4.69","2790022","co38116","norming","","","","","","",""
"null","../img/tt/094tt.jpg","null","mooney2","image-keyboard-response","494","1501835","0.0-6.0-5.69","2790022","co38116","norming","","","","","","",""
"3196.2099999999627","","","post_reveal_questions","survey-likert","495","1505034","0.0-6.0-6.69","2790022","co38116","norming","","","{""aha"":4}","[0]","../img/tt/094tt.jpg","",""
"null","<div style=""font-size:60px;""> </div>","null","fixation","html-keyboard-response","496","1505236","0.0-6.0-0.70","2790022","co38116","norming","","","","","","",""
"null","../img/tt/1089tt.jpg","null","mooney1","image-keyboard-response","497","1508241","0.0-6.0-1.70","2790022","co38116","norming","","","","","","",""
"3637.229999999283","","","post_mooney1_questions","survey-likert","498","1511882","0.0-6.0-2.70","2790022","co38116","norming","","","{""curiosity"":4,""confidence"":5}","[0,1]","../img/tt/1089tt.jpg","",""
"3365.9449999995995","","","recognition","survey-text","499","1515250","0.0-6.0-3.70","2790022","co38116","norming","","","{""guess"":""olifanten""}","","../img/tt/1089tt.jpg","",""
"null","../img/gs/1089gs.jpg","null","reveal","image-keyboard-response","500","1517253","0.0-6.0-4.70","2790022","co38116","norming","","","","","","",""
"null","../img/tt/1089tt.jpg","null","mooney2","image-keyboard-response","501","1519262","0.0-6.0-5.70","2790022","co38116","norming","","","","","","",""
"3016.244999999879","","","post_reveal_questions","survey-likert","502","1522281","0.0-6.0-6.70","2790022","co38116","norming","","","{""aha"":3}","[0]","../img/tt/1089tt.jpg","",""
"null","<div style=""font-size:60px;""> </div>","null","fixation","html-keyboard-response","503","1522490","0.0-6.0-0.71","2790022","co38116","norming","","","","","","",""
"null","../img/tt/599tt.jpg","null","mooney1","image-keyboard-response","504","1525502","0.0-6.0-1.71","2790022","co38116","norming","","","","","","",""
"2863.7899999995716","","","post_mooney1_questions","survey-likert","505","1528370","0.0-6.0-2.71","2790022","co38116","norming","","","{""curiosity"":4,""confidence"":2}","[0,1]","../img/tt/599tt.jpg","",""
"2974.165000000503","","","recognition","survey-text","506","1531346","0.0-6.0-3.71","2790022","co38116","norming","","","{""guess"":""linder""}","","../img/tt/599tt.jpg","",""
"null","../img/gs/599gs.jpg","null","reveal","image-keyboard-response","507","1533347","0.0-6.0-4.71","2790022","co38116","norming","","","","","","",""
"null","../img/tt/599tt.jpg","null","mooney2","image-keyboard-response","508","1535354","0.0-6.0-5.71","2790022","co38116","norming","","","","","","",""
"1980.1999999999534","","","post_reveal_questions","survey-likert","509","1537337","0.0-6.0-6.71","2790022","co38116","norming","","","{""aha"":5}","[0]","../img/tt/599tt.jpg","",""
"null","<div style=""font-size:60px;""> </div>","null","fixation","html-keyboard-response","510","1537539","0.0-6.0-0.72","2790022","co38116","norming","","","","","","",""
"null","../img/tt/1366tt.jpg","null","mooney1","image-keyboard-response","511","1540542","0.0-6.0-1.72","2790022","co38116","norming","","","","","","",""
"3367.219999999972","","","post_mooney1_questions","survey-likert","512","1543914","0.0-6.0-2.72","2790022","co38116","norming","","","{""curiosity"":5,""confidence"":0}","[0,1]","../img/tt/1366tt.jpg","",""
"797.8950000007171","","","recognition","survey-text","513","1544713","0.0-6.0-3.72","2790022","co38116","norming","","","{""guess"":""""}","","../img/tt/1366tt.jpg","",""
"null","../img/gs/1366gs.jpg","null","reveal","image-keyboard-response","514","1546718","0.0-6.0-4.72","2790022","co38116","norming","","","","","","",""
"null","../img/tt/1366tt.jpg","null","mooney2","image-keyboard-response","515","1548721","0.0-6.0-5.72","2790022","co38116","norming","","","","","","",""
"2789.8900000001304","","","post_reveal_questions","survey-likert","516","1551511","0.0-6.0-6.72","2790022","co38116","norming","","","{""aha"":4}","[0]","../img/tt/1366tt.jpg","",""
"null","<div style=""font-size:60px;""> </div>","null","fixation","html-keyboard-response","517","1551720","0.0-6.0-0.73","2790022","co38116","norming","","","","","","",""
"null","../img/tt/1188tt.jpg","null","mooney1","image-keyboard-response","518","1554726","0.0-6.0-1.73","2790022","co38116","norming","","","","","","",""
"4092.6299999991897","","","post_mooney1_questions","survey-likert","519","1558823","0.0-6.0-2.73","2790022","co38116","norming","","","{""curiosity"":4,""confidence"":3}","[0,1]","../img/tt/1188tt.jpg","",""
"3286.1599999996834","","","recognition","survey-text","520","1562111","0.0-6.0-3.73","2790022","co38116","norming","","","{""guess"":""wielrener""}","","../img/tt/1188tt.jpg","",""
"null","../img/gs/1188gs.jpg","null","reveal","image-keyboard-response","521","1564113","0.0-6.0-4.73","2790022","co38116","norming","","","","","","",""
"null","../img/tt/1188tt.jpg","null","mooney2","image-keyboard-response","522","1566118","0.0-6.0-5.73","2790022","co38116","norming","","","","","","",""
"4094.8849999995437","","","post_reveal_questions","survey-likert","523","1570215","0.0-6.0-6.73","2790022","co38116","norming","","","{""aha"":3}","[0]","../img/tt/1188tt.jpg","",""
"null","<div style=""font-size:60px;""> </div>","null","fixation","html-keyboard-response","524","1570420","0.0-6.0-0.74","2790022","co38116","norming","","","","","","",""
"null","../img/tt/1269tt.jpg","null","mooney1","image-keyboard-response","525","1573424","0.0-6.0-1.74","2790022","co38116","norming","","","","","","",""
"7124.375000000466","","","post_mooney1_questions","survey-likert","526","1580552","0.0-6.0-2.74","2790022","co38116","norming","","","{""curiosity"":2,""confidence"":6}","[0,1]","../img/tt/1269tt.jpg","",""
"3012.695000000298","","","recognition","survey-text","527","1583567","0.0-6.0-3.74","2790022","co38116","norming","","","{""guess"":""eekhoorn""}","","../img/tt/1269tt.jpg","",""
"null","../img/gs/1269gs.jpg","null","reveal","image-keyboard-response","528","1585569","0.0-6.0-4.74","2790022","co38116","norming","","","","","","",""
"null","../img/tt/1269tt.jpg","null","mooney2","image-keyboard-response","529","1587573","0.0-6.0-5.74","2790022","co38116","norming","","","","","","",""
"3446.8499999993946","","","post_reveal_questions","survey-likert","530","1591023","0.0-6.0-6.74","2790022","co38116","norming","","","{""aha"":2}","[0]","../img/tt/1269tt.jpg","",""
"null","<div style=""font-size:60px;""> </div>","null","fixation","html-keyboard-response","531","1591225","0.0-6.0-0.75","2790022","co38116","norming","","","","","","",""
"null","../img/tt/1044tt.jpg","null","mooney1","image-keyboard-response","532","1594232","0.0-6.0-1.75","2790022","co38116","norming","","","","","","",""
"3467.1299999998882","","","post_mooney1_questions","survey-likert","533","1597703","0.0-6.0-2.75","2790022","co38116","norming","","","{""curiosity"":4,""confidence"":2}","[0,1]","../img/tt/1044tt.jpg","",""
"2005.9849999996368","","","recognition","survey-text","534","1599711","0.0-6.0-3.75","2790022","co38116","norming","","","{""guess"":""kat""}","","../img/tt/1044tt.jpg","",""
"null","../img/gs/1044gs.jpg","null","reveal","image-keyboard-response","535","1601713","0.0-6.0-4.75","2790022","co38116","norming","","","","","","",""
"null","../img/tt/1044tt.jpg","null","mooney2","image-keyboard-response","536","1603716","0.0-6.0-5.75","2790022","co38116","norming","","","","","","",""
"1935.594999999972","","","post_reveal_questions","survey-likert","537","1605655","0.0-6.0-6.75","2790022","co38116","norming","","","{""aha"":4}","[0]","../img/tt/1044tt.jpg","",""
"null","<div style=""font-size:60px;""> </div>","null","fixation","html-keyboard-response","538","1605857","0.0-6.0-0.76","2790022","co38116","norming","","","","","","",""
"null","../img/tt/108tt.jpg","null","mooney1","image-keyboard-response","539","1608867","0.0-6.0-1.76","2790022","co38116","norming","","","","","","",""
"2719.2949999999255","","","post_mooney1_questions","survey-likert","540","1611590","0.0-6.0-2.76","2790022","co38116","norming","","","{""curiosity"":4,""confidence"":1}","[0,1]","../img/tt/108tt.jpg","",""
"2630.0949999995064","","","recognition","survey-text","541","1614221","0.0-6.0-3.76","2790022","co38116","norming","","","{""guess"":""panda""}","","../img/tt/108tt.jpg","",""
"null","../img/gs/108gs.jpg","null","reveal","image-keyboard-response","542","1616231","0.0-6.0-4.76","2790022","co38116","norming","","","","","","",""
"null","../img/tt/108tt.jpg","null","mooney2","image-keyboard-response","543","1618233","0.0-6.0-5.76","2790022","co38116","norming","","","","","","",""
"2266.5749999997206","","","post_reveal_questions","survey-likert","544","1620502","0.0-6.0-6.76","2790022","co38116","norming","","","{""aha"":5}","[0]","../img/tt/108tt.jpg","",""
"null","<div style=""font-size:60px;""> </div>","null","fixation","html-keyboard-response","545","1620703","0.0-6.0-0.77","2790022","co38116","norming","","","","","","",""
"null","../img/tt/020tt.jpg","null","mooney1","image-keyboard-response","546","1623708","0.0-6.0-1.77","2790022","co38116","norming","","","","","","",""
"5686.314999999944","","","post_mooney1_questions","survey-likert","547","1629398","0.0-6.0-2.77","2790022","co38116","norming","","","{""curiosity"":4,""confidence"":1}","[0,1]","../img/tt/020tt.jpg","",""
"2293.8199999998324","","","recognition","survey-text","548","1631693","0.0-6.0-3.77","2790022","co38116","norming","","","{""guess"":""hond""}","","../img/tt/020tt.jpg","",""
"null","../img/gs/020gs.jpg","null","reveal","image-keyboard-response","549","1633697","0.0-6.0-4.77","2790022","co38116","norming","","","","","","",""
"null","../img/tt/020tt.jpg","null","mooney2","image-keyboard-response","550","1635706","0.0-6.0-5.77","2790022","co38116","norming","","","","","","",""
"5394.799999999814","","","post_reveal_questions","survey-likert","551","1641101","0.0-6.0-6.77","2790022","co38116","norming","","","{""aha"":4}","[0]","../img/tt/020tt.jpg","",""
"null","<div style=""font-size:60px;""> </div>","null","fixation","html-keyboard-response","552","1641307","0.0-6.0-0.78","2790022","co38116","norming","","","","","","",""
