"rt","stimulus","key_press","test_part","trial_type","trial_index","time_elapsed","internal_node_id","totalTime","subject","experiment_name","button_pressed","success","responses","question_order","currentStim","old","correct"
"4255.404999999997","Welcome to the experiment. This is an online experiment so please don't close the tab/window until we say goodbye.  Press any key to begin.","13","instructions","html-keyboard-response","0","4270","0.0-0.0","2540820","co38110","norming","","","","","","",""
"3630.7199999999975","<div style='word-wrap: break-word; width: 900px'><h3>Please consider this information carefully before deciding whether to participate in this research</h3><ul style='text-align: left; font-size: .8em;'><li><b>Purpose of the research</b>: To examine how people process images.</li><li><b>What you will do in this research</b>:  Stimuli (images) will be presented on the computer and you will be asked different questions about them.</li><li><b>Time required</b>: Participation will take between 45 and 60 minutes to complete.</li><li><b>Risks</b>:  There are no anticipated risks associated with participating in this study. The effects of participating should be comparable to those you would experience from viewing a computer monitor for 30 minutes and using a mouse or keyboard.</li><li><b>Benefits</b>:  This study provides no benefits to you individually except for the credit. The study provides important information about the nature of perception and learning.</li><li><b>Confidentiality</b>:  Your participation in this study will remain confidential. No personally identifiable information will be associated with your data. Your de-identified data may be shared with other researchers and used in future projects.</li><li><b>Participation and withdrawal</b>:  Your participation in this study is completely voluntary and you may refuse to participate or you may choose to withdraw at any time without penalty.</li><li><b>How to contact the researchers</b>: If you have questions or concerns about your participation or payment, or want to request a summary of research findings, please contact Sander Van de Cruys (KU Leuven), at sander.vandecruys@kuleuven.be.</li></ul><p>The nature and purpose of this research have been sufficiently explained and I agree to participate in this study.  I understand that I am free to withdraw at any time without incurring any penalty.</p><p>Please consent by clicking the button below to continue. Otherwise, please exit the study at this time.</p></div>","","instructions","html-button-response","1","7902","0.0-1.0","2540820","co38110","norming","0","","","","","",""
"","","","instructions","fullscreen","2","14020","0.0-2.0","2540820","co38110","norming","","true","","","","",""
"25975.605000000032","","","sona","survey-html-form","3","40001","0.0-3.0","2540820","co38110","norming","","","[{""name"":""sonaid"",""value"":""38110""},{""name"":""debrief"",""value"":""no""},{""name"":""datajoin"",""value"":""yes""}]","","","",""
"16826.959999999985","<div style='word-wrap: break-word; width: 900px'><h3>Instructions</h3><p>This experiment will have 3 parts. In the first part you will see a series of distorted images like the one below on the left. As you can see in the righthand image, the distorted images are derived from actual photographs. In what follows, you will <strong>briefly</strong> be presented with <strong>only</strong> the distorted image.</p> <div style='float: left; margin-right: 20px;'><img src='../img/018tt.jpg' height='250' width='250'></img></div><div style='float: right; margin-left: 20px;'><img src='../img/018gs.jpg' height='250' width='250'></img></div><p>Subsequently you will be asked a few questions about the image: One question on how <strong>curious</strong> you are about the solution and one on how <strong>confident</strong> you are that you know the solution.</p>Next, we ask you to make a guess on what is in the image. Note that it is OK to name just the <strong>basic level category</strong>. For example when you see a parrot in the image, 'parrot' will obviously be a correct answer but also correct is 'bird'. However, 'animal' will <strong>not</strong> be counted as a correct response. For the example above, 'rose' would be correct or 'flower', but not 'plant'. When soccer players are depicted, 'soccer', 'football', 'soccer players' will be correct, but not 'humans', 'outdoors', or 'sports'. You do not need to describe the image in full, just name the main object in it <strong>in one or two words</strong>. All images depict objects from one of the following broad level categories: animals, inanimate objects, plants, sports, vehicles, and food. Recognizing means knowing <strong>more</strong> than these broad labels for a given image. But we always encourage you to <strong>make a guess</strong> if you can. Note that you are allowed to use <strong>Dutch and English</strong> in your answers, whatever comes easiest for you.</p><p>Press any key to continue.</p></div>","13","instructions","html-keyboard-response","4","56829","0.0-4.0","2540820","co38110","norming","","","","","","",""
"160511.84999999998","<div style='word-wrap: break-word; width: 900px'><h3>Instructions</h3> <p>Next, the solution image will be revealed to you and you'll be asked to indicate how strong your <strong>aha-experience</strong> was after seeing the solution. This describes the positive feeling of the 'click' you sometimes experience, when the pieces of the 'puzzle' fall together and you suddenly have 'insight' in the image.</p><img src='aha.jpg' height='188' width='250'></img><p>Note that there are no right or wrong answers. We are interested in what <strong>you</strong> see in the image and how <strong>you</strong> feel about it.</p><p>Press any key to start the experiment.</p></div>","13","instructions","html-keyboard-response","5","216623","0.0-5.0","2540820","co38110","norming","","","","","","",""
"null","<div style=""font-size:60px;""> </div>","null","fixation","html-keyboard-response","6","216825","0.0-6.0-0.0","2540820","co38110","norming","","","","","","",""
"null","../img/tt/1309tt.jpg","null","mooney1","image-keyboard-response","7","219831","0.0-6.0-1.0","2540820","co38110","norming","","","","","","",""
"12532.23999999999","","","post_mooney1_questions","survey-likert","8","232367","0.0-6.0-2.0","2540820","co38110","norming","","","{""curiosity"":5,""confidence"":1}","[0,1]","../img/tt/1309tt.jpg","",""
"16316.685000000027","","","recognition","survey-text","9","248687","0.0-6.0-3.0","2540820","co38110","norming","","","{""guess"":""""}","","../img/tt/1309tt.jpg","",""
"null","../img/gs/1309gs.jpg","null","reveal","image-keyboard-response","10","250695","0.0-6.0-4.0","2540820","co38110","norming","","","","","","",""
"null","../img/tt/1309tt.jpg","null","mooney2","image-keyboard-response","11","252698","0.0-6.0-5.0","2540820","co38110","norming","","","","","","",""
"5402.479999999981","","","post_reveal_questions","survey-likert","12","258103","0.0-6.0-6.0","2540820","co38110","norming","","","{""aha"":5}","[0]","../img/tt/1309tt.jpg","",""
"null","<div style=""font-size:60px;""> </div>","null","fixation","html-keyboard-response","13","258306","0.0-6.0-0.1","2540820","co38110","norming","","","","","","",""
"null","../img/tt/270tt.jpg","null","mooney1","image-keyboard-response","14","261312","0.0-6.0-1.1","2540820","co38110","norming","","","","","","",""
"4814.575000000012","","","post_mooney1_questions","survey-likert","15","266127","0.0-6.0-2.1","2540820","co38110","norming","","","{""curiosity"":4,""confidence"":2}","[0,1]","../img/tt/270tt.jpg","",""
"2317.960000000079","","","recognition","survey-text","16","268447","0.0-6.0-3.1","2540820","co38110","norming","","","{""guess"":""""}","","../img/tt/270tt.jpg","",""
"null","../img/gs/270gs.jpg","null","reveal","image-keyboard-response","17","270452","0.0-6.0-4.1","2540820","co38110","norming","","","","","","",""
"null","../img/tt/270tt.jpg","null","mooney2","image-keyboard-response","18","272462","0.0-6.0-5.1","2540820","co38110","norming","","","","","","",""
"2566.375","","","post_reveal_questions","survey-likert","19","275030","0.0-6.0-6.1","2540820","co38110","norming","","","{""aha"":6}","[0]","../img/tt/270tt.jpg","",""
"null","<div style=""font-size:60px;""> </div>","null","fixation","html-keyboard-response","20","275237","0.0-6.0-0.2","2540820","co38110","norming","","","","","","",""
"null","../img/tt/1027tt.jpg","null","mooney1","image-keyboard-response","21","278053","0.0-6.0-1.2","2540820","co38110","norming","","","","","","",""
"5892.614999999991","","","post_mooney1_questions","survey-likert","22","283949","0.0-6.0-2.2","2540820","co38110","norming","","","{""curiosity"":4,""confidence"":1}","[0,1]","../img/tt/1027tt.jpg","",""
"8525.819999999949","","","recognition","survey-text","23","292476","0.0-6.0-3.2","2540820","co38110","norming","","","{""guess"":""an animal""}","","../img/tt/1027tt.jpg","",""
"null","../img/gs/1027gs.jpg","null","reveal","image-keyboard-response","24","294482","0.0-6.0-4.2","2540820","co38110","norming","","","","","","",""
"null","../img/tt/1027tt.jpg","null","mooney2","image-keyboard-response","25","296484","0.0-6.0-5.2","2540820","co38110","norming","","","","","","",""
"4173.920000000042","","","post_reveal_questions","survey-likert","26","300660","0.0-6.0-6.2","2540820","co38110","norming","","","{""aha"":4}","[0]","../img/tt/1027tt.jpg","",""
"null","<div style=""font-size:60px;""> </div>","null","fixation","html-keyboard-response","27","300862","0.0-6.0-0.3","2540820","co38110","norming","","","","","","",""
"null","../img/tt/121tt.jpg","null","mooney1","image-keyboard-response","28","303866","0.0-6.0-1.3","2540820","co38110","norming","","","","","","",""
"5817.474999999977","","","post_mooney1_questions","survey-likert","29","309685","0.0-6.0-2.3","2540820","co38110","norming","","","{""curiosity"":3,""confidence"":2}","[0,1]","../img/tt/121tt.jpg","",""
"1245.7849999999744","","","recognition","survey-text","30","310932","0.0-6.0-3.3","2540820","co38110","norming","","","{""guess"":""""}","","../img/tt/121tt.jpg","",""
"null","../img/gs/121gs.jpg","null","reveal","image-keyboard-response","31","312941","0.0-6.0-4.3","2540820","co38110","norming","","","","","","",""
"null","../img/tt/121tt.jpg","null","mooney2","image-keyboard-response","32","314947","0.0-6.0-5.3","2540820","co38110","norming","","","","","","",""
"2488.6900000000023","","","post_reveal_questions","survey-likert","33","317436","0.0-6.0-6.3","2540820","co38110","norming","","","{""aha"":4}","[0]","../img/tt/121tt.jpg","",""
"null","<div style=""font-size:60px;""> </div>","null","fixation","html-keyboard-response","34","317638","0.0-6.0-0.4","2540820","co38110","norming","","","","","","",""
"null","../img/tt/140tt.jpg","null","mooney1","image-keyboard-response","35","320644","0.0-6.0-1.4","2540820","co38110","norming","","","","","","",""
"6767.725000000093","","","post_mooney1_questions","survey-likert","36","327413","0.0-6.0-2.4","2540820","co38110","norming","","","{""curiosity"":4,""confidence"":3}","[0,1]","../img/tt/140tt.jpg","",""
"4726.165000000037","","","recognition","survey-text","37","332141","0.0-6.0-3.4","2540820","co38110","norming","","","{""guess"":""a bird""}","","../img/tt/140tt.jpg","",""
"null","../img/gs/140gs.jpg","null","reveal","image-keyboard-response","38","334143","0.0-6.0-4.4","2540820","co38110","norming","","","","","","",""
"null","../img/tt/140tt.jpg","null","mooney2","image-keyboard-response","39","336154","0.0-6.0-5.4","2540820","co38110","norming","","","","","","",""
"2263.9800000000396","","","post_reveal_questions","survey-likert","40","338348","0.0-6.0-6.4","2540820","co38110","norming","","","{""aha"":6}","[0]","../img/tt/140tt.jpg","",""
"null","<div style=""font-size:60px;""> </div>","null","fixation","html-keyboard-response","41","338549","0.0-6.0-0.5","2540820","co38110","norming","","","","","","",""
"null","../img/tt/112tt.jpg","null","mooney1","image-keyboard-response","42","341561","0.0-6.0-1.5","2540820","co38110","norming","","","","","","",""
"3936.70000000007","","","post_mooney1_questions","survey-likert","43","345500","0.0-6.0-2.5","2540820","co38110","norming","","","{""curiosity"":4,""confidence"":2}","[0,1]","../img/tt/112tt.jpg","",""
"1198.0899999999674","","","recognition","survey-text","44","346700","0.0-6.0-3.5","2540820","co38110","norming","","","{""guess"":""""}","","../img/tt/112tt.jpg","",""
"null","../img/gs/112gs.jpg","null","reveal","image-keyboard-response","45","348709","0.0-6.0-4.5","2540820","co38110","norming","","","","","","",""
"null","../img/tt/112tt.jpg","null","mooney2","image-keyboard-response","46","350719","0.0-6.0-5.5","2540820","co38110","norming","","","","","","",""
"1860.5350000000326","","","post_reveal_questions","survey-likert","47","352580","0.0-6.0-6.5","2540820","co38110","norming","","","{""aha"":4}","[0]","../img/tt/112tt.jpg","",""
"null","<div style=""font-size:60px;""> </div>","null","fixation","html-keyboard-response","48","352783","0.0-6.0-0.6","2540820","co38110","norming","","","","","","",""
"null","../img/tt/1024tt.jpg","null","mooney1","image-keyboard-response","49","355788","0.0-6.0-1.6","2540820","co38110","norming","","","","","","",""
"5983.139999999956","","","post_mooney1_questions","survey-likert","50","361772","0.0-6.0-2.6","2540820","co38110","norming","","","{""curiosity"":3,""confidence"":0}","[0,1]","../img/tt/1024tt.jpg","",""
"894.0499999999884","","","recognition","survey-text","51","362668","0.0-6.0-3.6","2540820","co38110","norming","","","{""guess"":""""}","","../img/tt/1024tt.jpg","",""
"null","../img/gs/1024gs.jpg","null","reveal","image-keyboard-response","52","364676","0.0-6.0-4.6","2540820","co38110","norming","","","","","","",""
"null","../img/tt/1024tt.jpg","null","mooney2","image-keyboard-response","53","366679","0.0-6.0-5.6","2540820","co38110","norming","","","","","","",""
"3891.115000000049","","","post_reveal_questions","survey-likert","54","370572","0.0-6.0-6.6","2540820","co38110","norming","","","{""aha"":4}","[0]","../img/tt/1024tt.jpg","",""
"null","<div style=""font-size:60px;""> </div>","null","fixation","html-keyboard-response","55","370775","0.0-6.0-0.7","2540820","co38110","norming","","","","","","",""
"null","../img/tt/1097tt.jpg","null","mooney1","image-keyboard-response","56","373780","0.0-6.0-1.7","2540820","co38110","norming","","","","","","",""
"6653.410000000033","","","post_mooney1_questions","survey-likert","57","380436","0.0-6.0-2.7","2540820","co38110","norming","","","{""curiosity"":3,""confidence"":3}","[0,1]","../img/tt/1097tt.jpg","",""
"5998.160000000033","","","recognition","survey-text","58","386436","0.0-6.0-3.7","2540820","co38110","norming","","","{""guess"":""a human""}","","../img/tt/1097tt.jpg","",""
"null","../img/gs/1097gs.jpg","null","reveal","image-keyboard-response","59","388442","0.0-6.0-4.7","2540820","co38110","norming","","","","","","",""
"null","../img/tt/1097tt.jpg","null","mooney2","image-keyboard-response","60","390445","0.0-6.0-5.7","2540820","co38110","norming","","","","","","",""
"1973.2350000000442","","","post_reveal_questions","survey-likert","61","392420","0.0-6.0-6.7","2540820","co38110","norming","","","{""aha"":3}","[0]","../img/tt/1097tt.jpg","",""
"null","<div style=""font-size:60px;""> </div>","null","fixation","html-keyboard-response","62","392624","0.0-6.0-0.8","2540820","co38110","norming","","","","","","",""
"null","../img/tt/1012tt.jpg","null","mooney1","image-keyboard-response","63","395629","0.0-6.0-1.8","2540820","co38110","norming","","","","","","",""
"3348.164999999979","","","post_mooney1_questions","survey-likert","64","398983","0.0-6.0-2.8","2540820","co38110","norming","","","{""curiosity"":3,""confidence"":2}","[0,1]","../img/tt/1012tt.jpg","",""
"1254.1049999999814","","","recognition","survey-text","65","400239","0.0-6.0-3.8","2540820","co38110","norming","","","{""guess"":""""}","","../img/tt/1012tt.jpg","",""
"null","../img/gs/1012gs.jpg","null","reveal","image-keyboard-response","66","402243","0.0-6.0-4.8","2540820","co38110","norming","","","","","","",""
"null","../img/tt/1012tt.jpg","null","mooney2","image-keyboard-response","67","404253","0.0-6.0-5.8","2540820","co38110","norming","","","","","","",""
"2262.969999999972","","","post_reveal_questions","survey-likert","68","406519","0.0-6.0-6.8","2540820","co38110","norming","","","{""aha"":5}","[0]","../img/tt/1012tt.jpg","",""
"null","<div style=""font-size:60px;""> </div>","null","fixation","html-keyboard-response","69","406725","0.0-6.0-0.9","2540820","co38110","norming","","","","","","",""
"null","../img/tt/296tt.jpg","null","mooney1","image-keyboard-response","70","409728","0.0-6.0-1.9","2540820","co38110","norming","","","","","","",""
"6076.23000000004","","","post_mooney1_questions","survey-likert","71","415807","0.0-6.0-2.9","2540820","co38110","norming","","","{""curiosity"":3,""confidence"":4}","[0,1]","../img/tt/296tt.jpg","",""
"6878.02999999997","","","recognition","survey-text","72","422687","0.0-6.0-3.9","2540820","co38110","norming","","","{""guess"":""een bank ""}","","../img/tt/296tt.jpg","",""
"null","../img/gs/296gs.jpg","null","reveal","image-keyboard-response","73","424688","0.0-6.0-4.9","2540820","co38110","norming","","","","","","",""
"null","../img/tt/296tt.jpg","null","mooney2","image-keyboard-response","74","426697","0.0-6.0-5.9","2540820","co38110","norming","","","","","","",""
"3171.2000000000116","","","post_reveal_questions","survey-likert","75","429871","0.0-6.0-6.9","2540820","co38110","norming","","","{""aha"":6}","[0]","../img/tt/296tt.jpg","",""
"null","<div style=""font-size:60px;""> </div>","null","fixation","html-keyboard-response","76","430080","0.0-6.0-0.10","2540820","co38110","norming","","","","","","",""
"null","../img/tt/1125tt.jpg","null","mooney1","image-keyboard-response","77","433085","0.0-6.0-1.10","2540820","co38110","norming","","","","","","",""
"4134.859999999986","","","post_mooney1_questions","survey-likert","78","437223","0.0-6.0-2.10","2540820","co38110","norming","","","{""curiosity"":4,""confidence"":0}","[0,1]","../img/tt/1125tt.jpg","",""
"846.2600000000093","","","recognition","survey-text","79","438071","0.0-6.0-3.10","2540820","co38110","norming","","","{""guess"":""""}","","../img/tt/1125tt.jpg","",""
"null","../img/gs/1125gs.jpg","null","reveal","image-keyboard-response","80","440081","0.0-6.0-4.10","2540820","co38110","norming","","","","","","",""
"null","../img/tt/1125tt.jpg","null","mooney2","image-keyboard-response","81","442088","0.0-6.0-5.10","2540820","co38110","norming","","","","","","",""
"3483.905000000086","","","post_reveal_questions","survey-likert","82","445575","0.0-6.0-6.10","2540820","co38110","norming","","","{""aha"":4}","[0]","../img/tt/1125tt.jpg","",""
"null","<div style=""font-size:60px;""> </div>","null","fixation","html-keyboard-response","83","445779","0.0-6.0-0.11","2540820","co38110","norming","","","","","","",""
"null","../img/tt/1102tt.jpg","null","mooney1","image-keyboard-response","84","448783","0.0-6.0-1.11","2540820","co38110","norming","","","","","","",""
"4710.4899999999325","","","post_mooney1_questions","survey-likert","85","453495","0.0-6.0-2.11","2540820","co38110","norming","","","{""curiosity"":3,""confidence"":0}","[0,1]","../img/tt/1102tt.jpg","",""
"1214.0449999999255","","","recognition","survey-text","86","454710","0.0-6.0-3.11","2540820","co38110","norming","","","{""guess"":""""}","","../img/tt/1102tt.jpg","",""
"null","../img/gs/1102gs.jpg","null","reveal","image-keyboard-response","87","456720","0.0-6.0-4.11","2540820","co38110","norming","","","","","","",""
"null","../img/tt/1102tt.jpg","null","mooney2","image-keyboard-response","88","458734","0.0-6.0-5.11","2540820","co38110","norming","","","","","","",""
"1952.7699999999604","","","post_reveal_questions","survey-likert","89","460689","0.0-6.0-6.11","2540820","co38110","norming","","","{""aha"":3}","[0]","../img/tt/1102tt.jpg","",""
"null","<div style=""font-size:60px;""> </div>","null","fixation","html-keyboard-response","90","460896","0.0-6.0-0.12","2540820","co38110","norming","","","","","","",""
"null","../img/tt/1235tt.jpg","null","mooney1","image-keyboard-response","91","463902","0.0-6.0-1.12","2540820","co38110","norming","","","","","","",""
"5680.525000000023","","","post_mooney1_questions","survey-likert","92","469585","0.0-6.0-2.12","2540820","co38110","norming","","","{""curiosity"":4,""confidence"":1}","[0,1]","../img/tt/1235tt.jpg","",""
"1117.8550000000978","","","recognition","survey-text","93","470705","0.0-6.0-3.12","2540820","co38110","norming","","","{""guess"":""""}","","../img/tt/1235tt.jpg","",""
"null","../img/gs/1235gs.jpg","null","reveal","image-keyboard-response","94","472716","0.0-6.0-4.12","2540820","co38110","norming","","","","","","",""
"null","../img/tt/1235tt.jpg","null","mooney2","image-keyboard-response","95","474726","0.0-6.0-5.12","2540820","co38110","norming","","","","","","",""
"2872.8600000000442","","","post_reveal_questions","survey-likert","96","477601","0.0-6.0-6.12","2540820","co38110","norming","","","{""aha"":3}","[0]","../img/tt/1235tt.jpg","",""
"null","<div style=""font-size:60px;""> </div>","null","fixation","html-keyboard-response","97","477804","0.0-6.0-0.13","2540820","co38110","norming","","","","","","",""
"null","../img/tt/076tt.jpg","null","mooney1","image-keyboard-response","98","480807","0.0-6.0-1.13","2540820","co38110","norming","","","","","","",""
"7767.090000000026","","","post_mooney1_questions","survey-likert","99","488577","0.0-6.0-2.13","2540820","co38110","norming","","","{""curiosity"":3,""confidence"":0}","[0,1]","../img/tt/076tt.jpg","",""
"1086.0849999999045","","","recognition","survey-text","100","489665","0.0-6.0-3.13","2540820","co38110","norming","","","{""guess"":""""}","","../img/tt/076tt.jpg","",""
"null","../img/gs/076gs.jpg","null","reveal","image-keyboard-response","101","491670","0.0-6.0-4.13","2540820","co38110","norming","","","","","","",""
"null","../img/tt/076tt.jpg","null","mooney2","image-keyboard-response","102","493678","0.0-6.0-5.13","2540820","co38110","norming","","","","","","",""
"3761.195000000065","","","post_reveal_questions","survey-likert","103","497441","0.0-6.0-6.13","2540820","co38110","norming","","","{""aha"":3}","[0]","../img/tt/076tt.jpg","",""
"null","<div style=""font-size:60px;""> </div>","null","fixation","html-keyboard-response","104","497650","0.0-6.0-0.14","2540820","co38110","norming","","","","","","",""
"null","../img/tt/559tt.jpg","null","mooney1","image-keyboard-response","105","500654","0.0-6.0-1.14","2540820","co38110","norming","","","","","","",""
"3424.999999999942","","","post_mooney1_questions","survey-likert","106","504081","0.0-6.0-2.14","2540820","co38110","norming","","","{""curiosity"":3,""confidence"":2}","[0,1]","../img/tt/559tt.jpg","",""
"989.7700000000186","","","recognition","survey-text","107","505073","0.0-6.0-3.14","2540820","co38110","norming","","","{""guess"":""""}","","../img/tt/559tt.jpg","",""
"null","../img/gs/559gs.jpg","null","reveal","image-keyboard-response","108","507081","0.0-6.0-4.14","2540820","co38110","norming","","","","","","",""
"null","../img/tt/559tt.jpg","null","mooney2","image-keyboard-response","109","509090","0.0-6.0-5.14","2540820","co38110","norming","","","","","","",""
"3876.484999999928","","","post_reveal_questions","survey-likert","110","512969","0.0-6.0-6.14","2540820","co38110","norming","","","{""aha"":4}","[0]","../img/tt/559tt.jpg","",""
"null","<div style=""font-size:60px;""> </div>","null","fixation","html-keyboard-response","111","513178","0.0-6.0-0.15","2540820","co38110","norming","","","","","","",""
"null","../img/tt/580tt.jpg","null","mooney1","image-keyboard-response","112","516181","0.0-6.0-1.15","2540820","co38110","norming","","","","","","",""
"8065.254999999946","","","post_mooney1_questions","survey-likert","113","524248","0.0-6.0-2.15","2540820","co38110","norming","","","{""curiosity"":2,""confidence"":0}","[0,1]","../img/tt/580tt.jpg","",""
"1134.0800000000745","","","recognition","survey-text","114","525384","0.0-6.0-3.15","2540820","co38110","norming","","","{""guess"":""""}","","../img/tt/580tt.jpg","",""
"null","../img/gs/580gs.jpg","null","reveal","image-keyboard-response","115","527392","0.0-6.0-4.15","2540820","co38110","norming","","","","","","",""
"null","../img/tt/580tt.jpg","null","mooney2","image-keyboard-response","116","529394","0.0-6.0-5.15","2540820","co38110","norming","","","","","","",""
"1515.7050000000745","","","post_reveal_questions","survey-likert","117","530912","0.0-6.0-6.15","2540820","co38110","norming","","","{""aha"":3}","[0]","../img/tt/580tt.jpg","",""
"null","<div style=""font-size:60px;""> </div>","null","fixation","html-keyboard-response","118","531115","0.0-6.0-0.16","2540820","co38110","norming","","","","","","",""
"null","../img/tt/1262tt.jpg","null","mooney1","image-keyboard-response","119","534118","0.0-6.0-1.16","2540820","co38110","norming","","","","","","",""
"4175.619999999995","","","post_mooney1_questions","survey-likert","120","538296","0.0-6.0-2.16","2540820","co38110","norming","","","{""curiosity"":3,""confidence"":2}","[0,1]","../img/tt/1262tt.jpg","",""
"982.0999999999767","","","recognition","survey-text","121","539280","0.0-6.0-3.16","2540820","co38110","norming","","","{""guess"":""""}","","../img/tt/1262tt.jpg","",""
"null","../img/gs/1262gs.jpg","null","reveal","image-keyboard-response","122","541283","0.0-6.0-4.16","2540820","co38110","norming","","","","","","",""
"null","../img/tt/1262tt.jpg","null","mooney2","image-keyboard-response","123","543285","0.0-6.0-5.16","2540820","co38110","norming","","","","","","",""
"1873.1049999999814","","","post_reveal_questions","survey-likert","124","545160","0.0-6.0-6.16","2540820","co38110","norming","","","{""aha"":2}","[0]","../img/tt/1262tt.jpg","",""
"null","<div style=""font-size:60px;""> </div>","null","fixation","html-keyboard-response","125","545363","0.0-6.0-0.17","2540820","co38110","norming","","","","","","",""
"null","../img/tt/019tt.jpg","null","mooney1","image-keyboard-response","126","548371","0.0-6.0-1.17","2540820","co38110","norming","","","","","","",""
"4538.664999999921","","","post_mooney1_questions","survey-likert","127","552912","0.0-6.0-2.17","2540820","co38110","norming","","","{""curiosity"":3,""confidence"":3}","[0,1]","../img/tt/019tt.jpg","",""
"7845.689999999944","","","recognition","survey-text","128","560760","0.0-6.0-3.17","2540820","co38110","norming","","","{""guess"":""een tang of schaar""}","","../img/tt/019tt.jpg","",""
"null","../img/gs/019gs.jpg","null","reveal","image-keyboard-response","129","562763","0.0-6.0-4.17","2540820","co38110","norming","","","","","","",""
"null","../img/tt/019tt.jpg","null","mooney2","image-keyboard-response","130","564768","0.0-6.0-5.17","2540820","co38110","norming","","","","","","",""
"1983.2099999999627","","","post_reveal_questions","survey-likert","131","566752","0.0-6.0-6.17","2540820","co38110","norming","","","{""aha"":3}","[0]","../img/tt/019tt.jpg","",""
"null","<div style=""font-size:60px;""> </div>","null","fixation","html-keyboard-response","132","566957","0.0-6.0-0.18","2540820","co38110","norming","","","","","","",""
"null","../img/tt/055tt.jpg","null","mooney1","image-keyboard-response","133","569967","0.0-6.0-1.18","2540820","co38110","norming","","","","","","",""
"3406.659999999916","","","post_mooney1_questions","survey-likert","134","573376","0.0-6.0-2.18","2540820","co38110","norming","","","{""curiosity"":3,""confidence"":2}","[0,1]","../img/tt/055tt.jpg","",""
"1070.2549999998882","","","recognition","survey-text","135","574448","0.0-6.0-3.18","2540820","co38110","norming","","","{""guess"":""""}","","../img/tt/055tt.jpg","",""
"null","../img/gs/055gs.jpg","null","reveal","image-keyboard-response","136","576457","0.0-6.0-4.18","2540820","co38110","norming","","","","","","",""
"null","../img/tt/055tt.jpg","null","mooney2","image-keyboard-response","137","578458","0.0-6.0-5.18","2540820","co38110","norming","","","","","","",""
"1715.744999999879","","","post_reveal_questions","survey-likert","138","580175","0.0-6.0-6.18","2540820","co38110","norming","","","{""aha"":2}","[0]","../img/tt/055tt.jpg","",""
"null","<div style=""font-size:60px;""> </div>","null","fixation","html-keyboard-response","139","580377","0.0-6.0-0.19","2540820","co38110","norming","","","","","","",""
"null","../img/tt/1270tt.jpg","null","mooney1","image-keyboard-response","140","583379","0.0-6.0-1.19","2540820","co38110","norming","","","","","","",""
"4313.140000000014","","","post_mooney1_questions","survey-likert","141","587695","0.0-6.0-2.19","2540820","co38110","norming","","","{""curiosity"":3,""confidence"":2}","[0,1]","../img/tt/1270tt.jpg","",""
"806.0999999998603","","","recognition","survey-text","142","588503","0.0-6.0-3.19","2540820","co38110","norming","","","{""guess"":""""}","","../img/tt/1270tt.jpg","",""
"null","../img/gs/1270gs.jpg","null","reveal","image-keyboard-response","143","590513","0.0-6.0-4.19","2540820","co38110","norming","","","","","","",""
"null","../img/tt/1270tt.jpg","null","mooney2","image-keyboard-response","144","592522","0.0-6.0-5.19","2540820","co38110","norming","","","","","","",""
"2898.7549999998882","","","post_reveal_questions","survey-likert","145","595423","0.0-6.0-6.19","2540820","co38110","norming","","","{""aha"":4}","[0]","../img/tt/1270tt.jpg","",""
"null","<div style=""font-size:60px;""> </div>","null","fixation","html-keyboard-response","146","595624","0.0-6.0-0.20","2540820","co38110","norming","","","","","","",""
"null","../img/tt/194tt.jpg","null","mooney1","image-keyboard-response","147","598633","0.0-6.0-1.20","2540820","co38110","norming","","","","","","",""
"5877.17499999993","","","post_mooney1_questions","survey-likert","148","604511","0.0-6.0-2.20","2540820","co38110","norming","","","{""curiosity"":3,""confidence"":4}","[0,1]","../img/tt/194tt.jpg","",""
"2774.2399999999907","","","recognition","survey-text","149","607287","0.0-6.0-3.20","2540820","co38110","norming","","","{""guess"":""een vrouw""}","","../img/tt/194tt.jpg","",""
"null","../img/gs/194gs.jpg","null","reveal","image-keyboard-response","150","609289","0.0-6.0-4.20","2540820","co38110","norming","","","","","","",""
"null","../img/tt/194tt.jpg","null","mooney2","image-keyboard-response","151","611291","0.0-6.0-5.20","2540820","co38110","norming","","","","","","",""
"2410.0849999999627","","","post_reveal_questions","survey-likert","152","613703","0.0-6.0-6.20","2540820","co38110","norming","","","{""aha"":3}","[0]","../img/tt/194tt.jpg","",""
"null","<div style=""font-size:60px;""> </div>","null","fixation","html-keyboard-response","153","613913","0.0-6.0-0.21","2540820","co38110","norming","","","","","","",""
"null","../img/tt/1091tt.jpg","null","mooney1","image-keyboard-response","154","616917","0.0-6.0-1.21","2540820","co38110","norming","","","","","","",""
"5120.335000000079","","","post_mooney1_questions","survey-likert","155","622039","0.0-6.0-2.21","2540820","co38110","norming","","","{""curiosity"":3,""confidence"":2}","[0,1]","../img/tt/1091tt.jpg","",""
"790.3699999999953","","","recognition","survey-text","156","622831","0.0-6.0-3.21","2540820","co38110","norming","","","{""guess"":""""}","","../img/tt/1091tt.jpg","",""
"null","../img/gs/1091gs.jpg","null","reveal","image-keyboard-response","157","624835","0.0-6.0-4.21","2540820","co38110","norming","","","","","","",""
"null","../img/tt/1091tt.jpg","null","mooney2","image-keyboard-response","158","626840","0.0-6.0-5.21","2540820","co38110","norming","","","","","","",""
"2726.6300000000047","","","post_reveal_questions","survey-likert","159","629567","0.0-6.0-6.21","2540820","co38110","norming","","","{""aha"":3}","[0]","../img/tt/1091tt.jpg","",""
"null","<div style=""font-size:60px;""> </div>","null","fixation","html-keyboard-response","160","629769","0.0-6.0-0.22","2540820","co38110","norming","","","","","","",""
"null","../img/tt/1224tt.jpg","null","mooney1","image-keyboard-response","161","632772","0.0-6.0-1.22","2540820","co38110","norming","","","","","","",""
"4330.274999999907","","","post_mooney1_questions","survey-likert","162","637103","0.0-6.0-2.22","2540820","co38110","norming","","","{""curiosity"":3,""confidence"":3}","[0,1]","../img/tt/1224tt.jpg","",""
"950.1750000000466","","","recognition","survey-text","163","638055","0.0-6.0-3.22","2540820","co38110","norming","","","{""guess"":""""}","","../img/tt/1224tt.jpg","",""
"null","../img/gs/1224gs.jpg","null","reveal","image-keyboard-response","164","640057","0.0-6.0-4.22","2540820","co38110","norming","","","","","","",""
"null","../img/tt/1224tt.jpg","null","mooney2","image-keyboard-response","165","642061","0.0-6.0-5.22","2540820","co38110","norming","","","","","","",""
"3225.92499999993","","","post_reveal_questions","survey-likert","166","645289","0.0-6.0-6.22","2540820","co38110","norming","","","{""aha"":4}","[0]","../img/tt/1224tt.jpg","",""
"null","<div style=""font-size:60px;""> </div>","null","fixation","html-keyboard-response","167","645496","0.0-6.0-0.23","2540820","co38110","norming","","","","","","",""
"null","../img/tt/049tt.jpg","null","mooney1","image-keyboard-response","168","648506","0.0-6.0-1.23","2540820","co38110","norming","","","","","","",""
"4332.354999999981","","","post_mooney1_questions","survey-likert","169","652841","0.0-6.0-2.23","2540820","co38110","norming","","","{""curiosity"":2,""confidence"":3}","[0,1]","../img/tt/049tt.jpg","",""
"1054.140000000014","","","recognition","survey-text","170","653897","0.0-6.0-3.23","2540820","co38110","norming","","","{""guess"":""""}","","../img/tt/049tt.jpg","",""
"null","../img/gs/049gs.jpg","null","reveal","image-keyboard-response","171","655898","0.0-6.0-4.23","2540820","co38110","norming","","","","","","",""
"null","../img/tt/049tt.jpg","null","mooney2","image-keyboard-response","172","657909","0.0-6.0-5.23","2540820","co38110","norming","","","","","","",""
"1665.8400000000838","","","post_reveal_questions","survey-likert","173","659577","0.0-6.0-6.23","2540820","co38110","norming","","","{""aha"":3}","[0]","../img/tt/049tt.jpg","",""
"null","<div style=""font-size:60px;""> </div>","null","fixation","html-keyboard-response","174","659778","0.0-6.0-0.24","2540820","co38110","norming","","","","","","",""
"null","../img/tt/135tt.jpg","null","mooney1","image-keyboard-response","175","662785","0.0-6.0-1.24","2540820","co38110","norming","","","","","","",""
"9574.670000000158","","","post_mooney1_questions","survey-likert","176","672361","0.0-6.0-2.24","2540820","co38110","norming","","","{""curiosity"":4,""confidence"":0}","[0,1]","../img/tt/135tt.jpg","",""
"10766.225000000093","","","recognition","survey-text","177","683129","0.0-6.0-3.24","2540820","co38110","norming","","","{""guess"":""een hoofddeksel ""}","","../img/tt/135tt.jpg","",""
"null","../img/gs/135gs.jpg","null","reveal","image-keyboard-response","178","685136","0.0-6.0-4.24","2540820","co38110","norming","","","","","","",""
"null","../img/tt/135tt.jpg","null","mooney2","image-keyboard-response","179","687138","0.0-6.0-5.24","2540820","co38110","norming","","","","","","",""
"2846.060000000056","","","post_reveal_questions","survey-likert","180","689985","0.0-6.0-6.24","2540820","co38110","norming","","","{""aha"":6}","[0]","../img/tt/135tt.jpg","",""
"null","<div style=""font-size:60px;""> </div>","null","fixation","html-keyboard-response","181","690191","0.0-6.0-0.25","2540820","co38110","norming","","","","","","",""
"null","../img/tt/222tt.jpg","null","mooney1","image-keyboard-response","182","693194","0.0-6.0-1.25","2540820","co38110","norming","","","","","","",""
"4267.995000000228","","","post_mooney1_questions","survey-likert","183","697465","0.0-6.0-2.25","2540820","co38110","norming","","","{""curiosity"":3,""confidence"":2}","[0,1]","../img/tt/222tt.jpg","",""
"838.0950000000885","","","recognition","survey-text","184","698305","0.0-6.0-3.25","2540820","co38110","norming","","","{""guess"":""""}","","../img/tt/222tt.jpg","",""
"null","../img/gs/222gs.jpg","null","reveal","image-keyboard-response","185","700315","0.0-6.0-4.25","2540820","co38110","norming","","","","","","",""
"null","../img/tt/222tt.jpg","null","mooney2","image-keyboard-response","186","702323","0.0-6.0-5.25","2540820","co38110","norming","","","","","","",""
"3301.1049999999814","","","post_reveal_questions","survey-likert","187","705625","0.0-6.0-6.25","2540820","co38110","norming","","","{""aha"":4}","[0]","../img/tt/222tt.jpg","",""
"null","<div style=""font-size:60px;""> </div>","null","fixation","html-keyboard-response","188","705829","0.0-6.0-0.26","2540820","co38110","norming","","","","","","",""
"null","../img/tt/440tt.jpg","null","mooney1","image-keyboard-response","189","708838","0.0-6.0-1.26","2540820","co38110","norming","","","","","","",""
"4265.905000000144","","","post_mooney1_questions","survey-likert","190","713105","0.0-6.0-2.26","2540820","co38110","norming","","","{""curiosity"":3,""confidence"":0}","[0,1]","../img/tt/440tt.jpg","",""
"1669.9950000002282","","","recognition","survey-text","191","714777","0.0-6.0-3.26","2540820","co38110","norming","","","{""guess"":""""}","","../img/tt/440tt.jpg","",""
"null","../img/gs/440gs.jpg","null","reveal","image-keyboard-response","192","716778","0.0-6.0-4.26","2540820","co38110","norming","","","","","","",""
"null","../img/tt/440tt.jpg","null","mooney2","image-keyboard-response","193","718782","0.0-6.0-5.26","2540820","co38110","norming","","","","","","",""
"3338.195000000065","","","post_reveal_questions","survey-likert","194","722121","0.0-6.0-6.26","2540820","co38110","norming","","","{""aha"":3}","[0]","../img/tt/440tt.jpg","",""
"null","<div style=""font-size:60px;""> </div>","null","fixation","html-keyboard-response","195","722329","0.0-6.0-0.27","2540820","co38110","norming","","","","","","",""
"null","../img/tt/1130tt.jpg","null","mooney1","image-keyboard-response","196","725332","0.0-6.0-1.27","2540820","co38110","norming","","","","","","",""
"3609.9999999998836","","","post_mooney1_questions","survey-likert","197","728945","0.0-6.0-2.27","2540820","co38110","norming","","","{""curiosity"":3,""confidence"":2}","[0,1]","../img/tt/1130tt.jpg","",""
"926.0349999999162","","","recognition","survey-text","198","729873","0.0-6.0-3.27","2540820","co38110","norming","","","{""guess"":""""}","","../img/tt/1130tt.jpg","",""
"null","../img/gs/1130gs.jpg","null","reveal","image-keyboard-response","199","731883","0.0-6.0-4.27","2540820","co38110","norming","","","","","","",""
"null","../img/tt/1130tt.jpg","null","mooney2","image-keyboard-response","200","733885","0.0-6.0-5.27","2540820","co38110","norming","","","","","","",""
"2385.420000000042","","","post_reveal_questions","survey-likert","201","736273","0.0-6.0-6.27","2540820","co38110","norming","","","{""aha"":4}","[0]","../img/tt/1130tt.jpg","",""
"null","<div style=""font-size:60px;""> </div>","null","fixation","html-keyboard-response","202","736476","0.0-6.0-0.28","2540820","co38110","norming","","","","","","",""
"null","../img/tt/598tt.jpg","null","mooney1","image-keyboard-response","203","739485","0.0-6.0-1.28","2540820","co38110","norming","","","","","","",""
"6976.869999999995","","","post_mooney1_questions","survey-likert","204","746465","0.0-6.0-2.28","2540820","co38110","norming","","","{""curiosity"":3,""confidence"":0}","[0,1]","../img/tt/598tt.jpg","",""
"846.2600000000093","","","recognition","survey-text","205","747313","0.0-6.0-3.28","2540820","co38110","norming","","","{""guess"":""""}","","../img/tt/598tt.jpg","",""
"null","../img/gs/598gs.jpg","null","reveal","image-keyboard-response","206","749320","0.0-6.0-4.28","2540820","co38110","norming","","","","","","",""
"null","../img/tt/598tt.jpg","null","mooney2","image-keyboard-response","207","751323","0.0-6.0-5.28","2540820","co38110","norming","","","","","","",""
"1971.280000000028","","","post_reveal_questions","survey-likert","208","753297","0.0-6.0-6.28","2540820","co38110","norming","","","{""aha"":4}","[0]","../img/tt/598tt.jpg","",""
"null","<div style=""font-size:60px;""> </div>","null","fixation","html-keyboard-response","209","753504","0.0-6.0-0.29","2540820","co38110","norming","","","","","","",""
"null","../img/tt/031tt.jpg","null","mooney1","image-keyboard-response","210","756509","0.0-6.0-1.29","2540820","co38110","norming","","","","","","",""
"4865.069999999832","","","post_mooney1_questions","survey-likert","211","761377","0.0-6.0-2.29","2540820","co38110","norming","","","{""curiosity"":3,""confidence"":2}","[0,1]","../img/tt/031tt.jpg","",""
"982.0649999999441","","","recognition","survey-text","212","762359","0.0-6.0-3.29","2540820","co38110","norming","","","{""guess"":""""}","","../img/tt/031tt.jpg","",""
"null","../img/gs/031gs.jpg","null","reveal","image-keyboard-response","213","764368","0.0-6.0-4.29","2540820","co38110","norming","","","","","","",""
"null","../img/tt/031tt.jpg","null","mooney2","image-keyboard-response","214","766377","0.0-6.0-5.29","2540820","co38110","norming","","","","","","",""
"2762.9450000001816","","","post_reveal_questions","survey-likert","215","769143","0.0-6.0-6.29","2540820","co38110","norming","","","{""aha"":3}","[0]","../img/tt/031tt.jpg","",""
"null","<div style=""font-size:60px;""> </div>","null","fixation","html-keyboard-response","216","769351","0.0-6.0-0.30","2540820","co38110","norming","","","","","","",""
"null","../img/tt/1146tt.jpg","null","mooney1","image-keyboard-response","217","772356","0.0-6.0-1.30","2540820","co38110","norming","","","","","","",""
"4248.109999999986","","","post_mooney1_questions","survey-likert","218","776607","0.0-6.0-2.30","2540820","co38110","norming","","","{""curiosity"":2,""confidence"":0}","[0,1]","../img/tt/1146tt.jpg","",""
"1358.2800000001444","","","recognition","survey-text","219","777967","0.0-6.0-3.30","2540820","co38110","norming","","","{""guess"":""""}","","../img/tt/1146tt.jpg","",""
"null","../img/gs/1146gs.jpg","null","reveal","image-keyboard-response","220","779974","0.0-6.0-4.30","2540820","co38110","norming","","","","","","",""
"null","../img/tt/1146tt.jpg","null","mooney2","image-keyboard-response","221","781982","0.0-6.0-5.30","2540820","co38110","norming","","","","","","",""
"2653.9000000000233","","","post_reveal_questions","survey-likert","222","784639","0.0-6.0-6.30","2540820","co38110","norming","","","{""aha"":4}","[0]","../img/tt/1146tt.jpg","",""
"null","<div style=""font-size:60px;""> </div>","null","fixation","html-keyboard-response","223","784848","0.0-6.0-0.31","2540820","co38110","norming","","","","","","",""
"null","../img/tt/603tt.jpg","null","mooney1","image-keyboard-response","224","787857","0.0-6.0-1.31","2540820","co38110","norming","","","","","","",""
"6490.7150000002","","","post_mooney1_questions","survey-likert","225","794351","0.0-6.0-2.31","2540820","co38110","norming","","","{""curiosity"":2,""confidence"":0}","[0,1]","../img/tt/603tt.jpg","",""
"1101.9750000000931","","","recognition","survey-text","226","795455","0.0-6.0-3.31","2540820","co38110","norming","","","{""guess"":""""}","","../img/tt/603tt.jpg","",""
"null","../img/gs/603gs.jpg","null","reveal","image-keyboard-response","227","797458","0.0-6.0-4.31","2540820","co38110","norming","","","","","","",""
"null","../img/tt/603tt.jpg","null","mooney2","image-keyboard-response","228","799463","0.0-6.0-5.31","2540820","co38110","norming","","","","","","",""
"4524.770000000019","","","post_reveal_questions","survey-likert","229","803991","0.0-6.0-6.31","2540820","co38110","norming","","","{""aha"":3}","[0]","../img/tt/603tt.jpg","",""
"null","<div style=""font-size:60px;""> </div>","null","fixation","html-keyboard-response","230","804201","0.0-6.0-0.32","2540820","co38110","norming","","","","","","",""
"null","../img/tt/085tt.jpg","null","mooney1","image-keyboard-response","231","807203","0.0-6.0-1.32","2540820","co38110","norming","","","","","","",""
"7001.254999999888","","","post_mooney1_questions","survey-likert","232","814207","0.0-6.0-2.32","2540820","co38110","norming","","","{""curiosity"":3,""confidence"":3}","[0,1]","../img/tt/085tt.jpg","",""
"3541.9899999999907","","","recognition","survey-text","233","817751","0.0-6.0-3.32","2540820","co38110","norming","","","{""guess"":""een vrouw ""}","","../img/tt/085tt.jpg","",""
"null","../img/gs/085gs.jpg","null","reveal","image-keyboard-response","234","819753","0.0-6.0-4.32","2540820","co38110","norming","","","","","","",""
"null","../img/tt/085tt.jpg","null","mooney2","image-keyboard-response","235","821761","0.0-6.0-5.32","2540820","co38110","norming","","","","","","",""
"2363.639999999781","","","post_reveal_questions","survey-likert","236","824127","0.0-6.0-6.32","2540820","co38110","norming","","","{""aha"":3}","[0]","../img/tt/085tt.jpg","",""
"null","<div style=""font-size:60px;""> </div>","null","fixation","html-keyboard-response","237","824337","0.0-6.0-0.33","2540820","co38110","norming","","","","","","",""
"null","../img/tt/1046tt.jpg","null","mooney1","image-keyboard-response","238","827343","0.0-6.0-1.33","2540820","co38110","norming","","","","","","",""
"3740.82500000007","","","post_mooney1_questions","survey-likert","239","831087","0.0-6.0-2.33","2540820","co38110","norming","","","{""curiosity"":3,""confidence"":0}","[0,1]","../img/tt/1046tt.jpg","",""
"1238.16500000027","","","recognition","survey-text","240","832326","0.0-6.0-3.33","2540820","co38110","norming","","","{""guess"":""""}","","../img/tt/1046tt.jpg","",""
"null","../img/gs/1046gs.jpg","null","reveal","image-keyboard-response","241","834335","0.0-6.0-4.33","2540820","co38110","norming","","","","","","",""
"null","../img/tt/1046tt.jpg","null","mooney2","image-keyboard-response","242","836341","0.0-6.0-5.33","2540820","co38110","norming","","","","","","",""
"2478.8350000001956","","","post_reveal_questions","survey-likert","243","838822","0.0-6.0-6.33","2540820","co38110","norming","","","{""aha"":3}","[0]","../img/tt/1046tt.jpg","",""
"null","<div style=""font-size:60px;""> </div>","null","fixation","html-keyboard-response","244","839025","0.0-6.0-0.34","2540820","co38110","norming","","","","","","",""
"null","../img/tt/1255tt.jpg","null","mooney1","image-keyboard-response","245","842034","0.0-6.0-1.34","2540820","co38110","norming","","","","","","",""
"3897.320000000065","","","post_mooney1_questions","survey-likert","246","845934","0.0-6.0-2.34","2540820","co38110","norming","","","{""curiosity"":3,""confidence"":3}","[0,1]","../img/tt/1255tt.jpg","",""
"5734.590000000084","","","recognition","survey-text","247","851671","0.0-6.0-3.34","2540820","co38110","norming","","","{""guess"":""a rabit ""}","","../img/tt/1255tt.jpg","",""
"null","../img/gs/1255gs.jpg","null","reveal","image-keyboard-response","248","853672","0.0-6.0-4.34","2540820","co38110","norming","","","","","","",""
"null","../img/tt/1255tt.jpg","null","mooney2","image-keyboard-response","249","855674","0.0-6.0-5.34","2540820","co38110","norming","","","","","","",""
"2554.030000000028","","","post_reveal_questions","survey-likert","250","858231","0.0-6.0-6.34","2540820","co38110","norming","","","{""aha"":0}","[0]","../img/tt/1255tt.jpg","",""
"null","<div style=""font-size:60px;""> </div>","null","fixation","html-keyboard-response","251","858438","0.0-6.0-0.35","2540820","co38110","norming","","","","","","",""
"null","../img/tt/1127tt.jpg","null","mooney1","image-keyboard-response","252","861440","0.0-6.0-1.35","2540820","co38110","norming","","","","","","",""
"5883.844999999972","","","post_mooney1_questions","survey-likert","253","867326","0.0-6.0-2.35","2540820","co38110","norming","","","{""curiosity"":3,""confidence"":0}","[0,1]","../img/tt/1127tt.jpg","",""
"958.5649999998277","","","recognition","survey-text","254","868287","0.0-6.0-3.35","2540820","co38110","norming","","","{""guess"":""""}","","../img/tt/1127tt.jpg","",""
"null","../img/gs/1127gs.jpg","null","reveal","image-keyboard-response","255","870297","0.0-6.0-4.35","2540820","co38110","norming","","","","","","",""
"null","../img/tt/1127tt.jpg","null","mooney2","image-keyboard-response","256","872301","0.0-6.0-5.35","2540820","co38110","norming","","","","","","",""
"1878.7099999999627","","","post_reveal_questions","survey-likert","257","874182","0.0-6.0-6.35","2540820","co38110","norming","","","{""aha"":4}","[0]","../img/tt/1127tt.jpg","",""
"null","<div style=""font-size:60px;""> </div>","null","fixation","html-keyboard-response","258","874387","0.0-6.0-0.36","2540820","co38110","norming","","","","","","",""
"null","../img/tt/436tt.jpg","null","mooney1","image-keyboard-response","259","877393","0.0-6.0-1.36","2540820","co38110","norming","","","","","","",""
"5716.805000000051","","","post_mooney1_questions","survey-likert","260","883113","0.0-6.0-2.36","2540820","co38110","norming","","","{""curiosity"":3,""confidence"":0}","[0,1]","../img/tt/436tt.jpg","",""
"861.729999999865","","","recognition","survey-text","261","883977","0.0-6.0-3.36","2540820","co38110","norming","","","{""guess"":""""}","","../img/tt/436tt.jpg","",""
"null","../img/gs/436gs.jpg","null","reveal","image-keyboard-response","262","885986","0.0-6.0-4.36","2540820","co38110","norming","","","","","","",""
"null","../img/tt/436tt.jpg","null","mooney2","image-keyboard-response","263","887989","0.0-6.0-5.36","2540820","co38110","norming","","","","","","",""
"1530.4399999999441","","","post_reveal_questions","survey-likert","264","889521","0.0-6.0-6.36","2540820","co38110","norming","","","{""aha"":3}","[0]","../img/tt/436tt.jpg","",""
"null","<div style=""font-size:60px;""> </div>","null","fixation","html-keyboard-response","265","889731","0.0-6.0-0.37","2540820","co38110","norming","","","","","","",""
"null","../img/tt/1226tt.jpg","null","mooney1","image-keyboard-response","266","892735","0.0-6.0-1.37","2540820","co38110","norming","","","","","","",""
"7697.429999999935","","","post_mooney1_questions","survey-likert","267","900433","0.0-6.0-2.37","2540820","co38110","norming","","","{""curiosity"":3,""confidence"":2}","[0,1]","../img/tt/1226tt.jpg","",""
"1101.795000000042","","","recognition","survey-text","268","901537","0.0-6.0-3.37","2540820","co38110","norming","","","{""guess"":""""}","","../img/tt/1226tt.jpg","",""
"null","../img/gs/1226gs.jpg","null","reveal","image-keyboard-response","269","903548","0.0-6.0-4.37","2540820","co38110","norming","","","","","","",""
"null","../img/tt/1226tt.jpg","null","mooney2","image-keyboard-response","270","905551","0.0-6.0-5.37","2540820","co38110","norming","","","","","","",""
"3576.9849999998696","","","post_reveal_questions","survey-likert","271","909129","0.0-6.0-6.37","2540820","co38110","norming","","","{""aha"":2}","[0]","../img/tt/1226tt.jpg","",""
"null","<div style=""font-size:60px;""> </div>","null","fixation","html-keyboard-response","272","909331","0.0-6.0-0.38","2540820","co38110","norming","","","","","","",""
"null","../img/tt/184tt.jpg","null","mooney1","image-keyboard-response","273","912338","0.0-6.0-1.38","2540820","co38110","norming","","","","","","",""
"4798.610000000102","","","post_mooney1_questions","survey-likert","274","917137","0.0-6.0-2.38","2540820","co38110","norming","","","{""curiosity"":3,""confidence"":0}","[0,1]","../img/tt/184tt.jpg","",""
"1157.8949999999022","","","recognition","survey-text","275","918297","0.0-6.0-3.38","2540820","co38110","norming","","","{""guess"":""""}","","../img/tt/184tt.jpg","",""
"null","../img/gs/184gs.jpg","null","reveal","image-keyboard-response","276","920299","0.0-6.0-4.38","2540820","co38110","norming","","","","","","",""
"null","../img/tt/184tt.jpg","null","mooney2","image-keyboard-response","277","922303","0.0-6.0-5.38","2540820","co38110","norming","","","","","","",""
"4007.644999999902","","","post_reveal_questions","survey-likert","278","926313","0.0-6.0-6.38","2540820","co38110","norming","","","{""aha"":4}","[0]","../img/tt/184tt.jpg","",""
"null","<div style=""font-size:60px;""> </div>","null","fixation","html-keyboard-response","279","926524","0.0-6.0-0.39","2540820","co38110","norming","","","","","","",""
"null","../img/tt/082tt.jpg","null","mooney1","image-keyboard-response","280","929533","0.0-6.0-1.39","2540820","co38110","norming","","","","","","",""
"4401.289999999921","","","post_mooney1_questions","survey-likert","281","933937","0.0-6.0-2.39","2540820","co38110","norming","","","{""curiosity"":3,""confidence"":2}","[0,1]","../img/tt/082tt.jpg","",""
"973.7550000000047","","","recognition","survey-text","282","934913","0.0-6.0-3.39","2540820","co38110","norming","","","{""guess"":""""}","","../img/tt/082tt.jpg","",""
"null","../img/gs/082gs.jpg","null","reveal","image-keyboard-response","283","936917","0.0-6.0-4.39","2540820","co38110","norming","","","","","","",""
"null","../img/tt/082tt.jpg","null","mooney2","image-keyboard-response","284","938923","0.0-6.0-5.39","2540820","co38110","norming","","","","","","",""
"1629.4099999999162","","","post_reveal_questions","survey-likert","285","940553","0.0-6.0-6.39","2540820","co38110","norming","","","{""aha"":4}","[0]","../img/tt/082tt.jpg","",""
"null","<div style=""font-size:60px;""> </div>","null","fixation","html-keyboard-response","286","940755","0.0-6.0-0.40","2540820","co38110","norming","","","","","","",""
"null","../img/tt/163tt.jpg","null","mooney1","image-keyboard-response","287","943760","0.0-6.0-1.40","2540820","co38110","norming","","","","","","",""
"5256.344999999972","","","post_mooney1_questions","survey-likert","288","949019","0.0-6.0-2.40","2540820","co38110","norming","","","{""curiosity"":3,""confidence"":0}","[0,1]","../img/tt/163tt.jpg","",""
"1142.0499999999302","","","recognition","survey-text","289","950163","0.0-6.0-3.40","2540820","co38110","norming","","","{""guess"":""""}","","../img/tt/163tt.jpg","",""
"null","../img/gs/163gs.jpg","null","reveal","image-keyboard-response","290","952165","0.0-6.0-4.40","2540820","co38110","norming","","","","","","",""
"null","../img/tt/163tt.jpg","null","mooney2","image-keyboard-response","291","954167","0.0-6.0-5.40","2540820","co38110","norming","","","","","","",""
"1721.920000000042","","","post_reveal_questions","survey-likert","292","955891","0.0-6.0-6.40","2540820","co38110","norming","","","{""aha"":3}","[0]","../img/tt/163tt.jpg","",""
"null","<div style=""font-size:60px;""> </div>","null","fixation","html-keyboard-response","293","956093","0.0-6.0-0.41","2540820","co38110","norming","","","","","","",""
"null","../img/tt/064tt.jpg","null","mooney1","image-keyboard-response","294","959099","0.0-6.0-1.41","2540820","co38110","norming","","","","","","",""
"6669.085000000079","","","post_mooney1_questions","survey-likert","295","965771","0.0-6.0-2.41","2540820","co38110","norming","","","{""curiosity"":2,""confidence"":0}","[0,1]","../img/tt/064tt.jpg","",""
"1077.704999999958","","","recognition","survey-text","296","966851","0.0-6.0-3.41","2540820","co38110","norming","","","{""guess"":""""}","","../img/tt/064tt.jpg","",""
"null","../img/gs/064gs.jpg","null","reveal","image-keyboard-response","297","968854","0.0-6.0-4.41","2540820","co38110","norming","","","","","","",""
"null","../img/tt/064tt.jpg","null","mooney2","image-keyboard-response","298","970855","0.0-6.0-5.41","2540820","co38110","norming","","","","","","",""
"2523.380000000121","","","post_reveal_questions","survey-likert","299","973379","0.0-6.0-6.41","2540820","co38110","norming","","","{""aha"":2}","[0]","../img/tt/064tt.jpg","",""
"null","<div style=""font-size:60px;""> </div>","null","fixation","html-keyboard-response","300","973581","0.0-6.0-0.42","2540820","co38110","norming","","","","","","",""
"null","../img/tt/118tt.jpg","null","mooney1","image-keyboard-response","301","976583","0.0-6.0-1.42","2540820","co38110","norming","","","","","","",""
"6256.885000000009","","","post_mooney1_questions","survey-likert","302","982843","0.0-6.0-2.42","2540820","co38110","norming","","","{""curiosity"":3,""confidence"":2}","[0,1]","../img/tt/118tt.jpg","",""
"3854.045000000042","","","recognition","survey-text","303","986699","0.0-6.0-3.42","2540820","co38110","norming","","","{""guess"":""an animal""}","","../img/tt/118tt.jpg","",""
"null","../img/gs/118gs.jpg","null","reveal","image-keyboard-response","304","988707","0.0-6.0-4.42","2540820","co38110","norming","","","","","","",""
"null","../img/tt/118tt.jpg","null","mooney2","image-keyboard-response","305","990709","0.0-6.0-5.42","2540820","co38110","norming","","","","","","",""
"4129.785000000033","","","post_reveal_questions","survey-likert","306","994843","0.0-6.0-6.42","2540820","co38110","norming","","","{""aha"":3}","[0]","../img/tt/118tt.jpg","",""
"null","<div style=""font-size:60px;""> </div>","null","fixation","html-keyboard-response","307","995045","0.0-6.0-0.43","2540820","co38110","norming","","","","","","",""
"null","../img/tt/040tt.jpg","null","mooney1","image-keyboard-response","308","998049","0.0-6.0-1.43","2540820","co38110","norming","","","","","","",""
"3399.519999999902","","","post_mooney1_questions","survey-likert","309","1001452","0.0-6.0-2.43","2540820","co38110","norming","","","{""curiosity"":3,""confidence"":0}","[0,1]","../img/tt/040tt.jpg","",""
"1030.050000000163","","","recognition","survey-text","310","1002483","0.0-6.0-3.43","2540820","co38110","norming","","","{""guess"":""""}","","../img/tt/040tt.jpg","",""
"null","../img/gs/040gs.jpg","null","reveal","image-keyboard-response","311","1004494","0.0-6.0-4.43","2540820","co38110","norming","","","","","","",""
"null","../img/tt/040tt.jpg","null","mooney2","image-keyboard-response","312","1006496","0.0-6.0-5.43","2540820","co38110","norming","","","","","","",""
"2025.5700000000652","","","post_reveal_questions","survey-likert","313","1008524","0.0-6.0-6.43","2540820","co38110","norming","","","{""aha"":3}","[0]","../img/tt/040tt.jpg","",""
"null","<div style=""font-size:60px;""> </div>","null","fixation","html-keyboard-response","314","1008725","0.0-6.0-0.44","2540820","co38110","norming","","","","","","",""
"null","../img/tt/1061tt.jpg","null","mooney1","image-keyboard-response","315","1011729","0.0-6.0-1.44","2540820","co38110","norming","","","","","","",""
"6176.040000000037","","","post_mooney1_questions","survey-likert","316","1017908","0.0-6.0-2.44","2540820","co38110","norming","","","{""curiosity"":3,""confidence"":3}","[0,1]","../img/tt/1061tt.jpg","",""
"3558.064999999944","","","recognition","survey-text","317","1021468","0.0-6.0-3.44","2540820","co38110","norming","","","{""guess"":""2 humans""}","","../img/tt/1061tt.jpg","",""
"null","../img/gs/1061gs.jpg","null","reveal","image-keyboard-response","318","1023478","0.0-6.0-4.44","2540820","co38110","norming","","","","","","",""
"null","../img/tt/1061tt.jpg","null","mooney2","image-keyboard-response","319","1025481","0.0-6.0-5.44","2540820","co38110","norming","","","","","","",""
"2183.9850000001024","","","post_reveal_questions","survey-likert","320","1027668","0.0-6.0-6.44","2540820","co38110","norming","","","{""aha"":3}","[0]","../img/tt/1061tt.jpg","",""
"null","<div style=""font-size:60px;""> </div>","null","fixation","html-keyboard-response","321","1027870","0.0-6.0-0.45","2540820","co38110","norming","","","","","","",""
"null","../img/tt/1283tt.jpg","null","mooney1","image-keyboard-response","322","1030879","0.0-6.0-1.45","2540820","co38110","norming","","","","","","",""
"3188.194999999949","","","post_mooney1_questions","survey-likert","323","1034068","0.0-6.0-2.45","2540820","co38110","norming","","","{""curiosity"":3,""confidence"":0}","[0,1]","../img/tt/1283tt.jpg","",""
"1054.0900000000838","","","recognition","survey-text","324","1035124","0.0-6.0-3.45","2540820","co38110","norming","","","{""guess"":""""}","","../img/tt/1283tt.jpg","",""
"null","../img/gs/1283gs.jpg","null","reveal","image-keyboard-response","325","1037125","0.0-6.0-4.45","2540820","co38110","norming","","","","","","",""
"null","../img/tt/1283tt.jpg","null","mooney2","image-keyboard-response","326","1039128","0.0-6.0-5.45","2540820","co38110","norming","","","","","","",""
"2944.969999999972","","","post_reveal_questions","survey-likert","327","1042076","0.0-6.0-6.45","2540820","co38110","norming","","","{""aha"":2}","[0]","../img/tt/1283tt.jpg","",""
"null","<div style=""font-size:60px;""> </div>","null","fixation","html-keyboard-response","328","1042282","0.0-6.0-0.46","2540820","co38110","norming","","","","","","",""
"null","../img/tt/318tt.jpg","null","mooney1","image-keyboard-response","329","1045291","0.0-6.0-1.46","2540820","co38110","norming","","","","","","",""
"5349.70000000007","","","post_mooney1_questions","survey-likert","330","1050644","0.0-6.0-2.46","2540820","co38110","norming","","","{""curiosity"":3,""confidence"":2}","[0,1]","../img/tt/318tt.jpg","",""
"1158.2349999998696","","","recognition","survey-text","331","1051804","0.0-6.0-3.46","2540820","co38110","norming","","","{""guess"":""""}","","../img/tt/318tt.jpg","",""
"null","../img/gs/318gs.jpg","null","reveal","image-keyboard-response","332","1053807","0.0-6.0-4.46","2540820","co38110","norming","","","","","","",""
"null","../img/tt/318tt.jpg","null","mooney2","image-keyboard-response","333","1055810","0.0-6.0-5.46","2540820","co38110","norming","","","","","","",""
"3038.844999999972","","","post_reveal_questions","survey-likert","334","1058852","0.0-6.0-6.46","2540820","co38110","norming","","","{""aha"":2}","[0]","../img/tt/318tt.jpg","",""
"null","<div style=""font-size:60px;""> </div>","null","fixation","html-keyboard-response","335","1059060","0.0-6.0-0.47","2540820","co38110","norming","","","","","","",""
"null","../img/tt/1191tt.jpg","null","mooney1","image-keyboard-response","336","1062064","0.0-6.0-1.47","2540820","co38110","norming","","","","","","",""
"6416.930000000168","","","post_mooney1_questions","survey-likert","337","1068479","0.0-6.0-2.47","2540820","co38110","norming","","","{""curiosity"":3,""confidence"":1}","[0,1]","../img/tt/1191tt.jpg","",""
"4053.685000000056","","","recognition","survey-text","338","1072534","0.0-6.0-3.47","2540820","co38110","norming","","","{""guess"":""een kameel ""}","","../img/tt/1191tt.jpg","",""
"null","../img/gs/1191gs.jpg","null","reveal","image-keyboard-response","339","1074536","0.0-6.0-4.47","2540820","co38110","norming","","","","","","",""
"null","../img/tt/1191tt.jpg","null","mooney2","image-keyboard-response","340","1076538","0.0-6.0-5.47","2540820","co38110","norming","","","","","","",""
"2697.065000000177","","","post_reveal_questions","survey-likert","341","1079238","0.0-6.0-6.47","2540820","co38110","norming","","","{""aha"":3}","[0]","../img/tt/1191tt.jpg","",""
"null","<div style=""font-size:60px;""> </div>","null","fixation","html-keyboard-response","342","1079440","0.0-6.0-0.48","2540820","co38110","norming","","","","","","",""
"null","../img/tt/1053tt.jpg","null","mooney1","image-keyboard-response","343","1082443","0.0-6.0-1.48","2540820","co38110","norming","","","","","","",""
"4642.160000000149","","","post_mooney1_questions","survey-likert","344","1087087","0.0-6.0-2.48","2540820","co38110","norming","","","{""curiosity"":3,""confidence"":0}","[0,1]","../img/tt/1053tt.jpg","",""
"1045.7999999998137","","","recognition","survey-text","345","1088134","0.0-6.0-3.48","2540820","co38110","norming","","","{""guess"":""""}","","../img/tt/1053tt.jpg","",""
"null","../img/gs/1053gs.jpg","null","reveal","image-keyboard-response","346","1090141","0.0-6.0-4.48","2540820","co38110","norming","","","","","","",""
"null","../img/tt/1053tt.jpg","null","mooney2","image-keyboard-response","347","1092148","0.0-6.0-5.48","2540820","co38110","norming","","","","","","",""
"2264.2399999999907","","","post_reveal_questions","survey-likert","348","1094414","0.0-6.0-6.48","2540820","co38110","norming","","","{""aha"":3}","[0]","../img/tt/1053tt.jpg","",""
"null","<div style=""font-size:60px;""> </div>","null","fixation","html-keyboard-response","349","1094619","0.0-6.0-0.49","2540820","co38110","norming","","","","","","",""
"null","../img/tt/590tt.jpg","null","mooney1","image-keyboard-response","350","1097631","0.0-6.0-1.49","2540820","co38110","norming","","","","","","",""
"4035.685000000056","","","post_mooney1_questions","survey-likert","351","1101670","0.0-6.0-2.49","2540820","co38110","norming","","","{""curiosity"":2,""confidence"":0}","[0,1]","../img/tt/590tt.jpg","",""
"998.2399999997579","","","recognition","survey-text","352","1102670","0.0-6.0-3.49","2540820","co38110","norming","","","{""guess"":""""}","","../img/tt/590tt.jpg","",""
"null","../img/gs/590gs.jpg","null","reveal","image-keyboard-response","353","1104680","0.0-6.0-4.49","2540820","co38110","norming","","","","","","",""
"null","../img/tt/590tt.jpg","null","mooney2","image-keyboard-response","354","1106684","0.0-6.0-5.49","2540820","co38110","norming","","","","","","",""
"1455.3400000000838","","","post_reveal_questions","survey-likert","355","1108142","0.0-6.0-6.49","2540820","co38110","norming","","","{""aha"":3}","[0]","../img/tt/590tt.jpg","",""
"null","<div style=""font-size:60px;""> </div>","null","fixation","html-keyboard-response","356","1108352","0.0-6.0-0.50","2540820","co38110","norming","","","","","","",""
"null","../img/tt/007tt.jpg","null","mooney1","image-keyboard-response","357","1111357","0.0-6.0-1.50","2540820","co38110","norming","","","","","","",""
"4320.164999999804","","","post_mooney1_questions","survey-likert","358","1115678","0.0-6.0-2.50","2540820","co38110","norming","","","{""curiosity"":2,""confidence"":0}","[0,1]","../img/tt/007tt.jpg","",""
"861.875","","","recognition","survey-text","359","1116542","0.0-6.0-3.50","2540820","co38110","norming","","","{""guess"":""""}","","../img/tt/007tt.jpg","",""
"null","../img/gs/007gs.jpg","null","reveal","image-keyboard-response","360","1118552","0.0-6.0-4.50","2540820","co38110","norming","","","","","","",""
"null","../img/tt/007tt.jpg","null","mooney2","image-keyboard-response","361","1120555","0.0-6.0-5.50","2540820","co38110","norming","","","","","","",""
"2617.9899999999907","","","post_reveal_questions","survey-likert","362","1123174","0.0-6.0-6.50","2540820","co38110","norming","","","{""aha"":3}","[0]","../img/tt/007tt.jpg","",""
"null","<div style=""font-size:60px;""> </div>","null","fixation","html-keyboard-response","363","1123383","0.0-6.0-0.51","2540820","co38110","norming","","","","","","",""
"null","../img/tt/1159tt.jpg","null","mooney1","image-keyboard-response","364","1126393","0.0-6.0-1.51","2540820","co38110","norming","","","","","","",""
"3928.314999999944","","","post_mooney1_questions","survey-likert","365","1130325","0.0-6.0-2.51","2540820","co38110","norming","","","{""curiosity"":3,""confidence"":0}","[0,1]","../img/tt/1159tt.jpg","",""
"1166.0200000002515","","","recognition","survey-text","366","1131492","0.0-6.0-3.51","2540820","co38110","norming","","","{""guess"":""""}","","../img/tt/1159tt.jpg","",""
"null","../img/gs/1159gs.jpg","null","reveal","image-keyboard-response","367","1133503","0.0-6.0-4.51","2540820","co38110","norming","","","","","","",""
"null","../img/tt/1159tt.jpg","null","mooney2","image-keyboard-response","368","1135512","0.0-6.0-5.51","2540820","co38110","norming","","","","","","",""
"1697.869999999879","","","post_reveal_questions","survey-likert","369","1137212","0.0-6.0-6.51","2540820","co38110","norming","","","{""aha"":3}","[0]","../img/tt/1159tt.jpg","",""
"null","<div style=""font-size:60px;""> </div>","null","fixation","html-keyboard-response","370","1137420","0.0-6.0-0.52","2540820","co38110","norming","","","","","","",""
"null","../img/tt/1004tt.jpg","null","mooney1","image-keyboard-response","371","1140426","0.0-6.0-1.52","2540820","co38110","norming","","","","","","",""
"6358.944999999832","","","post_mooney1_questions","survey-likert","372","1146788","0.0-6.0-2.52","2540820","co38110","norming","","","{""curiosity"":2,""confidence"":3}","[0,1]","../img/tt/1004tt.jpg","",""
"2582.090000000084","","","recognition","survey-text","373","1149372","0.0-6.0-3.52","2540820","co38110","norming","","","{""guess"":""a horse""}","","../img/tt/1004tt.jpg","",""
"null","../img/gs/1004gs.jpg","null","reveal","image-keyboard-response","374","1151375","0.0-6.0-4.52","2540820","co38110","norming","","","","","","",""
"null","../img/tt/1004tt.jpg","null","mooney2","image-keyboard-response","375","1153386","0.0-6.0-5.52","2540820","co38110","norming","","","","","","",""
"1351.4799999999814","","","post_reveal_questions","survey-likert","376","1154740","0.0-6.0-6.52","2540820","co38110","norming","","","{""aha"":3}","[0]","../img/tt/1004tt.jpg","",""
"null","<div style=""font-size:60px;""> </div>","null","fixation","html-keyboard-response","377","1154944","0.0-6.0-0.53","2540820","co38110","norming","","","","","","",""
"null","../img/tt/052tt.jpg","null","mooney1","image-keyboard-response","378","1157952","0.0-6.0-1.53","2540820","co38110","norming","","","","","","",""
"4097.389999999898","","","post_mooney1_questions","survey-likert","379","1162052","0.0-6.0-2.53","2540820","co38110","norming","","","{""curiosity"":3,""confidence"":2}","[0,1]","../img/tt/052tt.jpg","",""
"3926.179999999935","","","recognition","survey-text","380","1165980","0.0-6.0-3.53","2540820","co38110","norming","","","{""guess"":""een wasmand ""}","","../img/tt/052tt.jpg","",""
"null","../img/gs/052gs.jpg","null","reveal","image-keyboard-response","381","1167991","0.0-6.0-4.53","2540820","co38110","norming","","","","","","",""
"null","../img/tt/052tt.jpg","null","mooney2","image-keyboard-response","382","1169994","0.0-6.0-5.53","2540820","co38110","norming","","","","","","",""
"2135.0550000001676","","","post_reveal_questions","survey-likert","383","1172132","0.0-6.0-6.53","2540820","co38110","norming","","","{""aha"":3}","[0]","../img/tt/052tt.jpg","",""
"null","<div style=""font-size:60px;""> </div>","null","fixation","html-keyboard-response","384","1172338","0.0-6.0-0.54","2540820","co38110","norming","","","","","","",""
"null","../img/tt/010tt.jpg","null","mooney1","image-keyboard-response","385","1175340","0.0-6.0-1.54","2540820","co38110","norming","","","","","","",""
"3948.7750000001397","","","post_mooney1_questions","survey-likert","386","1179293","0.0-6.0-2.54","2540820","co38110","norming","","","{""curiosity"":3,""confidence"":2}","[0,1]","../img/tt/010tt.jpg","",""
"2638.090000000084","","","recognition","survey-text","387","1181932","0.0-6.0-3.54","2540820","co38110","norming","","","{""guess"":""een dier""}","","../img/tt/010tt.jpg","",""
"null","../img/gs/010gs.jpg","null","reveal","image-keyboard-response","388","1183936","0.0-6.0-4.54","2540820","co38110","norming","","","","","","",""
"null","../img/tt/010tt.jpg","null","mooney2","image-keyboard-response","389","1185937","0.0-6.0-5.54","2540820","co38110","norming","","","","","","",""
"1792.780000000028","","","post_reveal_questions","survey-likert","390","1187732","0.0-6.0-6.54","2540820","co38110","norming","","","{""aha"":3}","[0]","../img/tt/010tt.jpg","",""
"null","<div style=""font-size:60px;""> </div>","null","fixation","html-keyboard-response","391","1187937","0.0-6.0-0.55","2540820","co38110","norming","","","","","","",""
"null","../img/tt/1227tt.jpg","null","mooney1","image-keyboard-response","392","1190940","0.0-6.0-1.55","2540820","co38110","norming","","","","","","",""
"3799.034999999916","","","post_mooney1_questions","survey-likert","393","1194740","0.0-6.0-2.55","2540820","co38110","norming","","","{""curiosity"":3,""confidence"":0}","[0,1]","../img/tt/1227tt.jpg","",""
"1045.9299999999348","","","recognition","survey-text","394","1195788","0.0-6.0-3.55","2540820","co38110","norming","","","{""guess"":""""}","","../img/tt/1227tt.jpg","",""
"null","../img/gs/1227gs.jpg","null","reveal","image-keyboard-response","395","1197797","0.0-6.0-4.55","2540820","co38110","norming","","","","","","",""
"null","../img/tt/1227tt.jpg","null","mooney2","image-keyboard-response","396","1199806","0.0-6.0-5.55","2540820","co38110","norming","","","","","","",""
"1786.9299999999348","","","post_reveal_questions","survey-likert","397","1201596","0.0-6.0-6.55","2540820","co38110","norming","","","{""aha"":3}","[0]","../img/tt/1227tt.jpg","",""
"null","<div style=""font-size:60px;""> </div>","null","fixation","html-keyboard-response","398","1201798","0.0-6.0-0.56","2540820","co38110","norming","","","","","","",""
"null","../img/tt/1353tt.jpg","null","mooney1","image-keyboard-response","399","1204809","0.0-6.0-1.56","2540820","co38110","norming","","","","","","",""
"4105.949999999953","","","post_mooney1_questions","survey-likert","400","1208916","0.0-6.0-2.56","2540820","co38110","norming","","","{""curiosity"":2,""confidence"":0}","[0,1]","../img/tt/1353tt.jpg","",""
"5142.405000000028","","","recognition","survey-text","401","1214060","0.0-6.0-3.56","2540820","co38110","norming","","","{""guess"":""an object""}","","../img/tt/1353tt.jpg","",""
"null","../img/gs/1353gs.jpg","null","reveal","image-keyboard-response","402","1216062","0.0-6.0-4.56","2540820","co38110","norming","","","","","","",""
"null","../img/tt/1353tt.jpg","null","mooney2","image-keyboard-response","403","1218071","0.0-6.0-5.56","2540820","co38110","norming","","","","","","",""
"2307.0450000001583","","","post_reveal_questions","survey-likert","404","1220380","0.0-6.0-6.56","2540820","co38110","norming","","","{""aha"":4}","[0]","../img/tt/1353tt.jpg","",""
"null","<div style=""font-size:60px;""> </div>","null","fixation","html-keyboard-response","405","1220586","0.0-6.0-0.57","2540820","co38110","norming","","","","","","",""
"null","../img/tt/189tt.jpg","null","mooney1","image-keyboard-response","406","1223592","0.0-6.0-1.57","2540820","co38110","norming","","","","","","",""
"2849.3050000001676","","","post_mooney1_questions","survey-likert","407","1226444","0.0-6.0-2.57","2540820","co38110","norming","","","{""curiosity"":3,""confidence"":3}","[0,1]","../img/tt/189tt.jpg","",""
"3149.9249999998137","","","recognition","survey-text","408","1229596","0.0-6.0-3.57","2540820","co38110","norming","","","{""guess"":""een hangmat ""}","","../img/tt/189tt.jpg","",""
"null","../img/gs/189gs.jpg","null","reveal","image-keyboard-response","409","1231602","0.0-6.0-4.57","2540820","co38110","norming","","","","","","",""
"null","../img/tt/189tt.jpg","null","mooney2","image-keyboard-response","410","1233604","0.0-6.0-5.57","2540820","co38110","norming","","","","","","",""
"3141.060000000056","","","post_reveal_questions","survey-likert","411","1236748","0.0-6.0-6.57","2540820","co38110","norming","","","{""aha"":3}","[0]","../img/tt/189tt.jpg","",""
"null","<div style=""font-size:60px;""> </div>","null","fixation","html-keyboard-response","412","1236949","0.0-6.0-0.58","2540820","co38110","norming","","","","","","",""
"null","../img/tt/1234tt.jpg","null","mooney1","image-keyboard-response","413","1239950","0.0-6.0-1.58","2540820","co38110","norming","","","","","","",""
"4100.6699999999255","","","post_mooney1_questions","survey-likert","414","1244052","0.0-6.0-2.58","2540820","co38110","norming","","","{""curiosity"":3,""confidence"":3}","[0,1]","../img/tt/1234tt.jpg","",""
"2758.054999999702","","","recognition","survey-text","415","1246812","0.0-6.0-3.58","2540820","co38110","norming","","","{""guess"":""een boot ""}","","../img/tt/1234tt.jpg","",""
"null","../img/gs/1234gs.jpg","null","reveal","image-keyboard-response","416","1248822","0.0-6.0-4.58","2540820","co38110","norming","","","","","","",""
"null","../img/tt/1234tt.jpg","null","mooney2","image-keyboard-response","417","1250824","0.0-6.0-5.58","2540820","co38110","norming","","","","","","",""
"1859.4849999998696","","","post_reveal_questions","survey-likert","418","1252684","0.0-6.0-6.58","2540820","co38110","norming","","","{""aha"":3}","[0]","../img/tt/1234tt.jpg","",""
"null","<div style=""font-size:60px;""> </div>","null","fixation","html-keyboard-response","419","1252892","0.0-6.0-0.59","2540820","co38110","norming","","","","","","",""
"null","../img/tt/406tt.jpg","null","mooney1","image-keyboard-response","420","1255898","0.0-6.0-1.59","2540820","co38110","norming","","","","","","",""
"5038.479999999981","","","post_mooney1_questions","survey-likert","421","1260940","0.0-6.0-2.59","2540820","co38110","norming","","","{""curiosity"":2,""confidence"":0}","[0,1]","../img/tt/406tt.jpg","",""
"1589.9149999998044","","","recognition","survey-text","422","1262532","0.0-6.0-3.59","2540820","co38110","norming","","","{""guess"":""""}","","../img/tt/406tt.jpg","",""
"null","../img/gs/406gs.jpg","null","reveal","image-keyboard-response","423","1264539","0.0-6.0-4.59","2540820","co38110","norming","","","","","","",""
"null","../img/tt/406tt.jpg","null","mooney2","image-keyboard-response","424","1266543","0.0-6.0-5.59","2540820","co38110","norming","","","","","","",""
"1777.6250000002328","","","post_reveal_questions","survey-likert","425","1268324","0.0-6.0-6.59","2540820","co38110","norming","","","{""aha"":3}","[0]","../img/tt/406tt.jpg","",""
"null","<div style=""font-size:60px;""> </div>","null","fixation","html-keyboard-response","426","1268534","0.0-6.0-0.60","2540820","co38110","norming","","","","","","",""
"null","../img/tt/1362tt.jpg","null","mooney1","image-keyboard-response","427","1271538","0.0-6.0-1.60","2540820","co38110","norming","","","","","","",""
"4038.1049999997485","","","post_mooney1_questions","survey-likert","428","1275580","0.0-6.0-2.60","2540820","co38110","norming","","","{""curiosity"":3,""confidence"":2}","[0,1]","../img/tt/1362tt.jpg","",""
"20254.294999999925","","","recognition","survey-text","429","1295836","0.0-6.0-3.60","2540820","co38110","norming","","","{""guess"":""food objects""}","","../img/tt/1362tt.jpg","",""
"null","../img/gs/1362gs.jpg","null","reveal","image-keyboard-response","430","1297840","0.0-6.0-4.60","2540820","co38110","norming","","","","","","",""
"null","../img/tt/1362tt.jpg","null","mooney2","image-keyboard-response","431","1299850","0.0-6.0-5.60","2540820","co38110","norming","","","","","","",""
"2015.5250000001397","","","post_reveal_questions","survey-likert","432","1301868","0.0-6.0-6.60","2540820","co38110","norming","","","{""aha"":3}","[0]","../img/tt/1362tt.jpg","",""
"null","<div style=""font-size:60px;""> </div>","null","fixation","html-keyboard-response","433","1302074","0.0-6.0-0.61","2540820","co38110","norming","","","","","","",""
"null","../img/tt/032tt.jpg","null","mooney1","image-keyboard-response","434","1305079","0.0-6.0-1.61","2540820","co38110","norming","","","","","","",""
"4889.429999999935","","","post_mooney1_questions","survey-likert","435","1309972","0.0-6.0-2.61","2540820","co38110","norming","","","{""curiosity"":3,""confidence"":2}","[0,1]","../img/tt/032tt.jpg","",""
"2118.25","","","recognition","survey-text","436","1312092","0.0-6.0-3.61","2540820","co38110","norming","","","{""guess"":""a horse""}","","../img/tt/032tt.jpg","",""
"null","../img/gs/032gs.jpg","null","reveal","image-keyboard-response","437","1314094","0.0-6.0-4.61","2540820","co38110","norming","","","","","","",""
"null","../img/tt/032tt.jpg","null","mooney2","image-keyboard-response","438","1316097","0.0-6.0-5.61","2540820","co38110","norming","","","","","","",""
"3825.0450000001583","","","post_reveal_questions","survey-likert","439","1319924","0.0-6.0-6.61","2540820","co38110","norming","","","{""aha"":3}","[0]","../img/tt/032tt.jpg","",""
"null","<div style=""font-size:60px;""> </div>","null","fixation","html-keyboard-response","440","1320126","0.0-6.0-0.62","2540820","co38110","norming","","","","","","",""
"null","../img/tt/1101tt.jpg","null","mooney1","image-keyboard-response","441","1323131","0.0-6.0-1.62","2540820","co38110","norming","","","","","","",""
"3365.8000000000466","","","post_mooney1_questions","survey-likert","442","1326500","0.0-6.0-2.62","2540820","co38110","norming","","","{""curiosity"":3,""confidence"":3}","[0,1]","../img/tt/1101tt.jpg","",""
"3254.0049999998882","","","recognition","survey-text","443","1329756","0.0-6.0-3.62","2540820","co38110","norming","","","{""guess"":""a human ""}","","../img/tt/1101tt.jpg","",""
"null","../img/gs/1101gs.jpg","null","reveal","image-keyboard-response","444","1331762","0.0-6.0-4.62","2540820","co38110","norming","","","","","","",""
"null","../img/tt/1101tt.jpg","null","mooney2","image-keyboard-response","445","1333765","0.0-6.0-5.62","2540820","co38110","norming","","","","","","",""
"2316.380000000121","","","post_reveal_questions","survey-likert","446","1336084","0.0-6.0-6.62","2540820","co38110","norming","","","{""aha"":3}","[0]","../img/tt/1101tt.jpg","",""
"null","<div style=""font-size:60px;""> </div>","null","fixation","html-keyboard-response","447","1336285","0.0-6.0-0.63","2540820","co38110","norming","","","","","","",""
"null","../img/tt/1055tt.jpg","null","mooney1","image-keyboard-response","448","1339290","0.0-6.0-1.63","2540820","co38110","norming","","","","","","",""
"4926.659999999916","","","post_mooney1_questions","survey-likert","449","1344220","0.0-6.0-2.63","2540820","co38110","norming","","","{""curiosity"":3,""confidence"":2}","[0,1]","../img/tt/1055tt.jpg","",""
"1205.7399999999907","","","recognition","survey-text","450","1345428","0.0-6.0-3.63","2540820","co38110","norming","","","{""guess"":""""}","","../img/tt/1055tt.jpg","",""
"null","../img/gs/1055gs.jpg","null","reveal","image-keyboard-response","451","1347434","0.0-6.0-4.63","2540820","co38110","norming","","","","","","",""
"null","../img/tt/1055tt.jpg","null","mooney2","image-keyboard-response","452","1349444","0.0-6.0-5.63","2540820","co38110","norming","","","","","","",""
"2237.2350000001024","","","post_reveal_questions","survey-likert","453","1351684","0.0-6.0-6.63","2540820","co38110","norming","","","{""aha"":3}","[0]","../img/tt/1055tt.jpg","",""
"null","<div style=""font-size:60px;""> </div>","null","fixation","html-keyboard-response","454","1351893","0.0-6.0-0.64","2540820","co38110","norming","","","","","","",""
"null","../img/tt/1006tt.jpg","null","mooney1","image-keyboard-response","455","1354896","0.0-6.0-1.64","2540820","co38110","norming","","","","","","",""
"2850.5100000000093","","","post_mooney1_questions","survey-likert","456","1357749","0.0-6.0-2.64","2540820","co38110","norming","","","{""curiosity"":2,""confidence"":0}","[0,1]","../img/tt/1006tt.jpg","",""
"1109.7950000001583","","","recognition","survey-text","457","1358860","0.0-6.0-3.64","2540820","co38110","norming","","","{""guess"":""""}","","../img/tt/1006tt.jpg","",""
"null","../img/gs/1006gs.jpg","null","reveal","image-keyboard-response","458","1360867","0.0-6.0-4.64","2540820","co38110","norming","","","","","","",""
"null","../img/tt/1006tt.jpg","null","mooney2","image-keyboard-response","459","1362875","0.0-6.0-5.64","2540820","co38110","norming","","","","","","",""
"2480.899999999907","","","post_reveal_questions","survey-likert","460","1365356","0.0-6.0-6.64","2540820","co38110","norming","","","{""aha"":2}","[0]","../img/tt/1006tt.jpg","",""
"null","<div style=""font-size:60px;""> </div>","null","fixation","html-keyboard-response","461","1365563","0.0-6.0-0.65","2540820","co38110","norming","","","","","","",""
"null","../img/tt/1122tt.jpg","null","mooney1","image-keyboard-response","462","1368569","0.0-6.0-1.65","2540820","co38110","norming","","","","","","",""
"4698.014999999898","","","post_mooney1_questions","survey-likert","463","1373268","0.0-6.0-2.65","2540820","co38110","norming","","","{""curiosity"":3,""confidence"":3}","[0,1]","../img/tt/1122tt.jpg","",""
"3270.189999999944","","","recognition","survey-text","464","1376540","0.0-6.0-3.65","2540820","co38110","norming","","","{""guess"":""a beach""}","","../img/tt/1122tt.jpg","",""
"null","../img/gs/1122gs.jpg","null","reveal","image-keyboard-response","465","1378547","0.0-6.0-4.65","2540820","co38110","norming","","","","","","",""
"null","../img/tt/1122tt.jpg","null","mooney2","image-keyboard-response","466","1380549","0.0-6.0-5.65","2540820","co38110","norming","","","","","","",""
"2164.5800000000745","","","post_reveal_questions","survey-likert","467","1382716","0.0-6.0-6.65","2540820","co38110","norming","","","{""aha"":2}","[0]","../img/tt/1122tt.jpg","",""
"null","<div style=""font-size:60px;""> </div>","null","fixation","html-keyboard-response","468","1382920","0.0-6.0-0.66","2540820","co38110","norming","","","","","","",""
"null","../img/tt/599tt.jpg","null","mooney1","image-keyboard-response","469","1385931","0.0-6.0-1.66","2540820","co38110","norming","","","","","","",""
"4161.050000000047","","","post_mooney1_questions","survey-likert","470","1390100","0.0-6.0-2.66","2540820","co38110","norming","","","{""curiosity"":2,""confidence"":0}","[0,1]","../img/tt/599tt.jpg","",""
"990.0300000000279","","","recognition","survey-text","471","1391092","0.0-6.0-3.66","2540820","co38110","norming","","","{""guess"":""""}","","../img/tt/599tt.jpg","",""
"null","../img/gs/599gs.jpg","null","reveal","image-keyboard-response","472","1393093","0.0-6.0-4.66","2540820","co38110","norming","","","","","","",""
"null","../img/tt/599tt.jpg","null","mooney2","image-keyboard-response","473","1395097","0.0-6.0-5.66","2540820","co38110","norming","","","","","","",""
"1664.7499999997672","","","post_reveal_questions","survey-likert","474","1396764","0.0-6.0-6.66","2540820","co38110","norming","","","{""aha"":3}","[0]","../img/tt/599tt.jpg","",""
"null","<div style=""font-size:60px;""> </div>","null","fixation","html-keyboard-response","475","1396968","0.0-6.0-0.67","2540820","co38110","norming","","","","","","",""
"null","../img/tt/1211tt.jpg","null","mooney1","image-keyboard-response","476","1399977","0.0-6.0-1.67","2540820","co38110","norming","","","","","","",""
"3664.179999999935","","","post_mooney1_questions","survey-likert","477","1403644","0.0-6.0-2.67","2540820","co38110","norming","","","{""curiosity"":2,""confidence"":0}","[0,1]","../img/tt/1211tt.jpg","",""
"838.0100000000093","","","recognition","survey-text","478","1404484","0.0-6.0-3.67","2540820","co38110","norming","","","{""guess"":""""}","","../img/tt/1211tt.jpg","",""
"null","../img/gs/1211gs.jpg","null","reveal","image-keyboard-response","479","1406493","0.0-6.0-4.67","2540820","co38110","norming","","","","","","",""
"null","../img/tt/1211tt.jpg","null","mooney2","image-keyboard-response","480","1408503","0.0-6.0-5.67","2540820","co38110","norming","","","","","","",""
"3354.1949999998324","","","post_reveal_questions","survey-likert","481","1411860","0.0-6.0-6.67","2540820","co38110","norming","","","{""aha"":2}","[0]","../img/tt/1211tt.jpg","",""
"null","<div style=""font-size:60px;""> </div>","null","fixation","html-keyboard-response","482","1412063","0.0-6.0-0.68","2540820","co38110","norming","","","","","","",""
"null","../img/tt/273tt.jpg","null","mooney1","image-keyboard-response","483","1415068","0.0-6.0-1.68","2540820","co38110","norming","","","","","","",""
"6063.309999999823","","","post_mooney1_questions","survey-likert","484","1421132","0.0-6.0-2.68","2540820","co38110","norming","","","{""curiosity"":2,""confidence"":0}","[0,1]","../img/tt/273tt.jpg","",""
"1117.9250000000466","","","recognition","survey-text","485","1422252","0.0-6.0-3.68","2540820","co38110","norming","","","{""guess"":""""}","","../img/tt/273tt.jpg","",""
"null","../img/gs/273gs.jpg","null","reveal","image-keyboard-response","486","1424259","0.0-6.0-4.68","2540820","co38110","norming","","","","","","",""
"null","../img/tt/273tt.jpg","null","mooney2","image-keyboard-response","487","1426261","0.0-6.0-5.68","2540820","co38110","norming","","","","","","",""
"4508.459999999963","","","post_reveal_questions","survey-likert","488","1430770","0.0-6.0-6.68","2540820","co38110","norming","","","{""aha"":1}","[0]","../img/tt/273tt.jpg","",""
"null","<div style=""font-size:60px;""> </div>","null","fixation","html-keyboard-response","489","1430977","0.0-6.0-0.69","2540820","co38110","norming","","","","","","",""
"null","../img/tt/477tt.jpg","null","mooney1","image-keyboard-response","490","1433981","0.0-6.0-1.69","2540820","co38110","norming","","","","","","",""
"4816.969999999739","","","post_mooney1_questions","survey-likert","491","1438802","0.0-6.0-2.69","2540820","co38110","norming","","","{""curiosity"":2,""confidence"":2}","[0,1]","../img/tt/477tt.jpg","",""
"1062.2350000001024","","","recognition","survey-text","492","1439866","0.0-6.0-3.69","2540820","co38110","norming","","","{""guess"":""""}","","../img/tt/477tt.jpg","",""
"null","../img/gs/477gs.jpg","null","reveal","image-keyboard-response","493","1441874","0.0-6.0-4.69","2540820","co38110","norming","","","","","","",""
"null","../img/tt/477tt.jpg","null","mooney2","image-keyboard-response","494","1443877","0.0-6.0-5.69","2540820","co38110","norming","","","","","","",""
"2338.4950000001118","","","post_reveal_questions","survey-likert","495","1446218","0.0-6.0-6.69","2540820","co38110","norming","","","{""aha"":2}","[0]","../img/tt/477tt.jpg","",""
"null","<div style=""font-size:60px;""> </div>","null","fixation","html-keyboard-response","496","1446421","0.0-6.0-0.70","2540820","co38110","norming","","","","","","",""
"null","../img/tt/1196tt.jpg","null","mooney1","image-keyboard-response","497","1449425","0.0-6.0-1.70","2540820","co38110","norming","","","","","","",""
"4020.935000000056","","","post_mooney1_questions","survey-likert","498","1453450","0.0-6.0-2.70","2540820","co38110","norming","","","{""curiosity"":2,""confidence"":2}","[0,1]","../img/tt/1196tt.jpg","",""
"630.0300000000279","","","recognition","survey-text","499","1454082","0.0-6.0-3.70","2540820","co38110","norming","","","{""guess"":""""}","","../img/tt/1196tt.jpg","",""
"null","../img/gs/1196gs.jpg","null","reveal","image-keyboard-response","500","1456091","0.0-6.0-4.70","2540820","co38110","norming","","","","","","",""
"null","../img/tt/1196tt.jpg","null","mooney2","image-keyboard-response","501","1458100","0.0-6.0-5.70","2540820","co38110","norming","","","","","","",""
"2363.090000000084","","","post_reveal_questions","survey-likert","502","1460466","0.0-6.0-6.70","2540820","co38110","norming","","","{""aha"":2}","[0]","../img/tt/1196tt.jpg","",""
"null","<div style=""font-size:60px;""> </div>","null","fixation","html-keyboard-response","503","1460668","0.0-6.0-0.71","2540820","co38110","norming","","","","","","",""
"null","../img/tt/124tt.jpg","null","mooney1","image-keyboard-response","504","1463671","0.0-6.0-1.71","2540820","co38110","norming","","","","","","",""
"3247.3050000001676","","","post_mooney1_questions","survey-likert","505","1466922","0.0-6.0-2.71","2540820","co38110","norming","","","{""curiosity"":3,""confidence"":2}","[0,1]","../img/tt/124tt.jpg","",""
"878.3049999999348","","","recognition","survey-text","506","1467802","0.0-6.0-3.71","2540820","co38110","norming","","","{""guess"":""""}","","../img/tt/124tt.jpg","",""
"null","../img/gs/124gs.jpg","null","reveal","image-keyboard-response","507","1469809","0.0-6.0-4.71","2540820","co38110","norming","","","","","","",""
"null","../img/tt/124tt.jpg","null","mooney2","image-keyboard-response","508","1471820","0.0-6.0-5.71","2540820","co38110","norming","","","","","","",""
"2075.594999999972","","","post_reveal_questions","survey-likert","509","1473898","0.0-6.0-6.71","2540820","co38110","norming","","","{""aha"":3}","[0]","../img/tt/124tt.jpg","",""
"null","<div style=""font-size:60px;""> </div>","null","fixation","html-keyboard-response","510","1474102","0.0-6.0-0.72","2540820","co38110","norming","","","","","","",""
"null","../img/tt/096tt.jpg","null","mooney1","image-keyboard-response","511","1477107","0.0-6.0-1.72","2540820","co38110","norming","","","","","","",""
"4587.430000000168","","","post_mooney1_questions","survey-likert","512","1481698","0.0-6.0-2.72","2540820","co38110","norming","","","{""curiosity"":3,""confidence"":2}","[0,1]","../img/tt/096tt.jpg","",""
"790.0049999998882","","","recognition","survey-text","513","1482490","0.0-6.0-3.72","2540820","co38110","norming","","","{""guess"":""""}","","../img/tt/096tt.jpg","",""
"null","../img/gs/096gs.jpg","null","reveal","image-keyboard-response","514","1484491","0.0-6.0-4.72","2540820","co38110","norming","","","","","","",""
"null","../img/tt/096tt.jpg","null","mooney2","image-keyboard-response","515","1486494","0.0-6.0-5.72","2540820","co38110","norming","","","","","","",""
"1505.3249999999534","","","post_reveal_questions","survey-likert","516","1488002","0.0-6.0-6.72","2540820","co38110","norming","","","{""aha"":3}","[0]","../img/tt/096tt.jpg","",""
"null","<div style=""font-size:60px;""> </div>","null","fixation","html-keyboard-response","517","1488204","0.0-6.0-0.73","2540820","co38110","norming","","","","","","",""
"null","../img/tt/1199tt.jpg","null","mooney1","image-keyboard-response","518","1491214","0.0-6.0-1.73","2540820","co38110","norming","","","","","","",""
"3346.3549999999814","","","post_mooney1_questions","survey-likert","519","1494564","0.0-6.0-2.73","2540820","co38110","norming","","","{""curiosity"":3,""confidence"":0}","[0,1]","../img/tt/1199tt.jpg","",""
"845.8149999999441","","","recognition","survey-text","520","1495412","0.0-6.0-3.73","2540820","co38110","norming","","","{""guess"":""""}","","../img/tt/1199tt.jpg","",""
"null","../img/gs/1199gs.jpg","null","reveal","image-keyboard-response","521","1497420","0.0-6.0-4.73","2540820","co38110","norming","","","","","","",""
"null","../img/tt/1199tt.jpg","null","mooney2","image-keyboard-response","522","1499429","0.0-6.0-5.73","2540820","co38110","norming","","","","","","",""
"3402.7599999997765","","","post_reveal_questions","survey-likert","523","1502836","0.0-6.0-6.73","2540820","co38110","norming","","","{""aha"":2}","[0]","../img/tt/1199tt.jpg","",""
"null","<div style=""font-size:60px;""> </div>","null","fixation","html-keyboard-response","524","1503037","0.0-6.0-0.74","2540820","co38110","norming","","","","","","",""
"null","../img/tt/063tt.jpg","null","mooney1","image-keyboard-response","525","1506047","0.0-6.0-1.74","2540820","co38110","norming","","","","","","",""
"4034.340000000084","","","post_mooney1_questions","survey-likert","526","1510086","0.0-6.0-2.74","2540820","co38110","norming","","","{""curiosity"":3,""confidence"":4}","[0,1]","../img/tt/063tt.jpg","",""
"11460.51000000001","","","recognition","survey-text","527","1521548","0.0-6.0-3.74","2540820","co38110","norming","","","{""guess"":""een muziekinstrument""}","","../img/tt/063tt.jpg","",""
"null","../img/gs/063gs.jpg","null","reveal","image-keyboard-response","528","1523550","0.0-6.0-4.74","2540820","co38110","norming","","","","","","",""
"null","../img/tt/063tt.jpg","null","mooney2","image-keyboard-response","529","1525555","0.0-6.0-5.74","2540820","co38110","norming","","","","","","",""
"2334.560000000056","","","post_reveal_questions","survey-likert","530","1527892","0.0-6.0-6.74","2540820","co38110","norming","","","{""aha"":3}","[0]","../img/tt/063tt.jpg","",""
"null","<div style=""font-size:60px;""> </div>","null","fixation","html-keyboard-response","531","1528101","0.0-6.0-0.75","2540820","co38110","norming","","","","","","",""
"null","../img/tt/1247tt.jpg","null","mooney1","image-keyboard-response","532","1531107","0.0-6.0-1.75","2540820","co38110","norming","","","","","","",""
"3701.284999999916","","","post_mooney1_questions","survey-likert","533","1534812","0.0-6.0-2.75","2540820","co38110","norming","","","{""curiosity"":2,""confidence"":0}","[0,1]","../img/tt/1247tt.jpg","",""
"1437.9200000001583","","","recognition","survey-text","534","1536252","0.0-6.0-3.75","2540820","co38110","norming","","","{""guess"":""""}","","../img/tt/1247tt.jpg","",""
"null","../img/gs/1247gs.jpg","null","reveal","image-keyboard-response","535","1538254","0.0-6.0-4.75","2540820","co38110","norming","","","","","","",""
"null","../img/tt/1247tt.jpg","null","mooney2","image-keyboard-response","536","1540257","0.0-6.0-5.75","2540820","co38110","norming","","","","","","",""
"1855.9549999998417","","","post_reveal_questions","survey-likert","537","1542116","0.0-6.0-6.75","2540820","co38110","norming","","","{""aha"":3}","[0]","../img/tt/1247tt.jpg","",""
"null","<div style=""font-size:60px;""> </div>","null","fixation","html-keyboard-response","538","1542324","0.0-6.0-0.76","2540820","co38110","norming","","","","","","",""
"null","../img/tt/1279tt.jpg","null","mooney1","image-keyboard-response","539","1545336","0.0-6.0-1.76","2540820","co38110","norming","","","","","","",""
"3584.3499999998603","","","post_mooney1_questions","survey-likert","540","1548924","0.0-6.0-2.76","2540820","co38110","norming","","","{""curiosity"":3,""confidence"":1}","[0,1]","../img/tt/1279tt.jpg","",""
"2158.25","","","recognition","survey-text","541","1551084","0.0-6.0-3.76","2540820","co38110","norming","","","{""guess"":""""}","","../img/tt/1279tt.jpg","",""
"null","../img/gs/1279gs.jpg","null","reveal","image-keyboard-response","542","1553087","0.0-6.0-4.76","2540820","co38110","norming","","","","","","",""
"null","../img/tt/1279tt.jpg","null","mooney2","image-keyboard-response","543","1555088","0.0-6.0-5.76","2540820","co38110","norming","","","","","","",""
"2208.7950000001583","","","post_reveal_questions","survey-likert","544","1557300","0.0-6.0-6.76","2540820","co38110","norming","","","{""aha"":3}","[0]","../img/tt/1279tt.jpg","",""
"null","<div style=""font-size:60px;""> </div>","null","fixation","html-keyboard-response","545","1557503","0.0-6.0-0.77","2540820","co38110","norming","","","","","","",""
"null","../img/tt/315tt.jpg","null","mooney1","image-keyboard-response","546","1560509","0.0-6.0-1.77","2540820","co38110","norming","","","","","","",""
"4019.719999999972","","","post_mooney1_questions","survey-likert","547","1564532","0.0-6.0-2.77","2540820","co38110","norming","","","{""curiosity"":3,""confidence"":2}","[0,1]","../img/tt/315tt.jpg","",""
"949.75","","","recognition","survey-text","548","1565484","0.0-6.0-3.77","2540820","co38110","norming","","","{""guess"":""""}","","../img/tt/315tt.jpg","",""
"null","../img/gs/315gs.jpg","null","reveal","image-keyboard-response","549","1567489","0.0-6.0-4.77","2540820","co38110","norming","","","","","","",""
"null","../img/tt/315tt.jpg","null","mooney2","image-keyboard-response","550","1569498","0.0-6.0-5.77","2540820","co38110","norming","","","","","","",""
"1518.8600000001024","","","post_reveal_questions","survey-likert","551","1571020","0.0-6.0-6.77","2540820","co38110","norming","","","{""aha"":3}","[0]","../img/tt/315tt.jpg","",""
"null","<div style=""font-size:60px;""> </div>","null","fixation","html-keyboard-response","552","1571224","0.0-6.0-0.78","2540820","co38110","norming","","","","","","",""
"null","../img/tt/1084tt.jpg","null","mooney1","image-keyboard-response","553","1574227","0.0-6.0-1.78","2540820","co38110","norming","","","","","","",""
