"rt","stimulus","key_press","test_part","trial_type","trial_index","time_elapsed","internal_node_id","totalTime","subject","experiment_name","button_pressed","success","responses","question_order","currentStim","old","correct"
"12331.969999999274","Welcome to the experiment. This is an online experiment so please don't close the tab/window until we say goodbye.  Press any key to begin.","190","instructions","html-keyboard-response","0","12349","0.0-0.0","2950433","co38974","norming","","","","","","",""
"28673.850000006496","<div style='word-wrap: break-word; width: 900px'><h3>Please consider this information carefully before deciding whether to participate in this research</h3><ul style='text-align: left; font-size: .8em;'><li><b>Purpose of the research</b>: To examine how people process images.</li><li><b>What you will do in this research</b>:  Stimuli (images) will be presented on the computer and you will be asked different questions about them.</li><li><b>Time required</b>: Participation will take between 45 and 60 minutes to complete.</li><li><b>Risks</b>:  There are no anticipated risks associated with participating in this study. The effects of participating should be comparable to those you would experience from viewing a computer monitor for 30 minutes and using a mouse or keyboard.</li><li><b>Benefits</b>:  This study provides no benefits to you individually except for the credit. The study provides important information about the nature of perception and learning.</li><li><b>Confidentiality</b>:  Your participation in this study will remain confidential. No personally identifiable information will be associated with your data. Your de-identified data may be shared with other researchers and used in future projects.</li><li><b>Participation and withdrawal</b>:  Your participation in this study is completely voluntary and you may refuse to participate or you may choose to withdraw at any time without penalty.</li><li><b>How to contact the researchers</b>: If you have questions or concerns about your participation or payment, or want to request a summary of research findings, please contact Sander Van de Cruys (KU Leuven), at sander.vandecruys@kuleuven.be.</li></ul><p>The nature and purpose of this research have been sufficiently explained and I agree to participate in this study.  I understand that I am free to withdraw at any time without incurring any penalty.</p><p>Please consent by clicking the button below to continue. Otherwise, please exit the study at this time.</p></div>","","instructions","html-button-response","1","41018","0.0-1.0","2950433","co38974","norming","0","","","","","",""
"","","","instructions","fullscreen","2","44460","0.0-2.0","2950433","co38974","norming","","true","","","","",""
"42475.99000000628","","","sona","survey-html-form","3","86942","0.0-3.0","2950433","co38974","norming","","","[{""name"":""sonaid"",""value"":""38974""},{""name"":""debrief"",""value"":""yes""},{""name"":""datajoin"",""value"":""yes""}]","","","",""
"48579.77500000561","<div style='word-wrap: break-word; width: 900px'><h3>Instructions</h3><p>This experiment will have 3 parts. In the first part you will see a series of distorted images like the one below on the left. As you can see in the righthand image, the distorted images are derived from actual photographs. In what follows, you will <strong>briefly</strong> be presented with <strong>only</strong> the distorted image.</p> <div style='float: left; margin-right: 20px;'><img src='../img/018tt.jpg' height='250' width='250'></img></div><div style='float: right; margin-left: 20px;'><img src='../img/018gs.jpg' height='250' width='250'></img></div><p>Subsequently you will be asked a few questions about the image: One question on how <strong>curious</strong> you are about the solution and one on how <strong>confident</strong> you are that you know the solution.</p>Next, we ask you to make a guess on what is in the image. Note that it is OK to name just the <strong>basic level category</strong>. For example when you see a parrot in the image, 'parrot' will obviously be a correct answer but also correct is 'bird'. However, 'animal' will <strong>not</strong> be counted as a correct response. For the example above, 'rose' would be correct or 'flower', but not 'plant'. When soccer players are depicted, 'soccer', 'football', 'soccer players' will be correct, but not 'humans', 'outdoors', or 'sports'. You do not need to describe the image in full, just name the main object in it <strong>in one or two words</strong>. All images depict objects from one of the following broad level categories: animals, inanimate objects, plants, sports, vehicles, and food. Recognizing means knowing <strong>more</strong> than these broad labels for a given image. But we always encourage you to <strong>make a guess</strong> if you can. Note that you are allowed to use <strong>Dutch and English</strong> in your answers, whatever comes easiest for you.</p><p>Press any key to continue.</p></div>","32","instructions","html-keyboard-response","4","135525","0.0-4.0","2950433","co38974","norming","","","","","","",""
"33246.02500000037","<div style='word-wrap: break-word; width: 900px'><h3>Instructions</h3> <p>Next, the solution image will be revealed to you and you'll be asked to indicate how strong your <strong>aha-experience</strong> was after seeing the solution. This describes the positive feeling of the 'click' you sometimes experience, when the pieces of the 'puzzle' fall together and you suddenly have 'insight' in the image.</p><img src='aha.jpg' height='188' width='250'></img><p>Note that there are no right or wrong answers. We are interested in what <strong>you</strong> see in the image and how <strong>you</strong> feel about it.</p><p>Press any key to start the experiment.</p></div>","32","instructions","html-keyboard-response","5","168773","0.0-5.0","2950433","co38974","norming","","","","","","",""
"null","<div style=""font-size:60px;""> </div>","null","fixation","html-keyboard-response","6","168977","0.0-6.0-0.0","2950433","co38974","norming","","","","","","",""
"null","../img/tt/031tt.jpg","null","mooney1","image-keyboard-response","7","171986","0.0-6.0-1.0","2950433","co38974","norming","","","","","","",""
"14713.060000009136","","","post_mooney1_questions","survey-likert","8","186701","0.0-6.0-2.0","2950433","co38974","norming","","","{""curiosity"":6,""confidence"":2}","[0,1]","../img/tt/031tt.jpg","",""
"3661.514999999781","","","recognition","survey-text","9","190364","0.0-6.0-3.0","2950433","co38974","norming","","","{""guess"":""cat""}","","../img/tt/031tt.jpg","",""
"null","../img/gs/031gs.jpg","null","reveal","image-keyboard-response","10","192367","0.0-6.0-4.0","2950433","co38974","norming","","","","","","",""
"null","../img/tt/031tt.jpg","null","mooney2","image-keyboard-response","11","194373","0.0-6.0-5.0","2950433","co38974","norming","","","","","","",""
"4181.400000001304","","","post_reveal_questions","survey-likert","12","198561","0.0-6.0-6.0","2950433","co38974","norming","","","{""aha"":2}","[0]","../img/tt/031tt.jpg","",""
"null","<div style=""font-size:60px;""> </div>","null","fixation","html-keyboard-response","13","198772","0.0-6.0-0.1","2950433","co38974","norming","","","","","","",""
"null","../img/tt/1261tt.jpg","null","mooney1","image-keyboard-response","14","201775","0.0-6.0-1.1","2950433","co38974","norming","","","","","","",""
"6625.230000005104","","","post_mooney1_questions","survey-likert","15","208402","0.0-6.0-2.1","2950433","co38974","norming","","","{""curiosity"":5,""confidence"":3}","[0,1]","../img/tt/1261tt.jpg","",""
"2101.9599999999627","","","recognition","survey-text","16","210505","0.0-6.0-3.1","2950433","co38974","norming","","","{""guess"":""dog""}","","../img/tt/1261tt.jpg","",""
"null","../img/gs/1261gs.jpg","null","reveal","image-keyboard-response","17","212516","0.0-6.0-4.1","2950433","co38974","norming","","","","","","",""
"null","../img/tt/1261tt.jpg","null","mooney2","image-keyboard-response","18","214517","0.0-6.0-5.1","2950433","co38974","norming","","","","","","",""
"2202.835000003688","","","post_reveal_questions","survey-likert","19","216722","0.0-6.0-6.1","2950433","co38974","norming","","","{""aha"":5}","[0]","../img/tt/1261tt.jpg","",""
"null","<div style=""font-size:60px;""> </div>","null","fixation","html-keyboard-response","20","216927","0.0-6.0-0.2","2950433","co38974","norming","","","","","","",""
"null","../img/tt/599tt.jpg","null","mooney1","image-keyboard-response","21","219929","0.0-6.0-1.2","2950433","co38974","norming","","","","","","",""
"6647.420000008424","","","post_mooney1_questions","survey-likert","22","226578","0.0-6.0-2.2","2950433","co38974","norming","","","{""curiosity"":5,""confidence"":5}","[0,1]","../img/tt/599tt.jpg","",""
"3654.1350000043167","","","recognition","survey-text","23","230233","0.0-6.0-3.2","2950433","co38974","norming","","","{""guess"":""uil""}","","../img/tt/599tt.jpg","",""
"null","../img/gs/599gs.jpg","null","reveal","image-keyboard-response","24","232235","0.0-6.0-4.2","2950433","co38974","norming","","","","","","",""
"null","../img/tt/599tt.jpg","null","mooney2","image-keyboard-response","25","234237","0.0-6.0-5.2","2950433","co38974","norming","","","","","","",""
"5643.115000013495","","","post_reveal_questions","survey-likert","26","239882","0.0-6.0-6.2","2950433","co38974","norming","","","{""aha"":2}","[0]","../img/tt/599tt.jpg","",""
"null","<div style=""font-size:60px;""> </div>","null","fixation","html-keyboard-response","27","240084","0.0-6.0-0.3","2950433","co38974","norming","","","","","","",""
"null","../img/tt/1151tt.jpg","null","mooney1","image-keyboard-response","28","243088","0.0-6.0-1.3","2950433","co38974","norming","","","","","","",""
"6679.474999997183","","","post_mooney1_questions","survey-likert","29","249770","0.0-6.0-2.3","2950433","co38974","norming","","","{""curiosity"":6,""confidence"":1}","[0,1]","../img/tt/1151tt.jpg","",""
"2830.289999998058","","","recognition","survey-text","30","252602","0.0-6.0-3.3","2950433","co38974","norming","","","{""guess"":""panda""}","","../img/tt/1151tt.jpg","",""
"null","../img/gs/1151gs.jpg","null","reveal","image-keyboard-response","31","254608","0.0-6.0-4.3","2950433","co38974","norming","","","","","","",""
"null","../img/tt/1151tt.jpg","null","mooney2","image-keyboard-response","32","256618","0.0-6.0-5.3","2950433","co38974","norming","","","","","","",""
"5453.714999996009","","","post_reveal_questions","survey-likert","33","262074","0.0-6.0-6.3","2950433","co38974","norming","","","{""aha"":4}","[0]","../img/tt/1151tt.jpg","",""
"null","<div style=""font-size:60px;""> </div>","null","fixation","html-keyboard-response","34","262281","0.0-6.0-0.4","2950433","co38974","norming","","","","","","",""
"null","../img/tt/1122tt.jpg","null","mooney1","image-keyboard-response","35","265284","0.0-6.0-1.4","2950433","co38974","norming","","","","","","",""
"4891.980000000331","","","post_mooney1_questions","survey-likert","36","270178","0.0-6.0-2.4","2950433","co38974","norming","","","{""curiosity"":4,""confidence"":5}","[0,1]","../img/tt/1122tt.jpg","",""
"4038.1950000009965","","","recognition","survey-text","37","274218","0.0-6.0-3.4","2950433","co38974","norming","","","{""guess"":""boats""}","","../img/tt/1122tt.jpg","",""
"null","../img/gs/1122gs.jpg","null","reveal","image-keyboard-response","38","276224","0.0-6.0-4.4","2950433","co38974","norming","","","","","","",""
"null","../img/tt/1122tt.jpg","null","mooney2","image-keyboard-response","39","278242","0.0-6.0-5.4","2950433","co38974","norming","","","","","","",""
"2982.304999997723","","","post_reveal_questions","survey-likert","40","281226","0.0-6.0-6.4","2950433","co38974","norming","","","{""aha"":1}","[0]","../img/tt/1122tt.jpg","",""
"null","<div style=""font-size:60px;""> </div>","null","fixation","html-keyboard-response","41","281433","0.0-6.0-0.5","2950433","co38974","norming","","","","","","",""
"null","../img/tt/1363tt.jpg","null","mooney1","image-keyboard-response","42","284436","0.0-6.0-1.5","2950433","co38974","norming","","","","","","",""
"6404.409999988275","","","post_mooney1_questions","survey-likert","43","290842","0.0-6.0-2.5","2950433","co38974","norming","","","{""curiosity"":6,""confidence"":0}","[0,1]","../img/tt/1363tt.jpg","",""
"1006.2699999980396","","","recognition","survey-text","44","291850","0.0-6.0-3.5","2950433","co38974","norming","","","{""guess"":""""}","","../img/tt/1363tt.jpg","",""
"null","../img/gs/1363gs.jpg","null","reveal","image-keyboard-response","45","293858","0.0-6.0-4.5","2950433","co38974","norming","","","","","","",""
"null","../img/tt/1363tt.jpg","null","mooney2","image-keyboard-response","46","295867","0.0-6.0-5.5","2950433","co38974","norming","","","","","","",""
"3196.73499999044","","","post_reveal_questions","survey-likert","47","299066","0.0-6.0-6.5","2950433","co38974","norming","","","{""aha"":3}","[0]","../img/tt/1363tt.jpg","",""
"null","<div style=""font-size:60px;""> </div>","null","fixation","html-keyboard-response","48","299272","0.0-6.0-0.6","2950433","co38974","norming","","","","","","",""
"null","../img/tt/358tt.jpg","null","mooney1","image-keyboard-response","49","302282","0.0-6.0-1.6","2950433","co38974","norming","","","","","","",""
"4357.699999993201","","","post_mooney1_questions","survey-likert","50","306642","0.0-6.0-2.6","2950433","co38974","norming","","","{""curiosity"":5,""confidence"":2}","[0,1]","../img/tt/358tt.jpg","",""
"1974.145000000135","","","recognition","survey-text","51","308618","0.0-6.0-3.6","2950433","co38974","norming","","","{""guess"":""dog""}","","../img/tt/358tt.jpg","",""
"null","../img/gs/358gs.jpg","null","reveal","image-keyboard-response","52","310621","0.0-6.0-4.6","2950433","co38974","norming","","","","","","",""
"null","../img/tt/358tt.jpg","null","mooney2","image-keyboard-response","53","312623","0.0-6.0-5.6","2950433","co38974","norming","","","","","","",""
"2017.0150000049034","","","post_reveal_questions","survey-likert","54","314642","0.0-6.0-6.6","2950433","co38974","norming","","","{""aha"":4}","[0]","../img/tt/358tt.jpg","",""
"null","<div style=""font-size:60px;""> </div>","null","fixation","html-keyboard-response","55","314847","0.0-6.0-0.7","2950433","co38974","norming","","","","","","",""
"null","../img/tt/481tt.jpg","null","mooney1","image-keyboard-response","56","317857","0.0-6.0-1.7","2950433","co38974","norming","","","","","","",""
"6351.065000009839","","","post_mooney1_questions","survey-likert","57","324205","0.0-6.0-2.7","2950433","co38974","norming","","","{""curiosity"":5,""confidence"":4}","[0,1]","../img/tt/481tt.jpg","",""
"2037.7300000109244","","","recognition","survey-text","58","326245","0.0-6.0-3.7","2950433","co38974","norming","","","{""guess"":""dog""}","","../img/tt/481tt.jpg","",""
"null","../img/gs/481gs.jpg","null","reveal","image-keyboard-response","59","328246","0.0-6.0-4.7","2950433","co38974","norming","","","","","","",""
"null","../img/tt/481tt.jpg","null","mooney2","image-keyboard-response","60","330256","0.0-6.0-5.7","2950433","co38974","norming","","","","","","",""
"2843.3899999945424","","","post_reveal_questions","survey-likert","61","333101","0.0-6.0-6.7","2950433","co38974","norming","","","{""aha"":4}","[0]","../img/tt/481tt.jpg","",""
"null","<div style=""font-size:60px;""> </div>","null","fixation","html-keyboard-response","62","333310","0.0-6.0-0.8","2950433","co38974","norming","","","","","","",""
"null","../img/tt/1227tt.jpg","null","mooney1","image-keyboard-response","63","336318","0.0-6.0-1.8","2950433","co38974","norming","","","","","","",""
"4949.4399999966845","","","post_mooney1_questions","survey-likert","64","341269","0.0-6.0-2.8","2950433","co38974","norming","","","{""curiosity"":5,""confidence"":0}","[0,1]","../img/tt/1227tt.jpg","",""
"2814.2549999902258","","","recognition","survey-text","65","344085","0.0-6.0-3.8","2950433","co38974","norming","","","{""guess"":""pigs""}","","../img/tt/1227tt.jpg","",""
"null","../img/gs/1227gs.jpg","null","reveal","image-keyboard-response","66","346092","0.0-6.0-4.8","2950433","co38974","norming","","","","","","",""
"null","../img/tt/1227tt.jpg","null","mooney2","image-keyboard-response","67","348100","0.0-6.0-5.8","2950433","co38974","norming","","","","","","",""
"2759.3699999997625","","","post_reveal_questions","survey-likert","68","350861","0.0-6.0-6.8","2950433","co38974","norming","","","{""aha"":4}","[0]","../img/tt/1227tt.jpg","",""
"null","<div style=""font-size:60px;""> </div>","null","fixation","html-keyboard-response","69","351067","0.0-6.0-0.9","2950433","co38974","norming","","","","","","",""
"null","../img/tt/1089tt.jpg","null","mooney1","image-keyboard-response","70","354076","0.0-6.0-1.9","2950433","co38974","norming","","","","","","",""
"6207.425000000512","","","post_mooney1_questions","survey-likert","71","360285","0.0-6.0-2.9","2950433","co38974","norming","","","{""curiosity"":4,""confidence"":5}","[0,1]","../img/tt/1089tt.jpg","",""
"4293.974999993225","","","recognition","survey-text","72","364581","0.0-6.0-3.9","2950433","co38974","norming","","","{""guess"":""olifanten""}","","../img/tt/1089tt.jpg","",""
"null","../img/gs/1089gs.jpg","null","reveal","image-keyboard-response","73","366582","0.0-6.0-4.9","2950433","co38974","norming","","","","","","",""
"null","../img/tt/1089tt.jpg","null","mooney2","image-keyboard-response","74","368584","0.0-6.0-5.9","2950433","co38974","norming","","","","","","",""
"4099.60499999579","","","post_reveal_questions","survey-likert","75","372685","0.0-6.0-6.9","2950433","co38974","norming","","","{""aha"":2}","[0]","../img/tt/1089tt.jpg","",""
"null","<div style=""font-size:60px;""> </div>","null","fixation","html-keyboard-response","76","372894","0.0-6.0-0.10","2950433","co38974","norming","","","","","","",""
"null","../img/tt/1127tt.jpg","null","mooney1","image-keyboard-response","77","375904","0.0-6.0-1.10","2950433","co38974","norming","","","","","","",""
"8251.445000001695","","","post_mooney1_questions","survey-likert","78","384162","0.0-6.0-2.10","2950433","co38974","norming","","","{""curiosity"":5,""confidence"":1}","[0,1]","../img/tt/1127tt.jpg","",""
"4309.139999997569","","","recognition","survey-text","79","388474","0.0-6.0-3.10","2950433","co38974","norming","","","{""guess"":""classroom""}","","../img/tt/1127tt.jpg","",""
"null","../img/gs/1127gs.jpg","null","reveal","image-keyboard-response","80","390483","0.0-6.0-4.10","2950433","co38974","norming","","","","","","",""
"null","../img/tt/1127tt.jpg","null","mooney2","image-keyboard-response","81","392494","0.0-6.0-5.10","2950433","co38974","norming","","","","","","",""
"2731.3799999974435","","","post_reveal_questions","survey-likert","82","395226","0.0-6.0-6.10","2950433","co38974","norming","","","{""aha"":3}","[0]","../img/tt/1127tt.jpg","",""
"null","<div style=""font-size:60px;""> </div>","null","fixation","html-keyboard-response","83","395431","0.0-6.0-0.11","2950433","co38974","norming","","","","","","",""
"null","../img/tt/1191tt.jpg","null","mooney1","image-keyboard-response","84","398441","0.0-6.0-1.11","2950433","co38974","norming","","","","","","",""
"7648.125000006985","","","post_mooney1_questions","survey-likert","85","406090","0.0-6.0-2.11","2950433","co38974","norming","","","{""curiosity"":5,""confidence"":1}","[0,1]","../img/tt/1191tt.jpg","",""
"2574.0349999978207","","","recognition","survey-text","86","408666","0.0-6.0-3.11","2950433","co38974","norming","","","{""guess"":""tennis""}","","../img/tt/1191tt.jpg","",""
"null","../img/gs/1191gs.jpg","null","reveal","image-keyboard-response","87","410676","0.0-6.0-4.11","2950433","co38974","norming","","","","","","",""
"null","../img/tt/1191tt.jpg","null","mooney2","image-keyboard-response","88","412679","0.0-6.0-5.11","2950433","co38974","norming","","","","","","",""
"9968.989999993937","","","post_reveal_questions","survey-likert","89","422650","0.0-6.0-6.11","2950433","co38974","norming","","","{""aha"":2}","[0]","../img/tt/1191tt.jpg","",""
"null","<div style=""font-size:60px;""> </div>","null","fixation","html-keyboard-response","90","422860","0.0-6.0-0.12","2950433","co38974","norming","","","","","","",""
"null","../img/tt/1241tt.jpg","null","mooney1","image-keyboard-response","91","425862","0.0-6.0-1.12","2950433","co38974","norming","","","","","","",""
"8426.814999998896","","","post_mooney1_questions","survey-likert","92","434290","0.0-6.0-2.12","2950433","co38974","norming","","","{""curiosity"":5,""confidence"":1}","[0,1]","../img/tt/1241tt.jpg","",""
"5030.109999992419","","","recognition","survey-text","93","439322","0.0-6.0-3.12","2950433","co38974","norming","","","{""guess"":""cow""}","","../img/tt/1241tt.jpg","",""
"null","../img/gs/1241gs.jpg","null","reveal","image-keyboard-response","94","441323","0.0-6.0-4.12","2950433","co38974","norming","","","","","","",""
"null","../img/tt/1241tt.jpg","null","mooney2","image-keyboard-response","95","443330","0.0-6.0-5.12","2950433","co38974","norming","","","","","","",""
"2827.9550000006566","","","post_reveal_questions","survey-likert","96","446160","0.0-6.0-6.12","2950433","co38974","norming","","","{""aha"":2}","[0]","../img/tt/1241tt.jpg","",""
"null","<div style=""font-size:60px;""> </div>","null","fixation","html-keyboard-response","97","446365","0.0-6.0-0.13","2950433","co38974","norming","","","","","","",""
"null","../img/tt/1224tt.jpg","null","mooney1","image-keyboard-response","98","449371","0.0-6.0-1.13","2950433","co38974","norming","","","","","","",""
"8267.230000012205","","","post_mooney1_questions","survey-likert","99","457640","0.0-6.0-2.13","2950433","co38974","norming","","","{""curiosity"":2,""confidence"":0}","[0,1]","../img/tt/1224tt.jpg","",""
"5118.189999993774","","","recognition","survey-text","100","462760","0.0-6.0-3.13","2950433","co38974","norming","","","{""guess"":""botsauto's""}","","../img/tt/1224tt.jpg","",""
"null","../img/gs/1224gs.jpg","null","reveal","image-keyboard-response","101","464766","0.0-6.0-4.13","2950433","co38974","norming","","","","","","",""
"null","../img/tt/1224tt.jpg","null","mooney2","image-keyboard-response","102","466774","0.0-6.0-5.13","2950433","co38974","norming","","","","","","",""
"2999.9299999908544","","","post_reveal_questions","survey-likert","103","469776","0.0-6.0-6.13","2950433","co38974","norming","","","{""aha"":5}","[0]","../img/tt/1224tt.jpg","",""
"null","<div style=""font-size:60px;""> </div>","null","fixation","html-keyboard-response","104","469986","0.0-6.0-0.14","2950433","co38974","norming","","","","","","",""
"null","../img/tt/1024tt.jpg","null","mooney1","image-keyboard-response","105","472992","0.0-6.0-1.14","2950433","co38974","norming","","","","","","",""
"5565.999999991618","","","post_mooney1_questions","survey-likert","106","478560","0.0-6.0-2.14","2950433","co38974","norming","","","{""curiosity"":4,""confidence"":6}","[0,1]","../img/tt/1024tt.jpg","",""
"4806.205000000773","","","recognition","survey-text","107","483367","0.0-6.0-3.14","2950433","co38974","norming","","","{""guess"":""tennis""}","","../img/tt/1024tt.jpg","",""
"null","../img/gs/1024gs.jpg","null","reveal","image-keyboard-response","108","485374","0.0-6.0-4.14","2950433","co38974","norming","","","","","","",""
"null","../img/tt/1024tt.jpg","null","mooney2","image-keyboard-response","109","487385","0.0-6.0-5.14","2950433","co38974","norming","","","","","","",""
"2612.8349999926286","","","post_reveal_questions","survey-likert","110","489999","0.0-6.0-6.14","2950433","co38974","norming","","","{""aha"":1}","[0]","../img/tt/1024tt.jpg","",""
"null","<div style=""font-size:60px;""> </div>","null","fixation","html-keyboard-response","111","490203","0.0-6.0-0.15","2950433","co38974","norming","","","","","","",""
"null","../img/tt/522tt.jpg","null","mooney1","image-keyboard-response","112","493212","0.0-6.0-1.15","2950433","co38974","norming","","","","","","",""
"6506.84000000183","","","post_mooney1_questions","survey-likert","113","499720","0.0-6.0-2.15","2950433","co38974","norming","","","{""curiosity"":6,""confidence"":0}","[0,1]","../img/tt/522tt.jpg","",""
"1046.0100000054808","","","recognition","survey-text","114","500767","0.0-6.0-3.15","2950433","co38974","norming","","","{""guess"":""""}","","../img/tt/522tt.jpg","",""
"null","../img/gs/522gs.jpg","null","reveal","image-keyboard-response","115","502773","0.0-6.0-4.15","2950433","co38974","norming","","","","","","",""
"null","../img/tt/522tt.jpg","null","mooney2","image-keyboard-response","116","504776","0.0-6.0-5.15","2950433","co38974","norming","","","","","","",""
"2690.650000004098","","","post_reveal_questions","survey-likert","117","507468","0.0-6.0-6.15","2950433","co38974","norming","","","{""aha"":6}","[0]","../img/tt/522tt.jpg","",""
"null","<div style=""font-size:60px;""> </div>","null","fixation","html-keyboard-response","118","507669","0.0-6.0-0.16","2950433","co38974","norming","","","","","","",""
"null","../img/tt/1200tt.jpg","null","mooney1","image-keyboard-response","119","510670","0.0-6.0-1.16","2950433","co38974","norming","","","","","","",""
"5084.474999996019","","","post_mooney1_questions","survey-likert","120","515756","0.0-6.0-2.16","2950433","co38974","norming","","","{""curiosity"":5,""confidence"":3}","[0,1]","../img/tt/1200tt.jpg","",""
"3582.2099999932107","","","recognition","survey-text","121","519340","0.0-6.0-3.16","2950433","co38974","norming","","","{""guess"":""kajak""}","","../img/tt/1200tt.jpg","",""
"null","../img/gs/1200gs.jpg","null","reveal","image-keyboard-response","122","521346","0.0-6.0-4.16","2950433","co38974","norming","","","","","","",""
"null","../img/tt/1200tt.jpg","null","mooney2","image-keyboard-response","123","523356","0.0-6.0-5.16","2950433","co38974","norming","","","","","","",""
"4069.810000000871","","","post_reveal_questions","survey-likert","124","527428","0.0-6.0-6.16","2950433","co38974","norming","","","{""aha"":3}","[0]","../img/tt/1200tt.jpg","",""
"null","<div style=""font-size:60px;""> </div>","null","fixation","html-keyboard-response","125","527629","0.0-6.0-0.17","2950433","co38974","norming","","","","","","",""
"null","../img/tt/273tt.jpg","null","mooney1","image-keyboard-response","126","530637","0.0-6.0-1.17","2950433","co38974","norming","","","","","","",""
"9436.359999992419","","","post_mooney1_questions","survey-likert","127","540076","0.0-6.0-2.17","2950433","co38974","norming","","","{""curiosity"":5,""confidence"":5}","[0,1]","../img/tt/273tt.jpg","",""
"4014.134999990347","","","recognition","survey-text","128","544092","0.0-6.0-3.17","2950433","co38974","norming","","","{""guess"":""braces""}","","../img/tt/273tt.jpg","",""
"null","../img/gs/273gs.jpg","null","reveal","image-keyboard-response","129","546096","0.0-6.0-4.17","2950433","co38974","norming","","","","","","",""
"null","../img/tt/273tt.jpg","null","mooney2","image-keyboard-response","130","548103","0.0-6.0-5.17","2950433","co38974","norming","","","","","","",""
"2172.225000002072","","","post_reveal_questions","survey-likert","131","550276","0.0-6.0-6.17","2950433","co38974","norming","","","{""aha"":4}","[0]","../img/tt/273tt.jpg","",""
"null","<div style=""font-size:60px;""> </div>","null","fixation","html-keyboard-response","132","550481","0.0-6.0-0.18","2950433","co38974","norming","","","","","","",""
"null","../img/tt/064tt.jpg","null","mooney1","image-keyboard-response","133","553489","0.0-6.0-1.18","2950433","co38974","norming","","","","","","",""
"6360.790000006091","","","post_mooney1_questions","survey-likert","134","559852","0.0-6.0-2.18","2950433","co38974","norming","","","{""curiosity"":4,""confidence"":2}","[0,1]","../img/tt/064tt.jpg","",""
"3990.1200000022072","","","recognition","survey-text","135","563843","0.0-6.0-3.18","2950433","co38974","norming","","","{""guess"":""vogel""}","","../img/tt/064tt.jpg","",""
"null","../img/gs/064gs.jpg","null","reveal","image-keyboard-response","136","565853","0.0-6.0-4.18","2950433","co38974","norming","","","","","","",""
"null","../img/tt/064tt.jpg","null","mooney2","image-keyboard-response","137","567856","0.0-6.0-5.18","2950433","co38974","norming","","","","","","",""
"3185.9949999925448","","","post_reveal_questions","survey-likert","138","571043","0.0-6.0-6.18","2950433","co38974","norming","","","{""aha"":5}","[0]","../img/tt/064tt.jpg","",""
"null","<div style=""font-size:60px;""> </div>","null","fixation","html-keyboard-response","139","571245","0.0-6.0-0.19","2950433","co38974","norming","","","","","","",""
"null","../img/tt/580tt.jpg","null","mooney1","image-keyboard-response","140","574256","0.0-6.0-1.19","2950433","co38974","norming","","","","","","",""
"8105.889999991632","","","post_mooney1_questions","survey-likert","141","582364","0.0-6.0-2.19","2950433","co38974","norming","","","{""curiosity"":6,""confidence"":1}","[0,1]","../img/tt/580tt.jpg","",""
"3830.0100000051316","","","recognition","survey-text","142","586195","0.0-6.0-3.19","2950433","co38974","norming","","","{""guess"":""kikkers""}","","../img/tt/580tt.jpg","",""
"null","../img/gs/580gs.jpg","null","reveal","image-keyboard-response","143","588197","0.0-6.0-4.19","2950433","co38974","norming","","","","","","",""
"null","../img/tt/580tt.jpg","null","mooney2","image-keyboard-response","144","590207","0.0-6.0-5.19","2950433","co38974","norming","","","","","","",""
"2514.804999998887","","","post_reveal_questions","survey-likert","145","592724","0.0-6.0-6.19","2950433","co38974","norming","","","{""aha"":6}","[0]","../img/tt/580tt.jpg","",""
"null","<div style=""font-size:60px;""> </div>","null","fixation","html-keyboard-response","146","592934","0.0-6.0-0.20","2950433","co38974","norming","","","","","","",""
"null","../img/tt/126tt.jpg","null","mooney1","image-keyboard-response","147","595942","0.0-6.0-1.20","2950433","co38974","norming","","","","","","",""
"3563.750000001164","","","post_mooney1_questions","survey-likert","148","599508","0.0-6.0-2.20","2950433","co38974","norming","","","{""curiosity"":6,""confidence"":0}","[0,1]","../img/tt/126tt.jpg","",""
"693.9100000017788","","","recognition","survey-text","149","600203","0.0-6.0-3.20","2950433","co38974","norming","","","{""guess"":""""}","","../img/tt/126tt.jpg","",""
"null","../img/gs/126gs.jpg","null","reveal","image-keyboard-response","150","602211","0.0-6.0-4.20","2950433","co38974","norming","","","","","","",""
"null","../img/tt/126tt.jpg","null","mooney2","image-keyboard-response","151","604213","0.0-6.0-5.20","2950433","co38974","norming","","","","","","",""
"2829.0500000002794","","","post_reveal_questions","survey-likert","152","607043","0.0-6.0-6.20","2950433","co38974","norming","","","{""aha"":6}","[0]","../img/tt/126tt.jpg","",""
"null","<div style=""font-size:60px;""> </div>","null","fixation","html-keyboard-response","153","607254","0.0-6.0-0.21","2950433","co38974","norming","","","","","","",""
"null","../img/tt/222tt.jpg","null","mooney1","image-keyboard-response","154","610261","0.0-6.0-1.21","2950433","co38974","norming","","","","","","",""
"4932.874999998603","","","post_mooney1_questions","survey-likert","155","615196","0.0-6.0-2.21","2950433","co38974","norming","","","{""curiosity"":6,""confidence"":0}","[0,1]","../img/tt/222tt.jpg","",""
"3774.1099999984726","","","recognition","survey-text","156","618971","0.0-6.0-3.21","2950433","co38974","norming","","","{""guess"":""bureau""}","","../img/tt/222tt.jpg","",""
"null","../img/gs/222gs.jpg","null","reveal","image-keyboard-response","157","620976","0.0-6.0-4.21","2950433","co38974","norming","","","","","","",""
"null","../img/tt/222tt.jpg","null","mooney2","image-keyboard-response","158","622981","0.0-6.0-5.21","2950433","co38974","norming","","","","","","",""
"2756.714999995893","","","post_reveal_questions","survey-likert","159","625740","0.0-6.0-6.21","2950433","co38974","norming","","","{""aha"":4}","[0]","../img/tt/222tt.jpg","",""
"null","<div style=""font-size:60px;""> </div>","null","fixation","html-keyboard-response","160","625946","0.0-6.0-0.22","2950433","co38974","norming","","","","","","",""
"null","../img/tt/549tt.jpg","null","mooney1","image-keyboard-response","161","628948","0.0-6.0-1.22","2950433","co38974","norming","","","","","","",""
"4950.400000001537","","","post_mooney1_questions","survey-likert","162","633900","0.0-6.0-2.22","2950433","co38974","norming","","","{""curiosity"":6,""confidence"":0}","[0,1]","../img/tt/549tt.jpg","",""
"838.3999999932712","","","recognition","survey-text","163","634740","0.0-6.0-3.22","2950433","co38974","norming","","","{""guess"":""""}","","../img/tt/549tt.jpg","",""
"null","../img/gs/549gs.jpg","null","reveal","image-keyboard-response","164","636749","0.0-6.0-4.22","2950433","co38974","norming","","","","","","",""
"null","../img/tt/549tt.jpg","null","mooney2","image-keyboard-response","165","638757","0.0-6.0-5.22","2950433","co38974","norming","","","","","","",""
"3253.404999995837","","","post_reveal_questions","survey-likert","166","642012","0.0-6.0-6.22","2950433","co38974","norming","","","{""aha"":1}","[0]","../img/tt/549tt.jpg","",""
"null","<div style=""font-size:60px;""> </div>","null","fixation","html-keyboard-response","167","642219","0.0-6.0-0.23","2950433","co38974","norming","","","","","","",""
"null","../img/tt/1146tt.jpg","null","mooney1","image-keyboard-response","168","645229","0.0-6.0-1.23","2950433","co38974","norming","","","","","","",""
"5212.740000002668","","","post_mooney1_questions","survey-likert","169","650444","0.0-6.0-2.23","2950433","co38974","norming","","","{""curiosity"":5,""confidence"":2}","[0,1]","../img/tt/1146tt.jpg","",""
"9326.175000009243","","","recognition","survey-text","170","659772","0.0-6.0-3.23","2950433","co38974","norming","","","{""guess"":""in a car""}","","../img/tt/1146tt.jpg","",""
"null","../img/gs/1146gs.jpg","null","reveal","image-keyboard-response","171","661781","0.0-6.0-4.23","2950433","co38974","norming","","","","","","",""
"null","../img/tt/1146tt.jpg","null","mooney2","image-keyboard-response","172","663784","0.0-6.0-5.23","2950433","co38974","norming","","","","","","",""
"2354.040000005625","","","post_reveal_questions","survey-likert","173","666140","0.0-6.0-6.23","2950433","co38974","norming","","","{""aha"":4}","[0]","../img/tt/1146tt.jpg","",""
"null","<div style=""font-size:60px;""> </div>","null","fixation","html-keyboard-response","174","666348","0.0-6.0-0.24","2950433","co38974","norming","","","","","","",""
"null","../img/tt/1175tt.jpg","null","mooney1","image-keyboard-response","175","669351","0.0-6.0-1.24","2950433","co38974","norming","","","","","","",""
"5162.570000000414","","","post_mooney1_questions","survey-likert","176","674516","0.0-6.0-2.24","2950433","co38974","norming","","","{""curiosity"":6,""confidence"":0}","[0,1]","../img/tt/1175tt.jpg","",""
"702.0950000005541","","","recognition","survey-text","177","675220","0.0-6.0-3.24","2950433","co38974","norming","","","{""guess"":""""}","","../img/tt/1175tt.jpg","",""
"null","../img/gs/1175gs.jpg","null","reveal","image-keyboard-response","178","677221","0.0-6.0-4.24","2950433","co38974","norming","","","","","","",""
"null","../img/tt/1175tt.jpg","null","mooney2","image-keyboard-response","179","679229","0.0-6.0-5.24","2950433","co38974","norming","","","","","","",""
"3829.3549999943934","","","post_reveal_questions","survey-likert","180","683060","0.0-6.0-6.24","2950433","co38974","norming","","","{""aha"":4}","[0]","../img/tt/1175tt.jpg","",""
"null","<div style=""font-size:60px;""> </div>","null","fixation","html-keyboard-response","181","683268","0.0-6.0-0.25","2950433","co38974","norming","","","","","","",""
"null","../img/tt/1046tt.jpg","null","mooney1","image-keyboard-response","182","686274","0.0-6.0-1.25","2950433","co38974","norming","","","","","","",""
"4496.890000009444","","","post_mooney1_questions","survey-likert","183","690773","0.0-6.0-2.25","2950433","co38974","norming","","","{""curiosity"":6,""confidence"":0}","[0,1]","../img/tt/1046tt.jpg","",""
"686.1249999928987","","","recognition","survey-text","184","691460","0.0-6.0-3.25","2950433","co38974","norming","","","{""guess"":""""}","","../img/tt/1046tt.jpg","",""
"null","../img/gs/1046gs.jpg","null","reveal","image-keyboard-response","185","693466","0.0-6.0-4.25","2950433","co38974","norming","","","","","","",""
"null","../img/tt/1046tt.jpg","null","mooney2","image-keyboard-response","186","695469","0.0-6.0-5.25","2950433","co38974","norming","","","","","","",""
"3534.0199999918696","","","post_reveal_questions","survey-likert","187","699004","0.0-6.0-6.25","2950433","co38974","norming","","","{""aha"":1}","[0]","../img/tt/1046tt.jpg","",""
"null","<div style=""font-size:60px;""> </div>","null","fixation","html-keyboard-response","188","699209","0.0-6.0-0.26","2950433","co38974","norming","","","","","","",""
"null","../img/tt/085tt.jpg","null","mooney1","image-keyboard-response","189","702215","0.0-6.0-1.26","2950433","co38974","norming","","","","","","",""
"4707.6299999898765","","","post_mooney1_questions","survey-likert","190","706925","0.0-6.0-2.26","2950433","co38974","norming","","","{""curiosity"":6,""confidence"":1}","[0,1]","../img/tt/085tt.jpg","",""
"6014.025000011316","","","recognition","survey-text","191","712940","0.0-6.0-3.26","2950433","co38974","norming","","","{""guess"":""sprinkhaan""}","","../img/tt/085tt.jpg","",""
"null","../img/gs/085gs.jpg","null","reveal","image-keyboard-response","192","714947","0.0-6.0-4.26","2950433","co38974","norming","","","","","","",""
"null","../img/tt/085tt.jpg","null","mooney2","image-keyboard-response","193","716955","0.0-6.0-5.26","2950433","co38974","norming","","","","","","",""
"3903.9300000004005","","","post_reveal_questions","survey-likert","194","720860","0.0-6.0-6.26","2950433","co38974","norming","","","{""aha"":4}","[0]","../img/tt/085tt.jpg","",""
"null","<div style=""font-size:60px;""> </div>","null","fixation","html-keyboard-response","195","721066","0.0-6.0-0.27","2950433","co38974","norming","","","","","","",""
"null","../img/tt/111tt.jpg","null","mooney1","image-keyboard-response","196","724071","0.0-6.0-1.27","2950433","co38974","norming","","","","","","",""
"5475.6150000030175","","","post_mooney1_questions","survey-likert","197","729549","0.0-6.0-2.27","2950433","co38974","norming","","","{""curiosity"":4,""confidence"":6}","[0,1]","../img/tt/111tt.jpg","",""
"5427.639999994426","","","recognition","survey-text","198","734980","0.0-6.0-3.27","2950433","co38974","norming","","","{""guess"":""douchekop""}","","../img/tt/111tt.jpg","",""
"null","../img/gs/111gs.jpg","null","reveal","image-keyboard-response","199","736990","0.0-6.0-4.27","2950433","co38974","norming","","","","","","",""
"null","../img/tt/111tt.jpg","null","mooney2","image-keyboard-response","200","739000","0.0-6.0-5.27","2950433","co38974","norming","","","","","","",""
"3218.1799999962095","","","post_reveal_questions","survey-likert","201","742220","0.0-6.0-6.27","2950433","co38974","norming","","","{""aha"":2}","[0]","../img/tt/111tt.jpg","",""
"null","<div style=""font-size:60px;""> </div>","null","fixation","html-keyboard-response","202","742428","0.0-6.0-0.28","2950433","co38974","norming","","","","","","",""
"null","../img/tt/306tt.jpg","null","mooney1","image-keyboard-response","203","745440","0.0-6.0-1.28","2950433","co38974","norming","","","","","","",""
"6250.465000004624","","","post_mooney1_questions","survey-likert","204","751686","0.0-6.0-2.28","2950433","co38974","norming","","","{""curiosity"":6,""confidence"":0}","[0,1]","../img/tt/306tt.jpg","",""
"3422.3449999990407","","","recognition","survey-text","205","755110","0.0-6.0-3.28","2950433","co38974","norming","","","{""guess"":""schoen""}","","../img/tt/306tt.jpg","",""
"null","../img/gs/306gs.jpg","null","reveal","image-keyboard-response","206","757111","0.0-6.0-4.28","2950433","co38974","norming","","","","","","",""
"null","../img/tt/306tt.jpg","null","mooney2","image-keyboard-response","207","759117","0.0-6.0-5.28","2950433","co38974","norming","","","","","","",""
"1671.4399999909801","","","post_reveal_questions","survey-likert","208","760790","0.0-6.0-6.28","2950433","co38974","norming","","","{""aha"":4}","[0]","../img/tt/306tt.jpg","",""
"null","<div style=""font-size:60px;""> </div>","null","fixation","html-keyboard-response","209","760993","0.0-6.0-0.29","2950433","co38974","norming","","","","","","",""
"null","../img/tt/081tt.jpg","null","mooney1","image-keyboard-response","210","764002","0.0-6.0-1.29","2950433","co38974","norming","","","","","","",""
"4665.98000000522","","","post_mooney1_questions","survey-likert","211","768670","0.0-6.0-2.29","2950433","co38974","norming","","","{""curiosity"":6,""confidence"":1}","[0,1]","../img/tt/081tt.jpg","",""
"1638.3700000005774","","","recognition","survey-text","212","770310","0.0-6.0-3.29","2950433","co38974","norming","","","{""guess"":""kikker""}","","../img/tt/081tt.jpg","",""
"null","../img/gs/081gs.jpg","null","reveal","image-keyboard-response","213","772313","0.0-6.0-4.29","2950433","co38974","norming","","","","","","",""
"null","../img/tt/081tt.jpg","null","mooney2","image-keyboard-response","214","774317","0.0-6.0-5.29","2950433","co38974","norming","","","","","","",""
"2919.3100000120467","","","post_reveal_questions","survey-likert","215","777238","0.0-6.0-6.29","2950433","co38974","norming","","","{""aha"":4}","[0]","../img/tt/081tt.jpg","",""
"null","<div style=""font-size:60px;""> </div>","null","fixation","html-keyboard-response","216","777446","0.0-6.0-0.30","2950433","co38974","norming","","","","","","",""
"null","../img/tt/1242tt.jpg","null","mooney1","image-keyboard-response","217","780455","0.0-6.0-1.30","2950433","co38974","norming","","","","","","",""
"7988.890000007814","","","post_mooney1_questions","survey-likert","218","788446","0.0-6.0-2.30","2950433","co38974","norming","","","{""curiosity"":6,""confidence"":1}","[0,1]","../img/tt/1242tt.jpg","",""
"4885.970000002999","","","recognition","survey-text","219","793334","0.0-6.0-3.30","2950433","co38974","norming","","","{""guess"":""schorpioen""}","","../img/tt/1242tt.jpg","",""
"null","../img/gs/1242gs.jpg","null","reveal","image-keyboard-response","220","795335","0.0-6.0-4.30","2950433","co38974","norming","","","","","","",""
"null","../img/tt/1242tt.jpg","null","mooney2","image-keyboard-response","221","797336","0.0-6.0-5.30","2950433","co38974","norming","","","","","","",""
"5244.174999999814","","","post_reveal_questions","survey-likert","222","802582","0.0-6.0-6.30","2950433","co38974","norming","","","{""aha"":5}","[0]","../img/tt/1242tt.jpg","",""
"null","<div style=""font-size:60px;""> </div>","null","fixation","html-keyboard-response","223","802792","0.0-6.0-0.31","2950433","co38974","norming","","","","","","",""
"null","../img/tt/094tt.jpg","null","mooney1","image-keyboard-response","224","805799","0.0-6.0-1.31","2950433","co38974","norming","","","","","","",""
"6915.125000014086","","","post_mooney1_questions","survey-likert","225","812716","0.0-6.0-2.31","2950433","co38974","norming","","","{""curiosity"":6,""confidence"":1}","[0,1]","../img/tt/094tt.jpg","",""
"3654.1400000132853","","","recognition","survey-text","226","816372","0.0-6.0-3.31","2950433","co38974","norming","","","{""guess"":""dog""}","","../img/tt/094tt.jpg","",""
"null","../img/gs/094gs.jpg","null","reveal","image-keyboard-response","227","818376","0.0-6.0-4.31","2950433","co38974","norming","","","","","","",""
"null","../img/tt/094tt.jpg","null","mooney2","image-keyboard-response","228","820387","0.0-6.0-5.31","2950433","co38974","norming","","","","","","",""
"2615.315000002738","","","post_reveal_questions","survey-likert","229","823004","0.0-6.0-6.31","2950433","co38974","norming","","","{""aha"":3}","[0]","../img/tt/094tt.jpg","",""
"null","<div style=""font-size:60px;""> </div>","null","fixation","html-keyboard-response","230","823207","0.0-6.0-0.32","2950433","co38974","norming","","","","","","",""
"null","../img/tt/1270tt.jpg","null","mooney1","image-keyboard-response","231","826211","0.0-6.0-1.32","2950433","co38974","norming","","","","","","",""
"7096.160000000964","","","post_mooney1_questions","survey-likert","232","833308","0.0-6.0-2.32","2950433","co38974","norming","","","{""curiosity"":6,""confidence"":3}","[0,1]","../img/tt/1270tt.jpg","",""
"2534.480000002077","","","recognition","survey-text","233","835844","0.0-6.0-3.32","2950433","co38974","norming","","","{""guess"":""koala""}","","../img/tt/1270tt.jpg","",""
"null","../img/gs/1270gs.jpg","null","reveal","image-keyboard-response","234","837851","0.0-6.0-4.32","2950433","co38974","norming","","","","","","",""
"null","../img/tt/1270tt.jpg","null","mooney2","image-keyboard-response","235","839852","0.0-6.0-5.32","2950433","co38974","norming","","","","","","",""
"3414.9599999946076","","","post_reveal_questions","survey-likert","236","843268","0.0-6.0-6.32","2950433","co38974","norming","","","{""aha"":4}","[0]","../img/tt/1270tt.jpg","",""
"null","<div style=""font-size:60px;""> </div>","null","fixation","html-keyboard-response","237","843479","0.0-6.0-0.33","2950433","co38974","norming","","","","","","",""
"null","../img/tt/1353tt.jpg","null","mooney1","image-keyboard-response","238","846488","0.0-6.0-1.33","2950433","co38974","norming","","","","","","",""
"7010.7199999911245","","","post_mooney1_questions","survey-likert","239","853501","0.0-6.0-2.33","2950433","co38974","norming","","","{""curiosity"":6,""confidence"":0}","[0,1]","../img/tt/1353tt.jpg","",""
"2405.239999992773","","","recognition","survey-text","240","855908","0.0-6.0-3.33","2950433","co38974","norming","","","{""guess"":""slang""}","","../img/tt/1353tt.jpg","",""
"null","../img/gs/1353gs.jpg","null","reveal","image-keyboard-response","241","857910","0.0-6.0-4.33","2950433","co38974","norming","","","","","","",""
"null","../img/tt/1353tt.jpg","null","mooney2","image-keyboard-response","242","859913","0.0-6.0-5.33","2950433","co38974","norming","","","","","","",""
"2825.0699999916833","","","post_reveal_questions","survey-likert","243","862740","0.0-6.0-6.33","2950433","co38974","norming","","","{""aha"":5}","[0]","../img/tt/1353tt.jpg","",""
"null","<div style=""font-size:60px;""> </div>","null","fixation","html-keyboard-response","244","862944","0.0-6.0-0.34","2950433","co38974","norming","","","","","","",""
"null","../img/tt/598tt.jpg","null","mooney1","image-keyboard-response","245","865952","0.0-6.0-1.34","2950433","co38974","norming","","","","","","",""
"4738.169999996899","","","post_mooney1_questions","survey-likert","246","870694","0.0-6.0-2.34","2950433","co38974","norming","","","{""curiosity"":6,""confidence"":0}","[0,1]","../img/tt/598tt.jpg","",""
"2557.9350000043632","","","recognition","survey-text","247","873253","0.0-6.0-3.34","2950433","co38974","norming","","","{""guess"":""ajuin""}","","../img/tt/598tt.jpg","",""
"null","../img/gs/598gs.jpg","null","reveal","image-keyboard-response","248","875255","0.0-6.0-4.34","2950433","co38974","norming","","","","","","",""
"null","../img/tt/598tt.jpg","null","mooney2","image-keyboard-response","249","877258","0.0-6.0-5.34","2950433","co38974","norming","","","","","","",""
"2529.9249999952735","","","post_reveal_questions","survey-likert","250","879789","0.0-6.0-6.34","2950433","co38974","norming","","","{""aha"":4}","[0]","../img/tt/598tt.jpg","",""
"null","<div style=""font-size:60px;""> </div>","null","fixation","html-keyboard-response","251","879998","0.0-6.0-0.35","2950433","co38974","norming","","","","","","",""
"null","../img/tt/084tt.jpg","null","mooney1","image-keyboard-response","252","883006","0.0-6.0-1.35","2950433","co38974","norming","","","","","","",""
"8933.4899999958","","","post_mooney1_questions","survey-likert","253","891941","0.0-6.0-2.35","2950433","co38974","norming","","","{""curiosity"":6,""confidence"":5}","[0,1]","../img/tt/084tt.jpg","",""
"3646.2099999916973","","","recognition","survey-text","254","895589","0.0-6.0-3.35","2950433","co38974","norming","","","{""guess"":""pauw""}","","../img/tt/084tt.jpg","",""
"null","../img/gs/084gs.jpg","null","reveal","image-keyboard-response","255","897597","0.0-6.0-4.35","2950433","co38974","norming","","","","","","",""
"null","../img/tt/084tt.jpg","null","mooney2","image-keyboard-response","256","899606","0.0-6.0-5.35","2950433","co38974","norming","","","","","","",""
"3821.190000002389","","","post_reveal_questions","survey-likert","257","903429","0.0-6.0-6.35","2950433","co38974","norming","","","{""aha"":4}","[0]","../img/tt/084tt.jpg","",""
"null","<div style=""font-size:60px;""> </div>","null","fixation","html-keyboard-response","258","903638","0.0-6.0-0.36","2950433","co38974","norming","","","","","","",""
"null","../img/tt/1156tt.jpg","null","mooney1","image-keyboard-response","259","906640","0.0-6.0-1.36","2950433","co38974","norming","","","","","","",""
"8986.770000003162","","","post_mooney1_questions","survey-likert","260","915629","0.0-6.0-2.36","2950433","co38974","norming","","","{""curiosity"":4,""confidence"":6}","[0,1]","../img/tt/1156tt.jpg","",""
"9317.949999996927","","","recognition","survey-text","261","924949","0.0-6.0-3.36","2950433","co38974","norming","","","{""guess"":""woman on the beach""}","","../img/tt/1156tt.jpg","",""
"null","../img/gs/1156gs.jpg","null","reveal","image-keyboard-response","262","926951","0.0-6.0-4.36","2950433","co38974","norming","","","","","","",""
"null","../img/tt/1156tt.jpg","null","mooney2","image-keyboard-response","263","928952","0.0-6.0-5.36","2950433","co38974","norming","","","","","","",""
"4339.684999999008","","","post_reveal_questions","survey-likert","264","933298","0.0-6.0-6.36","2950433","co38974","norming","","","{""aha"":3}","[0]","../img/tt/1156tt.jpg","",""
"null","<div style=""font-size:60px;""> </div>","null","fixation","html-keyboard-response","265","933505","0.0-6.0-0.37","2950433","co38974","norming","","","","","","",""
"null","../img/tt/1272tt.jpg","null","mooney1","image-keyboard-response","266","936513","0.0-6.0-1.37","2950433","co38974","norming","","","","","","",""
"5280.845000001136","","","post_mooney1_questions","survey-likert","267","941795","0.0-6.0-2.37","2950433","co38974","norming","","","{""curiosity"":6,""confidence"":1}","[0,1]","../img/tt/1272tt.jpg","",""
"3046.040000001085","","","recognition","survey-text","268","944843","0.0-6.0-3.37","2950433","co38974","norming","","","{""guess"":""vlinder""}","","../img/tt/1272tt.jpg","",""
"null","../img/gs/1272gs.jpg","null","reveal","image-keyboard-response","269","946845","0.0-6.0-4.37","2950433","co38974","norming","","","","","","",""
"null","../img/tt/1272tt.jpg","null","mooney2","image-keyboard-response","270","948851","0.0-6.0-5.37","2950433","co38974","norming","","","","","","",""
"2076.6900000016904","","","post_reveal_questions","survey-likert","271","950930","0.0-6.0-6.37","2950433","co38974","norming","","","{""aha"":6}","[0]","../img/tt/1272tt.jpg","",""
"null","<div style=""font-size:60px;""> </div>","null","fixation","html-keyboard-response","272","951141","0.0-6.0-0.38","2950433","co38974","norming","","","","","","",""
"null","../img/tt/1069tt.jpg","null","mooney1","image-keyboard-response","273","954150","0.0-6.0-1.38","2950433","co38974","norming","","","","","","",""
"3547.500000000582","","","post_mooney1_questions","survey-likert","274","957699","0.0-6.0-2.38","2950433","co38974","norming","","","{""curiosity"":6,""confidence"":1}","[0,1]","../img/tt/1069tt.jpg","",""
"2581.9500000070548","","","recognition","survey-text","275","960283","0.0-6.0-3.38","2950433","co38974","norming","","","{""guess"":""geit""}","","../img/tt/1069tt.jpg","",""
"null","../img/gs/1069gs.jpg","null","reveal","image-keyboard-response","276","962284","0.0-6.0-4.38","2950433","co38974","norming","","","","","","",""
"null","../img/tt/1069tt.jpg","null","mooney2","image-keyboard-response","277","964287","0.0-6.0-5.38","2950433","co38974","norming","","","","","","",""
"4338.164999993751","","","post_reveal_questions","survey-likert","278","968627","0.0-6.0-6.38","2950433","co38974","norming","","","{""aha"":4}","[0]","../img/tt/1069tt.jpg","",""
"null","<div style=""font-size:60px;""> </div>","null","fixation","html-keyboard-response","279","968829","0.0-6.0-0.39","2950433","co38974","norming","","","","","","",""
"null","../img/tt/1196tt.jpg","null","mooney1","image-keyboard-response","280","971836","0.0-6.0-1.39","2950433","co38974","norming","","","","","","",""
"3731.419999996433","","","post_mooney1_questions","survey-likert","281","975570","0.0-6.0-2.39","2950433","co38974","norming","","","{""curiosity"":6,""confidence"":0}","[0,1]","../img/tt/1196tt.jpg","",""
"2534.174999993411","","","recognition","survey-text","282","978106","0.0-6.0-3.39","2950433","co38974","norming","","","{""guess"":""handstand""}","","../img/tt/1196tt.jpg","",""
"null","../img/gs/1196gs.jpg","null","reveal","image-keyboard-response","283","980108","0.0-6.0-4.39","2950433","co38974","norming","","","","","","",""
"null","../img/tt/1196tt.jpg","null","mooney2","image-keyboard-response","284","982117","0.0-6.0-5.39","2950433","co38974","norming","","","","","","",""
"2347.605000002659","","","post_reveal_questions","survey-likert","285","984466","0.0-6.0-6.39","2950433","co38974","norming","","","{""aha"":4}","[0]","../img/tt/1196tt.jpg","",""
"null","<div style=""font-size:60px;""> </div>","null","fixation","html-keyboard-response","286","984673","0.0-6.0-0.40","2950433","co38974","norming","","","","","","",""
"null","../img/tt/559tt.jpg","null","mooney1","image-keyboard-response","287","987677","0.0-6.0-1.40","2950433","co38974","norming","","","","","","",""
"4659.8550000053365","","","post_mooney1_questions","survey-likert","288","992334","0.0-6.0-2.40","2950433","co38974","norming","","","{""curiosity"":6,""confidence"":1}","[0,1]","../img/tt/559tt.jpg","",""
"5902.044999995269","","","recognition","survey-text","289","998237","0.0-6.0-3.40","2950433","co38974","norming","","","{""guess"":""naaimachine""}","","../img/tt/559tt.jpg","",""
"null","../img/gs/559gs.jpg","null","reveal","image-keyboard-response","290","1000242","0.0-6.0-4.40","2950433","co38974","norming","","","","","","",""
"null","../img/tt/559tt.jpg","null","mooney2","image-keyboard-response","291","1002253","0.0-6.0-5.40","2950433","co38974","norming","","","","","","",""
"2014.5950000005541","","","post_reveal_questions","survey-likert","292","1004269","0.0-6.0-6.40","2950433","co38974","norming","","","{""aha"":2}","[0]","../img/tt/559tt.jpg","",""
"null","<div style=""font-size:60px;""> </div>","null","fixation","html-keyboard-response","293","1004480","0.0-6.0-0.41","2950433","co38974","norming","","","","","","",""
"null","../img/tt/1040tt.jpg","null","mooney1","image-keyboard-response","294","1007489","0.0-6.0-1.41","2950433","co38974","norming","","","","","","",""
"3762.769999986631","","","post_mooney1_questions","survey-likert","295","1011254","0.0-6.0-2.41","2950433","co38974","norming","","","{""curiosity"":6,""confidence"":4}","[0,1]","../img/tt/1040tt.jpg","",""
"4733.894999997574","","","recognition","survey-text","296","1015989","0.0-6.0-3.41","2950433","co38974","norming","","","{""guess"":""krokodil""}","","../img/tt/1040tt.jpg","",""
"null","../img/gs/1040gs.jpg","null","reveal","image-keyboard-response","297","1017995","0.0-6.0-4.41","2950433","co38974","norming","","","","","","",""
"null","../img/tt/1040tt.jpg","null","mooney2","image-keyboard-response","298","1020006","0.0-6.0-5.41","2950433","co38974","norming","","","","","","",""
"5229.899999991176","","","post_reveal_questions","survey-likert","299","1025237","0.0-6.0-6.41","2950433","co38974","norming","","","{""aha"":4}","[0]","../img/tt/1040tt.jpg","",""
"null","<div style=""font-size:60px;""> </div>","null","fixation","html-keyboard-response","300","1025444","0.0-6.0-0.42","2950433","co38974","norming","","","","","","",""
"null","../img/tt/044tt.jpg","null","mooney1","image-keyboard-response","301","1028453","0.0-6.0-1.42","2950433","co38974","norming","","","","","","",""
"7822.004999994533","","","post_mooney1_questions","survey-likert","302","1036278","0.0-6.0-2.42","2950433","co38974","norming","","","{""curiosity"":6,""confidence"":1}","[0,1]","../img/tt/044tt.jpg","",""
"3646.0300000035204","","","recognition","survey-text","303","1039925","0.0-6.0-3.42","2950433","co38974","norming","","","{""guess"":""piano""}","","../img/tt/044tt.jpg","",""
"null","../img/gs/044gs.jpg","null","reveal","image-keyboard-response","304","1041927","0.0-6.0-4.42","2950433","co38974","norming","","","","","","",""
"null","../img/tt/044tt.jpg","null","mooney2","image-keyboard-response","305","1043931","0.0-6.0-5.42","2950433","co38974","norming","","","","","","",""
"2254.450000007637","","","post_reveal_questions","survey-likert","306","1046190","0.0-6.0-6.42","2950433","co38974","norming","","","{""aha"":5}","[0]","../img/tt/044tt.jpg","",""
"null","<div style=""font-size:60px;""> </div>","null","fixation","html-keyboard-response","307","1046397","0.0-6.0-0.43","2950433","co38974","norming","","","","","","",""
"null","../img/tt/135tt.jpg","null","mooney1","image-keyboard-response","308","1049406","0.0-6.0-1.43","2950433","co38974","norming","","","","","","",""
"6381.250000005588","","","post_mooney1_questions","survey-likert","309","1055798","0.0-6.0-2.43","2950433","co38974","norming","","","{""curiosity"":6,""confidence"":6}","[0,1]","../img/tt/135tt.jpg","",""
"2790.0999999982305","","","recognition","survey-text","310","1058590","0.0-6.0-3.43","2950433","co38974","norming","","","{""guess"":""toilet""}","","../img/tt/135tt.jpg","",""
"null","../img/gs/135gs.jpg","null","reveal","image-keyboard-response","311","1060591","0.0-6.0-4.43","2950433","co38974","norming","","","","","","",""
"null","../img/tt/135tt.jpg","null","mooney2","image-keyboard-response","312","1062593","0.0-6.0-5.43","2950433","co38974","norming","","","","","","",""
"3681.8150000034366","","","post_reveal_questions","survey-likert","313","1066278","0.0-6.0-6.43","2950433","co38974","norming","","","{""aha"":2}","[0]","../img/tt/135tt.jpg","",""
"null","<div style=""font-size:60px;""> </div>","null","fixation","html-keyboard-response","314","1066484","0.0-6.0-0.44","2950433","co38974","norming","","","","","","",""
"null","../img/tt/1096tt.jpg","null","mooney1","image-keyboard-response","315","1069492","0.0-6.0-1.44","2950433","co38974","norming","","","","","","",""
"5999.365000010468","","","post_mooney1_questions","survey-likert","316","1075494","0.0-6.0-2.44","2950433","co38974","norming","","","{""curiosity"":6,""confidence"":1}","[0,1]","../img/tt/1096tt.jpg","",""
"6101.844999997411","","","recognition","survey-text","317","1081597","0.0-6.0-3.44","2950433","co38974","norming","","","{""guess"":""trappen""}","","../img/tt/1096tt.jpg","",""
"null","../img/gs/1096gs.jpg","null","reveal","image-keyboard-response","318","1083604","0.0-6.0-4.44","2950433","co38974","norming","","","","","","",""
"null","../img/tt/1096tt.jpg","null","mooney2","image-keyboard-response","319","1085605","0.0-6.0-5.44","2950433","co38974","norming","","","","","","",""
"3766.599999987986","","","post_reveal_questions","survey-likert","320","1089374","0.0-6.0-6.44","2950433","co38974","norming","","","{""aha"":4}","[0]","../img/tt/1096tt.jpg","",""
"null","<div style=""font-size:60px;""> </div>","null","fixation","html-keyboard-response","321","1089580","0.0-6.0-0.45","2950433","co38974","norming","","","","","","",""
"null","../img/tt/418tt.jpg","null","mooney1","image-keyboard-response","322","1092592","0.0-6.0-1.45","2950433","co38974","norming","","","","","","",""
"6508.069999996107","","","post_mooney1_questions","survey-likert","323","1099102","0.0-6.0-2.45","2950433","co38974","norming","","","{""curiosity"":5,""confidence"":4}","[0,1]","../img/tt/418tt.jpg","",""
"4870.020000002114","","","recognition","survey-text","324","1103974","0.0-6.0-3.45","2950433","co38974","norming","","","{""guess"":""tomaten""}","","../img/tt/418tt.jpg","",""
"null","../img/gs/418gs.jpg","null","reveal","image-keyboard-response","325","1105976","0.0-6.0-4.45","2950433","co38974","norming","","","","","","",""
"null","../img/tt/418tt.jpg","null","mooney2","image-keyboard-response","326","1107980","0.0-6.0-5.45","2950433","co38974","norming","","","","","","",""
"4064.1000000033528","","","post_reveal_questions","survey-likert","327","1112046","0.0-6.0-6.45","2950433","co38974","norming","","","{""aha"":4}","[0]","../img/tt/418tt.jpg","",""
"null","<div style=""font-size:60px;""> </div>","null","fixation","html-keyboard-response","328","1112251","0.0-6.0-0.46","2950433","co38974","norming","","","","","","",""
"null","../img/tt/108tt.jpg","null","mooney1","image-keyboard-response","329","1115263","0.0-6.0-1.46","2950433","co38974","norming","","","","","","",""
"7028.510000003967","","","post_mooney1_questions","survey-likert","330","1122294","0.0-6.0-2.46","2950433","co38974","norming","","","{""curiosity"":6,""confidence"":0}","[0,1]","../img/tt/108tt.jpg","",""
"4966.310000003548","","","recognition","survey-text","331","1127262","0.0-6.0-3.46","2950433","co38974","norming","","","{""guess"":""vossen""}","","../img/tt/108tt.jpg","",""
"null","../img/gs/108gs.jpg","null","reveal","image-keyboard-response","332","1129271","0.0-6.0-4.46","2950433","co38974","norming","","","","","","",""
"null","../img/tt/108tt.jpg","null","mooney2","image-keyboard-response","333","1131278","0.0-6.0-5.46","2950433","co38974","norming","","","","","","",""
"10357.840000011493","","","post_reveal_questions","survey-likert","334","1141638","0.0-6.0-6.46","2950433","co38974","norming","","","{""aha"":4}","[0]","../img/tt/108tt.jpg","",""
"null","<div style=""font-size:60px;""> </div>","null","fixation","html-keyboard-response","335","1141839","0.0-6.0-0.47","2950433","co38974","norming","","","","","","",""
"null","../img/tt/517tt.jpg","null","mooney1","image-keyboard-response","336","1144850","0.0-6.0-1.47","2950433","co38974","norming","","","","","","",""
"14121.610000001965","","","post_mooney1_questions","survey-likert","337","1158974","0.0-6.0-2.47","2950433","co38974","norming","","","{""curiosity"":6,""confidence"":0}","[0,1]","../img/tt/517tt.jpg","",""
"2109.6450000042096","","","recognition","survey-text","338","1161086","0.0-6.0-3.47","2950433","co38974","norming","","","{""guess"":""panda""}","","../img/tt/517tt.jpg","",""
"null","../img/gs/517gs.jpg","null","reveal","image-keyboard-response","339","1163095","0.0-6.0-4.47","2950433","co38974","norming","","","","","","",""
"null","../img/tt/517tt.jpg","null","mooney2","image-keyboard-response","340","1165099","0.0-6.0-5.47","2950433","co38974","norming","","","","","","",""
"2736.6949999998324","","","post_reveal_questions","survey-likert","341","1167838","0.0-6.0-6.47","2950433","co38974","norming","","","{""aha"":4}","[0]","../img/tt/517tt.jpg","",""
"null","<div style=""font-size:60px;""> </div>","null","fixation","html-keyboard-response","342","1168048","0.0-6.0-0.48","2950433","co38974","norming","","","","","","",""
"null","../img/tt/1053tt.jpg","null","mooney1","image-keyboard-response","343","1171059","0.0-6.0-1.48","2950433","co38974","norming","","","","","","",""
"9401.815000004834","","","post_mooney1_questions","survey-likert","344","1180459","0.0-6.0-2.48","2950433","co38974","norming","","","{""curiosity"":6,""confidence"":0}","[0,1]","../img/tt/1053tt.jpg","",""
"2942.204999999376","","","recognition","survey-text","345","1183402","0.0-6.0-3.48","2950433","co38974","norming","","","{""guess"":""paard""}","","../img/tt/1053tt.jpg","",""
"null","../img/gs/1053gs.jpg","null","reveal","image-keyboard-response","346","1185410","0.0-6.0-4.48","2950433","co38974","norming","","","","","","",""
"null","../img/tt/1053tt.jpg","null","mooney2","image-keyboard-response","347","1187411","0.0-6.0-5.48","2950433","co38974","norming","","","","","","",""
"2372.6949999984354","","","post_reveal_questions","survey-likert","348","1189786","0.0-6.0-6.48","2950433","co38974","norming","","","{""aha"":5}","[0]","../img/tt/1053tt.jpg","",""
"null","<div style=""font-size:60px;""> </div>","null","fixation","html-keyboard-response","349","1189996","0.0-6.0-0.49","2950433","co38974","norming","","","","","","",""
"null","../img/tt/567tt.jpg","null","mooney1","image-keyboard-response","350","1193005","0.0-6.0-1.49","2950433","co38974","norming","","","","","","",""
"6810.290000008652","","","post_mooney1_questions","survey-likert","351","1199819","0.0-6.0-2.49","2950433","co38974","norming","","","{""curiosity"":6,""confidence"":0}","[0,1]","../img/tt/567tt.jpg","",""
"5277.990000002086","","","recognition","survey-text","352","1205098","0.0-6.0-3.49","2950433","co38974","norming","","","{""guess"":""autospiegel""}","","../img/tt/567tt.jpg","",""
"null","../img/gs/567gs.jpg","null","reveal","image-keyboard-response","353","1207102","0.0-6.0-4.49","2950433","co38974","norming","","","","","","",""
"null","../img/tt/567tt.jpg","null","mooney2","image-keyboard-response","354","1209109","0.0-6.0-5.49","2950433","co38974","norming","","","","","","",""
"3042.6850000077393","","","post_reveal_questions","survey-likert","355","1212154","0.0-6.0-6.49","2950433","co38974","norming","","","{""aha"":6}","[0]","../img/tt/567tt.jpg","",""
"null","<div style=""font-size:60px;""> </div>","null","fixation","html-keyboard-response","356","1212360","0.0-6.0-0.50","2950433","co38974","norming","","","","","","",""
"null","../img/tt/1097tt.jpg","null","mooney1","image-keyboard-response","357","1215362","0.0-6.0-1.50","2950433","co38974","norming","","","","","","",""
"4734.219999998342","","","post_mooney1_questions","survey-likert","358","1220098","0.0-6.0-2.50","2950433","co38974","norming","","","{""curiosity"":6,""confidence"":1}","[0,1]","../img/tt/1097tt.jpg","",""
"2661.7600000025705","","","recognition","survey-text","359","1222762","0.0-6.0-3.50","2950433","co38974","norming","","","{""guess"":""visser""}","","../img/tt/1097tt.jpg","",""
"null","../img/gs/1097gs.jpg","null","reveal","image-keyboard-response","360","1224763","0.0-6.0-4.50","2950433","co38974","norming","","","","","","",""
"null","../img/tt/1097tt.jpg","null","mooney2","image-keyboard-response","361","1226770","0.0-6.0-5.50","2950433","co38974","norming","","","","","","",""
"2390.38500000583","","","post_reveal_questions","survey-likert","362","1229162","0.0-6.0-6.50","2950433","co38974","norming","","","{""aha"":4}","[0]","../img/tt/1097tt.jpg","",""
"null","<div style=""font-size:60px;""> </div>","null","fixation","html-keyboard-response","363","1229369","0.0-6.0-0.51","2950433","co38974","norming","","","","","","",""
"null","../img/tt/163tt.jpg","null","mooney1","image-keyboard-response","364","1232377","0.0-6.0-1.51","2950433","co38974","norming","","","","","","",""
"5039.259999990463","","","post_mooney1_questions","survey-likert","365","1237419","0.0-6.0-2.51","2950433","co38974","norming","","","{""curiosity"":6,""confidence"":2}","[0,1]","../img/tt/163tt.jpg","",""
"2926.1149999948684","","","recognition","survey-text","366","1240350","0.0-6.0-3.51","2950433","co38974","norming","","","{""guess"":""kikker""}","","../img/tt/163tt.jpg","",""
"null","../img/gs/163gs.jpg","null","reveal","image-keyboard-response","367","1242359","0.0-6.0-4.51","2950433","co38974","norming","","","","","","",""
"null","../img/tt/163tt.jpg","null","mooney2","image-keyboard-response","368","1244364","0.0-6.0-5.51","2950433","co38974","norming","","","","","","",""
"1960.1899999980815","","","post_reveal_questions","survey-likert","369","1246326","0.0-6.0-6.51","2950433","co38974","norming","","","{""aha"":2}","[0]","../img/tt/163tt.jpg","",""
"null","<div style=""font-size:60px;""> </div>","null","fixation","html-keyboard-response","370","1246534","0.0-6.0-0.52","2950433","co38974","norming","","","","","","",""
"null","../img/tt/1268tt.jpg","null","mooney1","image-keyboard-response","371","1249545","0.0-6.0-1.52","2950433","co38974","norming","","","","","","",""
"4354.885000008158","","","post_mooney1_questions","survey-likert","372","1253902","0.0-6.0-2.52","2950433","co38974","norming","","","{""curiosity"":6,""confidence"":0}","[0,1]","../img/tt/1268tt.jpg","",""
"878.23499999661","","","recognition","survey-text","373","1254782","0.0-6.0-3.52","2950433","co38974","norming","","","{""guess"":""""}","","../img/tt/1268tt.jpg","",""
"null","../img/gs/1268gs.jpg","null","reveal","image-keyboard-response","374","1256784","0.0-6.0-4.52","2950433","co38974","norming","","","","","","",""
"null","../img/tt/1268tt.jpg","null","mooney2","image-keyboard-response","375","1258793","0.0-6.0-5.52","2950433","co38974","norming","","","","","","",""
"4002.839999986347","","","post_reveal_questions","survey-likert","376","1262798","0.0-6.0-6.52","2950433","co38974","norming","","","{""aha"":6}","[0]","../img/tt/1268tt.jpg","",""
"null","<div style=""font-size:60px;""> </div>","null","fixation","html-keyboard-response","377","1263005","0.0-6.0-0.53","2950433","co38974","norming","","","","","","",""
"null","../img/tt/1205tt.jpg","null","mooney1","image-keyboard-response","378","1266007","0.0-6.0-1.53","2950433","co38974","norming","","","","","","",""
"5741.204999998212","","","post_mooney1_questions","survey-likert","379","1271751","0.0-6.0-2.53","2950433","co38974","norming","","","{""curiosity"":6,""confidence"":1}","[0,1]","../img/tt/1205tt.jpg","",""
"3126.030000013998","","","recognition","survey-text","380","1274878","0.0-6.0-3.53","2950433","co38974","norming","","","{""guess"":""orkest""}","","../img/tt/1205tt.jpg","",""
"null","../img/gs/1205gs.jpg","null","reveal","image-keyboard-response","381","1276880","0.0-6.0-4.53","2950433","co38974","norming","","","","","","",""
"null","../img/tt/1205tt.jpg","null","mooney2","image-keyboard-response","382","1278882","0.0-6.0-5.53","2950433","co38974","norming","","","","","","",""
"2106.4000000043306","","","post_reveal_questions","survey-likert","383","1280990","0.0-6.0-6.53","2950433","co38974","norming","","","{""aha"":4}","[0]","../img/tt/1205tt.jpg","",""
"null","<div style=""font-size:60px;""> </div>","null","fixation","html-keyboard-response","384","1281197","0.0-6.0-0.54","2950433","co38974","norming","","","","","","",""
"null","../img/tt/496tt.jpg","null","mooney1","image-keyboard-response","385","1284202","0.0-6.0-1.54","2950433","co38974","norming","","","","","","",""
"4105.979999992996","","","post_mooney1_questions","survey-likert","386","1288310","0.0-6.0-2.54","2950433","co38974","norming","","","{""curiosity"":6,""confidence"":0}","[0,1]","../img/tt/496tt.jpg","",""
"885.5049999984913","","","recognition","survey-text","387","1289198","0.0-6.0-3.54","2950433","co38974","norming","","","{""guess"":""""}","","../img/tt/496tt.jpg","",""
"null","../img/gs/496gs.jpg","null","reveal","image-keyboard-response","388","1291199","0.0-6.0-4.54","2950433","co38974","norming","","","","","","",""
"null","../img/tt/496tt.jpg","null","mooney2","image-keyboard-response","389","1293206","0.0-6.0-5.54","2950433","co38974","norming","","","","","","",""
"6038.68499999214","","","post_reveal_questions","survey-likert","390","1299242","0.0-6.0-6.54","2950433","co38974","norming","","","{""aha"":5}","[0]","../img/tt/496tt.jpg","",""
"null","<div style=""font-size:60px;""> </div>","null","fixation","html-keyboard-response","391","1299452","0.0-6.0-0.55","2950433","co38974","norming","","","","","","",""
"null","../img/tt/1309tt.jpg","null","mooney1","image-keyboard-response","392","1302457","0.0-6.0-1.55","2950433","co38974","norming","","","","","","",""
"8390.310000002617","","","post_mooney1_questions","survey-likert","393","1310850","0.0-6.0-2.55","2950433","co38974","norming","","","{""curiosity"":6,""confidence"":1}","[0,1]","../img/tt/1309tt.jpg","",""
"7909.989999999991","","","recognition","survey-text","394","1318762","0.0-6.0-3.55","2950433","co38974","norming","","","{""guess"":""auto in een bos""}","","../img/tt/1309tt.jpg","",""
"null","../img/gs/1309gs.jpg","null","reveal","image-keyboard-response","395","1320763","0.0-6.0-4.55","2950433","co38974","norming","","","","","","",""
"null","../img/tt/1309tt.jpg","null","mooney2","image-keyboard-response","396","1322765","0.0-6.0-5.55","2950433","co38974","norming","","","","","","",""
"3786.8799999996554","","","post_reveal_questions","survey-likert","397","1326554","0.0-6.0-6.55","2950433","co38974","norming","","","{""aha"":3}","[0]","../img/tt/1309tt.jpg","",""
"null","<div style=""font-size:60px;""> </div>","null","fixation","html-keyboard-response","398","1326761","0.0-6.0-0.56","2950433","co38974","norming","","","","","","",""
"null","../img/tt/590tt.jpg","null","mooney1","image-keyboard-response","399","1329764","0.0-6.0-1.56","2950433","co38974","norming","","","","","","",""
"6123.180000009481","","","post_mooney1_questions","survey-likert","400","1335890","0.0-6.0-2.56","2950433","co38974","norming","","","{""curiosity"":6,""confidence"":1}","[0,1]","../img/tt/590tt.jpg","",""
"2582.0499999972526","","","recognition","survey-text","401","1338474","0.0-6.0-3.56","2950433","co38974","norming","","","{""guess"":""piano""}","","../img/tt/590tt.jpg","",""
"null","../img/gs/590gs.jpg","null","reveal","image-keyboard-response","402","1340475","0.0-6.0-4.56","2950433","co38974","norming","","","","","","",""
"null","../img/tt/590tt.jpg","null","mooney2","image-keyboard-response","403","1342482","0.0-6.0-5.56","2950433","co38974","norming","","","","","","",""
"3909.5300000044517","","","post_reveal_questions","survey-likert","404","1346394","0.0-6.0-6.56","2950433","co38974","norming","","","{""aha"":4}","[0]","../img/tt/590tt.jpg","",""
"null","<div style=""font-size:60px;""> </div>","null","fixation","html-keyboard-response","405","1346601","0.0-6.0-0.57","2950433","co38974","norming","","","","","","",""
"null","../img/tt/123tt.jpg","null","mooney1","image-keyboard-response","406","1349604","0.0-6.0-1.57","2950433","co38974","norming","","","","","","",""
"6579.219999999506","","","post_mooney1_questions","survey-likert","407","1356186","0.0-6.0-2.57","2950433","co38974","norming","","","{""curiosity"":6,""confidence"":1}","[0,1]","../img/tt/123tt.jpg","",""
"2893.570000000065","","","recognition","survey-text","408","1359081","0.0-6.0-3.57","2950433","co38974","norming","","","{""guess"":""koffer""}","","../img/tt/123tt.jpg","",""
"null","../img/gs/123gs.jpg","null","reveal","image-keyboard-response","409","1361086","0.0-6.0-4.57","2950433","co38974","norming","","","","","","",""
"null","../img/tt/123tt.jpg","null","mooney2","image-keyboard-response","410","1363096","0.0-6.0-5.57","2950433","co38974","norming","","","","","","",""
"4802.654999992112","","","post_reveal_questions","survey-likert","411","1367901","0.0-6.0-6.57","2950433","co38974","norming","","","{""aha"":4}","[0]","../img/tt/123tt.jpg","",""
"null","<div style=""font-size:60px;""> </div>","null","fixation","html-keyboard-response","412","1368102","0.0-6.0-0.58","2950433","co38974","norming","","","","","","",""
"null","../img/tt/1091tt.jpg","null","mooney1","image-keyboard-response","413","1371108","0.0-6.0-1.58","2950433","co38974","norming","","","","","","",""
"8030.155000000261","","","post_mooney1_questions","survey-likert","414","1379141","0.0-6.0-2.58","2950433","co38974","norming","","","{""curiosity"":6,""confidence"":5}","[0,1]","../img/tt/1091tt.jpg","",""
"6646.119999990333","","","recognition","survey-text","415","1385789","0.0-6.0-3.58","2950433","co38974","norming","","","{""guess"":""grazend paard""}","","../img/tt/1091tt.jpg","",""
"null","../img/gs/1091gs.jpg","null","reveal","image-keyboard-response","416","1387790","0.0-6.0-4.58","2950433","co38974","norming","","","","","","",""
"null","../img/tt/1091tt.jpg","null","mooney2","image-keyboard-response","417","1389795","0.0-6.0-5.58","2950433","co38974","norming","","","","","","",""
"4471.024999991525","","","post_reveal_questions","survey-likert","418","1394269","0.0-6.0-6.58","2950433","co38974","norming","","","{""aha"":3}","[0]","../img/tt/1091tt.jpg","",""
"null","<div style=""font-size:60px;""> </div>","null","fixation","html-keyboard-response","419","1394470","0.0-6.0-0.59","2950433","co38974","norming","","","","","","",""
"null","../img/tt/036tt.jpg","null","mooney1","image-keyboard-response","420","1397475","0.0-6.0-1.59","2950433","co38974","norming","","","","","","",""
"5711.465000000317","","","post_mooney1_questions","survey-likert","421","1403189","0.0-6.0-2.59","2950433","co38974","norming","","","{""curiosity"":6,""confidence"":3}","[0,1]","../img/tt/036tt.jpg","",""
"4893.834999995306","","","recognition","survey-text","422","1408085","0.0-6.0-3.59","2950433","co38974","norming","","","{""guess"":""bliksem""}","","../img/tt/036tt.jpg","",""
"null","../img/gs/036gs.jpg","null","reveal","image-keyboard-response","423","1410094","0.0-6.0-4.59","2950433","co38974","norming","","","","","","",""
"null","../img/tt/036tt.jpg","null","mooney2","image-keyboard-response","424","1412096","0.0-6.0-5.59","2950433","co38974","norming","","","","","","",""
"2491.415000011446","","","post_reveal_questions","survey-likert","425","1414589","0.0-6.0-6.59","2950433","co38974","norming","","","{""aha"":1}","[0]","../img/tt/036tt.jpg","",""
"null","<div style=""font-size:60px;""> </div>","null","fixation","html-keyboard-response","426","1414799","0.0-6.0-0.60","2950433","co38974","norming","","","","","","",""
"null","../img/tt/524tt.jpg","null","mooney1","image-keyboard-response","427","1417804","0.0-6.0-1.60","2950433","co38974","norming","","","","","","",""
"5998.754999993369","","","post_mooney1_questions","survey-likert","428","1423804","0.0-6.0-2.60","2950433","co38974","norming","","","{""curiosity"":6,""confidence"":0}","[0,1]","../img/tt/524tt.jpg","",""
"4782.220000008121","","","recognition","survey-text","429","1428588","0.0-6.0-3.60","2950433","co38974","norming","","","{""guess"":""stier""}","","../img/tt/524tt.jpg","",""
"null","../img/gs/524gs.jpg","null","reveal","image-keyboard-response","430","1430596","0.0-6.0-4.60","2950433","co38974","norming","","","","","","",""
"null","../img/tt/524tt.jpg","null","mooney2","image-keyboard-response","431","1432599","0.0-6.0-5.60","2950433","co38974","norming","","","","","","",""
"2611.6199999961536","","","post_reveal_questions","survey-likert","432","1435212","0.0-6.0-6.60","2950433","co38974","norming","","","{""aha"":5}","[0]","../img/tt/524tt.jpg","",""
"null","<div style=""font-size:60px;""> </div>","null","fixation","html-keyboard-response","433","1435417","0.0-6.0-0.61","2950433","co38974","norming","","","","","","",""
"null","../img/tt/380tt.jpg","null","mooney1","image-keyboard-response","434","1438422","0.0-6.0-1.61","2950433","co38974","norming","","","","","","",""
"5276.184999995166","","","post_mooney1_questions","survey-likert","435","1443700","0.0-6.0-2.61","2950433","co38974","norming","","","{""curiosity"":6,""confidence"":1}","[0,1]","../img/tt/380tt.jpg","",""
"3270.424999995157","","","recognition","survey-text","436","1446972","0.0-6.0-3.61","2950433","co38974","norming","","","{""guess"":""vogel""}","","../img/tt/380tt.jpg","",""
"null","../img/gs/380gs.jpg","null","reveal","image-keyboard-response","437","1448973","0.0-6.0-4.61","2950433","co38974","norming","","","","","","",""
"null","../img/tt/380tt.jpg","null","mooney2","image-keyboard-response","438","1450978","0.0-6.0-5.61","2950433","co38974","norming","","","","","","",""
"3057.480000003008","","","post_reveal_questions","survey-likert","439","1454036","0.0-6.0-6.61","2950433","co38974","norming","","","{""aha"":5}","[0]","../img/tt/380tt.jpg","",""
"null","<div style=""font-size:60px;""> </div>","null","fixation","html-keyboard-response","440","1454238","0.0-6.0-0.62","2950433","co38974","norming","","","","","","",""
"null","../img/tt/1123tt.jpg","null","mooney1","image-keyboard-response","441","1457243","0.0-6.0-1.62","2950433","co38974","norming","","","","","","",""
"4542.504999990342","","","post_mooney1_questions","survey-likert","442","1461789","0.0-6.0-2.62","2950433","co38974","norming","","","{""curiosity"":6,""confidence"":5}","[0,1]","../img/tt/1123tt.jpg","",""
"3837.885000000708","","","recognition","survey-text","443","1465628","0.0-6.0-3.62","2950433","co38974","norming","","","{""guess"":""voleybal""}","","../img/tt/1123tt.jpg","",""
"null","../img/gs/1123gs.jpg","null","reveal","image-keyboard-response","444","1467634","0.0-6.0-4.62","2950433","co38974","norming","","","","","","",""
"null","../img/tt/1123tt.jpg","null","mooney2","image-keyboard-response","445","1469640","0.0-6.0-5.62","2950433","co38974","norming","","","","","","",""
"3314.2400000069756","","","post_reveal_questions","survey-likert","446","1472956","0.0-6.0-6.62","2950433","co38974","norming","","","{""aha"":4}","[0]","../img/tt/1123tt.jpg","",""
"null","<div style=""font-size:60px;""> </div>","null","fixation","html-keyboard-response","447","1473163","0.0-6.0-0.63","2950433","co38974","norming","","","","","","",""
"null","../img/tt/194tt.jpg","null","mooney1","image-keyboard-response","448","1476169","0.0-6.0-1.63","2950433","co38974","norming","","","","","","",""
"9034.35000000149","","","post_mooney1_questions","survey-likert","449","1485204","0.0-6.0-2.63","2950433","co38974","norming","","","{""curiosity"":6,""confidence"":4}","[0,1]","../img/tt/194tt.jpg","",""
"3813.9899999951012","","","recognition","survey-text","450","1489020","0.0-6.0-3.63","2950433","co38974","norming","","","{""guess"":""instrumeny""}","","../img/tt/194tt.jpg","",""
"null","../img/gs/194gs.jpg","null","reveal","image-keyboard-response","451","1491021","0.0-6.0-4.63","2950433","co38974","norming","","","","","","",""
"null","../img/tt/194tt.jpg","null","mooney2","image-keyboard-response","452","1493025","0.0-6.0-5.63","2950433","co38974","norming","","","","","","",""
"4034.7550000005867","","","post_reveal_questions","survey-likert","453","1497060","0.0-6.0-6.63","2950433","co38974","norming","","","{""aha"":5}","[0]","../img/tt/194tt.jpg","",""
"null","<div style=""font-size:60px;""> </div>","null","fixation","html-keyboard-response","454","1497264","0.0-6.0-0.64","2950433","co38974","norming","","","","","","",""
"null","../img/tt/118tt.jpg","null","mooney1","image-keyboard-response","455","1500271","0.0-6.0-1.64","2950433","co38974","norming","","","","","","",""
"4698.300000003772","","","post_mooney1_questions","survey-likert","456","1504972","0.0-6.0-2.64","2950433","co38974","norming","","","{""curiosity"":6,""confidence"":1}","[0,1]","../img/tt/118tt.jpg","",""
"6654.18999998644","","","recognition","survey-text","457","1511628","0.0-6.0-3.64","2950433","co38974","norming","","","{""guess"":""trap""}","","../img/tt/118tt.jpg","",""
"null","../img/gs/118gs.jpg","null","reveal","image-keyboard-response","458","1513633","0.0-6.0-4.64","2950433","co38974","norming","","","","","","",""
"null","../img/tt/118tt.jpg","null","mooney2","image-keyboard-response","459","1515641","0.0-6.0-5.64","2950433","co38974","norming","","","","","","",""
"2177.5049999996554","","","post_reveal_questions","survey-likert","460","1517820","0.0-6.0-6.64","2950433","co38974","norming","","","{""aha"":6}","[0]","../img/tt/118tt.jpg","",""
"null","<div style=""font-size:60px;""> </div>","null","fixation","html-keyboard-response","461","1518031","0.0-6.0-0.65","2950433","co38974","norming","","","","","","",""
"null","../img/tt/378tt.jpg","null","mooney1","image-keyboard-response","462","1521041","0.0-6.0-1.65","2950433","co38974","norming","","","","","","",""
"9433.515000011306","","","post_mooney1_questions","survey-likert","463","1530476","0.0-6.0-2.65","2950433","co38974","norming","","","{""curiosity"":6,""confidence"":1}","[0,1]","../img/tt/378tt.jpg","",""
"3086.0150000080466","","","recognition","survey-text","464","1533564","0.0-6.0-3.65","2950433","co38974","norming","","","{""guess"":""vogel""}","","../img/tt/378tt.jpg","",""
"null","../img/gs/378gs.jpg","null","reveal","image-keyboard-response","465","1535568","0.0-6.0-4.65","2950433","co38974","norming","","","","","","",""
"null","../img/tt/378tt.jpg","null","mooney2","image-keyboard-response","466","1537572","0.0-6.0-5.65","2950433","co38974","norming","","","","","","",""
"1837.7149999868125","","","post_reveal_questions","survey-likert","467","1539412","0.0-6.0-6.65","2950433","co38974","norming","","","{""aha"":2}","[0]","../img/tt/378tt.jpg","",""
"null","<div style=""font-size:60px;""> </div>","null","fixation","html-keyboard-response","468","1539614","0.0-6.0-0.66","2950433","co38974","norming","","","","","","",""
"null","../img/tt/1012tt.jpg","null","mooney1","image-keyboard-response","469","1542618","0.0-6.0-1.66","2950433","co38974","norming","","","","","","",""
"8064.16500000353","","","post_mooney1_questions","survey-likert","470","1550683","0.0-6.0-2.66","2950433","co38974","norming","","","{""curiosity"":6,""confidence"":0}","[0,1]","../img/tt/1012tt.jpg","",""
"3517.9849999984726","","","recognition","survey-text","471","1554203","0.0-6.0-3.66","2950433","co38974","norming","","","{""guess"":""vogel""}","","../img/tt/1012tt.jpg","",""
"null","../img/gs/1012gs.jpg","null","reveal","image-keyboard-response","472","1556204","0.0-6.0-4.66","2950433","co38974","norming","","","","","","",""
"null","../img/tt/1012tt.jpg","null","mooney2","image-keyboard-response","473","1558207","0.0-6.0-5.66","2950433","co38974","norming","","","","","","",""
"2441.7549999926705","","","post_reveal_questions","survey-likert","474","1560651","0.0-6.0-6.66","2950433","co38974","norming","","","{""aha"":5}","[0]","../img/tt/1012tt.jpg","",""
"null","<div style=""font-size:60px;""> </div>","null","fixation","html-keyboard-response","475","1560861","0.0-6.0-0.67","2950433","co38974","norming","","","","","","",""
"null","../img/tt/1239tt.jpg","null","mooney1","image-keyboard-response","476","1563864","0.0-6.0-1.67","2950433","co38974","norming","","","","","","",""
"3784.2299999902025","","","post_mooney1_questions","survey-likert","477","1567651","0.0-6.0-2.67","2950433","co38974","norming","","","{""curiosity"":6,""confidence"":0}","[0,1]","../img/tt/1239tt.jpg","",""
"702.1150000072084","","","recognition","survey-text","478","1568354","0.0-6.0-3.67","2950433","co38974","norming","","","{""guess"":""""}","","../img/tt/1239tt.jpg","",""
"null","../img/gs/1239gs.jpg","null","reveal","image-keyboard-response","479","1570359","0.0-6.0-4.67","2950433","co38974","norming","","","","","","",""
"null","../img/tt/1239tt.jpg","null","mooney2","image-keyboard-response","480","1572363","0.0-6.0-5.67","2950433","co38974","norming","","","","","","",""
"2309.3700000029057","","","post_reveal_questions","survey-likert","481","1574675","0.0-6.0-6.67","2950433","co38974","norming","","","{""aha"":5}","[0]","../img/tt/1239tt.jpg","",""
"null","<div style=""font-size:60px;""> </div>","null","fixation","html-keyboard-response","482","1574882","0.0-6.0-0.68","2950433","co38974","norming","","","","","","",""
"null","../img/tt/1255tt.jpg","null","mooney1","image-keyboard-response","483","1577885","0.0-6.0-1.68","2950433","co38974","norming","","","","","","",""
"5003.395000007004","","","post_mooney1_questions","survey-likert","484","1582891","0.0-6.0-2.68","2950433","co38974","norming","","","{""curiosity"":6,""confidence"":5}","[0,1]","../img/tt/1255tt.jpg","",""
"3149.9349999940023","","","recognition","survey-text","485","1586042","0.0-6.0-3.68","2950433","co38974","norming","","","{""guess"":""konijn""}","","../img/tt/1255tt.jpg","",""
"null","../img/gs/1255gs.jpg","null","reveal","image-keyboard-response","486","1588048","0.0-6.0-4.68","2950433","co38974","norming","","","","","","",""
"null","../img/tt/1255tt.jpg","null","mooney2","image-keyboard-response","487","1590054","0.0-6.0-5.68","2950433","co38974","norming","","","","","","",""
"5442.230000000447","","","post_reveal_questions","survey-likert","488","1595498","0.0-6.0-6.68","2950433","co38974","norming","","","{""aha"":4}","[0]","../img/tt/1255tt.jpg","",""
"null","<div style=""font-size:60px;""> </div>","null","fixation","html-keyboard-response","489","1595700","0.0-6.0-0.69","2950433","co38974","norming","","","","","","",""
"null","../img/tt/436tt.jpg","null","mooney1","image-keyboard-response","490","1598703","0.0-6.0-1.69","2950433","co38974","norming","","","","","","",""
"4896.75","","","post_mooney1_questions","survey-likert","491","1603603","0.0-6.0-2.69","2950433","co38974","norming","","","{""curiosity"":6,""confidence"":1}","[0,1]","../img/tt/436tt.jpg","",""
"2677.8699999994133","","","recognition","survey-text","492","1606288","0.0-6.0-3.69","2950433","co38974","norming","","","{""guess"":""reptiel""}","","../img/tt/436tt.jpg","",""
"null","../img/gs/436gs.jpg","null","reveal","image-keyboard-response","493","1608290","0.0-6.0-4.69","2950433","co38974","norming","","","","","","",""
"null","../img/tt/436tt.jpg","null","mooney2","image-keyboard-response","494","1610294","0.0-6.0-5.69","2950433","co38974","norming","","","","","","",""
"4936.209999999963","","","post_reveal_questions","survey-likert","495","1615233","0.0-6.0-6.69","2950433","co38974","norming","","","{""aha"":4}","[0]","../img/tt/436tt.jpg","",""
"null","<div style=""font-size:60px;""> </div>","null","fixation","html-keyboard-response","496","1615434","0.0-6.0-0.70","2950433","co38974","norming","","","","","","",""
"null","../img/tt/082tt.jpg","null","mooney1","image-keyboard-response","497","1618438","0.0-6.0-1.70","2950433","co38974","norming","","","","","","",""
"7167.67500000447","","","post_mooney1_questions","survey-likert","498","1625608","0.0-6.0-2.70","2950433","co38974","norming","","","{""curiosity"":6,""confidence"":1}","[0,1]","../img/tt/082tt.jpg","",""
"2613.569999986794","","","recognition","survey-text","499","1628224","0.0-6.0-3.70","2950433","co38974","norming","","","{""guess"":""vogels""}","","../img/tt/082tt.jpg","",""
"null","../img/gs/082gs.jpg","null","reveal","image-keyboard-response","500","1630227","0.0-6.0-4.70","2950433","co38974","norming","","","","","","",""
"null","../img/tt/082tt.jpg","null","mooney2","image-keyboard-response","501","1632234","0.0-6.0-5.70","2950433","co38974","norming","","","","","","",""
"5357.164999993984","","","post_reveal_questions","survey-likert","502","1637592","0.0-6.0-6.70","2950433","co38974","norming","","","{""aha"":2}","[0]","../img/tt/082tt.jpg","",""
"null","<div style=""font-size:60px;""> </div>","null","fixation","html-keyboard-response","503","1637799","0.0-6.0-0.71","2950433","co38974","norming","","","","","","",""
"null","../img/tt/1066tt.jpg","null","mooney1","image-keyboard-response","504","1640808","0.0-6.0-1.71","2950433","co38974","norming","","","","","","",""
"4790.055000005057","","","post_mooney1_questions","survey-likert","505","1645601","0.0-6.0-2.71","2950433","co38974","norming","","","{""curiosity"":6,""confidence"":2}","[0,1]","../img/tt/1066tt.jpg","",""
"2254.0199999930337","","","recognition","survey-text","506","1647856","0.0-6.0-3.71","2950433","co38974","norming","","","{""guess"":""bus""}","","../img/tt/1066tt.jpg","",""
"null","../img/gs/1066gs.jpg","null","reveal","image-keyboard-response","507","1649859","0.0-6.0-4.71","2950433","co38974","norming","","","","","","",""
"null","../img/tt/1066tt.jpg","null","mooney2","image-keyboard-response","508","1651869","0.0-6.0-5.71","2950433","co38974","norming","","","","","","",""
"2632.505000001518","","","post_reveal_questions","survey-likert","509","1654504","0.0-6.0-6.71","2950433","co38974","norming","","","{""aha"":2}","[0]","../img/tt/1066tt.jpg","",""
"null","<div style=""font-size:60px;""> </div>","null","fixation","html-keyboard-response","510","1654705","0.0-6.0-0.72","2950433","co38974","norming","","","","","","",""
"null","../img/tt/078tt.jpg","null","mooney1","image-keyboard-response","511","1657711","0.0-6.0-1.72","2950433","co38974","norming","","","","","","",""
"3230.3350000004284","","","post_mooney1_questions","survey-likert","512","1660944","0.0-6.0-2.72","2950433","co38974","norming","","","{""curiosity"":6,""confidence"":0}","[0,1]","../img/tt/078tt.jpg","",""
"2046.2499999995343","","","recognition","survey-text","513","1662992","0.0-6.0-3.72","2950433","co38974","norming","","","{""guess"":""honing""}","","../img/tt/078tt.jpg","",""
"null","../img/gs/078gs.jpg","null","reveal","image-keyboard-response","514","1665000","0.0-6.0-4.72","2950433","co38974","norming","","","","","","",""
"null","../img/tt/078tt.jpg","null","mooney2","image-keyboard-response","515","1667002","0.0-6.0-5.72","2950433","co38974","norming","","","","","","",""
"2645.489999995334","","","post_reveal_questions","survey-likert","516","1669649","0.0-6.0-6.72","2950433","co38974","norming","","","{""aha"":4}","[0]","../img/tt/078tt.jpg","",""
"null","<div style=""font-size:60px;""> </div>","null","fixation","html-keyboard-response","517","1669852","0.0-6.0-0.73","2950433","co38974","norming","","","","","","",""
"null","../img/tt/1143tt.jpg","null","mooney1","image-keyboard-response","518","1672858","0.0-6.0-1.73","2950433","co38974","norming","","","","","","",""
"5571.970000004629","","","post_mooney1_questions","survey-likert","519","1678433","0.0-6.0-2.73","2950433","co38974","norming","","","{""curiosity"":6,""confidence"":1}","[0,1]","../img/tt/1143tt.jpg","",""
"2286.169999992242","","","recognition","survey-text","520","1680721","0.0-6.0-3.73","2950433","co38974","norming","","","{""guess"":""fitness""}","","../img/tt/1143tt.jpg","",""
"null","../img/gs/1143gs.jpg","null","reveal","image-keyboard-response","521","1682725","0.0-6.0-4.73","2950433","co38974","norming","","","","","","",""
"null","../img/tt/1143tt.jpg","null","mooney2","image-keyboard-response","522","1684726","0.0-6.0-5.73","2950433","co38974","norming","","","","","","",""
"3408.3749999990687","","","post_reveal_questions","survey-likert","523","1688137","0.0-6.0-6.73","2950433","co38974","norming","","","{""aha"":4}","[0]","../img/tt/1143tt.jpg","",""
"null","<div style=""font-size:60px;""> </div>","null","fixation","html-keyboard-response","524","1688346","0.0-6.0-0.74","2950433","co38974","norming","","","","","","",""
"null","../img/tt/1269tt.jpg","null","mooney1","image-keyboard-response","525","1691349","0.0-6.0-1.74","2950433","co38974","norming","","","","","","",""
"3553.3400000131223","","","post_mooney1_questions","survey-likert","526","1694905","0.0-6.0-2.74","2950433","co38974","norming","","","{""curiosity"":6,""confidence"":3}","[0,1]","../img/tt/1269tt.jpg","",""
"2085.969999999972","","","recognition","survey-text","527","1696992","0.0-6.0-3.74","2950433","co38974","norming","","","{""guess"":""kat""}","","../img/tt/1269tt.jpg","",""
"null","../img/gs/1269gs.jpg","null","reveal","image-keyboard-response","528","1699002","0.0-6.0-4.74","2950433","co38974","norming","","","","","","",""
"null","../img/tt/1269tt.jpg","null","mooney2","image-keyboard-response","529","1701004","0.0-6.0-5.74","2950433","co38974","norming","","","","","","",""
"2058.9849999959115","","","post_reveal_questions","survey-likert","530","1703064","0.0-6.0-6.74","2950433","co38974","norming","","","{""aha"":5}","[0]","../img/tt/1269tt.jpg","",""
"null","<div style=""font-size:60px;""> </div>","null","fixation","html-keyboard-response","531","1703267","0.0-6.0-0.75","2950433","co38974","norming","","","","","","",""
"null","../img/tt/1048tt.jpg","null","mooney1","image-keyboard-response","532","1706271","0.0-6.0-1.75","2950433","co38974","norming","","","","","","",""
"4335.4749999996275","","","post_mooney1_questions","survey-likert","533","1710609","0.0-6.0-2.75","2950433","co38974","norming","","","{""curiosity"":6,""confidence"":1}","[0,1]","../img/tt/1048tt.jpg","",""
"2350.135000000708","","","recognition","survey-text","534","1712961","0.0-6.0-3.75","2950433","co38974","norming","","","{""guess"":""paard""}","","../img/tt/1048tt.jpg","",""
"null","../img/gs/1048gs.jpg","null","reveal","image-keyboard-response","535","1714965","0.0-6.0-4.75","2950433","co38974","norming","","","","","","",""
"null","../img/tt/1048tt.jpg","null","mooney2","image-keyboard-response","536","1716969","0.0-6.0-5.75","2950433","co38974","norming","","","","","","",""
"2358.7600000028033","","","post_reveal_questions","survey-likert","537","1719329","0.0-6.0-6.75","2950433","co38974","norming","","","{""aha"":5}","[0]","../img/tt/1048tt.jpg","",""
"null","<div style=""font-size:60px;""> </div>","null","fixation","html-keyboard-response","538","1719531","0.0-6.0-0.76","2950433","co38974","norming","","","","","","",""
"null","../img/tt/1006tt.jpg","null","mooney1","image-keyboard-response","539","1722536","0.0-6.0-1.76","2950433","co38974","norming","","","","","","",""
"7589.589999988675","","","post_mooney1_questions","survey-likert","540","1730128","0.0-6.0-2.76","2950433","co38974","norming","","","{""curiosity"":6,""confidence"":1}","[0,1]","../img/tt/1006tt.jpg","",""
"1518.2550000026822","","","recognition","survey-text","541","1731648","0.0-6.0-3.76","2950433","co38974","norming","","","{""guess"":""koe""}","","../img/tt/1006tt.jpg","",""
"null","../img/gs/1006gs.jpg","null","reveal","image-keyboard-response","542","1733650","0.0-6.0-4.76","2950433","co38974","norming","","","","","","",""
"null","../img/tt/1006tt.jpg","null","mooney2","image-keyboard-response","543","1735656","0.0-6.0-5.76","2950433","co38974","norming","","","","","","",""
"3693.2999999991152","","","post_reveal_questions","survey-likert","544","1739352","0.0-6.0-6.76","2950433","co38974","norming","","","{""aha"":4}","[0]","../img/tt/1006tt.jpg","",""
"null","<div style=""font-size:60px;""> </div>","null","fixation","html-keyboard-response","545","1739560","0.0-6.0-0.77","2950433","co38974","norming","","","","","","",""
"null","../img/tt/1232tt.jpg","null","mooney1","image-keyboard-response","546","1742568","0.0-6.0-1.77","2950433","co38974","norming","","","","","","",""
"4605.010000013979","","","post_mooney1_questions","survey-likert","547","1747175","0.0-6.0-2.77","2950433","co38974","norming","","","{""curiosity"":6,""confidence"":1}","[0,1]","../img/tt/1232tt.jpg","",""
"4566.21499999892","","","recognition","survey-text","548","1751743","0.0-6.0-3.77","2950433","co38974","norming","","","{""guess"":""schildpad""}","","../img/tt/1232tt.jpg","",""
"null","../img/gs/1232gs.jpg","null","reveal","image-keyboard-response","549","1753753","0.0-6.0-4.77","2950433","co38974","norming","","","","","","",""
"null","../img/tt/1232tt.jpg","null","mooney2","image-keyboard-response","550","1755762","0.0-6.0-5.77","2950433","co38974","norming","","","","","","",""
"2002.8400000010151","","","post_reveal_questions","survey-likert","551","1757767","0.0-6.0-6.77","2950433","co38974","norming","","","{""aha"":5}","[0]","../img/tt/1232tt.jpg","",""
