"rt","stimulus","key_press","test_part","trial_type","trial_index","time_elapsed","internal_node_id","totalTime","subject","experiment_name","button_pressed","success","responses","question_order","currentStim","old","correct"
"8325.759999999718","Welcome to the experiment. This is an online experiment so please don't close the tab/window until we say goodbye.  Press any key to begin.","71","instructions","html-keyboard-response","0","8352","0.0-0.0","3086270","co38434","norming","","","","","","",""
"54177.004999999546","<div style='word-wrap: break-word; width: 900px'><h3>Please consider this information carefully before deciding whether to participate in this research</h3><ul style='text-align: left; font-size: .8em;'><li><b>Purpose of the research</b>: To examine how people process images.</li><li><b>What you will do in this research</b>:  Stimuli (images) will be presented on the computer and you will be asked different questions about them.</li><li><b>Time required</b>: Participation will take between 45 and 60 minutes to complete.</li><li><b>Risks</b>:  There are no anticipated risks associated with participating in this study. The effects of participating should be comparable to those you would experience from viewing a computer monitor for 30 minutes and using a mouse or keyboard.</li><li><b>Benefits</b>:  This study provides no benefits to you individually except for the credit. The study provides important information about the nature of perception and learning.</li><li><b>Confidentiality</b>:  Your participation in this study will remain confidential. No personally identifiable information will be associated with your data. Your de-identified data may be shared with other researchers and used in future projects.</li><li><b>Participation and withdrawal</b>:  Your participation in this study is completely voluntary and you may refuse to participate or you may choose to withdraw at any time without penalty.</li><li><b>How to contact the researchers</b>: If you have questions or concerns about your participation or payment, or want to request a summary of research findings, please contact Sander Van de Cruys (KU Leuven), at sander.vandecruys@kuleuven.be.</li></ul><p>The nature and purpose of this research have been sufficiently explained and I agree to participate in this study.  I understand that I am free to withdraw at any time without incurring any penalty.</p><p>Please consent by clicking the button below to continue. Otherwise, please exit the study at this time.</p></div>","","instructions","html-button-response","1","62533","0.0-1.0","3086270","co38434","norming","0","","","","","",""
"","","","instructions","fullscreen","2","65807","0.0-2.0","3086270","co38434","norming","","true","","","","",""
"57459.33500000046","","","sona","survey-html-form","3","123267","0.0-3.0","3086270","co38434","norming","","","[{""name"":""sonaid"",""value"":""38434""},{""name"":""debrief"",""value"":""yes""},{""name"":""datajoin"",""value"":""yes""}]","","","",""
"88916.53499999938","<div style='word-wrap: break-word; width: 900px'><h3>Instructions</h3><p>This experiment will have 3 parts. In the first part you will see a series of distorted images like the one below on the left. As you can see in the righthand image, the distorted images are derived from actual photographs. In what follows, you will <strong>briefly</strong> be presented with <strong>only</strong> the distorted image.</p> <div style='float: left; margin-right: 20px;'><img src='../img/018tt.jpg' height='250' width='250'></img></div><div style='float: right; margin-left: 20px;'><img src='../img/018gs.jpg' height='250' width='250'></img></div><p>Subsequently you will be asked a few questions about the image: One question on how <strong>curious</strong> you are about the solution and one on how <strong>confident</strong> you are that you know the solution.</p>Next, we ask you to make a guess on what is in the image. Note that it is OK to name just the <strong>basic level category</strong>. For example when you see a parrot in the image, 'parrot' will obviously be a correct answer but also correct is 'bird'. However, 'animal' will <strong>not</strong> be counted as a correct response. For the example above, 'rose' would be correct or 'flower', but not 'plant'. When soccer players are depicted, 'soccer', 'football', 'soccer players' will be correct, but not 'humans', 'outdoors', or 'sports'. You do not need to describe the image in full, just name the main object in it <strong>in one or two words</strong>. All images depict objects from one of the following broad level categories: animals, inanimate objects, plants, sports, vehicles, and food. Recognizing means knowing <strong>more</strong> than these broad labels for a given image. But we always encourage you to <strong>make a guess</strong> if you can. Note that you are allowed to use <strong>Dutch and English</strong> in your answers, whatever comes easiest for you.</p><p>Press any key to continue.</p></div>","32","instructions","html-keyboard-response","4","212189","0.0-4.0","3086270","co38434","norming","","","","","","",""
"44044.89499999999","<div style='word-wrap: break-word; width: 900px'><h3>Instructions</h3> <p>Next, the solution image will be revealed to you and you'll be asked to indicate how strong your <strong>aha-experience</strong> was after seeing the solution. This describes the positive feeling of the 'click' you sometimes experience, when the pieces of the 'puzzle' fall together and you suddenly have 'insight' in the image.</p><img src='aha.jpg' height='188' width='250'></img><p>Note that there are no right or wrong answers. We are interested in what <strong>you</strong> see in the image and how <strong>you</strong> feel about it.</p><p>Press any key to start the experiment.</p></div>","32","instructions","html-keyboard-response","5","256235","0.0-5.0","3086270","co38434","norming","","","","","","",""
"null","<div style=""font-size:60px;""> </div>","null","fixation","html-keyboard-response","6","256439","0.0-6.0-0.0","3086270","co38434","norming","","","","","","",""
"null","../img/tt/079tt.jpg","null","mooney1","image-keyboard-response","7","259445","0.0-6.0-1.0","3086270","co38434","norming","","","","","","",""
"7714.289999999921","","","post_mooney1_questions","survey-likert","8","267163","0.0-6.0-2.0","3086270","co38434","norming","","","{""curiosity"":3,""confidence"":5}","[0,1]","../img/tt/079tt.jpg","",""
"9805.579999999318","","","recognition","survey-text","9","276974","0.0-6.0-3.0","3086270","co38434","norming","","","{""guess"":""Beer""}","","../img/tt/079tt.jpg","",""
"null","../img/gs/079gs.jpg","null","reveal","image-keyboard-response","10","278976","0.0-6.0-4.0","3086270","co38434","norming","","","","","","",""
"null","../img/tt/079tt.jpg","null","mooney2","image-keyboard-response","11","280977","0.0-6.0-5.0","3086270","co38434","norming","","","","","","",""
"2899.5900000008987","","","post_reveal_questions","survey-likert","12","283878","0.0-6.0-6.0","3086270","co38434","norming","","","{""aha"":0}","[0]","../img/tt/079tt.jpg","",""
"null","<div style=""font-size:60px;""> </div>","null","fixation","html-keyboard-response","13","284087","0.0-6.0-0.1","3086270","co38434","norming","","","","","","",""
"null","../img/tt/1055tt.jpg","null","mooney1","image-keyboard-response","14","287098","0.0-6.0-1.1","3086270","co38434","norming","","","","","","",""
"7193.570000000356","","","post_mooney1_questions","survey-likert","15","294294","0.0-6.0-2.1","3086270","co38434","norming","","","{""curiosity"":5,""confidence"":1}","[0,1]","../img/tt/1055tt.jpg","",""
"2517.8749999995343","","","recognition","survey-text","16","296814","0.0-6.0-3.1","3086270","co38434","norming","","","{""guess"":""riool""}","","../img/tt/1055tt.jpg","",""
"null","../img/gs/1055gs.jpg","null","reveal","image-keyboard-response","17","298825","0.0-6.0-4.1","3086270","co38434","norming","","","","","","",""
"null","../img/tt/1055tt.jpg","null","mooney2","image-keyboard-response","18","300832","0.0-6.0-5.1","3086270","co38434","norming","","","","","","",""
"4277.079999999842","","","post_reveal_questions","survey-likert","19","305110","0.0-6.0-6.1","3086270","co38434","norming","","","{""aha"":4}","[0]","../img/tt/1055tt.jpg","",""
"null","<div style=""font-size:60px;""> </div>","null","fixation","html-keyboard-response","20","305317","0.0-6.0-0.2","3086270","co38434","norming","","","","","","",""
"null","../img/tt/477tt.jpg","null","mooney1","image-keyboard-response","21","308322","0.0-6.0-1.2","3086270","co38434","norming","","","","","","",""
"6002.245000000577","","","post_mooney1_questions","survey-likert","22","314326","0.0-6.0-2.2","3086270","co38434","norming","","","{""curiosity"":4,""confidence"":1}","[0,1]","../img/tt/477tt.jpg","",""
"8982.20000000036","","","recognition","survey-text","23","323310","0.0-6.0-3.2","3086270","co38434","norming","","","{""guess"":""das""}","","../img/tt/477tt.jpg","",""
"null","../img/gs/477gs.jpg","null","reveal","image-keyboard-response","24","325316","0.0-6.0-4.2","3086270","co38434","norming","","","","","","",""
"null","../img/tt/477tt.jpg","null","mooney2","image-keyboard-response","25","327321","0.0-6.0-5.2","3086270","co38434","norming","","","","","","",""
"2922.6049999997485","","","post_reveal_questions","survey-likert","26","330246","0.0-6.0-6.2","3086270","co38434","norming","","","{""aha"":5}","[0]","../img/tt/477tt.jpg","",""
"null","<div style=""font-size:60px;""> </div>","null","fixation","html-keyboard-response","27","330449","0.0-6.0-0.3","3086270","co38434","norming","","","","","","",""
"null","../img/tt/1272tt.jpg","null","mooney1","image-keyboard-response","28","333452","0.0-6.0-1.3","3086270","co38434","norming","","","","","","",""
"4159.77999999997","","","post_mooney1_questions","survey-likert","29","337611","0.0-6.0-2.3","3086270","co38434","norming","","","{""curiosity"":4,""confidence"":2}","[0,1]","../img/tt/1272tt.jpg","",""
"2270.349999999802","","","recognition","survey-text","30","339883","0.0-6.0-3.3","3086270","co38434","norming","","","{""guess"":""skater""}","","../img/tt/1272tt.jpg","",""
"null","../img/gs/1272gs.jpg","null","reveal","image-keyboard-response","31","341885","0.0-6.0-4.3","3086270","co38434","norming","","","","","","",""
"null","../img/tt/1272tt.jpg","null","mooney2","image-keyboard-response","32","343897","0.0-6.0-5.3","3086270","co38434","norming","","","","","","",""
"3063.7399999995832","","","post_reveal_questions","survey-likert","33","346963","0.0-6.0-6.3","3086270","co38434","norming","","","{""aha"":5}","[0]","../img/tt/1272tt.jpg","",""
"null","<div style=""font-size:60px;""> </div>","null","fixation","html-keyboard-response","34","347171","0.0-6.0-0.4","3086270","co38434","norming","","","","","","",""
"null","../img/tt/273tt.jpg","null","mooney1","image-keyboard-response","35","350181","0.0-6.0-1.4","3086270","co38434","norming","","","","","","",""
"8442.705000000366","","","post_mooney1_questions","survey-likert","36","358627","0.0-6.0-2.4","3086270","co38434","norming","","","{""curiosity"":5,""confidence"":3}","[0,1]","../img/tt/273tt.jpg","",""
"7286.085000000661","","","recognition","survey-text","37","365915","0.0-6.0-3.4","3086270","co38434","norming","","","{""guess"":""tanden met blokjes""}","","../img/tt/273tt.jpg","",""
"null","../img/gs/273gs.jpg","null","reveal","image-keyboard-response","38","367922","0.0-6.0-4.4","3086270","co38434","norming","","","","","","",""
"null","../img/tt/273tt.jpg","null","mooney2","image-keyboard-response","39","369927","0.0-6.0-5.4","3086270","co38434","norming","","","","","","",""
"3265.919999999809","","","post_reveal_questions","survey-likert","40","373195","0.0-6.0-6.4","3086270","co38434","norming","","","{""aha"":0}","[0]","../img/tt/273tt.jpg","",""
"null","<div style=""font-size:60px;""> </div>","null","fixation","html-keyboard-response","41","373396","0.0-6.0-0.5","3086270","co38434","norming","","","","","","",""
"null","../img/tt/080tt.jpg","null","mooney1","image-keyboard-response","42","376400","0.0-6.0-1.5","3086270","co38434","norming","","","","","","",""
"4983.839999999851","","","post_mooney1_questions","survey-likert","43","381387","0.0-6.0-2.5","3086270","co38434","norming","","","{""curiosity"":5,""confidence"":1}","[0,1]","../img/tt/080tt.jpg","",""
"2270.165000000794","","","recognition","survey-text","44","383659","0.0-6.0-3.5","3086270","co38434","norming","","","{""guess"":""strand""}","","../img/tt/080tt.jpg","",""
"null","../img/gs/080gs.jpg","null","reveal","image-keyboard-response","45","385661","0.0-6.0-4.5","3086270","co38434","norming","","","","","","",""
"null","../img/tt/080tt.jpg","null","mooney2","image-keyboard-response","46","387664","0.0-6.0-5.5","3086270","co38434","norming","","","","","","",""
"5152.619999999879","","","post_reveal_questions","survey-likert","47","392819","0.0-6.0-6.5","3086270","co38434","norming","","","{""aha"":4}","[0]","../img/tt/080tt.jpg","",""
"null","<div style=""font-size:60px;""> </div>","null","fixation","html-keyboard-response","48","393022","0.0-6.0-0.6","3086270","co38434","norming","","","","","","",""
"null","../img/tt/056tt.jpg","null","mooney1","image-keyboard-response","49","396031","0.0-6.0-1.6","3086270","co38434","norming","","","","","","",""
"5985.309999999998","","","post_mooney1_questions","survey-likert","50","402022","0.0-6.0-2.6","3086270","co38434","norming","","","{""curiosity"":5,""confidence"":1}","[0,1]","../img/tt/056tt.jpg","",""
"1694.1050000005052","","","recognition","survey-text","51","403718","0.0-6.0-3.6","3086270","co38434","norming","","","{""guess"":""""}","","../img/tt/056tt.jpg","",""
"null","../img/gs/056gs.jpg","null","reveal","image-keyboard-response","52","405728","0.0-6.0-4.6","3086270","co38434","norming","","","","","","",""
"null","../img/tt/056tt.jpg","null","mooney2","image-keyboard-response","53","407731","0.0-6.0-5.6","3086270","co38434","norming","","","","","","",""
"2048.7749999992666","","","post_reveal_questions","survey-likert","54","409782","0.0-6.0-6.6","3086270","co38434","norming","","","{""aha"":4}","[0]","../img/tt/056tt.jpg","",""
"null","<div style=""font-size:60px;""> </div>","null","fixation","html-keyboard-response","55","409985","0.0-6.0-0.7","3086270","co38434","norming","","","","","","",""
"null","../img/tt/515tt.jpg","null","mooney1","image-keyboard-response","56","412990","0.0-6.0-1.7","3086270","co38434","norming","","","","","","",""
"20276.735000000393","","","post_mooney1_questions","survey-likert","57","433270","0.0-6.0-2.7","3086270","co38434","norming","","","{""curiosity"":5,""confidence"":1}","[0,1]","../img/tt/515tt.jpg","",""
"3702.209999999497","","","recognition","survey-text","58","436974","0.0-6.0-3.7","3086270","co38434","norming","","","{""guess"":""bril""}","","../img/tt/515tt.jpg","",""
"null","../img/gs/515gs.jpg","null","reveal","image-keyboard-response","59","438975","0.0-6.0-4.7","3086270","co38434","norming","","","","","","",""
"null","../img/tt/515tt.jpg","null","mooney2","image-keyboard-response","60","440984","0.0-6.0-5.7","3086270","co38434","norming","","","","","","",""
"2611.369999999646","","","post_reveal_questions","survey-likert","61","443598","0.0-6.0-6.7","3086270","co38434","norming","","","{""aha"":4}","[0]","../img/tt/515tt.jpg","",""
"null","<div style=""font-size:60px;""> </div>","null","fixation","html-keyboard-response","62","443804","0.0-6.0-0.8","3086270","co38434","norming","","","","","","",""
"null","../img/tt/590tt.jpg","null","mooney1","image-keyboard-response","63","446809","0.0-6.0-1.8","3086270","co38434","norming","","","","","","",""
"8097.754999999772","","","post_mooney1_questions","survey-likert","64","454910","0.0-6.0-2.8","3086270","co38434","norming","","","{""curiosity"":5,""confidence"":1}","[0,1]","../img/tt/590tt.jpg","",""
"3222.310000000114","","","recognition","survey-text","65","458134","0.0-6.0-3.8","3086270","co38434","norming","","","{""guess"":""""}","","../img/tt/590tt.jpg","",""
"null","../img/gs/590gs.jpg","null","reveal","image-keyboard-response","66","460141","0.0-6.0-4.8","3086270","co38434","norming","","","","","","",""
"null","../img/tt/590tt.jpg","null","mooney2","image-keyboard-response","67","462153","0.0-6.0-5.8","3086270","co38434","norming","","","","","","",""
"1678.65500000061","","","post_reveal_questions","survey-likert","68","463834","0.0-6.0-6.8","3086270","co38434","norming","","","{""aha"":3}","[0]","../img/tt/590tt.jpg","",""
"null","<div style=""font-size:60px;""> </div>","null","fixation","html-keyboard-response","69","464045","0.0-6.0-0.9","3086270","co38434","norming","","","","","","",""
"null","../img/tt/1123tt.jpg","null","mooney1","image-keyboard-response","70","467049","0.0-6.0-1.9","3086270","co38434","norming","","","","","","",""
"9598.35000000021","","","post_mooney1_questions","survey-likert","71","476650","0.0-6.0-2.9","3086270","co38434","norming","","","{""curiosity"":4,""confidence"":1}","[0,1]","../img/tt/1123tt.jpg","",""
"2486.1350000000675","","","recognition","survey-text","72","479138","0.0-6.0-3.9","3086270","co38434","norming","","","{""guess"":""maan""}","","../img/tt/1123tt.jpg","",""
"null","../img/gs/1123gs.jpg","null","reveal","image-keyboard-response","73","481145","0.0-6.0-4.9","3086270","co38434","norming","","","","","","",""
"null","../img/tt/1123tt.jpg","null","mooney2","image-keyboard-response","74","483156","0.0-6.0-5.9","3086270","co38434","norming","","","","","","",""
"2346.8149999998277","","","post_reveal_questions","survey-likert","75","485506","0.0-6.0-6.9","3086270","co38434","norming","","","{""aha"":3}","[0]","../img/tt/1123tt.jpg","",""
"null","<div style=""font-size:60px;""> </div>","null","fixation","html-keyboard-response","76","485707","0.0-6.0-0.10","3086270","co38434","norming","","","","","","",""
"null","../img/tt/1154tt.jpg","null","mooney1","image-keyboard-response","77","488711","0.0-6.0-1.10","3086270","co38434","norming","","","","","","",""
"4312.750000000058","","","post_mooney1_questions","survey-likert","78","493026","0.0-6.0-2.10","3086270","co38434","norming","","","{""curiosity"":5,""confidence"":0}","[0,1]","../img/tt/1154tt.jpg","",""
"1014.0199999996112","","","recognition","survey-text","79","494042","0.0-6.0-3.10","3086270","co38434","norming","","","{""guess"":""""}","","../img/tt/1154tt.jpg","",""
"null","../img/gs/1154gs.jpg","null","reveal","image-keyboard-response","80","496043","0.0-6.0-4.10","3086270","co38434","norming","","","","","","",""
"null","../img/tt/1154tt.jpg","null","mooney2","image-keyboard-response","81","498045","0.0-6.0-5.10","3086270","co38434","norming","","","","","","",""
"3874.259999999602","","","post_reveal_questions","survey-likert","82","501922","0.0-6.0-6.10","3086270","co38434","norming","","","{""aha"":3}","[0]","../img/tt/1154tt.jpg","",""
"null","<div style=""font-size:60px;""> </div>","null","fixation","html-keyboard-response","83","502128","0.0-6.0-0.11","3086270","co38434","norming","","","","","","",""
"null","../img/tt/1040tt.jpg","null","mooney1","image-keyboard-response","84","505136","0.0-6.0-1.11","3086270","co38434","norming","","","","","","",""
"5088.774999999267","","","post_mooney1_questions","survey-likert","85","510226","0.0-6.0-2.11","3086270","co38434","norming","","","{""curiosity"":5,""confidence"":0}","[0,1]","../img/tt/1040tt.jpg","",""
"2086.1299999997136","","","recognition","survey-text","86","512314","0.0-6.0-3.11","3086270","co38434","norming","","","{""guess"":""""}","","../img/tt/1040tt.jpg","",""
"null","../img/gs/1040gs.jpg","null","reveal","image-keyboard-response","87","514324","0.0-6.0-4.11","3086270","co38434","norming","","","","","","",""
"null","../img/tt/1040tt.jpg","null","mooney2","image-keyboard-response","88","516334","0.0-6.0-5.11","3086270","co38434","norming","","","","","","",""
"2401.9800000005052","","","post_reveal_questions","survey-likert","89","518738","0.0-6.0-6.11","3086270","co38434","norming","","","{""aha"":4}","[0]","../img/tt/1040tt.jpg","",""
"null","<div style=""font-size:60px;""> </div>","null","fixation","html-keyboard-response","90","518945","0.0-6.0-0.12","3086270","co38434","norming","","","","","","",""
"null","../img/tt/1069tt.jpg","null","mooney1","image-keyboard-response","91","521951","0.0-6.0-1.12","3086270","co38434","norming","","","","","","",""
"5256.100000000559","","","post_mooney1_questions","survey-likert","92","527210","0.0-6.0-2.12","3086270","co38434","norming","","","{""curiosity"":5,""confidence"":0}","[0,1]","../img/tt/1069tt.jpg","",""
"886.1799999994691","","","recognition","survey-text","93","528098","0.0-6.0-3.12","3086270","co38434","norming","","","{""guess"":""""}","","../img/tt/1069tt.jpg","",""
"null","../img/gs/1069gs.jpg","null","reveal","image-keyboard-response","94","530102","0.0-6.0-4.12","3086270","co38434","norming","","","","","","",""
"null","../img/tt/1069tt.jpg","null","mooney2","image-keyboard-response","95","532108","0.0-6.0-5.12","3086270","co38434","norming","","","","","","",""
"1803.6049999999814","","","post_reveal_questions","survey-likert","96","533914","0.0-6.0-6.12","3086270","co38434","norming","","","{""aha"":4}","[0]","../img/tt/1069tt.jpg","",""
"null","<div style=""font-size:60px;""> </div>","null","fixation","html-keyboard-response","97","534125","0.0-6.0-0.13","3086270","co38434","norming","","","","","","",""
"null","../img/tt/549tt.jpg","null","mooney1","image-keyboard-response","98","537131","0.0-6.0-1.13","3086270","co38434","norming","","","","","","",""
"4260.105000000331","","","post_mooney1_questions","survey-likert","99","541394","0.0-6.0-2.13","3086270","co38434","norming","","","{""curiosity"":5,""confidence"":0}","[0,1]","../img/tt/549tt.jpg","",""
"1630.3649999999907","","","recognition","survey-text","100","543026","0.0-6.0-3.13","3086270","co38434","norming","","","{""guess"":""""}","","../img/tt/549tt.jpg","",""
"null","../img/gs/549gs.jpg","null","reveal","image-keyboard-response","101","545034","0.0-6.0-4.13","3086270","co38434","norming","","","","","","",""
"null","../img/tt/549tt.jpg","null","mooney2","image-keyboard-response","102","547038","0.0-6.0-5.13","3086270","co38434","norming","","","","","","",""
"2842.2249999993946","","","post_reveal_questions","survey-likert","103","549882","0.0-6.0-6.13","3086270","co38434","norming","","","{""aha"":4}","[0]","../img/tt/549tt.jpg","",""
"null","<div style=""font-size:60px;""> </div>","null","fixation","html-keyboard-response","104","550092","0.0-6.0-0.14","3086270","co38434","norming","","","","","","",""
"null","../img/tt/307tt.jpg","null","mooney1","image-keyboard-response","105","553103","0.0-6.0-1.14","3086270","co38434","norming","","","","","","",""
"6330.25500000082","","","post_mooney1_questions","survey-likert","106","559434","0.0-6.0-2.14","3086270","co38434","norming","","","{""curiosity"":5,""confidence"":0}","[0,1]","../img/tt/307tt.jpg","",""
"782.0000000001164","","","recognition","survey-text","107","560218","0.0-6.0-3.14","3086270","co38434","norming","","","{""guess"":""""}","","../img/tt/307tt.jpg","",""
"null","../img/gs/307gs.jpg","null","reveal","image-keyboard-response","108","562227","0.0-6.0-4.14","3086270","co38434","norming","","","","","","",""
"null","../img/tt/307tt.jpg","null","mooney2","image-keyboard-response","109","564236","0.0-6.0-5.14","3086270","co38434","norming","","","","","","",""
"2603.780000000377","","","post_reveal_questions","survey-likert","110","566842","0.0-6.0-6.14","3086270","co38434","norming","","","{""aha"":4}","[0]","../img/tt/307tt.jpg","",""
"null","<div style=""font-size:60px;""> </div>","null","fixation","html-keyboard-response","111","567048","0.0-6.0-0.15","3086270","co38434","norming","","","","","","",""
"null","../img/tt/522tt.jpg","null","mooney1","image-keyboard-response","112","570058","0.0-6.0-1.15","3086270","co38434","norming","","","","","","",""
"5893.829999999958","","","post_mooney1_questions","survey-likert","113","575954","0.0-6.0-2.15","3086270","co38434","norming","","","{""curiosity"":5,""confidence"":0}","[0,1]","../img/tt/522tt.jpg","",""
"989.7799999997951","","","recognition","survey-text","114","576946","0.0-6.0-3.15","3086270","co38434","norming","","","{""guess"":""""}","","../img/tt/522tt.jpg","",""
"null","../img/gs/522gs.jpg","null","reveal","image-keyboard-response","115","578950","0.0-6.0-4.15","3086270","co38434","norming","","","","","","",""
"null","../img/tt/522tt.jpg","null","mooney2","image-keyboard-response","116","580959","0.0-6.0-5.15","3086270","co38434","norming","","","","","","",""
"4744.780000000028","","","post_reveal_questions","survey-likert","117","585702","0.0-6.0-6.15","3086270","co38434","norming","","","{""aha"":5}","[0]","../img/tt/522tt.jpg","",""
"null","<div style=""font-size:60px;""> </div>","null","fixation","html-keyboard-response","118","585909","0.0-6.0-0.16","3086270","co38434","norming","","","","","","",""
"null","../img/tt/1211tt.jpg","null","mooney1","image-keyboard-response","119","588919","0.0-6.0-1.16","3086270","co38434","norming","","","","","","",""
"6660.70499999926","","","post_mooney1_questions","survey-likert","120","595582","0.0-6.0-2.16","3086270","co38434","norming","","","{""curiosity"":5,""confidence"":1}","[0,1]","../img/tt/1211tt.jpg","",""
"2813.969999999157","","","recognition","survey-text","121","598398","0.0-6.0-3.16","3086270","co38434","norming","","","{""guess"":""bord""}","","../img/tt/1211tt.jpg","",""
"null","../img/gs/1211gs.jpg","null","reveal","image-keyboard-response","122","600400","0.0-6.0-4.16","3086270","co38434","norming","","","","","","",""
"null","../img/tt/1211tt.jpg","null","mooney2","image-keyboard-response","123","602405","0.0-6.0-5.16","3086270","co38434","norming","","","","","","",""
"3366.7299999997485","","","post_reveal_questions","survey-likert","124","605774","0.0-6.0-6.16","3086270","co38434","norming","","","{""aha"":4}","[0]","../img/tt/1211tt.jpg","",""
"null","<div style=""font-size:60px;""> </div>","null","fixation","html-keyboard-response","125","605978","0.0-6.0-0.17","3086270","co38434","norming","","","","","","",""
"null","../img/tt/078tt.jpg","null","mooney1","image-keyboard-response","126","608984","0.0-6.0-1.17","3086270","co38434","norming","","","","","","",""
"3027.7650000007125","","","post_mooney1_questions","survey-likert","127","612014","0.0-6.0-2.17","3086270","co38434","norming","","","{""curiosity"":5,""confidence"":2}","[0,1]","../img/tt/078tt.jpg","",""
"2093.9699999998556","","","recognition","survey-text","128","614110","0.0-6.0-3.17","3086270","co38434","norming","","","{""guess"":""druiven""}","","../img/tt/078tt.jpg","",""
"null","../img/gs/078gs.jpg","null","reveal","image-keyboard-response","129","616117","0.0-6.0-4.17","3086270","co38434","norming","","","","","","",""
"null","../img/tt/078tt.jpg","null","mooney2","image-keyboard-response","130","618128","0.0-6.0-5.17","3086270","co38434","norming","","","","","","",""
"3868.2850000004983","","","post_reveal_questions","survey-likert","131","621998","0.0-6.0-6.17","3086270","co38434","norming","","","{""aha"":0}","[0]","../img/tt/078tt.jpg","",""
"null","<div style=""font-size:60px;""> </div>","null","fixation","html-keyboard-response","132","622209","0.0-6.0-0.18","3086270","co38434","norming","","","","","","",""
"null","../img/tt/081tt.jpg","null","mooney1","image-keyboard-response","133","625218","0.0-6.0-1.18","3086270","co38434","norming","","","","","","",""
"5817.33499999973","","","post_mooney1_questions","survey-likert","134","631039","0.0-6.0-2.18","3086270","co38434","norming","","","{""curiosity"":5,""confidence"":1}","[0,1]","../img/tt/081tt.jpg","",""
"2797.909999999334","","","recognition","survey-text","135","633838","0.0-6.0-3.18","3086270","co38434","norming","","","{""guess"":""handdoek""}","","../img/tt/081tt.jpg","",""
"null","../img/gs/081gs.jpg","null","reveal","image-keyboard-response","136","635844","0.0-6.0-4.18","3086270","co38434","norming","","","","","","",""
"null","../img/tt/081tt.jpg","null","mooney2","image-keyboard-response","137","637846","0.0-6.0-5.18","3086270","co38434","norming","","","","","","",""
"1990.0599999991246","","","post_reveal_questions","survey-likert","138","639838","0.0-6.0-6.18","3086270","co38434","norming","","","{""aha"":4}","[0]","../img/tt/081tt.jpg","",""
"null","<div style=""font-size:60px;""> </div>","null","fixation","html-keyboard-response","139","640042","0.0-6.0-0.19","3086270","co38434","norming","","","","","","",""
"null","../img/tt/1171tt.jpg","null","mooney1","image-keyboard-response","140","643053","0.0-6.0-1.19","3086270","co38434","norming","","","","","","",""
"4211.150000000023","","","post_mooney1_questions","survey-likert","141","647267","0.0-6.0-2.19","3086270","co38434","norming","","","{""curiosity"":5,""confidence"":1}","[0,1]","../img/tt/1171tt.jpg","",""
"1966.1599999999162","","","recognition","survey-text","142","649234","0.0-6.0-3.19","3086270","co38434","norming","","","{""guess"":""clown""}","","../img/tt/1171tt.jpg","",""
"null","../img/gs/1171gs.jpg","null","reveal","image-keyboard-response","143","651236","0.0-6.0-4.19","3086270","co38434","norming","","","","","","",""
"null","../img/tt/1171tt.jpg","null","mooney2","image-keyboard-response","144","653245","0.0-6.0-5.19","3086270","co38434","norming","","","","","","",""
"5139.475000000908","","","post_reveal_questions","survey-likert","145","658386","0.0-6.0-6.19","3086270","co38434","norming","","","{""aha"":2}","[0]","../img/tt/1171tt.jpg","",""
"null","<div style=""font-size:60px;""> </div>","null","fixation","html-keyboard-response","146","658588","0.0-6.0-0.20","3086270","co38434","norming","","","","","","",""
"null","../img/tt/300tt.jpg","null","mooney1","image-keyboard-response","147","661593","0.0-6.0-1.20","3086270","co38434","norming","","","","","","",""
"5032.6450000002515","","","post_mooney1_questions","survey-likert","148","666627","0.0-6.0-2.20","3086270","co38434","norming","","","{""curiosity"":5,""confidence"":2}","[0,1]","../img/tt/300tt.jpg","",""
"1822.2649999997811","","","recognition","survey-text","149","668450","0.0-6.0-3.20","3086270","co38434","norming","","","{""guess"":""aap""}","","../img/tt/300tt.jpg","",""
"null","../img/gs/300gs.jpg","null","reveal","image-keyboard-response","150","670456","0.0-6.0-4.20","3086270","co38434","norming","","","","","","",""
"null","../img/tt/300tt.jpg","null","mooney2","image-keyboard-response","151","672462","0.0-6.0-5.20","3086270","co38434","norming","","","","","","",""
"4777.624999999767","","","post_reveal_questions","survey-likert","152","677242","0.0-6.0-6.20","3086270","co38434","norming","","","{""aha"":4}","[0]","../img/tt/300tt.jpg","",""
"null","<div style=""font-size:60px;""> </div>","null","fixation","html-keyboard-response","153","677449","0.0-6.0-0.21","3086270","co38434","norming","","","","","","",""
"null","../img/tt/1097tt.jpg","null","mooney1","image-keyboard-response","154","680453","0.0-6.0-1.21","3086270","co38434","norming","","","","","","",""
"7915.509999999893","","","post_mooney1_questions","survey-likert","155","688371","0.0-6.0-2.21","3086270","co38434","norming","","","{""curiosity"":5,""confidence"":1}","[0,1]","../img/tt/1097tt.jpg","",""
"5037.989999999874","","","recognition","survey-text","156","693410","0.0-6.0-3.21","3086270","co38434","norming","","","{""guess"":""man met camera""}","","../img/tt/1097tt.jpg","",""
"null","../img/gs/1097gs.jpg","null","reveal","image-keyboard-response","157","695420","0.0-6.0-4.21","3086270","co38434","norming","","","","","","",""
"null","../img/tt/1097tt.jpg","null","mooney2","image-keyboard-response","158","697422","0.0-6.0-5.21","3086270","co38434","norming","","","","","","",""
"4089.6450000000186","","","post_reveal_questions","survey-likert","159","701514","0.0-6.0-6.21","3086270","co38434","norming","","","{""aha"":5}","[0]","../img/tt/1097tt.jpg","",""
"null","<div style=""font-size:60px;""> </div>","null","fixation","html-keyboard-response","160","701723","0.0-6.0-0.22","3086270","co38434","norming","","","","","","",""
"null","../img/tt/1033tt.jpg","null","mooney1","image-keyboard-response","161","704731","0.0-6.0-1.22","3086270","co38434","norming","","","","","","",""
"5268.3899999993155","","","post_mooney1_questions","survey-likert","162","710003","0.0-6.0-2.22","3086270","co38434","norming","","","{""curiosity"":5,""confidence"":0}","[0,1]","../img/tt/1033tt.jpg","",""
"837.9800000002142","","","recognition","survey-text","163","710842","0.0-6.0-3.22","3086270","co38434","norming","","","{""guess"":""""}","","../img/tt/1033tt.jpg","",""
"null","../img/gs/1033gs.jpg","null","reveal","image-keyboard-response","164","712853","0.0-6.0-4.22","3086270","co38434","norming","","","","","","",""
"null","../img/tt/1033tt.jpg","null","mooney2","image-keyboard-response","165","714860","0.0-6.0-5.22","3086270","co38434","norming","","","","","","",""
"2020.6250000001164","","","post_reveal_questions","survey-likert","166","716883","0.0-6.0-6.22","3086270","co38434","norming","","","{""aha"":4}","[0]","../img/tt/1033tt.jpg","",""
"null","<div style=""font-size:60px;""> </div>","null","fixation","html-keyboard-response","167","717087","0.0-6.0-0.23","3086270","co38434","norming","","","","","","",""
"null","../img/tt/438tt.jpg","null","mooney1","image-keyboard-response","168","720092","0.0-6.0-1.23","3086270","co38434","norming","","","","","","",""
"5899.015000000014","","","post_mooney1_questions","survey-likert","169","725994","0.0-6.0-2.23","3086270","co38434","norming","","","{""curiosity"":5,""confidence"":1}","[0,1]","../img/tt/438tt.jpg","",""
"2246.4650000002002","","","recognition","survey-text","170","728243","0.0-6.0-3.23","3086270","co38434","norming","","","{""guess"":""borst""}","","../img/tt/438tt.jpg","",""
"null","../img/gs/438gs.jpg","null","reveal","image-keyboard-response","171","730247","0.0-6.0-4.23","3086270","co38434","norming","","","","","","",""
"null","../img/tt/438tt.jpg","null","mooney2","image-keyboard-response","172","732252","0.0-6.0-5.23","3086270","co38434","norming","","","","","","",""
"4220.035000000265","","","post_reveal_questions","survey-likert","173","736475","0.0-6.0-6.23","3086270","co38434","norming","","","{""aha"":2}","[0]","../img/tt/438tt.jpg","",""
"null","<div style=""font-size:60px;""> </div>","null","fixation","html-keyboard-response","174","736680","0.0-6.0-0.24","3086270","co38434","norming","","","","","","",""
"null","../img/tt/435tt.jpg","null","mooney1","image-keyboard-response","175","739683","0.0-6.0-1.24","3086270","co38434","norming","","","","","","",""
"4957.455000000657","","","post_mooney1_questions","survey-likert","176","744643","0.0-6.0-2.24","3086270","co38434","norming","","","{""curiosity"":5,""confidence"":1}","[0,1]","../img/tt/435tt.jpg","",""
"2078.1399999995483","","","recognition","survey-text","177","746723","0.0-6.0-3.24","3086270","co38434","norming","","","{""guess"":""boek""}","","../img/tt/435tt.jpg","",""
"null","../img/gs/435gs.jpg","null","reveal","image-keyboard-response","178","748732","0.0-6.0-4.24","3086270","co38434","norming","","","","","","",""
"null","../img/tt/435tt.jpg","null","mooney2","image-keyboard-response","179","750739","0.0-6.0-5.24","3086270","co38434","norming","","","","","","",""
"2884.6649999995716","","","post_reveal_questions","survey-likert","180","753626","0.0-6.0-6.24","3086270","co38434","norming","","","{""aha"":4}","[0]","../img/tt/435tt.jpg","",""
"null","<div style=""font-size:60px;""> </div>","null","fixation","html-keyboard-response","181","753830","0.0-6.0-0.25","3086270","co38434","norming","","","","","","",""
"null","../img/tt/1084tt.jpg","null","mooney1","image-keyboard-response","182","756841","0.0-6.0-1.25","3086270","co38434","norming","","","","","","",""
"6638.384999999311","","","post_mooney1_questions","survey-likert","183","763483","0.0-6.0-2.25","3086270","co38434","norming","","","{""curiosity"":5,""confidence"":1}","[0,1]","../img/tt/1084tt.jpg","",""
"2646.114999999525","","","recognition","survey-text","184","766127","0.0-6.0-3.25","3086270","co38434","norming","","","{""guess"":""tas thee""}","","../img/tt/1084tt.jpg","",""
"null","../img/gs/1084gs.jpg","null","reveal","image-keyboard-response","185","768130","0.0-6.0-4.25","3086270","co38434","norming","","","","","","",""
"null","../img/tt/1084tt.jpg","null","mooney2","image-keyboard-response","186","770139","0.0-6.0-5.25","3086270","co38434","norming","","","","","","",""
"3953.5399999995716","","","post_reveal_questions","survey-likert","187","774095","0.0-6.0-6.25","3086270","co38434","norming","","","{""aha"":4}","[0]","../img/tt/1084tt.jpg","",""
"null","<div style=""font-size:60px;""> </div>","null","fixation","html-keyboard-response","188","774296","0.0-6.0-0.26","3086270","co38434","norming","","","","","","",""
"null","../img/tt/052tt.jpg","null","mooney1","image-keyboard-response","189","777305","0.0-6.0-1.26","3086270","co38434","norming","","","","","","",""
"4995.074999999837","","","post_mooney1_questions","survey-likert","190","782303","0.0-6.0-2.26","3086270","co38434","norming","","","{""curiosity"":5,""confidence"":1}","[0,1]","../img/tt/052tt.jpg","",""
"2558.179999999935","","","recognition","survey-text","191","784863","0.0-6.0-3.26","3086270","co38434","norming","","","{""guess"":""bol kaas""}","","../img/tt/052tt.jpg","",""
"null","../img/gs/052gs.jpg","null","reveal","image-keyboard-response","192","786864","0.0-6.0-4.26","3086270","co38434","norming","","","","","","",""
"null","../img/tt/052tt.jpg","null","mooney2","image-keyboard-response","193","788872","0.0-6.0-5.26","3086270","co38434","norming","","","","","","",""
"3827.7800000004936","","","post_reveal_questions","survey-likert","194","792703","0.0-6.0-6.26","3086270","co38434","norming","","","{""aha"":4}","[0]","../img/tt/052tt.jpg","",""
"null","<div style=""font-size:60px;""> </div>","null","fixation","html-keyboard-response","195","792908","0.0-6.0-0.27","3086270","co38434","norming","","","","","","",""
"null","../img/tt/1353tt.jpg","null","mooney1","image-keyboard-response","196","795917","0.0-6.0-1.27","3086270","co38434","norming","","","","","","",""
"4918.935000000638","","","post_mooney1_questions","survey-likert","197","800839","0.0-6.0-2.27","3086270","co38434","norming","","","{""curiosity"":5,""confidence"":1}","[0,1]","../img/tt/1353tt.jpg","",""
"2166.024999999441","","","recognition","survey-text","198","803007","0.0-6.0-3.27","3086270","co38434","norming","","","{""guess"":""sokpop""}","","../img/tt/1353tt.jpg","",""
"null","../img/gs/1353gs.jpg","null","reveal","image-keyboard-response","199","805016","0.0-6.0-4.27","3086270","co38434","norming","","","","","","",""
"null","../img/tt/1353tt.jpg","null","mooney2","image-keyboard-response","200","807024","0.0-6.0-5.27","3086270","co38434","norming","","","","","","",""
"2764.2099999993807","","","post_reveal_questions","survey-likert","201","809791","0.0-6.0-6.27","3086270","co38434","norming","","","{""aha"":4}","[0]","../img/tt/1353tt.jpg","",""
"null","<div style=""font-size:60px;""> </div>","null","fixation","html-keyboard-response","202","809992","0.0-6.0-0.28","3086270","co38434","norming","","","","","","",""
"null","../img/tt/1061tt.jpg","null","mooney1","image-keyboard-response","203","813004","0.0-6.0-1.28","3086270","co38434","norming","","","","","","",""
"5296.185000000172","","","post_mooney1_questions","survey-likert","204","818303","0.0-6.0-2.28","3086270","co38434","norming","","","{""curiosity"":5,""confidence"":0}","[0,1]","../img/tt/1061tt.jpg","",""
"957.9199999998091","","","recognition","survey-text","205","819263","0.0-6.0-3.28","3086270","co38434","norming","","","{""guess"":""""}","","../img/tt/1061tt.jpg","",""
"null","../img/gs/1061gs.jpg","null","reveal","image-keyboard-response","206","821265","0.0-6.0-4.28","3086270","co38434","norming","","","","","","",""
"null","../img/tt/1061tt.jpg","null","mooney2","image-keyboard-response","207","823267","0.0-6.0-5.28","3086270","co38434","norming","","","","","","",""
"4113.035000000265","","","post_reveal_questions","survey-likert","208","827381","0.0-6.0-6.28","3086270","co38434","norming","","","{""aha"":3}","[0]","../img/tt/1061tt.jpg","",""
"null","<div style=""font-size:60px;""> </div>","null","fixation","html-keyboard-response","209","827589","0.0-6.0-0.29","3086270","co38434","norming","","","","","","",""
"null","../img/tt/1143tt.jpg","null","mooney1","image-keyboard-response","210","830597","0.0-6.0-1.29","3086270","co38434","norming","","","","","","",""
"5069.360000000452","","","post_mooney1_questions","survey-likert","211","835669","0.0-6.0-2.29","3086270","co38434","norming","","","{""curiosity"":5,""confidence"":5}","[0,1]","../img/tt/1143tt.jpg","",""
"5462.029999999679","","","recognition","survey-text","212","841133","0.0-6.0-3.29","3086270","co38434","norming","","","{""guess"":""fitessruimte""}","","../img/tt/1143tt.jpg","",""
"null","../img/gs/1143gs.jpg","null","reveal","image-keyboard-response","213","843134","0.0-6.0-4.29","3086270","co38434","norming","","","","","","",""
"null","../img/tt/1143tt.jpg","null","mooney2","image-keyboard-response","214","845143","0.0-6.0-5.29","3086270","co38434","norming","","","","","","",""
"5684.040000000154","","","post_reveal_questions","survey-likert","215","850829","0.0-6.0-6.29","3086270","co38434","norming","","","{""aha"":0}","[0]","../img/tt/1143tt.jpg","",""
"null","<div style=""font-size:60px;""> </div>","null","fixation","html-keyboard-response","216","851038","0.0-6.0-0.30","3086270","co38434","norming","","","","","","",""
"null","../img/tt/1091tt.jpg","null","mooney1","image-keyboard-response","217","854049","0.0-6.0-1.30","3086270","co38434","norming","","","","","","",""
"4089.0100000005914","","","post_mooney1_questions","survey-likert","218","858141","0.0-6.0-2.30","3086270","co38434","norming","","","{""curiosity"":5,""confidence"":1}","[0,1]","../img/tt/1091tt.jpg","",""
"1997.940000000177","","","recognition","survey-text","219","860141","0.0-6.0-3.30","3086270","co38434","norming","","","{""guess"":""paard""}","","../img/tt/1091tt.jpg","",""
"null","../img/gs/1091gs.jpg","null","reveal","image-keyboard-response","220","862148","0.0-6.0-4.30","3086270","co38434","norming","","","","","","",""
"null","../img/tt/1091tt.jpg","null","mooney2","image-keyboard-response","221","864150","0.0-6.0-5.30","3086270","co38434","norming","","","","","","",""
"2036.7249999998603","","","post_reveal_questions","survey-likert","222","866189","0.0-6.0-6.30","3086270","co38434","norming","","","{""aha"":5}","[0]","../img/tt/1091tt.jpg","",""
"null","<div style=""font-size:60px;""> </div>","null","fixation","html-keyboard-response","223","866394","0.0-6.0-0.31","3086270","co38434","norming","","","","","","",""
"null","../img/tt/1260tt.jpg","null","mooney1","image-keyboard-response","224","869397","0.0-6.0-1.31","3086270","co38434","norming","","","","","","",""
"6844.444999999716","","","post_mooney1_questions","survey-likert","225","876245","0.0-6.0-2.31","3086270","co38434","norming","","","{""curiosity"":5,""confidence"":1}","[0,1]","../img/tt/1260tt.jpg","",""
"3990.1149999996414","","","recognition","survey-text","226","880237","0.0-6.0-3.31","3086270","co38434","norming","","","{""guess"":""muis of rat""}","","../img/tt/1260tt.jpg","",""
"null","../img/gs/1260gs.jpg","null","reveal","image-keyboard-response","227","882239","0.0-6.0-4.31","3086270","co38434","norming","","","","","","",""
"null","../img/tt/1260tt.jpg","null","mooney2","image-keyboard-response","228","884243","0.0-6.0-5.31","3086270","co38434","norming","","","","","","",""
"4599.720000000205","","","post_reveal_questions","survey-likert","229","888843","0.0-6.0-6.31","3086270","co38434","norming","","","{""aha"":2}","[0]","../img/tt/1260tt.jpg","",""
"null","<div style=""font-size:60px;""> </div>","null","fixation","html-keyboard-response","230","889049","0.0-6.0-0.32","3086270","co38434","norming","","","","","","",""
"null","../img/tt/1247tt.jpg","null","mooney1","image-keyboard-response","231","892061","0.0-6.0-1.32","3086270","co38434","norming","","","","","","",""
"3914.730000000447","","","post_mooney1_questions","survey-likert","232","895979","0.0-6.0-2.32","3086270","co38434","norming","","","{""curiosity"":5,""confidence"":1}","[0,1]","../img/tt/1247tt.jpg","",""
"1837.9899999999907","","","recognition","survey-text","233","897818","0.0-6.0-3.32","3086270","co38434","norming","","","{""guess"":""varken""}","","../img/tt/1247tt.jpg","",""
"null","../img/gs/1247gs.jpg","null","reveal","image-keyboard-response","234","899825","0.0-6.0-4.32","3086270","co38434","norming","","","","","","",""
"null","../img/tt/1247tt.jpg","null","mooney2","image-keyboard-response","235","901827","0.0-6.0-5.32","3086270","co38434","norming","","","","","","",""
"2333.114999999525","","","post_reveal_questions","survey-likert","236","904163","0.0-6.0-6.32","3086270","co38434","norming","","","{""aha"":4}","[0]","../img/tt/1247tt.jpg","",""
"null","<div style=""font-size:60px;""> </div>","null","fixation","html-keyboard-response","237","904367","0.0-6.0-0.33","3086270","co38434","norming","","","","","","",""
"null","../img/tt/1309tt.jpg","null","mooney1","image-keyboard-response","238","907376","0.0-6.0-1.33","3086270","co38434","norming","","","","","","",""
"6617.435000000172","","","post_mooney1_questions","survey-likert","239","913994","0.0-6.0-2.33","3086270","co38434","norming","","","{""curiosity"":5,""confidence"":1}","[0,1]","../img/tt/1309tt.jpg","",""
"4669.115000000689","","","recognition","survey-text","240","918666","0.0-6.0-3.33","3086270","co38434","norming","","","{""guess"":""auto bomen""}","","../img/tt/1309tt.jpg","",""
"null","../img/gs/1309gs.jpg","null","reveal","image-keyboard-response","241","920669","0.0-6.0-4.33","3086270","co38434","norming","","","","","","",""
"null","../img/tt/1309tt.jpg","null","mooney2","image-keyboard-response","242","922679","0.0-6.0-5.33","3086270","co38434","norming","","","","","","",""
"1986.324999999837","","","post_reveal_questions","survey-likert","243","924666","0.0-6.0-6.33","3086270","co38434","norming","","","{""aha"":4}","[0]","../img/tt/1309tt.jpg","",""
"null","<div style=""font-size:60px;""> </div>","null","fixation","html-keyboard-response","244","924877","0.0-6.0-0.34","3086270","co38434","norming","","","","","","",""
"null","../img/tt/1270tt.jpg","null","mooney1","image-keyboard-response","245","927883","0.0-6.0-1.34","3086270","co38434","norming","","","","","","",""
"7622.809999999823","","","post_mooney1_questions","survey-likert","246","935507","0.0-6.0-2.34","3086270","co38434","norming","","","{""curiosity"":5,""confidence"":1}","[0,1]","../img/tt/1270tt.jpg","",""
"2086.4000000001397","","","recognition","survey-text","247","937595","0.0-6.0-3.34","3086270","co38434","norming","","","{""guess"":""raket""}","","../img/tt/1270tt.jpg","",""
"null","../img/gs/1270gs.jpg","null","reveal","image-keyboard-response","248","939598","0.0-6.0-4.34","3086270","co38434","norming","","","","","","",""
"null","../img/tt/1270tt.jpg","null","mooney2","image-keyboard-response","249","941606","0.0-6.0-5.34","3086270","co38434","norming","","","","","","",""
"3963.515000000363","","","post_reveal_questions","survey-likert","250","945570","0.0-6.0-6.34","3086270","co38434","norming","","","{""aha"":3}","[0]","../img/tt/1270tt.jpg","",""
"null","<div style=""font-size:60px;""> </div>","null","fixation","html-keyboard-response","251","945774","0.0-6.0-0.35","3086270","co38434","norming","","","","","","",""
"null","../img/tt/406tt.jpg","null","mooney1","image-keyboard-response","252","948793","0.0-6.0-1.35","3086270","co38434","norming","","","","","","",""
"4306.555000000051","","","post_mooney1_questions","survey-likert","253","953101","0.0-6.0-2.35","3086270","co38434","norming","","","{""curiosity"":5,""confidence"":1}","[0,1]","../img/tt/406tt.jpg","",""
"3814.380000000703","","","recognition","survey-text","254","956917","0.0-6.0-3.35","3086270","co38434","norming","","","{""guess"":""bikini""}","","../img/tt/406tt.jpg","",""
"null","../img/gs/406gs.jpg","null","reveal","image-keyboard-response","255","958926","0.0-6.0-4.35","3086270","co38434","norming","","","","","","",""
"null","../img/tt/406tt.jpg","null","mooney2","image-keyboard-response","256","960928","0.0-6.0-5.35","3086270","co38434","norming","","","","","","",""
"2978.2399999994086","","","post_reveal_questions","survey-likert","257","963909","0.0-6.0-6.35","3086270","co38434","norming","","","{""aha"":4}","[0]","../img/tt/406tt.jpg","",""
"null","<div style=""font-size:60px;""> </div>","null","fixation","html-keyboard-response","258","964112","0.0-6.0-0.36","3086270","co38434","norming","","","","","","",""
"null","../img/tt/1278tt.jpg","null","mooney1","image-keyboard-response","259","967122","0.0-6.0-1.36","3086270","co38434","norming","","","","","","",""
"10048.149999999558","","","post_mooney1_questions","survey-likert","260","977173","0.0-6.0-2.36","3086270","co38434","norming","","","{""curiosity"":5,""confidence"":0}","[0,1]","../img/tt/1278tt.jpg","",""
"838.2500000006985","","","recognition","survey-text","261","978013","0.0-6.0-3.36","3086270","co38434","norming","","","{""guess"":""""}","","../img/tt/1278tt.jpg","",""
"null","../img/gs/1278gs.jpg","null","reveal","image-keyboard-response","262","980015","0.0-6.0-4.36","3086270","co38434","norming","","","","","","",""
"null","../img/tt/1278tt.jpg","null","mooney2","image-keyboard-response","263","982020","0.0-6.0-5.36","3086270","co38434","norming","","","","","","",""
"2533.9000000003725","","","post_reveal_questions","survey-likert","264","984556","0.0-6.0-6.36","3086270","co38434","norming","","","{""aha"":3}","[0]","../img/tt/1278tt.jpg","",""
"null","<div style=""font-size:60px;""> </div>","null","fixation","html-keyboard-response","265","984764","0.0-6.0-0.37","3086270","co38434","norming","","","","","","",""
"null","../img/tt/1243tt.jpg","null","mooney1","image-keyboard-response","266","987772","0.0-6.0-1.37","3086270","co38434","norming","","","","","","",""
"9342.5900000002","","","post_mooney1_questions","survey-likert","267","997117","0.0-6.0-2.37","3086270","co38434","norming","","","{""curiosity"":5,""confidence"":1}","[0,1]","../img/tt/1243tt.jpg","",""
"1509.9899999996414","","","recognition","survey-text","268","998629","0.0-6.0-3.37","3086270","co38434","norming","","","{""guess"":""hek""}","","../img/tt/1243tt.jpg","",""
"null","../img/gs/1243gs.jpg","null","reveal","image-keyboard-response","269","1000634","0.0-6.0-4.37","3086270","co38434","norming","","","","","","",""
"null","../img/tt/1243tt.jpg","null","mooney2","image-keyboard-response","270","1002640","0.0-6.0-5.37","3086270","co38434","norming","","","","","","",""
"2009.8849999995437","","","post_reveal_questions","survey-likert","271","1004653","0.0-6.0-6.37","3086270","co38434","norming","","","{""aha"":4}","[0]","../img/tt/1243tt.jpg","",""
"null","<div style=""font-size:60px;""> </div>","null","fixation","html-keyboard-response","272","1004858","0.0-6.0-0.38","3086270","co38434","norming","","","","","","",""
"null","../img/tt/1307tt.jpg","null","mooney1","image-keyboard-response","273","1007863","0.0-6.0-1.38","3086270","co38434","norming","","","","","","",""
"4796.664999999804","","","post_mooney1_questions","survey-likert","274","1012658","0.0-6.0-2.38","3086270","co38434","norming","","","{""curiosity"":5,""confidence"":1}","[0,1]","../img/tt/1307tt.jpg","",""
"2046.0749999993714","","","recognition","survey-text","275","1014705","0.0-6.0-3.38","3086270","co38434","norming","","","{""guess"":""mas""}","","../img/tt/1307tt.jpg","",""
"null","../img/gs/1307gs.jpg","null","reveal","image-keyboard-response","276","1016707","0.0-6.0-4.38","3086270","co38434","norming","","","","","","",""
"null","../img/tt/1307tt.jpg","null","mooney2","image-keyboard-response","277","1018715","0.0-6.0-5.38","3086270","co38434","norming","","","","","","",""
"2723.5700000001816","","","post_reveal_questions","survey-likert","278","1021441","0.0-6.0-6.38","3086270","co38434","norming","","","{""aha"":4}","[0]","../img/tt/1307tt.jpg","",""
"null","<div style=""font-size:60px;""> </div>","null","fixation","html-keyboard-response","279","1021646","0.0-6.0-0.39","3086270","co38434","norming","","","","","","",""
"null","../img/tt/105tt.jpg","null","mooney1","image-keyboard-response","280","1024647","0.0-6.0-1.39","3086270","co38434","norming","","","","","","",""
"5695.010000000359","","","post_mooney1_questions","survey-likert","281","1030346","0.0-6.0-2.39","3086270","co38434","norming","","","{""curiosity"":5,""confidence"":1}","[0,1]","../img/tt/105tt.jpg","",""
"3189.8300000003073","","","recognition","survey-text","282","1033537","0.0-6.0-3.39","3086270","co38434","norming","","","{""guess"":""paperclips""}","","../img/tt/105tt.jpg","",""
"null","../img/gs/105gs.jpg","null","reveal","image-keyboard-response","283","1035544","0.0-6.0-4.39","3086270","co38434","norming","","","","","","",""
"null","../img/tt/105tt.jpg","null","mooney2","image-keyboard-response","284","1037550","0.0-6.0-5.39","3086270","co38434","norming","","","","","","",""
"2954.584999999497","","","post_reveal_questions","survey-likert","285","1040505","0.0-6.0-6.39","3086270","co38434","norming","","","{""aha"":5}","[0]","../img/tt/105tt.jpg","",""
"null","<div style=""font-size:60px;""> </div>","null","fixation","html-keyboard-response","286","1040716","0.0-6.0-0.40","3086270","co38434","norming","","","","","","",""
"null","../img/tt/007tt.jpg","null","mooney1","image-keyboard-response","287","1043721","0.0-6.0-1.40","3086270","co38434","norming","","","","","","",""
"13109.815000000643","","","post_mooney1_questions","survey-likert","288","1056834","0.0-6.0-2.40","3086270","co38434","norming","","","{""curiosity"":5,""confidence"":2}","[0,1]","../img/tt/007tt.jpg","",""
"1998.0449999994598","","","recognition","survey-text","289","1058833","0.0-6.0-3.40","3086270","co38434","norming","","","{""guess"":""kikker""}","","../img/tt/007tt.jpg","",""
"null","../img/gs/007gs.jpg","null","reveal","image-keyboard-response","290","1060842","0.0-6.0-4.40","3086270","co38434","norming","","","","","","",""
"null","../img/tt/007tt.jpg","null","mooney2","image-keyboard-response","291","1062853","0.0-6.0-5.40","3086270","co38434","norming","","","","","","",""
"3810.0949999997392","","","post_reveal_questions","survey-likert","292","1066665","0.0-6.0-6.40","3086270","co38434","norming","","","{""aha"":0}","[0]","../img/tt/007tt.jpg","",""
"null","<div style=""font-size:60px;""> </div>","null","fixation","html-keyboard-response","293","1066875","0.0-6.0-0.41","3086270","co38434","norming","","","","","","",""
"null","../img/tt/1188tt.jpg","null","mooney1","image-keyboard-response","294","1069880","0.0-6.0-1.41","3086270","co38434","norming","","","","","","",""
"6630.110000000102","","","post_mooney1_questions","survey-likert","295","1076513","0.0-6.0-2.41","3086270","co38434","norming","","","{""curiosity"":4,""confidence"":0}","[0,1]","../img/tt/1188tt.jpg","",""
"1278.0499999998137","","","recognition","survey-text","296","1077793","0.0-6.0-3.41","3086270","co38434","norming","","","{""guess"":""""}","","../img/tt/1188tt.jpg","",""
"null","../img/gs/1188gs.jpg","null","reveal","image-keyboard-response","297","1079802","0.0-6.0-4.41","3086270","co38434","norming","","","","","","",""
"null","../img/tt/1188tt.jpg","null","mooney2","image-keyboard-response","298","1081810","0.0-6.0-5.41","3086270","co38434","norming","","","","","","",""
"2156.435000000056","","","post_reveal_questions","survey-likert","299","1083969","0.0-6.0-6.41","3086270","co38434","norming","","","{""aha"":4}","[0]","../img/tt/1188tt.jpg","",""
"null","<div style=""font-size:60px;""> </div>","null","fixation","html-keyboard-response","300","1084175","0.0-6.0-0.42","3086270","co38434","norming","","","","","","",""
"null","../img/tt/1283tt.jpg","null","mooney1","image-keyboard-response","301","1087180","0.0-6.0-1.42","3086270","co38434","norming","","","","","","",""
"4202.070000000298","","","post_mooney1_questions","survey-likert","302","1091385","0.0-6.0-2.42","3086270","co38434","norming","","","{""curiosity"":5,""confidence"":2}","[0,1]","../img/tt/1283tt.jpg","",""
"1654.2950000003912","","","recognition","survey-text","303","1093041","0.0-6.0-3.42","3086270","co38434","norming","","","{""guess"":""vos""}","","../img/tt/1283tt.jpg","",""
"null","../img/gs/1283gs.jpg","null","reveal","image-keyboard-response","304","1095050","0.0-6.0-4.42","3086270","co38434","norming","","","","","","",""
"null","../img/tt/1283tt.jpg","null","mooney2","image-keyboard-response","305","1097061","0.0-6.0-5.42","3086270","co38434","norming","","","","","","",""
"2358.9149999998044","","","post_reveal_questions","survey-likert","306","1099425","0.0-6.0-6.42","3086270","co38434","norming","","","{""aha"":4}","[0]","../img/tt/1283tt.jpg","",""
"null","<div style=""font-size:60px;""> </div>","null","fixation","html-keyboard-response","307","1099627","0.0-6.0-0.43","3086270","co38434","norming","","","","","","",""
"null","../img/tt/584tt.jpg","null","mooney1","image-keyboard-response","308","1102628","0.0-6.0-1.43","3086270","co38434","norming","","","","","","",""
"6985.340000000084","","","post_mooney1_questions","survey-likert","309","1109617","0.0-6.0-2.43","3086270","co38434","norming","","","{""curiosity"":5,""confidence"":0}","[0,1]","../img/tt/584tt.jpg","",""
"1454.280000000028","","","recognition","survey-text","310","1111073","0.0-6.0-3.43","3086270","co38434","norming","","","{""guess"":"" ""}","","../img/tt/584tt.jpg","",""
"null","../img/gs/584gs.jpg","null","reveal","image-keyboard-response","311","1113083","0.0-6.0-4.43","3086270","co38434","norming","","","","","","",""
"null","../img/tt/584tt.jpg","null","mooney2","image-keyboard-response","312","1115087","0.0-6.0-5.43","3086270","co38434","norming","","","","","","",""
"1821.6450000000186","","","post_reveal_questions","survey-likert","313","1116913","0.0-6.0-6.43","3086270","co38434","norming","","","{""aha"":4}","[0]","../img/tt/584tt.jpg","",""
"null","<div style=""font-size:60px;""> </div>","null","fixation","html-keyboard-response","314","1117124","0.0-6.0-0.44","3086270","co38434","norming","","","","","","",""
"null","../img/tt/315tt.jpg","null","mooney1","image-keyboard-response","315","1120126","0.0-6.0-1.44","3086270","co38434","norming","","","","","","",""
"6879.934999999823","","","post_mooney1_questions","survey-likert","316","1127009","0.0-6.0-2.44","3086270","co38434","norming","","","{""curiosity"":5,""confidence"":3}","[0,1]","../img/tt/315tt.jpg","",""
"2398.035000000149","","","recognition","survey-text","317","1129409","0.0-6.0-3.44","3086270","co38434","norming","","","{""guess"":""vogel""}","","../img/tt/315tt.jpg","",""
"null","../img/gs/315gs.jpg","null","reveal","image-keyboard-response","318","1131416","0.0-6.0-4.44","3086270","co38434","norming","","","","","","",""
"null","../img/tt/315tt.jpg","null","mooney2","image-keyboard-response","319","1133425","0.0-6.0-5.44","3086270","co38434","norming","","","","","","",""
"3052.610000000801","","","post_reveal_questions","survey-likert","320","1136489","0.0-6.0-6.44","3086270","co38434","norming","","","{""aha"":4}","[0]","../img/tt/315tt.jpg","",""
"null","<div style=""font-size:60px;""> </div>","null","fixation","html-keyboard-response","321","1136690","0.0-6.0-0.45","3086270","co38434","norming","","","","","","",""
"null","../img/tt/040tt.jpg","null","mooney1","image-keyboard-response","322","1139698","0.0-6.0-1.45","3086270","co38434","norming","","","","","","",""
"7004.670000000391","","","post_mooney1_questions","survey-likert","323","1146705","0.0-6.0-2.45","3086270","co38434","norming","","","{""curiosity"":5,""confidence"":1}","[0,1]","../img/tt/040tt.jpg","",""
"2294.114999999758","","","recognition","survey-text","324","1149001","0.0-6.0-3.45","3086270","co38434","norming","","","{""guess"":""zwemmer""}","","../img/tt/040tt.jpg","",""
"null","../img/gs/040gs.jpg","null","reveal","image-keyboard-response","325","1151011","0.0-6.0-4.45","3086270","co38434","norming","","","","","","",""
"null","../img/tt/040tt.jpg","null","mooney2","image-keyboard-response","326","1153021","0.0-6.0-5.45","3086270","co38434","norming","","","","","","",""
"3217.1150000004563","","","post_reveal_questions","survey-likert","327","1156241","0.0-6.0-6.45","3086270","co38434","norming","","","{""aha"":4}","[0]","../img/tt/040tt.jpg","",""
"null","<div style=""font-size:60px;""> </div>","null","fixation","html-keyboard-response","328","1156444","0.0-6.0-0.46","3086270","co38434","norming","","","","","","",""
"null","../img/tt/567tt.jpg","null","mooney1","image-keyboard-response","329","1159452","0.0-6.0-1.46","3086270","co38434","norming","","","","","","",""
"4369.064999999944","","","post_mooney1_questions","survey-likert","330","1163825","0.0-6.0-2.46","3086270","co38434","norming","","","{""curiosity"":5,""confidence"":2}","[0,1]","../img/tt/567tt.jpg","",""
"2566.100000000093","","","recognition","survey-text","331","1166393","0.0-6.0-3.46","3086270","co38434","norming","","","{""guess"":""taart""}","","../img/tt/567tt.jpg","",""
"null","../img/gs/567gs.jpg","null","reveal","image-keyboard-response","332","1168395","0.0-6.0-4.46","3086270","co38434","norming","","","","","","",""
"null","../img/tt/567tt.jpg","null","mooney2","image-keyboard-response","333","1170397","0.0-6.0-5.46","3086270","co38434","norming","","","","","","",""
"4464.7949999999255","","","post_reveal_questions","survey-likert","334","1174865","0.0-6.0-6.46","3086270","co38434","norming","","","{""aha"":4}","[0]","../img/tt/567tt.jpg","",""
"null","<div style=""font-size:60px;""> </div>","null","fixation","html-keyboard-response","335","1175067","0.0-6.0-0.47","3086270","co38434","norming","","","","","","",""
"null","../img/tt/085tt.jpg","null","mooney1","image-keyboard-response","336","1178075","0.0-6.0-1.47","3086270","co38434","norming","","","","","","",""
"5778.1600000008475","","","post_mooney1_questions","survey-likert","337","1183857","0.0-6.0-2.47","3086270","co38434","norming","","","{""curiosity"":4,""confidence"":1}","[0,1]","../img/tt/085tt.jpg","",""
"2421.6500000001397","","","recognition","survey-text","338","1186281","0.0-6.0-3.47","3086270","co38434","norming","","","{""guess"":""skelet""}","","../img/tt/085tt.jpg","",""
"null","../img/gs/085gs.jpg","null","reveal","image-keyboard-response","339","1188287","0.0-6.0-4.47","3086270","co38434","norming","","","","","","",""
"null","../img/tt/085tt.jpg","null","mooney2","image-keyboard-response","340","1190292","0.0-6.0-5.47","3086270","co38434","norming","","","","","","",""
"10225.994999999879","","","post_reveal_questions","survey-likert","341","1200516","0.0-6.0-6.47","3086270","co38434","norming","","","{""aha"":3}","[0]","../img/tt/085tt.jpg","",""
"null","<div style=""font-size:60px;""> </div>","null","fixation","html-keyboard-response","342","1200718","0.0-6.0-0.48","3086270","co38434","norming","","","","","","",""
"null","../img/tt/534tt.jpg","null","mooney1","image-keyboard-response","343","1203727","0.0-6.0-1.48","3086270","co38434","norming","","","","","","",""
"3610.295000000391","","","post_mooney1_questions","survey-likert","344","1207341","0.0-6.0-2.48","3086270","co38434","norming","","","{""curiosity"":5,""confidence"":2}","[0,1]","../img/tt/534tt.jpg","",""
"2277.939999999944","","","recognition","survey-text","345","1209620","0.0-6.0-3.48","3086270","co38434","norming","","","{""guess"":""cactus""}","","../img/tt/534tt.jpg","",""
"null","../img/gs/534gs.jpg","null","reveal","image-keyboard-response","346","1211624","0.0-6.0-4.48","3086270","co38434","norming","","","","","","",""
"null","../img/tt/534tt.jpg","null","mooney2","image-keyboard-response","347","1213630","0.0-6.0-5.48","3086270","co38434","norming","","","","","","",""
"5285.7599999997765","","","post_reveal_questions","survey-likert","348","1218916","0.0-6.0-6.48","3086270","co38434","norming","","","{""aha"":1}","[0]","../img/tt/534tt.jpg","",""
"null","<div style=""font-size:60px;""> </div>","null","fixation","html-keyboard-response","349","1219126","0.0-6.0-0.49","3086270","co38434","norming","","","","","","",""
"null","../img/tt/456tt.jpg","null","mooney1","image-keyboard-response","350","1222133","0.0-6.0-1.49","3086270","co38434","norming","","","","","","",""
"5267.5","","","post_mooney1_questions","survey-likert","351","1227405","0.0-6.0-2.49","3086270","co38434","norming","","","{""curiosity"":5,""confidence"":0}","[0,1]","../img/tt/456tt.jpg","",""
"1381.4799999999814","","","recognition","survey-text","352","1228788","0.0-6.0-3.49","3086270","co38434","norming","","","{""guess"":""""}","","../img/tt/456tt.jpg","",""
"null","../img/gs/456gs.jpg","null","reveal","image-keyboard-response","353","1230792","0.0-6.0-4.49","3086270","co38434","norming","","","","","","",""
"null","../img/tt/456tt.jpg","null","mooney2","image-keyboard-response","354","1232794","0.0-6.0-5.49","3086270","co38434","norming","","","","","","",""
"1472.1500000003725","","","post_reveal_questions","survey-likert","355","1234268","0.0-6.0-6.49","3086270","co38434","norming","","","{""aha"":4}","[0]","../img/tt/456tt.jpg","",""
"null","<div style=""font-size:60px;""> </div>","null","fixation","html-keyboard-response","356","1234474","0.0-6.0-0.50","3086270","co38434","norming","","","","","","",""
"null","../img/tt/091tt.jpg","null","mooney1","image-keyboard-response","357","1237478","0.0-6.0-1.50","3086270","co38434","norming","","","","","","",""
"5539.550000000279","","","post_mooney1_questions","survey-likert","358","1243021","0.0-6.0-2.50","3086270","co38434","norming","","","{""curiosity"":4,""confidence"":2}","[0,1]","../img/tt/091tt.jpg","",""
"2053.7599999997765","","","recognition","survey-text","359","1245076","0.0-6.0-3.50","3086270","co38434","norming","","","{""guess"":""zaag""}","","../img/tt/091tt.jpg","",""
"null","../img/gs/091gs.jpg","null","reveal","image-keyboard-response","360","1247079","0.0-6.0-4.50","3086270","co38434","norming","","","","","","",""
"null","../img/tt/091tt.jpg","null","mooney2","image-keyboard-response","361","1249083","0.0-6.0-5.50","3086270","co38434","norming","","","","","","",""
"2743.024999999674","","","post_reveal_questions","survey-likert","362","1251828","0.0-6.0-6.50","3086270","co38434","norming","","","{""aha"":3}","[0]","../img/tt/091tt.jpg","",""
"null","<div style=""font-size:60px;""> </div>","null","fixation","html-keyboard-response","363","1252030","0.0-6.0-0.51","3086270","co38434","norming","","","","","","",""
"null","../img/tt/1226tt.jpg","null","mooney1","image-keyboard-response","364","1255039","0.0-6.0-1.51","3086270","co38434","norming","","","","","","",""
"3834.015000000363","","","post_mooney1_questions","survey-likert","365","1258873","0.0-6.0-2.51","3086270","co38434","norming","","","{""curiosity"":5,""confidence"":2}","[0,1]","../img/tt/1226tt.jpg","",""
"2838.2800000007264","","","recognition","survey-text","366","1261713","0.0-6.0-3.51","3086270","co38434","norming","","","{""guess"":""zwaan""}","","../img/tt/1226tt.jpg","",""
"null","../img/gs/1226gs.jpg","null","reveal","image-keyboard-response","367","1263722","0.0-6.0-4.51","3086270","co38434","norming","","","","","","",""
"null","../img/tt/1226tt.jpg","null","mooney2","image-keyboard-response","368","1265732","0.0-6.0-5.51","3086270","co38434","norming","","","","","","",""
"2482.350000000326","","","post_reveal_questions","survey-likert","369","1268217","0.0-6.0-6.51","3086270","co38434","norming","","","{""aha"":5}","[0]","../img/tt/1226tt.jpg","",""
"null","<div style=""font-size:60px;""> </div>","null","fixation","html-keyboard-response","370","1268420","0.0-6.0-0.52","3086270","co38434","norming","","","","","","",""
"null","../img/tt/270tt.jpg","null","mooney1","image-keyboard-response","371","1271424","0.0-6.0-1.52","3086270","co38434","norming","","","","","","",""
"6309.940000000177","","","post_mooney1_questions","survey-likert","372","1277737","0.0-6.0-2.52","3086270","co38434","norming","","","{""curiosity"":5,""confidence"":0}","[0,1]","../img/tt/270tt.jpg","",""
"725.975000000326","","","recognition","survey-text","373","1278465","0.0-6.0-3.52","3086270","co38434","norming","","","{""guess"":""""}","","../img/tt/270tt.jpg","",""
"null","../img/gs/270gs.jpg","null","reveal","image-keyboard-response","374","1280473","0.0-6.0-4.52","3086270","co38434","norming","","","","","","",""
"null","../img/tt/270tt.jpg","null","mooney2","image-keyboard-response","375","1282483","0.0-6.0-5.52","3086270","co38434","norming","","","","","","",""
"2659.6749999998137","","","post_reveal_questions","survey-likert","376","1285145","0.0-6.0-6.52","3086270","co38434","norming","","","{""aha"":4}","[0]","../img/tt/270tt.jpg","",""
"null","<div style=""font-size:60px;""> </div>","null","fixation","html-keyboard-response","377","1285352","0.0-6.0-0.53","3086270","co38434","norming","","","","","","",""
"null","../img/tt/1250tt.jpg","null","mooney1","image-keyboard-response","378","1288362","0.0-6.0-1.53","3086270","co38434","norming","","","","","","",""
"4035.704999999376","","","post_mooney1_questions","survey-likert","379","1292401","0.0-6.0-2.53","3086270","co38434","norming","","","{""curiosity"":5,""confidence"":2}","[0,1]","../img/tt/1250tt.jpg","",""
"1454.2750000001397","","","recognition","survey-text","380","1293857","0.0-6.0-3.53","3086270","co38434","norming","","","{""guess"":""beer""}","","../img/tt/1250tt.jpg","",""
"null","../img/gs/1250gs.jpg","null","reveal","image-keyboard-response","381","1295860","0.0-6.0-4.53","3086270","co38434","norming","","","","","","",""
"null","../img/tt/1250tt.jpg","null","mooney2","image-keyboard-response","382","1297869","0.0-6.0-5.53","3086270","co38434","norming","","","","","","",""
"1944.8199999998324","","","post_reveal_questions","survey-likert","383","1299817","0.0-6.0-6.53","3086270","co38434","norming","","","{""aha"":2}","[0]","../img/tt/1250tt.jpg","",""
"null","<div style=""font-size:60px;""> </div>","null","fixation","html-keyboard-response","384","1300018","0.0-6.0-0.54","3086270","co38434","norming","","","","","","",""
"null","../img/tt/1191tt.jpg","null","mooney1","image-keyboard-response","385","1303027","0.0-6.0-1.54","3086270","co38434","norming","","","","","","",""
"3331.2649999998976","","","post_mooney1_questions","survey-likert","386","1306361","0.0-6.0-2.54","3086270","co38434","norming","","","{""curiosity"":5,""confidence"":2}","[0,1]","../img/tt/1191tt.jpg","",""
"2709.7199999997392","","","recognition","survey-text","387","1309073","0.0-6.0-3.54","3086270","co38434","norming","","","{""guess"":""herten""}","","../img/tt/1191tt.jpg","",""
"null","../img/gs/1191gs.jpg","null","reveal","image-keyboard-response","388","1311084","0.0-6.0-4.54","3086270","co38434","norming","","","","","","",""
"null","../img/tt/1191tt.jpg","null","mooney2","image-keyboard-response","389","1313087","0.0-6.0-5.54","3086270","co38434","norming","","","","","","",""
"3503.19000000041","","","post_reveal_questions","survey-likert","390","1316593","0.0-6.0-6.54","3086270","co38434","norming","","","{""aha"":5}","[0]","../img/tt/1191tt.jpg","",""
"null","<div style=""font-size:60px;""> </div>","null","fixation","html-keyboard-response","391","1316800","0.0-6.0-0.55","3086270","co38434","norming","","","","","","",""
"null","../img/tt/1234tt.jpg","null","mooney1","image-keyboard-response","392","1319815","0.0-6.0-1.55","3086270","co38434","norming","","","","","","",""
"5560.530000000726","","","post_mooney1_questions","survey-likert","393","1325379","0.0-6.0-2.55","3086270","co38434","norming","","","{""curiosity"":4,""confidence"":1}","[0,1]","../img/tt/1234tt.jpg","",""
"1798.0249999989755","","","recognition","survey-text","394","1327179","0.0-6.0-3.55","3086270","co38434","norming","","","{""guess"":""water""}","","../img/tt/1234tt.jpg","",""
"null","../img/gs/1234gs.jpg","null","reveal","image-keyboard-response","395","1329186","0.0-6.0-4.55","3086270","co38434","norming","","","","","","",""
"null","../img/tt/1234tt.jpg","null","mooney2","image-keyboard-response","396","1331195","0.0-6.0-5.55","3086270","co38434","norming","","","","","","",""
"4292.960000000661","","","post_reveal_questions","survey-likert","397","1335490","0.0-6.0-6.55","3086270","co38434","norming","","","{""aha"":3}","[0]","../img/tt/1234tt.jpg","",""
"null","<div style=""font-size:60px;""> </div>","null","fixation","html-keyboard-response","398","1335695","0.0-6.0-0.56","3086270","co38434","norming","","","","","","",""
"null","../img/tt/1151tt.jpg","null","mooney1","image-keyboard-response","399","1338704","0.0-6.0-1.56","3086270","co38434","norming","","","","","","",""
"12591.604999999516","","","post_mooney1_questions","survey-likert","400","1351299","0.0-6.0-2.56","3086270","co38434","norming","","","{""curiosity"":5,""confidence"":0}","[0,1]","../img/tt/1151tt.jpg","",""
"1565.9999999997672","","","recognition","survey-text","401","1352866","0.0-6.0-3.56","3086270","co38434","norming","","","{""guess"":""""}","","../img/tt/1151tt.jpg","",""
"null","../img/gs/1151gs.jpg","null","reveal","image-keyboard-response","402","1354877","0.0-6.0-4.56","3086270","co38434","norming","","","","","","",""
"null","../img/tt/1151tt.jpg","null","mooney2","image-keyboard-response","403","1356886","0.0-6.0-5.56","3086270","co38434","norming","","","","","","",""
"1937.919999999227","","","post_reveal_questions","survey-likert","404","1358826","0.0-6.0-6.56","3086270","co38434","norming","","","{""aha"":4}","[0]","../img/tt/1151tt.jpg","",""
"null","<div style=""font-size:60px;""> </div>","null","fixation","html-keyboard-response","405","1359031","0.0-6.0-0.57","3086270","co38434","norming","","","","","","",""
"null","../img/tt/1101tt.jpg","null","mooney1","image-keyboard-response","406","1362039","0.0-6.0-1.57","3086270","co38434","norming","","","","","","",""
"4920.040000000037","","","post_mooney1_questions","survey-likert","407","1366963","0.0-6.0-2.57","3086270","co38434","norming","","","{""curiosity"":5,""confidence"":2}","[0,1]","../img/tt/1101tt.jpg","",""
"2693.7349999998696","","","recognition","survey-text","408","1369658","0.0-6.0-3.57","3086270","co38434","norming","","","{""guess"":""dansers""}","","../img/tt/1101tt.jpg","",""
"null","../img/gs/1101gs.jpg","null","reveal","image-keyboard-response","409","1371666","0.0-6.0-4.57","3086270","co38434","norming","","","","","","",""
"null","../img/tt/1101tt.jpg","null","mooney2","image-keyboard-response","410","1373673","0.0-6.0-5.57","3086270","co38434","norming","","","","","","",""
"7872.664999999804","","","post_reveal_questions","survey-likert","411","1381540","0.0-6.0-6.57","3086270","co38434","norming","","","{""aha"":4}","[0]","../img/tt/1101tt.jpg","",""
"null","<div style=""font-size:60px;""> </div>","null","fixation","html-keyboard-response","412","1381749","0.0-6.0-0.58","3086270","co38434","norming","","","","","","",""
"null","../img/tt/1148tt.jpg","null","mooney1","image-keyboard-response","413","1384759","0.0-6.0-1.58","3086270","co38434","norming","","","","","","",""
"6626.405000000028","","","post_mooney1_questions","survey-likert","414","1391388","0.0-6.0-2.58","3086270","co38434","norming","","","{""curiosity"":4,""confidence"":1}","[0,1]","../img/tt/1148tt.jpg","",""
"3445.765000000363","","","recognition","survey-text","415","1394836","0.0-6.0-3.58","3086270","co38434","norming","","","{""guess"":""man in water""}","","../img/tt/1148tt.jpg","",""
"null","../img/gs/1148gs.jpg","null","reveal","image-keyboard-response","416","1396841","0.0-6.0-4.58","3086270","co38434","norming","","","","","","",""
"null","../img/tt/1148tt.jpg","null","mooney2","image-keyboard-response","417","1398843","0.0-6.0-5.58","3086270","co38434","norming","","","","","","",""
"4414.784999999916","","","post_reveal_questions","survey-likert","418","1403260","0.0-6.0-6.58","3086270","co38434","norming","","","{""aha"":5}","[0]","../img/tt/1148tt.jpg","",""
"null","<div style=""font-size:60px;""> </div>","null","fixation","html-keyboard-response","419","1403468","0.0-6.0-0.59","3086270","co38434","norming","","","","","","",""
"null","../img/tt/184tt.jpg","null","mooney1","image-keyboard-response","420","1406476","0.0-6.0-1.59","3086270","co38434","norming","","","","","","",""
"4563.635000000475","","","post_mooney1_questions","survey-likert","421","1411044","0.0-6.0-2.59","3086270","co38434","norming","","","{""curiosity"":5,""confidence"":2}","[0,1]","../img/tt/184tt.jpg","",""
"3054.219999999972","","","recognition","survey-text","422","1414100","0.0-6.0-3.59","3086270","co38434","norming","","","{""guess"":""tafel""}","","../img/tt/184tt.jpg","",""
"null","../img/gs/184gs.jpg","null","reveal","image-keyboard-response","423","1416106","0.0-6.0-4.59","3086270","co38434","norming","","","","","","",""
"null","../img/tt/184tt.jpg","null","mooney2","image-keyboard-response","424","1418109","0.0-6.0-5.59","3086270","co38434","norming","","","","","","",""
"2076.6949999995995","","","post_reveal_questions","survey-likert","425","1420188","0.0-6.0-6.59","3086270","co38434","norming","","","{""aha"":3}","[0]","../img/tt/184tt.jpg","",""
"null","<div style=""font-size:60px;""> </div>","null","fixation","html-keyboard-response","426","1420394","0.0-6.0-0.60","3086270","co38434","norming","","","","","","",""
"null","../img/tt/1146tt.jpg","null","mooney1","image-keyboard-response","427","1423403","0.0-6.0-1.60","3086270","co38434","norming","","","","","","",""
"3774.260000000242","","","post_mooney1_questions","survey-likert","428","1427180","0.0-6.0-2.60","3086270","co38434","norming","","","{""curiosity"":5,""confidence"":0}","[0,1]","../img/tt/1146tt.jpg","",""
"765.9549999998417","","","recognition","survey-text","429","1427948","0.0-6.0-3.60","3086270","co38434","norming","","","{""guess"":""""}","","../img/tt/1146tt.jpg","",""
"null","../img/gs/1146gs.jpg","null","reveal","image-keyboard-response","430","1429950","0.0-6.0-4.60","3086270","co38434","norming","","","","","","",""
"null","../img/tt/1146tt.jpg","null","mooney2","image-keyboard-response","431","1431951","0.0-6.0-5.60","3086270","co38434","norming","","","","","","",""
"3593.965000000084","","","post_reveal_questions","survey-likert","432","1435548","0.0-6.0-6.60","3086270","co38434","norming","","","{""aha"":3}","[0]","../img/tt/1146tt.jpg","",""
"null","<div style=""font-size:60px;""> </div>","null","fixation","html-keyboard-response","433","1435751","0.0-6.0-0.61","3086270","co38434","norming","","","","","","",""
"null","../img/tt/1217tt.jpg","null","mooney1","image-keyboard-response","434","1438757","0.0-6.0-1.61","3086270","co38434","norming","","","","","","",""
"5915.985000000568","","","post_mooney1_questions","survey-likert","435","1444681","0.0-6.0-2.61","3086270","co38434","norming","","","{""curiosity"":5,""confidence"":2}","[0,1]","../img/tt/1217tt.jpg","",""
"4653.875","","","recognition","survey-text","436","1449336","0.0-6.0-3.61","3086270","co38434","norming","","","{""guess"":""rugbyspelers""}","","../img/tt/1217tt.jpg","",""
"null","../img/gs/1217gs.jpg","null","reveal","image-keyboard-response","437","1451342","0.0-6.0-4.61","3086270","co38434","norming","","","","","","",""
"null","../img/tt/1217tt.jpg","null","mooney2","image-keyboard-response","438","1453344","0.0-6.0-5.61","3086270","co38434","norming","","","","","","",""
"7069.749999999767","","","post_reveal_questions","survey-likert","439","1460416","0.0-6.0-6.61","3086270","co38434","norming","","","{""aha"":2}","[0]","../img/tt/1217tt.jpg","",""
"null","<div style=""font-size:60px;""> </div>","null","fixation","html-keyboard-response","440","1460620","0.0-6.0-0.62","3086270","co38434","norming","","","","","","",""
"null","../img/tt/008tt.jpg","null","mooney1","image-keyboard-response","441","1463625","0.0-6.0-1.62","3086270","co38434","norming","","","","","","",""
"4862.5250000003725","","","post_mooney1_questions","survey-likert","442","1468489","0.0-6.0-2.62","3086270","co38434","norming","","","{""curiosity"":5,""confidence"":0}","[0,1]","../img/tt/008tt.jpg","",""
"781.9950000003446","","","recognition","survey-text","443","1469272","0.0-6.0-3.62","3086270","co38434","norming","","","{""guess"":""""}","","../img/tt/008tt.jpg","",""
"null","../img/gs/008gs.jpg","null","reveal","image-keyboard-response","444","1471274","0.0-6.0-4.62","3086270","co38434","norming","","","","","","",""
"null","../img/tt/008tt.jpg","null","mooney2","image-keyboard-response","445","1473277","0.0-6.0-5.62","3086270","co38434","norming","","","","","","",""
"1433.0449999996927","","","post_reveal_questions","survey-likert","446","1474712","0.0-6.0-6.62","3086270","co38434","norming","","","{""aha"":3}","[0]","../img/tt/008tt.jpg","",""
"null","<div style=""font-size:60px;""> </div>","null","fixation","html-keyboard-response","447","1474916","0.0-6.0-0.63","3086270","co38434","norming","","","","","","",""
"null","../img/tt/098tt.jpg","null","mooney1","image-keyboard-response","448","1477927","0.0-6.0-1.63","3086270","co38434","norming","","","","","","",""
"5782.425000000279","","","post_mooney1_questions","survey-likert","449","1483713","0.0-6.0-2.63","3086270","co38434","norming","","","{""curiosity"":4,""confidence"":1}","[0,1]","../img/tt/098tt.jpg","",""
"1989.9800000002142","","","recognition","survey-text","450","1485704","0.0-6.0-3.63","3086270","co38434","norming","","","{""guess"":""roker""}","","../img/tt/098tt.jpg","",""
"null","../img/gs/098gs.jpg","null","reveal","image-keyboard-response","451","1487713","0.0-6.0-4.63","3086270","co38434","norming","","","","","","",""
"null","../img/tt/098tt.jpg","null","mooney2","image-keyboard-response","452","1489723","0.0-6.0-5.63","3086270","co38434","norming","","","","","","",""
"5731.75","","","post_reveal_questions","survey-likert","453","1495456","0.0-6.0-6.63","3086270","co38434","norming","","","{""aha"":3}","[0]","../img/tt/098tt.jpg","",""
"null","<div style=""font-size:60px;""> </div>","null","fixation","html-keyboard-response","454","1495664","0.0-6.0-0.64","3086270","co38434","norming","","","","","","",""
"null","../img/tt/1269tt.jpg","null","mooney1","image-keyboard-response","455","1498672","0.0-6.0-1.64","3086270","co38434","norming","","","","","","",""
"5164.920000000158","","","post_mooney1_questions","survey-likert","456","1503836","0.0-6.0-2.64","3086270","co38434","norming","","","{""curiosity"":4,""confidence"":1}","[0,1]","../img/tt/1269tt.jpg","",""
"6454.020000000019","","","recognition","survey-text","457","1510291","0.0-6.0-3.64","3086270","co38434","norming","","","{""guess"":""hond""}","","../img/tt/1269tt.jpg","",""
"null","../img/gs/1269gs.jpg","null","reveal","image-keyboard-response","458","1512297","0.0-6.0-4.64","3086270","co38434","norming","","","","","","",""
"null","../img/tt/1269tt.jpg","null","mooney2","image-keyboard-response","459","1514301","0.0-6.0-5.64","3086270","co38434","norming","","","","","","",""
"2571.234999999404","","","post_reveal_questions","survey-likert","460","1516876","0.0-6.0-6.64","3086270","co38434","norming","","","{""aha"":4}","[0]","../img/tt/1269tt.jpg","",""
"null","<div style=""font-size:60px;""> </div>","null","fixation","html-keyboard-response","461","1517080","0.0-6.0-0.65","3086270","co38434","norming","","","","","","",""
"null","../img/tt/1232tt.jpg","null","mooney1","image-keyboard-response","462","1520084","0.0-6.0-1.65","3086270","co38434","norming","","","","","","",""
"4947.730000000913","","","post_mooney1_questions","survey-likert","463","1525036","0.0-6.0-2.65","3086270","co38434","norming","","","{""curiosity"":4,""confidence"":1}","[0,1]","../img/tt/1232tt.jpg","",""
"3142.090000000084","","","recognition","survey-text","464","1528180","0.0-6.0-3.65","3086270","co38434","norming","","","{""guess"":""ruimte""}","","../img/tt/1232tt.jpg","",""
"null","../img/gs/1232gs.jpg","null","reveal","image-keyboard-response","465","1530189","0.0-6.0-4.65","3086270","co38434","norming","","","","","","",""
"null","../img/tt/1232tt.jpg","null","mooney2","image-keyboard-response","466","1532197","0.0-6.0-5.65","3086270","co38434","norming","","","","","","",""
"3627.4199999996927","","","post_reveal_questions","survey-likert","467","1535828","0.0-6.0-6.65","3086270","co38434","norming","","","{""aha"":4}","[0]","../img/tt/1232tt.jpg","",""
"null","<div style=""font-size:60px;""> </div>","null","fixation","html-keyboard-response","468","1536032","0.0-6.0-0.66","3086270","co38434","norming","","","","","","",""
"null","../img/tt/319tt.jpg","null","mooney1","image-keyboard-response","469","1539037","0.0-6.0-1.66","3086270","co38434","norming","","","","","","",""
"7819.395000000484","","","post_mooney1_questions","survey-likert","470","1546860","0.0-6.0-2.66","3086270","co38434","norming","","","{""curiosity"":5,""confidence"":0}","[0,1]","../img/tt/319tt.jpg","",""
"965.9549999996088","","","recognition","survey-text","471","1547827","0.0-6.0-3.66","3086270","co38434","norming","","","{""guess"":""""}","","../img/tt/319tt.jpg","",""
"null","../img/gs/319gs.jpg","null","reveal","image-keyboard-response","472","1549832","0.0-6.0-4.66","3086270","co38434","norming","","","","","","",""
"null","../img/tt/319tt.jpg","null","mooney2","image-keyboard-response","473","1551843","0.0-6.0-5.66","3086270","co38434","norming","","","","","","",""
"1917.6000000005588","","","post_reveal_questions","survey-likert","474","1553764","0.0-6.0-6.66","3086270","co38434","norming","","","{""aha"":4}","[0]","../img/tt/319tt.jpg","",""
"null","<div style=""font-size:60px;""> </div>","null","fixation","html-keyboard-response","475","1553966","0.0-6.0-0.67","3086270","co38434","norming","","","","","","",""
"null","../img/tt/1116tt.jpg","null","mooney1","image-keyboard-response","476","1556971","0.0-6.0-1.67","3086270","co38434","norming","","","","","","",""
"5045","","","post_mooney1_questions","survey-likert","477","1562020","0.0-6.0-2.67","3086270","co38434","norming","","","{""curiosity"":4,""confidence"":1}","[0,1]","../img/tt/1116tt.jpg","",""
"1774.0750000001863","","","recognition","survey-text","478","1563802","0.0-6.0-3.67","3086270","co38434","norming","","","{""guess"":""strand""}","","../img/tt/1116tt.jpg","",""
"null","../img/gs/1116gs.jpg","null","reveal","image-keyboard-response","479","1565805","0.0-6.0-4.67","3086270","co38434","norming","","","","","","",""
"null","../img/tt/1116tt.jpg","null","mooney2","image-keyboard-response","480","1567813","0.0-6.0-5.67","3086270","co38434","norming","","","","","","",""
"1546.7300000002142","","","post_reveal_questions","survey-likert","481","1569362","0.0-6.0-6.67","3086270","co38434","norming","","","{""aha"":5}","[0]","../img/tt/1116tt.jpg","",""
"null","<div style=""font-size:60px;""> </div>","null","fixation","html-keyboard-response","482","1569570","0.0-6.0-0.68","3086270","co38434","norming","","","","","","",""
"null","../img/tt/1049tt.jpg","null","mooney1","image-keyboard-response","483","1572576","0.0-6.0-1.68","3086270","co38434","norming","","","","","","",""
"4014.1750000002794","","","post_mooney1_questions","survey-likert","484","1576595","0.0-6.0-2.68","3086270","co38434","norming","","","{""curiosity"":5,""confidence"":0}","[0,1]","../img/tt/1049tt.jpg","",""
"901.9849999996368","","","recognition","survey-text","485","1577498","0.0-6.0-3.68","3086270","co38434","norming","","","{""guess"":""""}","","../img/tt/1049tt.jpg","",""
"null","../img/gs/1049gs.jpg","null","reveal","image-keyboard-response","486","1579502","0.0-6.0-4.68","3086270","co38434","norming","","","","","","",""
"null","../img/tt/1049tt.jpg","null","mooney2","image-keyboard-response","487","1581513","0.0-6.0-5.68","3086270","co38434","norming","","","","","","",""
"1558.505000000121","","","post_reveal_questions","survey-likert","488","1583074","0.0-6.0-6.68","3086270","co38434","norming","","","{""aha"":3}","[0]","../img/tt/1049tt.jpg","",""
"null","<div style=""font-size:60px;""> </div>","null","fixation","html-keyboard-response","489","1583281","0.0-6.0-0.69","3086270","co38434","norming","","","","","","",""
"null","../img/tt/1190tt.jpg","null","mooney1","image-keyboard-response","490","1586292","0.0-6.0-1.69","3086270","co38434","norming","","","","","","",""
"3477.070000000065","","","post_mooney1_questions","survey-likert","491","1589770","0.0-6.0-2.69","3086270","co38434","norming","","","{""curiosity"":5,""confidence"":0}","[0,1]","../img/tt/1190tt.jpg","",""
"1358.1850000000559","","","recognition","survey-text","492","1591130","0.0-6.0-3.69","3086270","co38434","norming","","","{""guess"":""""}","","../img/tt/1190tt.jpg","",""
"null","../img/gs/1190gs.jpg","null","reveal","image-keyboard-response","493","1593139","0.0-6.0-4.69","3086270","co38434","norming","","","","","","",""
"null","../img/tt/1190tt.jpg","null","mooney2","image-keyboard-response","494","1595143","0.0-6.0-5.69","3086270","co38434","norming","","","","","","",""
"3321.0049999998882","","","post_reveal_questions","survey-likert","495","1598467","0.0-6.0-6.69","3086270","co38434","norming","","","{""aha"":3}","[0]","../img/tt/1190tt.jpg","",""
"null","<div style=""font-size:60px;""> </div>","null","fixation","html-keyboard-response","496","1598673","0.0-6.0-0.70","3086270","co38434","norming","","","","","","",""
"null","../img/tt/1044tt.jpg","null","mooney1","image-keyboard-response","497","1601683","0.0-6.0-1.70","3086270","co38434","norming","","","","","","",""
"4102.589999999385","","","post_mooney1_questions","survey-likert","498","1605787","0.0-6.0-2.70","3086270","co38434","norming","","","{""curiosity"":4,""confidence"":1}","[0,1]","../img/tt/1044tt.jpg","",""
"2494.1349999997765","","","recognition","survey-text","499","1608282","0.0-6.0-3.70","3086270","co38434","norming","","","{""guess"":""kapstok""}","","../img/tt/1044tt.jpg","",""
"null","../img/gs/1044gs.jpg","null","reveal","image-keyboard-response","500","1610284","0.0-6.0-4.70","3086270","co38434","norming","","","","","","",""
"null","../img/tt/1044tt.jpg","null","mooney2","image-keyboard-response","501","1612294","0.0-6.0-5.70","3086270","co38434","norming","","","","","","",""
"2545.225000000559","","","post_reveal_questions","survey-likert","502","1614842","0.0-6.0-6.70","3086270","co38434","norming","","","{""aha"":4}","[0]","../img/tt/1044tt.jpg","",""
"null","<div style=""font-size:60px;""> </div>","null","fixation","html-keyboard-response","503","1615049","0.0-6.0-0.71","3086270","co38434","norming","","","","","","",""
"null","../img/tt/1046tt.jpg","null","mooney1","image-keyboard-response","504","1618058","0.0-6.0-1.71","3086270","co38434","norming","","","","","","",""
"5037.029999999562","","","post_mooney1_questions","survey-likert","505","1623093","0.0-6.0-2.71","3086270","co38434","norming","","","{""curiosity"":5,""confidence"":1}","[0,1]","../img/tt/1046tt.jpg","",""
"2958.225000000326","","","recognition","survey-text","506","1626053","0.0-6.0-3.71","3086270","co38434","norming","","","{""guess"":""bord pizza""}","","../img/tt/1046tt.jpg","",""
"null","../img/gs/1046gs.jpg","null","reveal","image-keyboard-response","507","1628063","0.0-6.0-4.71","3086270","co38434","norming","","","","","","",""
"null","../img/tt/1046tt.jpg","null","mooney2","image-keyboard-response","508","1630065","0.0-6.0-5.71","3086270","co38434","norming","","","","","","",""
"1937.5250000003725","","","post_reveal_questions","survey-likert","509","1632005","0.0-6.0-6.71","3086270","co38434","norming","","","{""aha"":5}","[0]","../img/tt/1046tt.jpg","",""
"null","<div style=""font-size:60px;""> </div>","null","fixation","html-keyboard-response","510","1632210","0.0-6.0-0.72","3086270","co38434","norming","","","","","","",""
"null","../img/tt/1043tt.jpg","null","mooney1","image-keyboard-response","511","1635216","0.0-6.0-1.72","3086270","co38434","norming","","","","","","",""
"3208.494999999879","","","post_mooney1_questions","survey-likert","512","1638429","0.0-6.0-2.72","3086270","co38434","norming","","","{""curiosity"":5,""confidence"":0}","[0,1]","../img/tt/1043tt.jpg","",""
"550.1800000001676","","","recognition","survey-text","513","1638981","0.0-6.0-3.72","3086270","co38434","norming","","","{""guess"":""""}","","../img/tt/1043tt.jpg","",""
"null","../img/gs/1043gs.jpg","null","reveal","image-keyboard-response","514","1640987","0.0-6.0-4.72","3086270","co38434","norming","","","","","","",""
"null","../img/tt/1043tt.jpg","null","mooney2","image-keyboard-response","515","1642991","0.0-6.0-5.72","3086270","co38434","norming","","","","","","",""
"2811.68499999959","","","post_reveal_questions","survey-likert","516","1645805","0.0-6.0-6.72","3086270","co38434","norming","","","{""aha"":4}","[0]","../img/tt/1043tt.jpg","",""
"null","<div style=""font-size:60px;""> </div>","null","fixation","html-keyboard-response","517","1646016","0.0-6.0-0.73","3086270","co38434","norming","","","","","","",""
"null","../img/tt/1236tt.jpg","null","mooney1","image-keyboard-response","518","1649022","0.0-6.0-1.73","3086270","co38434","norming","","","","","","",""
"4403.814999999711","","","post_mooney1_questions","survey-likert","519","1653429","0.0-6.0-2.73","3086270","co38434","norming","","","{""curiosity"":5,""confidence"":0}","[0,1]","../img/tt/1236tt.jpg","",""
"998.0650000006426","","","recognition","survey-text","520","1654429","0.0-6.0-3.73","3086270","co38434","norming","","","{""guess"":""""}","","../img/tt/1236tt.jpg","",""
"null","../img/gs/1236gs.jpg","null","reveal","image-keyboard-response","521","1656431","0.0-6.0-4.73","3086270","co38434","norming","","","","","","",""
"null","../img/tt/1236tt.jpg","null","mooney2","image-keyboard-response","522","1658442","0.0-6.0-5.73","3086270","co38434","norming","","","","","","",""
"2752.1649999998044","","","post_reveal_questions","survey-likert","523","1661197","0.0-6.0-6.73","3086270","co38434","norming","","","{""aha"":3}","[0]","../img/tt/1236tt.jpg","",""
"null","<div style=""font-size:60px;""> </div>","null","fixation","html-keyboard-response","524","1661398","0.0-6.0-0.74","3086270","co38434","norming","","","","","","",""
"null","../img/tt/1241tt.jpg","null","mooney1","image-keyboard-response","525","1664408","0.0-6.0-1.74","3086270","co38434","norming","","","","","","",""
"3546.190000000177","","","post_mooney1_questions","survey-likert","526","1667958","0.0-6.0-2.74","3086270","co38434","norming","","","{""curiosity"":5,""confidence"":0}","[0,1]","../img/tt/1241tt.jpg","",""
"774.0100000002421","","","recognition","survey-text","527","1668733","0.0-6.0-3.74","3086270","co38434","norming","","","{""guess"":""""}","","../img/tt/1241tt.jpg","",""
"null","../img/gs/1241gs.jpg","null","reveal","image-keyboard-response","528","1670738","0.0-6.0-4.74","3086270","co38434","norming","","","","","","",""
"null","../img/tt/1241tt.jpg","null","mooney2","image-keyboard-response","529","1672746","0.0-6.0-5.74","3086270","co38434","norming","","","","","","",""
"2072.859999999171","","","post_reveal_questions","survey-likert","530","1674821","0.0-6.0-6.74","3086270","co38434","norming","","","{""aha"":4}","[0]","../img/tt/1241tt.jpg","",""
"null","<div style=""font-size:60px;""> </div>","null","fixation","html-keyboard-response","531","1675025","0.0-6.0-0.75","3086270","co38434","norming","","","","","","",""
"null","../img/tt/1290tt.jpg","null","mooney1","image-keyboard-response","532","1678037","0.0-6.0-1.75","3086270","co38434","norming","","","","","","",""
"5964.539999999804","","","post_mooney1_questions","survey-likert","533","1684012","0.0-6.0-2.75","3086270","co38434","norming","","","{""curiosity"":4,""confidence"":1}","[0,1]","../img/tt/1290tt.jpg","",""
"4957.975000000326","","","recognition","survey-text","534","1688972","0.0-6.0-3.75","3086270","co38434","norming","","","{""guess"":""buidelzakje""}","","../img/tt/1290tt.jpg","",""
"null","../img/gs/1290gs.jpg","null","reveal","image-keyboard-response","535","1690974","0.0-6.0-4.75","3086270","co38434","norming","","","","","","",""
"null","../img/tt/1290tt.jpg","null","mooney2","image-keyboard-response","536","1692978","0.0-6.0-5.75","3086270","co38434","norming","","","","","","",""
"2110.8249999997206","","","post_reveal_questions","survey-likert","537","1695092","0.0-6.0-6.75","3086270","co38434","norming","","","{""aha"":4}","[0]","../img/tt/1290tt.jpg","",""
"null","<div style=""font-size:60px;""> </div>","null","fixation","html-keyboard-response","538","1695294","0.0-6.0-0.76","3086270","co38434","norming","","","","","","",""
"null","../img/tt/032tt.jpg","null","mooney1","image-keyboard-response","539","1698304","0.0-6.0-1.76","3086270","co38434","norming","","","","","","",""
"3168.540000000503","","","post_mooney1_questions","survey-likert","540","1701476","0.0-6.0-2.76","3086270","co38434","norming","","","{""curiosity"":5,""confidence"":2}","[0,1]","../img/tt/032tt.jpg","",""
"1725.9550000000745","","","recognition","survey-text","541","1703204","0.0-6.0-3.76","3086270","co38434","norming","","","{""guess"":""eend""}","","../img/tt/032tt.jpg","",""
"null","../img/gs/032gs.jpg","null","reveal","image-keyboard-response","542","1705208","0.0-6.0-4.76","3086270","co38434","norming","","","","","","",""
"null","../img/tt/032tt.jpg","null","mooney2","image-keyboard-response","543","1707219","0.0-6.0-5.76","3086270","co38434","norming","","","","","","",""
"2485.7949999996927","","","post_reveal_questions","survey-likert","544","1709708","0.0-6.0-6.76","3086270","co38434","norming","","","{""aha"":4}","[0]","../img/tt/032tt.jpg","",""
"null","<div style=""font-size:60px;""> </div>","null","fixation","html-keyboard-response","545","1709918","0.0-6.0-0.77","3086270","co38434","norming","","","","","","",""
"null","../img/tt/1048tt.jpg","null","mooney1","image-keyboard-response","546","1712921","0.0-6.0-1.77","3086270","co38434","norming","","","","","","",""
"4495.535000000149","","","post_mooney1_questions","survey-likert","547","1717420","0.0-6.0-2.77","3086270","co38434","norming","","","{""curiosity"":5,""confidence"":2}","[0,1]","../img/tt/1048tt.jpg","",""
"3901.984999999404","","","recognition","survey-text","548","1721324","0.0-6.0-3.77","3086270","co38434","norming","","","{""guess"":""boom struik""}","","../img/tt/1048tt.jpg","",""
"null","../img/gs/1048gs.jpg","null","reveal","image-keyboard-response","549","1723326","0.0-6.0-4.77","3086270","co38434","norming","","","","","","",""
"null","../img/tt/1048tt.jpg","null","mooney2","image-keyboard-response","550","1725327","0.0-6.0-5.77","3086270","co38434","norming","","","","","","",""
"2033.95999999973","","","post_reveal_questions","survey-likert","551","1727364","0.0-6.0-6.77","3086270","co38434","norming","","","{""aha"":4}","[0]","../img/tt/1048tt.jpg","",""
"null","<div style=""font-size:60px;""> </div>","null","fixation","html-keyboard-response","552","1727565","0.0-6.0-0.78","3086270","co38434","norming","","","","","","",""
