"rt","stimulus","key_press","test_part","trial_type","trial_index","time_elapsed","internal_node_id","totalTime","subject","experiment_name","button_pressed","success","responses","question_order","currentStim","old","correct"
"7066.824999999994","Welcome to the experiment. This is an online experiment so please don't close the tab/window until we say goodbye.  Press any key to begin.","32","instructions","html-keyboard-response","0","7113","0.0-0.0","2717417","co38929","norming","","","","","","",""
"4182.270000000017","<div style='word-wrap: break-word; width: 900px'><h3>Please consider this information carefully before deciding whether to participate in this research</h3><ul style='text-align: left; font-size: .8em;'><li><b>Purpose of the research</b>: To examine how people process images.</li><li><b>What you will do in this research</b>:  Stimuli (images) will be presented on the computer and you will be asked different questions about them.</li><li><b>Time required</b>: Participation will take between 45 and 60 minutes to complete.</li><li><b>Risks</b>:  There are no anticipated risks associated with participating in this study. The effects of participating should be comparable to those you would experience from viewing a computer monitor for 30 minutes and using a mouse or keyboard.</li><li><b>Benefits</b>:  This study provides no benefits to you individually except for the credit. The study provides important information about the nature of perception and learning.</li><li><b>Confidentiality</b>:  Your participation in this study will remain confidential. No personally identifiable information will be associated with your data. Your de-identified data may be shared with other researchers and used in future projects.</li><li><b>Participation and withdrawal</b>:  Your participation in this study is completely voluntary and you may refuse to participate or you may choose to withdraw at any time without penalty.</li><li><b>How to contact the researchers</b>: If you have questions or concerns about your participation or payment, or want to request a summary of research findings, please contact Sander Van de Cruys (KU Leuven), at sander.vandecruys@kuleuven.be.</li></ul><p>The nature and purpose of this research have been sufficiently explained and I agree to participate in this study.  I understand that I am free to withdraw at any time without incurring any penalty.</p><p>Please consent by clicking the button below to continue. Otherwise, please exit the study at this time.</p></div>","","instructions","html-button-response","1","11296","0.0-1.0","2717417","co38929","norming","0","","","","","",""
"","","","instructions","fullscreen","2","15691","0.0-2.0","2717417","co38929","norming","","true","","","","",""
"32954.710000000036","","","sona","survey-html-form","3","48649","0.0-3.0","2717417","co38929","norming","","","[{""name"":""sonaid"",""value"":""38929""},{""name"":""debrief"",""value"":""yes""},{""name"":""datajoin"",""value"":""yes""}]","","","",""
"75375.33000000002","<div style='word-wrap: break-word; width: 900px'><h3>Instructions</h3><p>This experiment will have 3 parts. In the first part you will see a series of distorted images like the one below on the left. As you can see in the righthand image, the distorted images are derived from actual photographs. In what follows, you will <strong>briefly</strong> be presented with <strong>only</strong> the distorted image.</p> <div style='float: left; margin-right: 20px;'><img src='../img/018tt.jpg' height='250' width='250'></img></div><div style='float: right; margin-left: 20px;'><img src='../img/018gs.jpg' height='250' width='250'></img></div><p>Subsequently you will be asked a few questions about the image: One question on how <strong>curious</strong> you are about the solution and one on how <strong>confident</strong> you are that you know the solution.</p>Next, we ask you to make a guess on what is in the image. Note that it is OK to name just the <strong>basic level category</strong>. For example when you see a parrot in the image, 'parrot' will obviously be a correct answer but also correct is 'bird'. However, 'animal' will <strong>not</strong> be counted as a correct response. For the example above, 'rose' would be correct or 'flower', but not 'plant'. When soccer players are depicted, 'soccer', 'football', 'soccer players' will be correct, but not 'humans', 'outdoors', or 'sports'. You do not need to describe the image in full, just name the main object in it <strong>in one or two words</strong>. All images depict objects from one of the following broad level categories: animals, inanimate objects, plants, sports, vehicles, and food. Recognizing means knowing <strong>more</strong> than these broad labels for a given image. But we always encourage you to <strong>make a guess</strong> if you can. Note that you are allowed to use <strong>Dutch and English</strong> in your answers, whatever comes easiest for you.</p><p>Press any key to continue.</p></div>","32","instructions","html-keyboard-response","4","124132","0.0-4.0","2717417","co38929","norming","","","","","","",""
"15309.20500000003","<div style='word-wrap: break-word; width: 900px'><h3>Instructions</h3> <p>Next, the solution image will be revealed to you and you'll be asked to indicate how strong your <strong>aha-experience</strong> was after seeing the solution. This describes the positive feeling of the 'click' you sometimes experience, when the pieces of the 'puzzle' fall together and you suddenly have 'insight' in the image.</p><img src='aha.jpg' height='188' width='250'></img><p>Note that there are no right or wrong answers. We are interested in what <strong>you</strong> see in the image and how <strong>you</strong> feel about it.</p><p>Press any key to start the experiment.</p></div>","32","instructions","html-keyboard-response","5","139544","0.0-5.0","2717417","co38929","norming","","","","","","",""
"null","<div style=""font-size:60px;""> </div>","null","fixation","html-keyboard-response","6","139750","0.0-6.0-0.0","2717417","co38929","norming","","","","","","",""
"null","../img/tt/081tt.jpg","null","mooney1","image-keyboard-response","7","142758","0.0-6.0-1.0","2717417","co38929","norming","","","","","","",""
"15870.189999999973","","","post_mooney1_questions","survey-likert","8","158632","0.0-6.0-2.0","2717417","co38929","norming","","","{""curiosity"":3,""confidence"":6}","[0,1]","../img/tt/081tt.jpg","",""
"4229.514999999985","","","recognition","survey-text","9","162863","0.0-6.0-3.0","2717417","co38929","norming","","","{""guess"":""schildpad""}","","../img/tt/081tt.jpg","",""
"null","../img/gs/081gs.jpg","null","reveal","image-keyboard-response","10","164865","0.0-6.0-4.0","2717417","co38929","norming","","","","","","",""
"null","../img/tt/081tt.jpg","null","mooney2","image-keyboard-response","11","166873","0.0-6.0-5.0","2717417","co38929","norming","","","","","","",""
"8044.264999999985","","","post_reveal_questions","survey-likert","12","174919","0.0-6.0-6.0","2717417","co38929","norming","","","{""aha"":3}","[0]","../img/tt/081tt.jpg","",""
"null","<div style=""font-size:60px;""> </div>","null","fixation","html-keyboard-response","13","175124","0.0-6.0-0.1","2717417","co38929","norming","","","","","","",""
"null","../img/tt/1043tt.jpg","null","mooney1","image-keyboard-response","14","178126","0.0-6.0-1.1","2717417","co38929","norming","","","","","","",""
"5582.935000000027","","","post_mooney1_questions","survey-likert","15","183711","0.0-6.0-2.1","2717417","co38929","norming","","","{""curiosity"":6,""confidence"":0}","[0,1]","../img/tt/1043tt.jpg","",""
"8149.914999999979","","","recognition","survey-text","16","191863","0.0-6.0-3.1","2717417","co38929","norming","","","{""guess"":""kikker""}","","../img/tt/1043tt.jpg","",""
"null","../img/gs/1043gs.jpg","null","reveal","image-keyboard-response","17","193872","0.0-6.0-4.1","2717417","co38929","norming","","","","","","",""
"null","../img/tt/1043tt.jpg","null","mooney2","image-keyboard-response","18","195873","0.0-6.0-5.1","2717417","co38929","norming","","","","","","",""
"4636.700000000012","","","post_reveal_questions","survey-likert","19","200594","0.0-6.0-6.1","2717417","co38929","norming","","","{""aha"":6}","[0]","../img/tt/1043tt.jpg","",""
"null","<div style=""font-size:60px;""> </div>","null","fixation","html-keyboard-response","20","200799","0.0-6.0-0.2","2717417","co38929","norming","","","","","","",""
"null","../img/tt/1254tt.jpg","null","mooney1","image-keyboard-response","21","203804","0.0-6.0-1.2","2717417","co38929","norming","","","","","","",""
"6651.820000000036","","","post_mooney1_questions","survey-likert","22","210458","0.0-6.0-2.2","2717417","co38929","norming","","","{""curiosity"":6,""confidence"":0}","[0,1]","../img/tt/1254tt.jpg","",""
"22726.08500000002","","","recognition","survey-text","23","233186","0.0-6.0-3.2","2717417","co38929","norming","","","{""guess"":""""}","","../img/tt/1254tt.jpg","",""
"null","../img/gs/1254gs.jpg","null","reveal","image-keyboard-response","24","235188","0.0-6.0-4.2","2717417","co38929","norming","","","","","","",""
"null","../img/tt/1254tt.jpg","null","mooney2","image-keyboard-response","25","237190","0.0-6.0-5.2","2717417","co38929","norming","","","","","","",""
"3437.350000000035","","","post_reveal_questions","survey-likert","26","240642","0.0-6.0-6.2","2717417","co38929","norming","","","{""aha"":6}","[0]","../img/tt/1254tt.jpg","",""
"null","<div style=""font-size:60px;""> </div>","null","fixation","html-keyboard-response","27","240848","0.0-6.0-0.3","2717417","co38929","norming","","","","","","",""
"null","../img/tt/135tt.jpg","null","mooney1","image-keyboard-response","28","243850","0.0-6.0-1.3","2717417","co38929","norming","","","","","","",""
"6757.669999999955","","","post_mooney1_questions","survey-likert","29","250610","0.0-6.0-2.3","2717417","co38929","norming","","","{""curiosity"":5,""confidence"":0}","[0,1]","../img/tt/135tt.jpg","",""
"1590.1300000000338","","","recognition","survey-text","30","252202","0.0-6.0-3.3","2717417","co38929","norming","","","{""guess"":""""}","","../img/tt/135tt.jpg","",""
"null","../img/gs/135gs.jpg","null","reveal","image-keyboard-response","31","254211","0.0-6.0-4.3","2717417","co38929","norming","","","","","","",""
"null","../img/tt/135tt.jpg","null","mooney2","image-keyboard-response","32","256219","0.0-6.0-5.3","2717417","co38929","norming","","","","","","",""
"2309.0899999999674","","","post_reveal_questions","survey-likert","33","258530","0.0-6.0-6.3","2717417","co38929","norming","","","{""aha"":6}","[0]","../img/tt/135tt.jpg","",""
"null","<div style=""font-size:60px;""> </div>","null","fixation","html-keyboard-response","34","258738","0.0-6.0-0.4","2717417","co38929","norming","","","","","","",""
"null","../img/tt/436tt.jpg","null","mooney1","image-keyboard-response","35","261807","0.0-6.0-1.4","2717417","co38929","norming","","","","","","",""
"20392.99000000005","","","post_mooney1_questions","survey-likert","36","282203","0.0-6.0-2.4","2717417","co38929","norming","","","{""curiosity"":4,""confidence"":1}","[0,1]","../img/tt/436tt.jpg","",""
"4950.070000000065","","","recognition","survey-text","37","287154","0.0-6.0-3.4","2717417","co38929","norming","","","{""guess"":""raptiel""}","","../img/tt/436tt.jpg","",""
"null","../img/gs/436gs.jpg","null","reveal","image-keyboard-response","38","289165","0.0-6.0-4.4","2717417","co38929","norming","","","","","","",""
"null","../img/tt/436tt.jpg","null","mooney2","image-keyboard-response","39","291174","0.0-6.0-5.4","2717417","co38929","norming","","","","","","",""
"3924.100000000035","","","post_reveal_questions","survey-likert","40","295098","0.0-6.0-6.4","2717417","co38929","norming","","","{""aha"":3}","[0]","../img/tt/436tt.jpg","",""
"null","<div style=""font-size:60px;""> </div>","null","fixation","html-keyboard-response","41","295305","0.0-6.0-0.5","2717417","co38929","norming","","","","","","",""
"null","../img/tt/084tt.jpg","null","mooney1","image-keyboard-response","42","298306","0.0-6.0-1.5","2717417","co38929","norming","","","","","","",""
"6710.149999999965","","","post_mooney1_questions","survey-likert","43","305018","0.0-6.0-2.5","2717417","co38929","norming","","","{""curiosity"":4,""confidence"":0}","[0,1]","../img/tt/084tt.jpg","",""
"2382.3400000000256","","","recognition","survey-text","44","307402","0.0-6.0-3.5","2717417","co38929","norming","","","{""guess"":""""}","","../img/tt/084tt.jpg","",""
"null","../img/gs/084gs.jpg","null","reveal","image-keyboard-response","45","309405","0.0-6.0-4.5","2717417","co38929","norming","","","","","","",""
"null","../img/tt/084tt.jpg","null","mooney2","image-keyboard-response","46","311406","0.0-6.0-5.5","2717417","co38929","norming","","","","","","",""
"5562.085000000021","","","post_reveal_questions","survey-likert","47","316970","0.0-6.0-6.5","2717417","co38929","norming","","","{""aha"":5}","[0]","../img/tt/084tt.jpg","",""
"null","<div style=""font-size:60px;""> </div>","null","fixation","html-keyboard-response","48","317179","0.0-6.0-0.6","2717417","co38929","norming","","","","","","",""
"null","../img/tt/1363tt.jpg","null","mooney1","image-keyboard-response","49","320182","0.0-6.0-1.6","2717417","co38929","norming","","","","","","",""
"17001.380000000063","","","post_mooney1_questions","survey-likert","50","337187","0.0-6.0-2.6","2717417","co38929","norming","","","{""curiosity"":4,""confidence"":0}","[0,1]","../img/tt/1363tt.jpg","",""
"1622.0849999999627","","","recognition","survey-text","51","338810","0.0-6.0-3.6","2717417","co38929","norming","","","{""guess"":""""}","","../img/tt/1363tt.jpg","",""
"null","../img/gs/1363gs.jpg","null","reveal","image-keyboard-response","52","340811","0.0-6.0-4.6","2717417","co38929","norming","","","","","","",""
"null","../img/tt/1363tt.jpg","null","mooney2","image-keyboard-response","53","342813","0.0-6.0-5.6","2717417","co38929","norming","","","","","","",""
"3019.160000000091","","","post_reveal_questions","survey-likert","54","345834","0.0-6.0-6.6","2717417","co38929","norming","","","{""aha"":5}","[0]","../img/tt/1363tt.jpg","",""
"null","<div style=""font-size:60px;""> </div>","null","fixation","html-keyboard-response","55","346036","0.0-6.0-0.7","2717417","co38929","norming","","","","","","",""
"null","../img/tt/1226tt.jpg","null","mooney1","image-keyboard-response","56","349045","0.0-6.0-1.7","2717417","co38929","norming","","","","","","",""
"3714.7249999999185","","","post_mooney1_questions","survey-likert","57","352762","0.0-6.0-2.7","2717417","co38929","norming","","","{""curiosity"":3,""confidence"":1}","[0,1]","../img/tt/1226tt.jpg","",""
"3038.4649999999674","","","recognition","survey-text","58","355802","0.0-6.0-3.7","2717417","co38929","norming","","","{""guess"":""konijn""}","","../img/tt/1226tt.jpg","",""
"null","../img/gs/1226gs.jpg","null","reveal","image-keyboard-response","59","357805","0.0-6.0-4.7","2717417","co38929","norming","","","","","","",""
"null","../img/tt/1226tt.jpg","null","mooney2","image-keyboard-response","60","359812","0.0-6.0-5.7","2717417","co38929","norming","","","","","","",""
"2836.3399999999674","","","post_reveal_questions","survey-likert","61","362650","0.0-6.0-6.7","2717417","co38929","norming","","","{""aha"":5}","[0]","../img/tt/1226tt.jpg","",""
"null","<div style=""font-size:60px;""> </div>","null","fixation","html-keyboard-response","62","362852","0.0-6.0-0.8","2717417","co38929","norming","","","","","","",""
"null","../img/tt/1012tt.jpg","null","mooney1","image-keyboard-response","63","365861","0.0-6.0-1.8","2717417","co38929","norming","","","","","","",""
"4378.609999999986","","","post_mooney1_questions","survey-likert","64","370242","0.0-6.0-2.8","2717417","co38929","norming","","","{""curiosity"":3,""confidence"":1}","[0,1]","../img/tt/1012tt.jpg","",""
"4885.940000000002","","","recognition","survey-text","65","375130","0.0-6.0-3.8","2717417","co38929","norming","","","{""guess"":""bergen""}","","../img/tt/1012tt.jpg","",""
"null","../img/gs/1012gs.jpg","null","reveal","image-keyboard-response","66","377131","0.0-6.0-4.8","2717417","co38929","norming","","","","","","",""
"null","../img/tt/1012tt.jpg","null","mooney2","image-keyboard-response","67","379135","0.0-6.0-5.8","2717417","co38929","norming","","","","","","",""
"5552.560000000114","","","post_reveal_questions","survey-likert","68","384690","0.0-6.0-6.8","2717417","co38929","norming","","","{""aha"":3}","[0]","../img/tt/1012tt.jpg","",""
"null","<div style=""font-size:60px;""> </div>","null","fixation","html-keyboard-response","69","384900","0.0-6.0-0.9","2717417","co38929","norming","","","","","","",""
"null","../img/tt/1260tt.jpg","null","mooney1","image-keyboard-response","70","387910","0.0-6.0-1.9","2717417","co38929","norming","","","","","","",""
"10378.155000000028","","","post_mooney1_questions","survey-likert","71","398290","0.0-6.0-2.9","2717417","co38929","norming","","","{""curiosity"":2,""confidence"":0}","[0,1]","../img/tt/1260tt.jpg","",""
"1006.234999999986","","","recognition","survey-text","72","399298","0.0-6.0-3.9","2717417","co38929","norming","","","{""guess"":""""}","","../img/tt/1260tt.jpg","",""
"null","../img/gs/1260gs.jpg","null","reveal","image-keyboard-response","73","401304","0.0-6.0-4.9","2717417","co38929","norming","","","","","","",""
"null","../img/tt/1260tt.jpg","null","mooney2","image-keyboard-response","74","403315","0.0-6.0-5.9","2717417","co38929","norming","","","","","","",""
"5668.5650000000605","","","post_reveal_questions","survey-likert","75","408986","0.0-6.0-6.9","2717417","co38929","norming","","","{""aha"":6}","[0]","../img/tt/1260tt.jpg","",""
"null","<div style=""font-size:60px;""> </div>","null","fixation","html-keyboard-response","76","409191","0.0-6.0-0.10","2717417","co38929","norming","","","","","","",""
"null","../img/tt/1091tt.jpg","null","mooney1","image-keyboard-response","77","412198","0.0-6.0-1.10","2717417","co38929","norming","","","","","","",""
"4562.265000000014","","","post_mooney1_questions","survey-likert","78","416762","0.0-6.0-2.10","2717417","co38929","norming","","","{""curiosity"":2,""confidence"":5}","[0,1]","../img/tt/1091tt.jpg","",""
"3342.070000000007","","","recognition","survey-text","79","420106","0.0-6.0-3.10","2717417","co38929","norming","","","{""guess"":""paard""}","","../img/tt/1091tt.jpg","",""
"null","../img/gs/1091gs.jpg","null","reveal","image-keyboard-response","80","422116","0.0-6.0-4.10","2717417","co38929","norming","","","","","","",""
"null","../img/tt/1091tt.jpg","null","mooney2","image-keyboard-response","81","424126","0.0-6.0-5.10","2717417","co38929","norming","","","","","","",""
"3001.890000000014","","","post_reveal_questions","survey-likert","82","427130","0.0-6.0-6.10","2717417","co38929","norming","","","{""aha"":0}","[0]","../img/tt/1091tt.jpg","",""
"null","<div style=""font-size:60px;""> </div>","null","fixation","html-keyboard-response","83","427340","0.0-6.0-0.11","2717417","co38929","norming","","","","","","",""
"null","../img/tt/1275tt.jpg","null","mooney1","image-keyboard-response","84","430348","0.0-6.0-1.11","2717417","co38929","norming","","","","","","",""
"5532.020000000019","","","post_mooney1_questions","survey-likert","85","435882","0.0-6.0-2.11","2717417","co38929","norming","","","{""curiosity"":2,""confidence"":1}","[0,1]","../img/tt/1275tt.jpg","",""
"3677.905000000028","","","recognition","survey-text","86","439561","0.0-6.0-3.11","2717417","co38929","norming","","","{""guess"":""eekhoorn""}","","../img/tt/1275tt.jpg","",""
"null","../img/gs/1275gs.jpg","null","reveal","image-keyboard-response","87","441571","0.0-6.0-4.11","2717417","co38929","norming","","","","","","",""
"null","../img/tt/1275tt.jpg","null","mooney2","image-keyboard-response","88","443573","0.0-6.0-5.11","2717417","co38929","norming","","","","","","",""
"2420.3600000000442","","","post_reveal_questions","survey-likert","89","445994","0.0-6.0-6.11","2717417","co38929","norming","","","{""aha"":5}","[0]","../img/tt/1275tt.jpg","",""
"null","<div style=""font-size:60px;""> </div>","null","fixation","html-keyboard-response","90","446202","0.0-6.0-0.12","2717417","co38929","norming","","","","","","",""
"null","../img/tt/1069tt.jpg","null","mooney1","image-keyboard-response","91","449206","0.0-6.0-1.12","2717417","co38929","norming","","","","","","",""
"3554.100000000093","","","post_mooney1_questions","survey-likert","92","452762","0.0-6.0-2.12","2717417","co38929","norming","","","{""curiosity"":2,""confidence"":1}","[0,1]","../img/tt/1069tt.jpg","",""
"1630.295000000042","","","recognition","survey-text","93","454394","0.0-6.0-3.12","2717417","co38929","norming","","","{""guess"":""koe""}","","../img/tt/1069tt.jpg","",""
"null","../img/gs/1069gs.jpg","null","reveal","image-keyboard-response","94","456395","0.0-6.0-4.12","2717417","co38929","norming","","","","","","",""
"null","../img/tt/1069tt.jpg","null","mooney2","image-keyboard-response","95","458397","0.0-6.0-5.12","2717417","co38929","norming","","","","","","",""
"2867.155000000028","","","post_reveal_questions","survey-likert","96","461266","0.0-6.0-6.12","2717417","co38929","norming","","","{""aha"":5}","[0]","../img/tt/1069tt.jpg","",""
"null","<div style=""font-size:60px;""> </div>","null","fixation","html-keyboard-response","97","461473","0.0-6.0-0.13","2717417","co38929","norming","","","","","","",""
"null","../img/tt/112tt.jpg","null","mooney1","image-keyboard-response","98","464481","0.0-6.0-1.13","2717417","co38929","norming","","","","","","",""
"9414.785000000033","","","post_mooney1_questions","survey-likert","99","473898","0.0-6.0-2.13","2717417","co38929","norming","","","{""curiosity"":4,""confidence"":0}","[0,1]","../img/tt/112tt.jpg","",""
"838.2150000000256","","","recognition","survey-text","100","474738","0.0-6.0-3.13","2717417","co38929","norming","","","{""guess"":""""}","","../img/tt/112tt.jpg","",""
"null","../img/gs/112gs.jpg","null","reveal","image-keyboard-response","101","476740","0.0-6.0-4.13","2717417","co38929","norming","","","","","","",""
"null","../img/tt/112tt.jpg","null","mooney2","image-keyboard-response","102","478750","0.0-6.0-5.13","2717417","co38929","norming","","","","","","",""
"5482.2750000000815","","","post_reveal_questions","survey-likert","103","484234","0.0-6.0-6.13","2717417","co38929","norming","","","{""aha"":3}","[0]","../img/tt/112tt.jpg","",""
"null","<div style=""font-size:60px;""> </div>","null","fixation","html-keyboard-response","104","484442","0.0-6.0-0.14","2717417","co38929","norming","","","","","","",""
"null","../img/tt/126tt.jpg","null","mooney1","image-keyboard-response","105","487451","0.0-6.0-1.14","2717417","co38929","norming","","","","","","",""
"4251.90499999997","","","post_mooney1_questions","survey-likert","106","491706","0.0-6.0-2.14","2717417","co38929","norming","","","{""curiosity"":1,""confidence"":3}","[0,1]","../img/tt/126tt.jpg","",""
"1710.460000000021","","","recognition","survey-text","107","493418","0.0-6.0-3.14","2717417","co38929","norming","","","{""guess"":""koe""}","","../img/tt/126tt.jpg","",""
"null","../img/gs/126gs.jpg","null","reveal","image-keyboard-response","108","495420","0.0-6.0-4.14","2717417","co38929","norming","","","","","","",""
"null","../img/tt/126tt.jpg","null","mooney2","image-keyboard-response","109","497429","0.0-6.0-5.14","2717417","co38929","norming","","","","","","",""
"3368.9049999999115","","","post_reveal_questions","survey-likert","110","500802","0.0-6.0-6.14","2717417","co38929","norming","","","{""aha"":2}","[0]","../img/tt/126tt.jpg","",""
"null","<div style=""font-size:60px;""> </div>","null","fixation","html-keyboard-response","111","501012","0.0-6.0-0.15","2717417","co38929","norming","","","","","","",""
"null","../img/tt/507tt.jpg","null","mooney1","image-keyboard-response","112","504019","0.0-6.0-1.15","2717417","co38929","norming","","","","","","",""
"14612.294999999925","","","post_mooney1_questions","survey-likert","113","518633","0.0-6.0-2.15","2717417","co38929","norming","","","{""curiosity"":2,""confidence"":2}","[0,1]","../img/tt/507tt.jpg","",""
"8590.034999999974","","","recognition","survey-text","114","527224","0.0-6.0-3.15","2717417","co38929","norming","","","{""guess"":""danseressen""}","","../img/tt/507tt.jpg","",""
"null","../img/gs/507gs.jpg","null","reveal","image-keyboard-response","115","529226","0.0-6.0-4.15","2717417","co38929","norming","","","","","","",""
"null","../img/tt/507tt.jpg","null","mooney2","image-keyboard-response","116","531227","0.0-6.0-5.15","2717417","co38929","norming","","","","","","",""
"2250.560000000056","","","post_reveal_questions","survey-likert","117","533480","0.0-6.0-6.15","2717417","co38929","norming","","","{""aha"":5}","[0]","../img/tt/507tt.jpg","",""
"null","<div style=""font-size:60px;""> </div>","null","fixation","html-keyboard-response","118","533691","0.0-6.0-0.16","2717417","co38929","norming","","","","","","",""
"null","../img/tt/189tt.jpg","null","mooney1","image-keyboard-response","119","536703","0.0-6.0-1.16","2717417","co38929","norming","","","","","","",""
"21854.230000000098","","","post_mooney1_questions","survey-likert","120","558560","0.0-6.0-2.16","2717417","co38929","norming","","","{""curiosity"":3,""confidence"":0}","[0,1]","../img/tt/189tt.jpg","",""
"1158.3100000000559","","","recognition","survey-text","121","559720","0.0-6.0-3.16","2717417","co38929","norming","","","{""guess"":""""}","","../img/tt/189tt.jpg","",""
"null","../img/gs/189gs.jpg","null","reveal","image-keyboard-response","122","561724","0.0-6.0-4.16","2717417","co38929","norming","","","","","","",""
"null","../img/tt/189tt.jpg","null","mooney2","image-keyboard-response","123","563735","0.0-6.0-5.16","2717417","co38929","norming","","","","","","",""
"2175.6100000001024","","","post_reveal_questions","survey-likert","124","565912","0.0-6.0-6.16","2717417","co38929","norming","","","{""aha"":2}","[0]","../img/tt/189tt.jpg","",""
"null","<div style=""font-size:60px;""> </div>","null","fixation","html-keyboard-response","125","566123","0.0-6.0-0.17","2717417","co38929","norming","","","","","","",""
"null","../img/tt/442tt.jpg","null","mooney1","image-keyboard-response","126","569130","0.0-6.0-1.17","2717417","co38929","norming","","","","","","",""
"4045.25","","","post_mooney1_questions","survey-likert","127","573178","0.0-6.0-2.17","2717417","co38929","norming","","","{""curiosity"":2,""confidence"":1}","[0,1]","../img/tt/442tt.jpg","",""
"4054.060000000056","","","recognition","survey-text","128","577234","0.0-6.0-3.17","2717417","co38929","norming","","","{""guess"":""kat""}","","../img/tt/442tt.jpg","",""
"null","../img/gs/442gs.jpg","null","reveal","image-keyboard-response","129","579235","0.0-6.0-4.17","2717417","co38929","norming","","","","","","",""
"null","../img/tt/442tt.jpg","null","mooney2","image-keyboard-response","130","581242","0.0-6.0-5.17","2717417","co38929","norming","","","","","","",""
"1397.7850000000326","","","post_reveal_questions","survey-likert","131","582642","0.0-6.0-6.17","2717417","co38929","norming","","","{""aha"":3}","[0]","../img/tt/442tt.jpg","",""
"null","<div style=""font-size:60px;""> </div>","null","fixation","html-keyboard-response","132","582844","0.0-6.0-0.18","2717417","co38929","norming","","","","","","",""
"null","../img/tt/353tt.jpg","null","mooney1","image-keyboard-response","133","585848","0.0-6.0-1.18","2717417","co38929","norming","","","","","","",""
"6599.459999999963","","","post_mooney1_questions","survey-likert","134","592450","0.0-6.0-2.18","2717417","co38929","norming","","","{""curiosity"":1,""confidence"":1}","[0,1]","../img/tt/353tt.jpg","",""
"1814.145000000135","","","recognition","survey-text","135","594266","0.0-6.0-3.18","2717417","co38929","norming","","","{""guess"":""hond""}","","../img/tt/353tt.jpg","",""
"null","../img/gs/353gs.jpg","null","reveal","image-keyboard-response","136","596277","0.0-6.0-4.18","2717417","co38929","norming","","","","","","",""
"null","../img/tt/353tt.jpg","null","mooney2","image-keyboard-response","137","598287","0.0-6.0-5.18","2717417","co38929","norming","","","","","","",""
"2224.7249999999767","","","post_reveal_questions","survey-likert","138","600514","0.0-6.0-6.18","2717417","co38929","norming","","","{""aha"":3}","[0]","../img/tt/353tt.jpg","",""
"null","<div style=""font-size:60px;""> </div>","null","fixation","html-keyboard-response","139","600724","0.0-6.0-0.19","2717417","co38929","norming","","","","","","",""
"null","../img/tt/1128tt.jpg","null","mooney1","image-keyboard-response","140","603728","0.0-6.0-1.19","2717417","co38929","norming","","","","","","",""
"4264.445000000065","","","post_mooney1_questions","survey-likert","141","607994","0.0-6.0-2.19","2717417","co38929","norming","","","{""curiosity"":1,""confidence"":0}","[0,1]","../img/tt/1128tt.jpg","",""
"1021.9849999998696","","","recognition","survey-text","142","609018","0.0-6.0-3.19","2717417","co38929","norming","","","{""guess"":""""}","","../img/tt/1128tt.jpg","",""
"null","../img/gs/1128gs.jpg","null","reveal","image-keyboard-response","143","611019","0.0-6.0-4.19","2717417","co38929","norming","","","","","","",""
"null","../img/tt/1128tt.jpg","null","mooney2","image-keyboard-response","144","613030","0.0-6.0-5.19","2717417","co38929","norming","","","","","","",""
"3713.719999999972","","","post_reveal_questions","survey-likert","145","616746","0.0-6.0-6.19","2717417","co38929","norming","","","{""aha"":1}","[0]","../img/tt/1128tt.jpg","",""
"null","<div style=""font-size:60px;""> </div>","null","fixation","html-keyboard-response","146","616948","0.0-6.0-0.20","2717417","co38929","norming","","","","","","",""
"null","../img/tt/1070tt.jpg","null","mooney1","image-keyboard-response","147","619952","0.0-6.0-1.20","2717417","co38929","norming","","","","","","",""
"4736.585000000079","","","post_mooney1_questions","survey-likert","148","624690","0.0-6.0-2.20","2717417","co38929","norming","","","{""curiosity"":4,""confidence"":2}","[0,1]","../img/tt/1070tt.jpg","",""
"3390.1300000000047","","","recognition","survey-text","149","628081","0.0-6.0-3.20","2717417","co38929","norming","","","{""guess"":""kebab""}","","../img/tt/1070tt.jpg","",""
"null","../img/gs/1070gs.jpg","null","reveal","image-keyboard-response","150","630083","0.0-6.0-4.20","2717417","co38929","norming","","","","","","",""
"null","../img/tt/1070tt.jpg","null","mooney2","image-keyboard-response","151","632086","0.0-6.0-5.20","2717417","co38929","norming","","","","","","",""
"2969.7600000000093","","","post_reveal_questions","survey-likert","152","635058","0.0-6.0-6.20","2717417","co38929","norming","","","{""aha"":3}","[0]","../img/tt/1070tt.jpg","",""
"null","<div style=""font-size:60px;""> </div>","null","fixation","html-keyboard-response","153","635264","0.0-6.0-0.21","2717417","co38929","norming","","","","","","",""
"null","../img/tt/1202tt.jpg","null","mooney1","image-keyboard-response","154","638272","0.0-6.0-1.21","2717417","co38929","norming","","","","","","",""
"4118.754999999888","","","post_mooney1_questions","survey-likert","155","642394","0.0-6.0-2.21","2717417","co38929","norming","","","{""curiosity"":2,""confidence"":1}","[0,1]","../img/tt/1202tt.jpg","",""
"5718.094999999972","","","recognition","survey-text","156","648113","0.0-6.0-3.21","2717417","co38929","norming","","","{""guess"":""japaanse mensen""}","","../img/tt/1202tt.jpg","",""
"null","../img/gs/1202gs.jpg","null","reveal","image-keyboard-response","157","650121","0.0-6.0-4.21","2717417","co38929","norming","","","","","","",""
"null","../img/tt/1202tt.jpg","null","mooney2","image-keyboard-response","158","652126","0.0-6.0-5.21","2717417","co38929","norming","","","","","","",""
"1337.6599999999162","","","post_reveal_questions","survey-likert","159","653466","0.0-6.0-6.21","2717417","co38929","norming","","","{""aha"":4}","[0]","../img/tt/1202tt.jpg","",""
"null","<div style=""font-size:60px;""> </div>","null","fixation","html-keyboard-response","160","653674","0.0-6.0-0.22","2717417","co38929","norming","","","","","","",""
"null","../img/tt/1080tt.jpg","null","mooney1","image-keyboard-response","161","656680","0.0-6.0-1.22","2717417","co38929","norming","","","","","","",""
"8143.124999999884","","","post_mooney1_questions","survey-likert","162","664825","0.0-6.0-2.22","2717417","co38929","norming","","","{""curiosity"":1,""confidence"":0}","[0,1]","../img/tt/1080tt.jpg","",""
"1390.0100000001257","","","recognition","survey-text","163","666217","0.0-6.0-3.22","2717417","co38929","norming","","","{""guess"":""""}","","../img/tt/1080tt.jpg","",""
"null","../img/gs/1080gs.jpg","null","reveal","image-keyboard-response","164","668227","0.0-6.0-4.22","2717417","co38929","norming","","","","","","",""
"null","../img/tt/1080tt.jpg","null","mooney2","image-keyboard-response","165","670237","0.0-6.0-5.22","2717417","co38929","norming","","","","","","",""
"2203.3399999999674","","","post_reveal_questions","survey-likert","166","672441","0.0-6.0-6.22","2717417","co38929","norming","","","{""aha"":4}","[0]","../img/tt/1080tt.jpg","",""
"null","<div style=""font-size:60px;""> </div>","null","fixation","html-keyboard-response","167","672643","0.0-6.0-0.23","2717417","co38929","norming","","","","","","",""
"null","../img/tt/598tt.jpg","null","mooney1","image-keyboard-response","168","675646","0.0-6.0-1.23","2717417","co38929","norming","","","","","","",""
"3529.0149999998976","","","post_mooney1_questions","survey-likert","169","679178","0.0-6.0-2.23","2717417","co38929","norming","","","{""curiosity"":2,""confidence"":1}","[0,1]","../img/tt/598tt.jpg","",""
"1950.3950000000186","","","recognition","survey-text","170","681130","0.0-6.0-3.23","2717417","co38929","norming","","","{""guess"":""beer""}","","../img/tt/598tt.jpg","",""
"null","../img/gs/598gs.jpg","null","reveal","image-keyboard-response","171","683132","0.0-6.0-4.23","2717417","co38929","norming","","","","","","",""
"null","../img/tt/598tt.jpg","null","mooney2","image-keyboard-response","172","685143","0.0-6.0-5.23","2717417","co38929","norming","","","","","","",""
"2160.155000000028","","","post_reveal_questions","survey-likert","173","687306","0.0-6.0-6.23","2717417","co38929","norming","","","{""aha"":4}","[0]","../img/tt/598tt.jpg","",""
"null","<div style=""font-size:60px;""> </div>","null","fixation","html-keyboard-response","174","687516","0.0-6.0-0.24","2717417","co38929","norming","","","","","","",""
"null","../img/tt/060tt.jpg","null","mooney1","image-keyboard-response","175","690525","0.0-6.0-1.24","2717417","co38929","norming","","","","","","",""
"5082.204999999958","","","post_mooney1_questions","survey-likert","176","695611","0.0-6.0-2.24","2717417","co38929","norming","","","{""curiosity"":4,""confidence"":0}","[0,1]","../img/tt/060tt.jpg","",""
"918.1350000001257","","","recognition","survey-text","177","696530","0.0-6.0-3.24","2717417","co38929","norming","","","{""guess"":""""}","","../img/tt/060tt.jpg","",""
"null","../img/gs/060gs.jpg","null","reveal","image-keyboard-response","178","698536","0.0-6.0-4.24","2717417","co38929","norming","","","","","","",""
"null","../img/tt/060tt.jpg","null","mooney2","image-keyboard-response","179","700543","0.0-6.0-5.24","2717417","co38929","norming","","","","","","",""
"1905.5050000000047","","","post_reveal_questions","survey-likert","180","702450","0.0-6.0-6.24","2717417","co38929","norming","","","{""aha"":4}","[0]","../img/tt/060tt.jpg","",""
"null","<div style=""font-size:60px;""> </div>","null","fixation","html-keyboard-response","181","702659","0.0-6.0-0.25","2717417","co38929","norming","","","","","","",""
"null","../img/tt/1247tt.jpg","null","mooney1","image-keyboard-response","182","705662","0.0-6.0-1.25","2717417","co38929","norming","","","","","","",""
"4609.389999999898","","","post_mooney1_questions","survey-likert","183","710275","0.0-6.0-2.25","2717417","co38929","norming","","","{""curiosity"":5,""confidence"":0}","[0,1]","../img/tt/1247tt.jpg","",""
"1005.7000000001863","","","recognition","survey-text","184","711282","0.0-6.0-3.25","2717417","co38929","norming","","","{""guess"":""""}","","../img/tt/1247tt.jpg","",""
"null","../img/gs/1247gs.jpg","null","reveal","image-keyboard-response","185","713286","0.0-6.0-4.25","2717417","co38929","norming","","","","","","",""
"null","../img/tt/1247tt.jpg","null","mooney2","image-keyboard-response","186","715294","0.0-6.0-5.25","2717417","co38929","norming","","","","","","",""
"3498.215000000084","","","post_reveal_questions","survey-likert","187","718794","0.0-6.0-6.25","2717417","co38929","norming","","","{""aha"":4}","[0]","../img/tt/1247tt.jpg","",""
"null","<div style=""font-size:60px;""> </div>","null","fixation","html-keyboard-response","188","718998","0.0-6.0-0.26","2717417","co38929","norming","","","","","","",""
"null","../img/tt/534tt.jpg","null","mooney1","image-keyboard-response","189","722009","0.0-6.0-1.26","2717417","co38929","norming","","","","","","",""
"4007.1199999999953","","","post_mooney1_questions","survey-likert","190","726018","0.0-6.0-2.26","2717417","co38929","norming","","","{""curiosity"":4,""confidence"":0}","[0,1]","../img/tt/534tt.jpg","",""
"1094.1299999998882","","","recognition","survey-text","191","727114","0.0-6.0-3.26","2717417","co38929","norming","","","{""guess"":""""}","","../img/tt/534tt.jpg","",""
"null","../img/gs/534gs.jpg","null","reveal","image-keyboard-response","192","729123","0.0-6.0-4.26","2717417","co38929","norming","","","","","","",""
"null","../img/tt/534tt.jpg","null","mooney2","image-keyboard-response","193","731125","0.0-6.0-5.26","2717417","co38929","norming","","","","","","",""
"3434.715000000084","","","post_reveal_questions","survey-likert","194","734562","0.0-6.0-6.26","2717417","co38929","norming","","","{""aha"":2}","[0]","../img/tt/534tt.jpg","",""
"null","<div style=""font-size:60px;""> </div>","null","fixation","html-keyboard-response","195","734770","0.0-6.0-0.27","2717417","co38929","norming","","","","","","",""
"null","../img/tt/055tt.jpg","null","mooney1","image-keyboard-response","196","737779","0.0-6.0-1.27","2717417","co38929","norming","","","","","","",""
"4158.189999999944","","","post_mooney1_questions","survey-likert","197","741938","0.0-6.0-2.27","2717417","co38929","norming","","","{""curiosity"":2,""confidence"":1}","[0,1]","../img/tt/055tt.jpg","",""
"1670.1050000000978","","","recognition","survey-text","198","743610","0.0-6.0-3.27","2717417","co38929","norming","","","{""guess"":""bier""}","","../img/tt/055tt.jpg","",""
"null","../img/gs/055gs.jpg","null","reveal","image-keyboard-response","199","745621","0.0-6.0-4.27","2717417","co38929","norming","","","","","","",""
"null","../img/tt/055tt.jpg","null","mooney2","image-keyboard-response","200","747625","0.0-6.0-5.27","2717417","co38929","norming","","","","","","",""
"2431.865000000107","","","post_reveal_questions","survey-likert","201","750058","0.0-6.0-6.27","2717417","co38929","norming","","","{""aha"":3}","[0]","../img/tt/055tt.jpg","",""
"null","<div style=""font-size:60px;""> </div>","null","fixation","html-keyboard-response","202","750269","0.0-6.0-0.28","2717417","co38929","norming","","","","","","",""
"null","../img/tt/1127tt.jpg","null","mooney1","image-keyboard-response","203","753277","0.0-6.0-1.28","2717417","co38929","norming","","","","","","",""
"3238.8700000001118","","","post_mooney1_questions","survey-likert","204","756517","0.0-6.0-2.28","2717417","co38929","norming","","","{""curiosity"":3,""confidence"":1}","[0,1]","../img/tt/1127tt.jpg","",""
"3678.030000000028","","","recognition","survey-text","205","760197","0.0-6.0-3.28","2717417","co38929","norming","","","{""guess"":""gevecht""}","","../img/tt/1127tt.jpg","",""
"null","../img/gs/1127gs.jpg","null","reveal","image-keyboard-response","206","762204","0.0-6.0-4.28","2717417","co38929","norming","","","","","","",""
"null","../img/tt/1127tt.jpg","null","mooney2","image-keyboard-response","207","764207","0.0-6.0-5.28","2717417","co38929","norming","","","","","","",""
"3275.515000000014","","","post_reveal_questions","survey-likert","208","767484","0.0-6.0-6.28","2717417","co38929","norming","","","{""aha"":2}","[0]","../img/tt/1127tt.jpg","",""
"null","<div style=""font-size:60px;""> </div>","null","fixation","html-keyboard-response","209","767686","0.0-6.0-0.29","2717417","co38929","norming","","","","","","",""
"null","../img/tt/1033tt.jpg","null","mooney1","image-keyboard-response","210","770695","0.0-6.0-1.29","2717417","co38929","norming","","","","","","",""
"6179.295000000158","","","post_mooney1_questions","survey-likert","211","776877","0.0-6.0-2.29","2717417","co38929","norming","","","{""curiosity"":2,""confidence"":1}","[0,1]","../img/tt/1033tt.jpg","",""
"2190.1300000000047","","","recognition","survey-text","212","779069","0.0-6.0-3.29","2717417","co38929","norming","","","{""guess"":""pen""}","","../img/tt/1033tt.jpg","",""
"null","../img/gs/1033gs.jpg","null","reveal","image-keyboard-response","213","781074","0.0-6.0-4.29","2717417","co38929","norming","","","","","","",""
"null","../img/tt/1033tt.jpg","null","mooney2","image-keyboard-response","214","783078","0.0-6.0-5.29","2717417","co38929","norming","","","","","","",""
"4916.104999999981","","","post_reveal_questions","survey-likert","215","787997","0.0-6.0-6.29","2717417","co38929","norming","","","{""aha"":5}","[0]","../img/tt/1033tt.jpg","",""
"null","<div style=""font-size:60px;""> </div>","null","fixation","html-keyboard-response","216","788206","0.0-6.0-0.30","2717417","co38929","norming","","","","","","",""
"null","../img/tt/435tt.jpg","null","mooney1","image-keyboard-response","217","791216","0.0-6.0-1.30","2717417","co38929","norming","","","","","","",""
"2875.42499999993","","","post_mooney1_questions","survey-likert","218","794093","0.0-6.0-2.30","2717417","co38929","norming","","","{""curiosity"":2,""confidence"":1}","[0,1]","../img/tt/435tt.jpg","",""
"2782.365000000107","","","recognition","survey-text","219","796877","0.0-6.0-3.30","2717417","co38929","norming","","","{""guess"":""kamer""}","","../img/tt/435tt.jpg","",""
"null","../img/gs/435gs.jpg","null","reveal","image-keyboard-response","220","798887","0.0-6.0-4.30","2717417","co38929","norming","","","","","","",""
"null","../img/tt/435tt.jpg","null","mooney2","image-keyboard-response","221","800890","0.0-6.0-5.30","2717417","co38929","norming","","","","","","",""
"2169.230000000214","","","post_reveal_questions","survey-likert","222","803061","0.0-6.0-6.30","2717417","co38929","norming","","","{""aha"":3}","[0]","../img/tt/435tt.jpg","",""
"null","<div style=""font-size:60px;""> </div>","null","fixation","html-keyboard-response","223","803271","0.0-6.0-0.31","2717417","co38929","norming","","","","","","",""
"null","../img/tt/1125tt.jpg","null","mooney1","image-keyboard-response","224","806275","0.0-6.0-1.31","2717417","co38929","norming","","","","","","",""
"4255.549999999814","","","post_mooney1_questions","survey-likert","225","810533","0.0-6.0-2.31","2717417","co38929","norming","","","{""curiosity"":2,""confidence"":2}","[0,1]","../img/tt/1125tt.jpg","",""
"2613.860000000219","","","recognition","survey-text","226","813148","0.0-6.0-3.31","2717417","co38929","norming","","","{""guess"":""billiard""}","","../img/tt/1125tt.jpg","",""
"null","../img/gs/1125gs.jpg","null","reveal","image-keyboard-response","227","815155","0.0-6.0-4.31","2717417","co38929","norming","","","","","","",""
"null","../img/tt/1125tt.jpg","null","mooney2","image-keyboard-response","228","817161","0.0-6.0-5.31","2717417","co38929","norming","","","","","","",""
"2742.185000000056","","","post_reveal_questions","survey-likert","229","819904","0.0-6.0-6.31","2717417","co38929","norming","","","{""aha"":2}","[0]","../img/tt/1125tt.jpg","",""
"null","<div style=""font-size:60px;""> </div>","null","fixation","html-keyboard-response","230","820106","0.0-6.0-0.32","2717417","co38929","norming","","","","","","",""
"null","../img/tt/140tt.jpg","null","mooney1","image-keyboard-response","231","823108","0.0-6.0-1.32","2717417","co38929","norming","","","","","","",""
"5339.82500000007","","","post_mooney1_questions","survey-likert","232","828449","0.0-6.0-2.32","2717417","co38929","norming","","","{""curiosity"":3,""confidence"":0}","[0,1]","../img/tt/140tt.jpg","",""
"509.8849999998929","","","recognition","survey-text","233","828960","0.0-6.0-3.32","2717417","co38929","norming","","","{""guess"":""""}","","../img/tt/140tt.jpg","",""
"null","../img/gs/140gs.jpg","null","reveal","image-keyboard-response","234","830968","0.0-6.0-4.32","2717417","co38929","norming","","","","","","",""
"null","../img/tt/140tt.jpg","null","mooney2","image-keyboard-response","235","832978","0.0-6.0-5.32","2717417","co38929","norming","","","","","","",""
"5621.209999999846","","","post_reveal_questions","survey-likert","236","838601","0.0-6.0-6.32","2717417","co38929","norming","","","{""aha"":3}","[0]","../img/tt/140tt.jpg","",""
"null","<div style=""font-size:60px;""> </div>","null","fixation","html-keyboard-response","237","838808","0.0-6.0-0.33","2717417","co38929","norming","","","","","","",""
"null","../img/tt/1279tt.jpg","null","mooney1","image-keyboard-response","238","841818","0.0-6.0-1.33","2717417","co38929","norming","","","","","","",""
"2949.1399999998976","","","post_mooney1_questions","survey-likert","239","844768","0.0-6.0-2.33","2717417","co38929","norming","","","{""curiosity"":1,""confidence"":1}","[0,1]","../img/tt/1279tt.jpg","",""
"6693.76500000013","","","recognition","survey-text","240","851464","0.0-6.0-3.33","2717417","co38929","norming","","","{""guess"":""spoken""}","","../img/tt/1279tt.jpg","",""
"null","../img/gs/1279gs.jpg","null","reveal","image-keyboard-response","241","853471","0.0-6.0-4.33","2717417","co38929","norming","","","","","","",""
"null","../img/tt/1279tt.jpg","null","mooney2","image-keyboard-response","242","855482","0.0-6.0-5.33","2717417","co38929","norming","","","","","","",""
"2205.4649999999674","","","post_reveal_questions","survey-likert","243","857688","0.0-6.0-6.33","2717417","co38929","norming","","","{""aha"":4}","[0]","../img/tt/1279tt.jpg","",""
"null","<div style=""font-size:60px;""> </div>","null","fixation","html-keyboard-response","244","857891","0.0-6.0-0.34","2717417","co38929","norming","","","","","","",""
"null","../img/tt/1269tt.jpg","null","mooney1","image-keyboard-response","245","860902","0.0-6.0-1.34","2717417","co38929","norming","","","","","","",""
"13761.160000000033","","","post_mooney1_questions","survey-likert","246","874665","0.0-6.0-2.34","2717417","co38929","norming","","","{""curiosity"":2,""confidence"":0}","[0,1]","../img/tt/1269tt.jpg","",""
"941.890000000014","","","recognition","survey-text","247","875609","0.0-6.0-3.34","2717417","co38929","norming","","","{""guess"":""""}","","../img/tt/1269tt.jpg","",""
"null","../img/gs/1269gs.jpg","null","reveal","image-keyboard-response","248","877615","0.0-6.0-4.34","2717417","co38929","norming","","","","","","",""
"null","../img/tt/1269tt.jpg","null","mooney2","image-keyboard-response","249","879622","0.0-6.0-5.34","2717417","co38929","norming","","","","","","",""
"1793.4599999998463","","","post_reveal_questions","survey-likert","250","881417","0.0-6.0-6.34","2717417","co38929","norming","","","{""aha"":2}","[0]","../img/tt/1269tt.jpg","",""
"null","<div style=""font-size:60px;""> </div>","null","fixation","html-keyboard-response","251","881627","0.0-6.0-0.35","2717417","co38929","norming","","","","","","",""
"null","../img/tt/1272tt.jpg","null","mooney1","image-keyboard-response","252","884633","0.0-6.0-1.35","2717417","co38929","norming","","","","","","",""
"2831.3000000000466","","","post_mooney1_questions","survey-likert","253","887465","0.0-6.0-2.35","2717417","co38929","norming","","","{""curiosity"":2,""confidence"":1}","[0,1]","../img/tt/1272tt.jpg","",""
"2526.404999999795","","","recognition","survey-text","254","889993","0.0-6.0-3.35","2717417","co38929","norming","","","{""guess"":""kosmos""}","","../img/tt/1272tt.jpg","",""
"null","../img/gs/1272gs.jpg","null","reveal","image-keyboard-response","255","891997","0.0-6.0-4.35","2717417","co38929","norming","","","","","","",""
"null","../img/tt/1272tt.jpg","null","mooney2","image-keyboard-response","256","894004","0.0-6.0-5.35","2717417","co38929","norming","","","","","","",""
"2380.8750000001164","","","post_reveal_questions","survey-likert","257","896385","0.0-6.0-6.35","2717417","co38929","norming","","","{""aha"":3}","[0]","../img/tt/1272tt.jpg","",""
"null","<div style=""font-size:60px;""> </div>","null","fixation","html-keyboard-response","258","896590","0.0-6.0-0.36","2717417","co38929","norming","","","","","","",""
"null","../img/tt/194tt.jpg","null","mooney1","image-keyboard-response","259","899601","0.0-6.0-1.36","2717417","co38929","norming","","","","","","",""
"3479.5599999999395","","","post_mooney1_questions","survey-likert","260","903081","0.0-6.0-2.36","2717417","co38929","norming","","","{""curiosity"":1,""confidence"":1}","[0,1]","../img/tt/194tt.jpg","",""
"2046.2299999999814","","","recognition","survey-text","261","905129","0.0-6.0-3.36","2717417","co38929","norming","","","{""guess"":""nonnen""}","","../img/tt/194tt.jpg","",""
"null","../img/gs/194gs.jpg","null","reveal","image-keyboard-response","262","907139","0.0-6.0-4.36","2717417","co38929","norming","","","","","","",""
"null","../img/tt/194tt.jpg","null","mooney2","image-keyboard-response","263","909149","0.0-6.0-5.36","2717417","co38929","norming","","","","","","",""
"1641.4649999999674","","","post_reveal_questions","survey-likert","264","910793","0.0-6.0-6.36","2717417","co38929","norming","","","{""aha"":2}","[0]","../img/tt/194tt.jpg","",""
"null","<div style=""font-size:60px;""> </div>","null","fixation","html-keyboard-response","265","910995","0.0-6.0-0.37","2717417","co38929","norming","","","","","","",""
"null","../img/tt/1276tt.jpg","null","mooney1","image-keyboard-response","266","913999","0.0-6.0-1.37","2717417","co38929","norming","","","","","","",""
"4527.265000000247","","","post_mooney1_questions","survey-likert","267","918529","0.0-6.0-2.37","2717417","co38929","norming","","","{""curiosity"":2,""confidence"":0}","[0,1]","../img/tt/1276tt.jpg","",""
"662.1149999998743","","","recognition","survey-text","268","919193","0.0-6.0-3.37","2717417","co38929","norming","","","{""guess"":""""}","","../img/tt/1276tt.jpg","",""
"null","../img/gs/1276gs.jpg","null","reveal","image-keyboard-response","269","921194","0.0-6.0-4.37","2717417","co38929","norming","","","","","","",""
"null","../img/tt/1276tt.jpg","null","mooney2","image-keyboard-response","270","923197","0.0-6.0-5.37","2717417","co38929","norming","","","","","","",""
"3592.689999999944","","","post_reveal_questions","survey-likert","271","926793","0.0-6.0-6.37","2717417","co38929","norming","","","{""aha"":1}","[0]","../img/tt/1276tt.jpg","",""
"null","<div style=""font-size:60px;""> </div>","null","fixation","html-keyboard-response","272","927003","0.0-6.0-0.38","2717417","co38929","norming","","","","","","",""
"null","../img/tt/121tt.jpg","null","mooney1","image-keyboard-response","273","930009","0.0-6.0-1.38","2717417","co38929","norming","","","","","","",""
"3221.5849999999627","","","post_mooney1_questions","survey-likert","274","933233","0.0-6.0-2.38","2717417","co38929","norming","","","{""curiosity"":2,""confidence"":1}","[0,1]","../img/tt/121tt.jpg","",""
"2102.1149999999907","","","recognition","survey-text","275","935342","0.0-6.0-3.38","2717417","co38929","norming","","","{""guess"":""rivier""}","","../img/tt/121tt.jpg","",""
"null","../img/gs/121gs.jpg","null","reveal","image-keyboard-response","276","937351","0.0-6.0-4.38","2717417","co38929","norming","","","","","","",""
"null","../img/tt/121tt.jpg","null","mooney2","image-keyboard-response","277","939362","0.0-6.0-5.38","2717417","co38929","norming","","","","","","",""
"1818.0400000000373","","","post_reveal_questions","survey-likert","278","941182","0.0-6.0-6.38","2717417","co38929","norming","","","{""aha"":3}","[0]","../img/tt/121tt.jpg","",""
"null","<div style=""font-size:60px;""> </div>","null","fixation","html-keyboard-response","279","941390","0.0-6.0-0.39","2717417","co38929","norming","","","","","","",""
"null","../img/tt/010tt.jpg","null","mooney1","image-keyboard-response","280","944395","0.0-6.0-1.39","2717417","co38929","norming","","","","","","",""
"4455.730000000214","","","post_mooney1_questions","survey-likert","281","948854","0.0-6.0-2.39","2717417","co38929","norming","","","{""curiosity"":1,""confidence"":1}","[0,1]","../img/tt/010tt.jpg","",""
"2213.8699999999953","","","recognition","survey-text","282","951070","0.0-6.0-3.39","2717417","co38929","norming","","","{""guess"":""muis""}","","../img/tt/010tt.jpg","",""
"null","../img/gs/010gs.jpg","null","reveal","image-keyboard-response","283","953077","0.0-6.0-4.39","2717417","co38929","norming","","","","","","",""
"null","../img/tt/010tt.jpg","null","mooney2","image-keyboard-response","284","955083","0.0-6.0-5.39","2717417","co38929","norming","","","","","","",""
"3682.444999999949","","","post_reveal_questions","survey-likert","285","958766","0.0-6.0-6.39","2717417","co38929","norming","","","{""aha"":4}","[0]","../img/tt/010tt.jpg","",""
"null","<div style=""font-size:60px;""> </div>","null","fixation","html-keyboard-response","286","958970","0.0-6.0-0.40","2717417","co38929","norming","","","","","","",""
"null","../img/tt/567tt.jpg","null","mooney1","image-keyboard-response","287","961973","0.0-6.0-1.40","2717417","co38929","norming","","","","","","",""
"11008.230000000098","","","post_mooney1_questions","survey-likert","288","972982","0.0-6.0-2.40","2717417","co38929","norming","","","{""curiosity"":1,""confidence"":5}","[0,1]","../img/tt/567tt.jpg","",""
"3238.0899999999674","","","recognition","survey-text","289","976222","0.0-6.0-3.40","2717417","co38929","norming","","","{""guess"":""tostie""}","","../img/tt/567tt.jpg","",""
"null","../img/gs/567gs.jpg","null","reveal","image-keyboard-response","290","978230","0.0-6.0-4.40","2717417","co38929","norming","","","","","","",""
"null","../img/tt/567tt.jpg","null","mooney2","image-keyboard-response","291","980241","0.0-6.0-5.40","2717417","co38929","norming","","","","","","",""
"4418.570000000065","","","post_reveal_questions","survey-likert","292","984662","0.0-6.0-6.40","2717417","co38929","norming","","","{""aha"":1}","[0]","../img/tt/567tt.jpg","",""
"null","<div style=""font-size:60px;""> </div>","null","fixation","html-keyboard-response","293","984864","0.0-6.0-0.41","2717417","co38929","norming","","","","","","",""
"null","../img/tt/1044tt.jpg","null","mooney1","image-keyboard-response","294","987869","0.0-6.0-1.41","2717417","co38929","norming","","","","","","",""
"5341.7200000000885","","","post_mooney1_questions","survey-likert","295","993214","0.0-6.0-2.41","2717417","co38929","norming","","","{""curiosity"":1,""confidence"":1}","[0,1]","../img/tt/1044tt.jpg","",""
"3950.0650000000605","","","recognition","survey-text","296","997171","0.0-6.0-3.41","2717417","co38929","norming","","","{""guess"":""maskers""}","","../img/tt/1044tt.jpg","",""
"null","../img/gs/1044gs.jpg","null","reveal","image-keyboard-response","297","999178","0.0-6.0-4.41","2717417","co38929","norming","","","","","","",""
"null","../img/tt/1044tt.jpg","null","mooney2","image-keyboard-response","298","1001188","0.0-6.0-5.41","2717417","co38929","norming","","","","","","",""
"1949.1800000000512","","","post_reveal_questions","survey-likert","299","1003140","0.0-6.0-6.41","2717417","co38929","norming","","","{""aha"":1}","[0]","../img/tt/1044tt.jpg","",""
"null","<div style=""font-size:60px;""> </div>","null","fixation","html-keyboard-response","300","1003344","0.0-6.0-0.42","2717417","co38929","norming","","","","","","",""
"null","../img/tt/1146tt.jpg","null","mooney1","image-keyboard-response","301","1006355","0.0-6.0-1.42","2717417","co38929","norming","","","","","","",""
"7718.15000000014","","","post_mooney1_questions","survey-likert","302","1014076","0.0-6.0-2.42","2717417","co38929","norming","","","{""curiosity"":2,""confidence"":0}","[0,1]","../img/tt/1146tt.jpg","",""
"629.9650000000838","","","recognition","survey-text","303","1014707","0.0-6.0-3.42","2717417","co38929","norming","","","{""guess"":""""}","","../img/tt/1146tt.jpg","",""
"null","../img/gs/1146gs.jpg","null","reveal","image-keyboard-response","304","1016718","0.0-6.0-4.42","2717417","co38929","norming","","","","","","",""
"null","../img/tt/1146tt.jpg","null","mooney2","image-keyboard-response","305","1018726","0.0-6.0-5.42","2717417","co38929","norming","","","","","","",""
"1986.6450000000186","","","post_reveal_questions","survey-likert","306","1020716","0.0-6.0-6.42","2717417","co38929","norming","","","{""aha"":5}","[0]","../img/tt/1146tt.jpg","",""
"null","<div style=""font-size:60px;""> </div>","null","fixation","html-keyboard-response","307","1020922","0.0-6.0-0.43","2717417","co38929","norming","","","","","","",""
"null","../img/tt/007tt.jpg","null","mooney1","image-keyboard-response","308","1023931","0.0-6.0-1.43","2717417","co38929","norming","","","","","","",""
"5013.65000000014","","","post_mooney1_questions","survey-likert","309","1028948","0.0-6.0-2.43","2717417","co38929","norming","","","{""curiosity"":5,""confidence"":1}","[0,1]","../img/tt/007tt.jpg","",""
"3822.0599999999395","","","recognition","survey-text","310","1032771","0.0-6.0-3.43","2717417","co38929","norming","","","{""guess"":""spook""}","","../img/tt/007tt.jpg","",""
"null","../img/gs/007gs.jpg","null","reveal","image-keyboard-response","311","1034778","0.0-6.0-4.43","2717417","co38929","norming","","","","","","",""
"null","../img/tt/007tt.jpg","null","mooney2","image-keyboard-response","312","1036782","0.0-6.0-5.43","2717417","co38929","norming","","","","","","",""
"2617.6850000001723","","","post_reveal_questions","survey-likert","313","1039403","0.0-6.0-6.43","2717417","co38929","norming","","","{""aha"":1}","[0]","../img/tt/007tt.jpg","",""
"null","<div style=""font-size:60px;""> </div>","null","fixation","html-keyboard-response","314","1039612","0.0-6.0-0.44","2717417","co38929","norming","","","","","","",""
"null","../img/tt/1161tt.jpg","null","mooney1","image-keyboard-response","315","1042621","0.0-6.0-1.44","2717417","co38929","norming","","","","","","",""
"3955.375","","","post_mooney1_questions","survey-likert","316","1046579","0.0-6.0-2.44","2717417","co38929","norming","","","{""curiosity"":1,""confidence"":0}","[0,1]","../img/tt/1161tt.jpg","",""
"718.3049999998184","","","recognition","survey-text","317","1047299","0.0-6.0-3.44","2717417","co38929","norming","","","{""guess"":""""}","","../img/tt/1161tt.jpg","",""
"null","../img/gs/1161gs.jpg","null","reveal","image-keyboard-response","318","1049305","0.0-6.0-4.44","2717417","co38929","norming","","","","","","",""
"null","../img/tt/1161tt.jpg","null","mooney2","image-keyboard-response","319","1051316","0.0-6.0-5.44","2717417","co38929","norming","","","","","","",""
"2124.774999999907","","","post_reveal_questions","survey-likert","320","1053443","0.0-6.0-6.44","2717417","co38929","norming","","","{""aha"":5}","[0]","../img/tt/1161tt.jpg","",""
"null","<div style=""font-size:60px;""> </div>","null","fixation","html-keyboard-response","321","1053653","0.0-6.0-0.45","2717417","co38929","norming","","","","","","",""
"null","../img/tt/053tt.jpg","null","mooney1","image-keyboard-response","322","1056655","0.0-6.0-1.45","2717417","co38929","norming","","","","","","",""
"5633.915000000037","","","post_mooney1_questions","survey-likert","323","1062291","0.0-6.0-2.45","2717417","co38929","norming","","","{""curiosity"":4,""confidence"":1}","[0,1]","../img/tt/053tt.jpg","",""
"4221.964999999851","","","recognition","survey-text","324","1066515","0.0-6.0-3.45","2717417","co38929","norming","","","{""guess"":""masker""}","","../img/tt/053tt.jpg","",""
"null","../img/gs/053gs.jpg","null","reveal","image-keyboard-response","325","1068523","0.0-6.0-4.45","2717417","co38929","norming","","","","","","",""
"null","../img/tt/053tt.jpg","null","mooney2","image-keyboard-response","326","1070535","0.0-6.0-5.45","2717417","co38929","norming","","","","","","",""
"2474.410000000149","","","post_reveal_questions","survey-likert","327","1073011","0.0-6.0-6.45","2717417","co38929","norming","","","{""aha"":4}","[0]","../img/tt/053tt.jpg","",""
"null","<div style=""font-size:60px;""> </div>","null","fixation","html-keyboard-response","328","1073221","0.0-6.0-0.46","2717417","co38929","norming","","","","","","",""
"null","../img/tt/1227tt.jpg","null","mooney1","image-keyboard-response","329","1076227","0.0-6.0-1.46","2717417","co38929","norming","","","","","","",""
"3117.0449999999255","","","post_mooney1_questions","survey-likert","330","1079347","0.0-6.0-2.46","2717417","co38929","norming","","","{""curiosity"":0,""confidence"":0}","[0,1]","../img/tt/1227tt.jpg","",""
"774.0000000002328","","","recognition","survey-text","331","1080123","0.0-6.0-3.46","2717417","co38929","norming","","","{""guess"":""""}","","../img/tt/1227tt.jpg","",""
"null","../img/gs/1227gs.jpg","null","reveal","image-keyboard-response","332","1082128","0.0-6.0-4.46","2717417","co38929","norming","","","","","","",""
"null","../img/tt/1227tt.jpg","null","mooney2","image-keyboard-response","333","1084130","0.0-6.0-5.46","2717417","co38929","norming","","","","","","",""
"3126.869999999879","","","post_reveal_questions","survey-likert","334","1087259","0.0-6.0-6.46","2717417","co38929","norming","","","{""aha"":1}","[0]","../img/tt/1227tt.jpg","",""
"null","<div style=""font-size:60px;""> </div>","null","fixation","html-keyboard-response","335","1087464","0.0-6.0-0.47","2717417","co38929","norming","","","","","","",""
"null","../img/tt/046tt.jpg","null","mooney1","image-keyboard-response","336","1090476","0.0-6.0-1.47","2717417","co38929","norming","","","","","","",""
"5012.055000000168","","","post_mooney1_questions","survey-likert","337","1095491","0.0-6.0-2.47","2717417","co38929","norming","","","{""curiosity"":2,""confidence"":0}","[0,1]","../img/tt/046tt.jpg","",""
"709.6850000000559","","","recognition","survey-text","338","1096203","0.0-6.0-3.47","2717417","co38929","norming","","","{""guess"":""""}","","../img/tt/046tt.jpg","",""
"null","../img/gs/046gs.jpg","null","reveal","image-keyboard-response","339","1098210","0.0-6.0-4.47","2717417","co38929","norming","","","","","","",""
"null","../img/tt/046tt.jpg","null","mooney2","image-keyboard-response","340","1100212","0.0-6.0-5.47","2717417","co38929","norming","","","","","","",""
"2645.005000000121","","","post_reveal_questions","survey-likert","341","1102859","0.0-6.0-6.47","2717417","co38929","norming","","","{""aha"":2}","[0]","../img/tt/046tt.jpg","",""
"null","<div style=""font-size:60px;""> </div>","null","fixation","html-keyboard-response","342","1103067","0.0-6.0-0.48","2717417","co38929","norming","","","","","","",""
"null","../img/tt/273tt.jpg","null","mooney1","image-keyboard-response","343","1106071","0.0-6.0-1.48","2717417","co38929","norming","","","","","","",""
"4890.175000000047","","","post_mooney1_questions","survey-likert","344","1110963","0.0-6.0-2.48","2717417","co38929","norming","","","{""curiosity"":2,""confidence"":2}","[0,1]","../img/tt/273tt.jpg","",""
"5669.874999999767","","","recognition","survey-text","345","1116635","0.0-6.0-3.48","2717417","co38929","norming","","","{""guess"":""boterham""}","","../img/tt/273tt.jpg","",""
"null","../img/gs/273gs.jpg","null","reveal","image-keyboard-response","346","1118637","0.0-6.0-4.48","2717417","co38929","norming","","","","","","",""
"null","../img/tt/273tt.jpg","null","mooney2","image-keyboard-response","347","1120648","0.0-6.0-5.48","2717417","co38929","norming","","","","","","",""
"2072.570000000065","","","post_reveal_questions","survey-likert","348","1122723","0.0-6.0-6.48","2717417","co38929","norming","","","{""aha"":3}","[0]","../img/tt/273tt.jpg","",""
"null","<div style=""font-size:60px;""> </div>","null","fixation","html-keyboard-response","349","1122925","0.0-6.0-0.49","2717417","co38929","norming","","","","","","",""
"null","../img/tt/1159tt.jpg","null","mooney1","image-keyboard-response","350","1125933","0.0-6.0-1.49","2717417","co38929","norming","","","","","","",""
"3866.350000000093","","","post_mooney1_questions","survey-likert","351","1129803","0.0-6.0-2.49","2717417","co38929","norming","","","{""curiosity"":2,""confidence"":1}","[0,1]","../img/tt/1159tt.jpg","",""
"3237.8850000000093","","","recognition","survey-text","352","1133043","0.0-6.0-3.49","2717417","co38929","norming","","","{""guess"":""brug""}","","../img/tt/1159tt.jpg","",""
"null","../img/gs/1159gs.jpg","null","reveal","image-keyboard-response","353","1135048","0.0-6.0-4.49","2717417","co38929","norming","","","","","","",""
"null","../img/tt/1159tt.jpg","null","mooney2","image-keyboard-response","354","1137051","0.0-6.0-5.49","2717417","co38929","norming","","","","","","",""
"1918.0149999998976","","","post_reveal_questions","survey-likert","355","1138971","0.0-6.0-6.49","2717417","co38929","norming","","","{""aha"":2}","[0]","../img/tt/1159tt.jpg","",""
"null","<div style=""font-size:60px;""> </div>","null","fixation","html-keyboard-response","356","1139172","0.0-6.0-0.50","2717417","co38929","norming","","","","","","",""
"null","../img/tt/1123tt.jpg","null","mooney1","image-keyboard-response","357","1142176","0.0-6.0-1.50","2717417","co38929","norming","","","","","","",""
"2711.0999999998603","","","post_mooney1_questions","survey-likert","358","1144891","0.0-6.0-2.50","2717417","co38929","norming","","","{""curiosity"":1,""confidence"":2}","[0,1]","../img/tt/1123tt.jpg","",""
"3190.2900000000373","","","recognition","survey-text","359","1148083","0.0-6.0-3.50","2717417","co38929","norming","","","{""guess"":""basketball""}","","../img/tt/1123tt.jpg","",""
"null","../img/gs/1123gs.jpg","null","reveal","image-keyboard-response","360","1150093","0.0-6.0-4.50","2717417","co38929","norming","","","","","","",""
"null","../img/tt/1123tt.jpg","null","mooney2","image-keyboard-response","361","1152100","0.0-6.0-5.50","2717417","co38929","norming","","","","","","",""
"2852.010000000242","","","post_reveal_questions","survey-likert","362","1154955","0.0-6.0-6.50","2717417","co38929","norming","","","{""aha"":3}","[0]","../img/tt/1123tt.jpg","",""
"null","<div style=""font-size:60px;""> </div>","null","fixation","html-keyboard-response","363","1155156","0.0-6.0-0.51","2717417","co38929","norming","","","","","","",""
"null","../img/tt/013tt.jpg","null","mooney1","image-keyboard-response","364","1158168","0.0-6.0-1.51","2717417","co38929","norming","","","","","","",""
"3272.2599999997765","","","post_mooney1_questions","survey-likert","365","1161443","0.0-6.0-2.51","2717417","co38929","norming","","","{""curiosity"":3,""confidence"":0}","[0,1]","../img/tt/013tt.jpg","",""
"797.9149999998044","","","recognition","survey-text","366","1162243","0.0-6.0-3.51","2717417","co38929","norming","","","{""guess"":""""}","","../img/tt/013tt.jpg","",""
"null","../img/gs/013gs.jpg","null","reveal","image-keyboard-response","367","1164244","0.0-6.0-4.51","2717417","co38929","norming","","","","","","",""
"null","../img/tt/013tt.jpg","null","mooney2","image-keyboard-response","368","1166246","0.0-6.0-5.51","2717417","co38929","norming","","","","","","",""
"3170.535000000149","","","post_reveal_questions","survey-likert","369","1169419","0.0-6.0-6.51","2717417","co38929","norming","","","{""aha"":2}","[0]","../img/tt/013tt.jpg","",""
"null","<div style=""font-size:60px;""> </div>","null","fixation","html-keyboard-response","370","1169620","0.0-6.0-0.52","2717417","co38929","norming","","","","","","",""
"null","../img/tt/1089tt.jpg","null","mooney1","image-keyboard-response","371","1172626","0.0-6.0-1.52","2717417","co38929","norming","","","","","","",""
"2389.5400000000373","","","post_mooney1_questions","survey-likert","372","1175019","0.0-6.0-2.52","2717417","co38929","norming","","","{""curiosity"":2,""confidence"":1}","[0,1]","../img/tt/1089tt.jpg","",""
"1446.0049999998882","","","recognition","survey-text","373","1176467","0.0-6.0-3.52","2717417","co38929","norming","","","{""guess"":""auto""}","","../img/tt/1089tt.jpg","",""
"null","../img/gs/1089gs.jpg","null","reveal","image-keyboard-response","374","1178476","0.0-6.0-4.52","2717417","co38929","norming","","","","","","",""
"null","../img/tt/1089tt.jpg","null","mooney2","image-keyboard-response","375","1180479","0.0-6.0-5.52","2717417","co38929","norming","","","","","","",""
"2217.3899999998976","","","post_reveal_questions","survey-likert","376","1182699","0.0-6.0-6.52","2717417","co38929","norming","","","{""aha"":4}","[0]","../img/tt/1089tt.jpg","",""
"null","<div style=""font-size:60px;""> </div>","null","fixation","html-keyboard-response","377","1182901","0.0-6.0-0.53","2717417","co38929","norming","","","","","","",""
"null","../img/tt/416tt.jpg","null","mooney1","image-keyboard-response","378","1185904","0.0-6.0-1.53","2717417","co38929","norming","","","","","","",""
"3680.2099999999627","","","post_mooney1_questions","survey-likert","379","1189587","0.0-6.0-2.53","2717417","co38929","norming","","","{""curiosity"":3,""confidence"":1}","[0,1]","../img/tt/416tt.jpg","",""
"4621.560000000056","","","recognition","survey-text","380","1194211","0.0-6.0-3.53","2717417","co38929","norming","","","{""guess"":""planten""}","","../img/tt/416tt.jpg","",""
"null","../img/gs/416gs.jpg","null","reveal","image-keyboard-response","381","1196215","0.0-6.0-4.53","2717417","co38929","norming","","","","","","",""
"null","../img/tt/416tt.jpg","null","mooney2","image-keyboard-response","382","1198224","0.0-6.0-5.53","2717417","co38929","norming","","","","","","",""
"2120.1999999997206","","","post_reveal_questions","survey-likert","383","1200347","0.0-6.0-6.53","2717417","co38929","norming","","","{""aha"":2}","[0]","../img/tt/416tt.jpg","",""
"null","<div style=""font-size:60px;""> </div>","null","fixation","html-keyboard-response","384","1200550","0.0-6.0-0.54","2717417","co38929","norming","","","","","","",""
"null","../img/tt/1290tt.jpg","null","mooney1","image-keyboard-response","385","1203560","0.0-6.0-1.54","2717417","co38929","norming","","","","","","",""
"5065.170000000158","","","post_mooney1_questions","survey-likert","386","1208627","0.0-6.0-2.54","2717417","co38929","norming","","","{""curiosity"":2,""confidence"":1}","[0,1]","../img/tt/1290tt.jpg","",""
"1709.4100000003818","","","recognition","survey-text","387","1210339","0.0-6.0-3.54","2717417","co38929","norming","","","{""guess"":""heuvel""}","","../img/tt/1290tt.jpg","",""
"null","../img/gs/1290gs.jpg","null","reveal","image-keyboard-response","388","1212340","0.0-6.0-4.54","2717417","co38929","norming","","","","","","",""
"null","../img/tt/1290tt.jpg","null","mooney2","image-keyboard-response","389","1214342","0.0-6.0-5.54","2717417","co38929","norming","","","","","","",""
"2986.594999999972","","","post_reveal_questions","survey-likert","390","1217331","0.0-6.0-6.54","2717417","co38929","norming","","","{""aha"":1}","[0]","../img/tt/1290tt.jpg","",""
"null","<div style=""font-size:60px;""> </div>","null","fixation","html-keyboard-response","391","1217539","0.0-6.0-0.55","2717417","co38929","norming","","","","","","",""
"null","../img/tt/1241tt.jpg","null","mooney1","image-keyboard-response","392","1220547","0.0-6.0-1.55","2717417","co38929","norming","","","","","","",""
"3540.2899999998044","","","post_mooney1_questions","survey-likert","393","1224091","0.0-6.0-2.55","2717417","co38929","norming","","","{""curiosity"":3,""confidence"":0}","[0,1]","../img/tt/1241tt.jpg","",""
"526.4099999999162","","","recognition","survey-text","394","1224619","0.0-6.0-3.55","2717417","co38929","norming","","","{""guess"":""""}","","../img/tt/1241tt.jpg","",""
"null","../img/gs/1241gs.jpg","null","reveal","image-keyboard-response","395","1226625","0.0-6.0-4.55","2717417","co38929","norming","","","","","","",""
"null","../img/tt/1241tt.jpg","null","mooney2","image-keyboard-response","396","1228626","0.0-6.0-5.55","2717417","co38929","norming","","","","","","",""
"2285.5400000000373","","","post_reveal_questions","survey-likert","397","1230914","0.0-6.0-6.55","2717417","co38929","norming","","","{""aha"":4}","[0]","../img/tt/1241tt.jpg","",""
"null","<div style=""font-size:60px;""> </div>","null","fixation","html-keyboard-response","398","1231122","0.0-6.0-0.56","2717417","co38929","norming","","","","","","",""
"null","../img/tt/078tt.jpg","null","mooney1","image-keyboard-response","399","1234130","0.0-6.0-1.56","2717417","co38929","norming","","","","","","",""
"5582.564999999711","","","post_mooney1_questions","survey-likert","400","1239715","0.0-6.0-2.56","2717417","co38929","norming","","","{""curiosity"":2,""confidence"":1}","[0,1]","../img/tt/078tt.jpg","",""
"2206.0400000000373","","","recognition","survey-text","401","1241918","0.0-6.0-3.56","2717417","co38929","norming","","","{""guess"":""beer""}","","../img/tt/078tt.jpg","",""
"null","../img/gs/078gs.jpg","null","reveal","image-keyboard-response","402","1243929","0.0-6.0-4.56","2717417","co38929","norming","","","","","","",""
"null","../img/tt/078tt.jpg","null","mooney2","image-keyboard-response","403","1245932","0.0-6.0-5.56","2717417","co38929","norming","","","","","","",""
"3839.439999999944","","","post_reveal_questions","survey-likert","404","1249774","0.0-6.0-6.56","2717417","co38929","norming","","","{""aha"":5}","[0]","../img/tt/078tt.jpg","",""
"null","<div style=""font-size:60px;""> </div>","null","fixation","html-keyboard-response","405","1249977","0.0-6.0-0.57","2717417","co38929","norming","","","","","","",""
"null","../img/tt/1224tt.jpg","null","mooney1","image-keyboard-response","406","1252983","0.0-6.0-1.57","2717417","co38929","norming","","","","","","",""
"5843.8549999997485","","","post_mooney1_questions","survey-likert","407","1258830","0.0-6.0-2.57","2717417","co38929","norming","","","{""curiosity"":6,""confidence"":2}","[0,1]","../img/tt/1224tt.jpg","",""
"3854.1299999998882","","","recognition","survey-text","408","1262686","0.0-6.0-3.57","2717417","co38929","norming","","","{""guess"":""moordenaar""}","","../img/tt/1224tt.jpg","",""
"null","../img/gs/1224gs.jpg","null","reveal","image-keyboard-response","409","1264688","0.0-6.0-4.57","2717417","co38929","norming","","","","","","",""
"null","../img/tt/1224tt.jpg","null","mooney2","image-keyboard-response","410","1266690","0.0-6.0-5.57","2717417","co38929","norming","","","","","","",""
"1593.3300000000745","","","post_reveal_questions","survey-likert","411","1268286","0.0-6.0-6.57","2717417","co38929","norming","","","{""aha"":6}","[0]","../img/tt/1224tt.jpg","",""
"null","<div style=""font-size:60px;""> </div>","null","fixation","html-keyboard-response","412","1268494","0.0-6.0-0.58","2717417","co38929","norming","","","","","","",""
"null","../img/tt/279tt.jpg","null","mooney1","image-keyboard-response","413","1271502","0.0-6.0-1.58","2717417","co38929","norming","","","","","","",""
"4572.370000000112","","","post_mooney1_questions","survey-likert","414","1276078","0.0-6.0-2.58","2717417","co38929","norming","","","{""curiosity"":6,""confidence"":0}","[0,1]","../img/tt/279tt.jpg","",""
"573.8850000000093","","","recognition","survey-text","415","1276653","0.0-6.0-3.58","2717417","co38929","norming","","","{""guess"":""""}","","../img/tt/279tt.jpg","",""
"null","../img/gs/279gs.jpg","null","reveal","image-keyboard-response","416","1278660","0.0-6.0-4.58","2717417","co38929","norming","","","","","","",""
"null","../img/tt/279tt.jpg","null","mooney2","image-keyboard-response","417","1280668","0.0-6.0-5.58","2717417","co38929","norming","","","","","","",""
"1862.4999999997672","","","post_reveal_questions","survey-likert","418","1282534","0.0-6.0-6.58","2717417","co38929","norming","","","{""aha"":1}","[0]","../img/tt/279tt.jpg","",""
"null","<div style=""font-size:60px;""> </div>","null","fixation","html-keyboard-response","419","1282743","0.0-6.0-0.59","2717417","co38929","norming","","","","","","",""
"null","../img/tt/1236tt.jpg","null","mooney1","image-keyboard-response","420","1285751","0.0-6.0-1.59","2717417","co38929","norming","","","","","","",""
"3034.315000000177","","","post_mooney1_questions","survey-likert","421","1288790","0.0-6.0-2.59","2717417","co38929","norming","","","{""curiosity"":2,""confidence"":1}","[0,1]","../img/tt/1236tt.jpg","",""
"2134.0749999999534","","","recognition","survey-text","422","1290926","0.0-6.0-3.59","2717417","co38929","norming","","","{""guess"":""heks""}","","../img/tt/1236tt.jpg","",""
"null","../img/gs/1236gs.jpg","null","reveal","image-keyboard-response","423","1292930","0.0-6.0-4.59","2717417","co38929","norming","","","","","","",""
"null","../img/tt/1236tt.jpg","null","mooney2","image-keyboard-response","424","1294941","0.0-6.0-5.59","2717417","co38929","norming","","","","","","",""
"3133.635000000242","","","post_reveal_questions","survey-likert","425","1298077","0.0-6.0-6.59","2717417","co38929","norming","","","{""aha"":3}","[0]","../img/tt/1236tt.jpg","",""
"null","<div style=""font-size:60px;""> </div>","null","fixation","html-keyboard-response","426","1298282","0.0-6.0-0.60","2717417","co38929","norming","","","","","","",""
"null","../img/tt/1181tt.jpg","null","mooney1","image-keyboard-response","427","1301299","0.0-6.0-1.60","2717417","co38929","norming","","","","","","",""
"2628.6100000001024","","","post_mooney1_questions","survey-likert","428","1303931","0.0-6.0-2.60","2717417","co38929","norming","","","{""curiosity"":1,""confidence"":1}","[0,1]","../img/tt/1181tt.jpg","",""
"3830.1350000000093","","","recognition","survey-text","429","1307763","0.0-6.0-3.60","2717417","co38929","norming","","","{""guess"":""pet""}","","../img/tt/1181tt.jpg","",""
"null","../img/gs/1181gs.jpg","null","reveal","image-keyboard-response","430","1309769","0.0-6.0-4.60","2717417","co38929","norming","","","","","","",""
"null","../img/tt/1181tt.jpg","null","mooney2","image-keyboard-response","431","1311772","0.0-6.0-5.60","2717417","co38929","norming","","","","","","",""
"4011.8649999999907","","","post_reveal_questions","survey-likert","432","1315786","0.0-6.0-6.60","2717417","co38929","norming","","","{""aha"":2}","[0]","../img/tt/1181tt.jpg","",""
"null","<div style=""font-size:60px;""> </div>","null","fixation","html-keyboard-response","433","1315988","0.0-6.0-0.61","2717417","co38929","norming","","","","","","",""
"null","../img/tt/1232tt.jpg","null","mooney1","image-keyboard-response","434","1318997","0.0-6.0-1.61","2717417","co38929","norming","","","","","","",""
"4986.90000000014","","","post_mooney1_questions","survey-likert","435","1323987","0.0-6.0-2.61","2717417","co38929","norming","","","{""curiosity"":3,""confidence"":2}","[0,1]","../img/tt/1232tt.jpg","",""
"6270.064999999944","","","recognition","survey-text","436","1330258","0.0-6.0-3.61","2717417","co38929","norming","","","{""guess"":""ruimte, kosmos""}","","../img/tt/1232tt.jpg","",""
"null","../img/gs/1232gs.jpg","null","reveal","image-keyboard-response","437","1332264","0.0-6.0-4.61","2717417","co38929","norming","","","","","","",""
"null","../img/tt/1232tt.jpg","null","mooney2","image-keyboard-response","438","1334270","0.0-6.0-5.61","2717417","co38929","norming","","","","","","",""
"2201.5500000000466","","","post_reveal_questions","survey-likert","439","1336474","0.0-6.0-6.61","2717417","co38929","norming","","","{""aha"":4}","[0]","../img/tt/1232tt.jpg","",""
"null","<div style=""font-size:60px;""> </div>","null","fixation","html-keyboard-response","440","1336682","0.0-6.0-0.62","2717417","co38929","norming","","","","","","",""
"null","../img/tt/163tt.jpg","null","mooney1","image-keyboard-response","441","1339691","0.0-6.0-1.62","2717417","co38929","norming","","","","","","",""
"2877.6999999999534","","","post_mooney1_questions","survey-likert","442","1342571","0.0-6.0-2.62","2717417","co38929","norming","","","{""curiosity"":2,""confidence"":1}","[0,1]","../img/tt/163tt.jpg","",""
"1958.2050000003073","","","recognition","survey-text","443","1344530","0.0-6.0-3.62","2717417","co38929","norming","","","{""guess"":""billen""}","","../img/tt/163tt.jpg","",""
"null","../img/gs/163gs.jpg","null","reveal","image-keyboard-response","444","1346536","0.0-6.0-4.62","2717417","co38929","norming","","","","","","",""
"null","../img/tt/163tt.jpg","null","mooney2","image-keyboard-response","445","1348545","0.0-6.0-5.62","2717417","co38929","norming","","","","","","",""
"2422.375","","","post_reveal_questions","survey-likert","446","1350970","0.0-6.0-6.62","2717417","co38929","norming","","","{""aha"":4}","[0]","../img/tt/163tt.jpg","",""
"null","<div style=""font-size:60px;""> </div>","null","fixation","html-keyboard-response","447","1351180","0.0-6.0-0.63","2717417","co38929","norming","","","","","","",""
"null","../img/tt/1366tt.jpg","null","mooney1","image-keyboard-response","448","1354190","0.0-6.0-1.63","2717417","co38929","norming","","","","","","",""
"3281.130000000121","","","post_mooney1_questions","survey-likert","449","1357475","0.0-6.0-2.63","2717417","co38929","norming","","","{""curiosity"":3,""confidence"":0}","[0,1]","../img/tt/1366tt.jpg","",""
"493.92500000004657","","","recognition","survey-text","450","1357970","0.0-6.0-3.63","2717417","co38929","norming","","","{""guess"":""""}","","../img/tt/1366tt.jpg","",""
"null","../img/gs/1366gs.jpg","null","reveal","image-keyboard-response","451","1359981","0.0-6.0-4.63","2717417","co38929","norming","","","","","","",""
"null","../img/tt/1366tt.jpg","null","mooney2","image-keyboard-response","452","1361986","0.0-6.0-5.63","2717417","co38929","norming","","","","","","",""
"1613.4550000000745","","","post_reveal_questions","survey-likert","453","1363602","0.0-6.0-6.63","2717417","co38929","norming","","","{""aha"":3}","[0]","../img/tt/1366tt.jpg","",""
"null","<div style=""font-size:60px;""> </div>","null","fixation","html-keyboard-response","454","1363813","0.0-6.0-0.64","2717417","co38929","norming","","","","","","",""
"null","../img/tt/032tt.jpg","null","mooney1","image-keyboard-response","455","1366817","0.0-6.0-1.64","2717417","co38929","norming","","","","","","",""
"3214.4000000001397","","","post_mooney1_questions","survey-likert","456","1370034","0.0-6.0-2.64","2717417","co38929","norming","","","{""curiosity"":1,""confidence"":1}","[0,1]","../img/tt/032tt.jpg","",""
"1582.4399999997113","","","recognition","survey-text","457","1371618","0.0-6.0-3.64","2717417","co38929","norming","","","{""guess"":""tong""}","","../img/tt/032tt.jpg","",""
"null","../img/gs/032gs.jpg","null","reveal","image-keyboard-response","458","1373620","0.0-6.0-4.64","2717417","co38929","norming","","","","","","",""
"null","../img/tt/032tt.jpg","null","mooney2","image-keyboard-response","459","1375622","0.0-6.0-5.64","2717417","co38929","norming","","","","","","",""
"1858.8949999997858","","","post_reveal_questions","survey-likert","460","1377482","0.0-6.0-6.64","2717417","co38929","norming","","","{""aha"":3}","[0]","../img/tt/032tt.jpg","",""
"null","<div style=""font-size:60px;""> </div>","null","fixation","html-keyboard-response","461","1377688","0.0-6.0-0.65","2717417","co38929","norming","","","","","","",""
"null","../img/tt/329tt.jpg","null","mooney1","image-keyboard-response","462","1380699","0.0-6.0-1.65","2717417","co38929","norming","","","","","","",""
"3347.7649999998976","","","post_mooney1_questions","survey-likert","463","1384050","0.0-6.0-2.65","2717417","co38929","norming","","","{""curiosity"":5,""confidence"":0}","[0,1]","../img/tt/329tt.jpg","",""
"1246.1150000002235","","","recognition","survey-text","464","1385298","0.0-6.0-3.65","2717417","co38929","norming","","","{""guess"":""""}","","../img/tt/329tt.jpg","",""
"null","../img/gs/329gs.jpg","null","reveal","image-keyboard-response","465","1387302","0.0-6.0-4.65","2717417","co38929","norming","","","","","","",""
"null","../img/tt/329tt.jpg","null","mooney2","image-keyboard-response","466","1389303","0.0-6.0-5.65","2717417","co38929","norming","","","","","","",""
"1552.375","","","post_reveal_questions","survey-likert","467","1390858","0.0-6.0-6.65","2717417","co38929","norming","","","{""aha"":4}","[0]","../img/tt/329tt.jpg","",""
"null","<div style=""font-size:60px;""> </div>","null","fixation","html-keyboard-response","468","1391066","0.0-6.0-0.66","2717417","co38929","norming","","","","","","",""
"null","../img/tt/1270tt.jpg","null","mooney1","image-keyboard-response","469","1394077","0.0-6.0-1.66","2717417","co38929","norming","","","","","","",""
"5954.975000000093","","","post_mooney1_questions","survey-likert","470","1400034","0.0-6.0-2.66","2717417","co38929","norming","","","{""curiosity"":2,""confidence"":2}","[0,1]","../img/tt/1270tt.jpg","",""
"1533.720000000205","","","recognition","survey-text","471","1401570","0.0-6.0-3.66","2717417","co38929","norming","","","{""guess"":""vis""}","","../img/tt/1270tt.jpg","",""
"null","../img/gs/1270gs.jpg","null","reveal","image-keyboard-response","472","1403572","0.0-6.0-4.66","2717417","co38929","norming","","","","","","",""
"null","../img/tt/1270tt.jpg","null","mooney2","image-keyboard-response","473","1405580","0.0-6.0-5.66","2717417","co38929","norming","","","","","","",""
"1749.7600000000093","","","post_reveal_questions","survey-likert","474","1407330","0.0-6.0-6.66","2717417","co38929","norming","","","{""aha"":2}","[0]","../img/tt/1270tt.jpg","",""
"null","<div style=""font-size:60px;""> </div>","null","fixation","html-keyboard-response","475","1407531","0.0-6.0-0.67","2717417","co38929","norming","","","","","","",""
"null","../img/tt/405tt.jpg","null","mooney1","image-keyboard-response","476","1410537","0.0-6.0-1.67","2717417","co38929","norming","","","","","","",""
"3245.929999999935","","","post_mooney1_questions","survey-likert","477","1413786","0.0-6.0-2.67","2717417","co38929","norming","","","{""curiosity"":4,""confidence"":0}","[0,1]","../img/tt/405tt.jpg","",""
"1262.0249999999069","","","recognition","survey-text","478","1415050","0.0-6.0-3.67","2717417","co38929","norming","","","{""guess"":""""}","","../img/tt/405tt.jpg","",""
"null","../img/gs/405gs.jpg","null","reveal","image-keyboard-response","479","1417055","0.0-6.0-4.67","2717417","co38929","norming","","","","","","",""
"null","../img/tt/405tt.jpg","null","mooney2","image-keyboard-response","480","1419068","0.0-6.0-5.67","2717417","co38929","norming","","","","","","",""
"2123.155000000028","","","post_reveal_questions","survey-likert","481","1421194","0.0-6.0-6.67","2717417","co38929","norming","","","{""aha"":3}","[0]","../img/tt/405tt.jpg","",""
"null","<div style=""font-size:60px;""> </div>","null","fixation","html-keyboard-response","482","1421395","0.0-6.0-0.68","2717417","co38929","norming","","","","","","",""
"null","../img/tt/1126tt.jpg","null","mooney1","image-keyboard-response","483","1424409","0.0-6.0-1.68","2717417","co38929","norming","","","","","","",""
"2517.3799999998882","","","post_mooney1_questions","survey-likert","484","1426930","0.0-6.0-2.68","2717417","co38929","norming","","","{""curiosity"":1,""confidence"":2}","[0,1]","../img/tt/1126tt.jpg","",""
"2942.119999999879","","","recognition","survey-text","485","1429874","0.0-6.0-3.68","2717417","co38929","norming","","","{""guess"":""klimmen""}","","../img/tt/1126tt.jpg","",""
"null","../img/gs/1126gs.jpg","null","reveal","image-keyboard-response","486","1431880","0.0-6.0-4.68","2717417","co38929","norming","","","","","","",""
"null","../img/tt/1126tt.jpg","null","mooney2","image-keyboard-response","487","1433889","0.0-6.0-5.68","2717417","co38929","norming","","","","","","",""
"1782.4350000000559","","","post_reveal_questions","survey-likert","488","1435674","0.0-6.0-6.68","2717417","co38929","norming","","","{""aha"":1}","[0]","../img/tt/1126tt.jpg","",""
"null","<div style=""font-size:60px;""> </div>","null","fixation","html-keyboard-response","489","1435876","0.0-6.0-0.69","2717417","co38929","norming","","","","","","",""
"null","../img/tt/044tt.jpg","null","mooney1","image-keyboard-response","490","1438888","0.0-6.0-1.69","2717417","co38929","norming","","","","","","",""
"2686.190000000177","","","post_mooney1_questions","survey-likert","491","1441578","0.0-6.0-2.69","2717417","co38929","norming","","","{""curiosity"":2,""confidence"":2}","[0,1]","../img/tt/044tt.jpg","",""
"1734.6950000000652","","","recognition","survey-text","492","1443314","0.0-6.0-3.69","2717417","co38929","norming","","","{""guess"":""laptop""}","","../img/tt/044tt.jpg","",""
"null","../img/gs/044gs.jpg","null","reveal","image-keyboard-response","493","1445321","0.0-6.0-4.69","2717417","co38929","norming","","","","","","",""
"null","../img/tt/044tt.jpg","null","mooney2","image-keyboard-response","494","1447326","0.0-6.0-5.69","2717417","co38929","norming","","","","","","",""
"2937.315000000177","","","post_reveal_questions","survey-likert","495","1450266","0.0-6.0-6.69","2717417","co38929","norming","","","{""aha"":5}","[0]","../img/tt/044tt.jpg","",""
"null","<div style=""font-size:60px;""> </div>","null","fixation","html-keyboard-response","496","1450476","0.0-6.0-0.70","2717417","co38929","norming","","","","","","",""
"null","../img/tt/1046tt.jpg","null","mooney1","image-keyboard-response","497","1453482","0.0-6.0-1.70","2717417","co38929","norming","","","","","","",""
"3107.9300000001676","","","post_mooney1_questions","survey-likert","498","1456594","0.0-6.0-2.70","2717417","co38929","norming","","","{""curiosity"":4,""confidence"":0}","[0,1]","../img/tt/1046tt.jpg","",""
"694","","","recognition","survey-text","499","1457290","0.0-6.0-3.70","2717417","co38929","norming","","","{""guess"":""""}","","../img/tt/1046tt.jpg","",""
"null","../img/gs/1046gs.jpg","null","reveal","image-keyboard-response","500","1459294","0.0-6.0-4.70","2717417","co38929","norming","","","","","","",""
"null","../img/tt/1046tt.jpg","null","mooney2","image-keyboard-response","501","1461299","0.0-6.0-5.70","2717417","co38929","norming","","","","","","",""
"2556.630000000121","","","post_reveal_questions","survey-likert","502","1463858","0.0-6.0-6.70","2717417","co38929","norming","","","{""aha"":3}","[0]","../img/tt/1046tt.jpg","",""
"null","<div style=""font-size:60px;""> </div>","null","fixation","html-keyboard-response","503","1464062","0.0-6.0-0.71","2717417","co38929","norming","","","","","","",""
"null","../img/tt/418tt.jpg","null","mooney1","image-keyboard-response","504","1467070","0.0-6.0-1.71","2717417","co38929","norming","","","","","","",""
"2472.2899999998044","","","post_mooney1_questions","survey-likert","505","1469546","0.0-6.0-2.71","2717417","co38929","norming","","","{""curiosity"":2,""confidence"":1}","[0,1]","../img/tt/418tt.jpg","",""
"2342.0749999999534","","","recognition","survey-text","506","1471890","0.0-6.0-3.71","2717417","co38929","norming","","","{""guess"":""bladeren""}","","../img/tt/418tt.jpg","",""
"null","../img/gs/418gs.jpg","null","reveal","image-keyboard-response","507","1473899","0.0-6.0-4.71","2717417","co38929","norming","","","","","","",""
"null","../img/tt/418tt.jpg","null","mooney2","image-keyboard-response","508","1475902","0.0-6.0-5.71","2717417","co38929","norming","","","","","","",""
"1560.6299999998882","","","post_reveal_questions","survey-likert","509","1477466","0.0-6.0-6.71","2717417","co38929","norming","","","{""aha"":3}","[0]","../img/tt/418tt.jpg","",""
"null","<div style=""font-size:60px;""> </div>","null","fixation","html-keyboard-response","510","1477672","0.0-6.0-0.72","2717417","co38929","norming","","","","","","",""
"null","../img/tt/1130tt.jpg","null","mooney1","image-keyboard-response","511","1480682","0.0-6.0-1.72","2717417","co38929","norming","","","","","","",""
"3356.8000000000466","","","post_mooney1_questions","survey-likert","512","1484042","0.0-6.0-2.72","2717417","co38929","norming","","","{""curiosity"":3,""confidence"":1}","[0,1]","../img/tt/1130tt.jpg","",""
"1429.9799999999814","","","recognition","survey-text","513","1485470","0.0-6.0-3.72","2717417","co38929","norming","","","{""guess"":""vis""}","","../img/tt/1130tt.jpg","",""
"null","../img/gs/1130gs.jpg","null","reveal","image-keyboard-response","514","1487472","0.0-6.0-4.72","2717417","co38929","norming","","","","","","",""
"null","../img/tt/1130tt.jpg","null","mooney2","image-keyboard-response","515","1489474","0.0-6.0-5.72","2717417","co38929","norming","","","","","","",""
"2097.0449999999255","","","post_reveal_questions","survey-likert","516","1491574","0.0-6.0-6.72","2717417","co38929","norming","","","{""aha"":4}","[0]","../img/tt/1130tt.jpg","",""
"null","<div style=""font-size:60px;""> </div>","null","fixation","html-keyboard-response","517","1491781","0.0-6.0-0.73","2717417","co38929","norming","","","","","","",""
"null","../img/tt/1122tt.jpg","null","mooney1","image-keyboard-response","518","1494785","0.0-6.0-1.73","2717417","co38929","norming","","","","","","",""
"2752.8299999998417","","","post_mooney1_questions","survey-likert","519","1497542","0.0-6.0-2.73","2717417","co38929","norming","","","{""curiosity"":2,""confidence"":1}","[0,1]","../img/tt/1122tt.jpg","",""
"1654.5900000000838","","","recognition","survey-text","520","1499198","0.0-6.0-3.73","2717417","co38929","norming","","","{""guess"":""geit""}","","../img/tt/1122tt.jpg","",""
"null","../img/gs/1122gs.jpg","null","reveal","image-keyboard-response","521","1501205","0.0-6.0-4.73","2717417","co38929","norming","","","","","","",""
"null","../img/tt/1122tt.jpg","null","mooney2","image-keyboard-response","522","1503208","0.0-6.0-5.73","2717417","co38929","norming","","","","","","",""
"1899.3499999998603","","","post_reveal_questions","survey-likert","523","1505110","0.0-6.0-6.73","2717417","co38929","norming","","","{""aha"":2}","[0]","../img/tt/1122tt.jpg","",""
"null","<div style=""font-size:60px;""> </div>","null","fixation","html-keyboard-response","524","1505319","0.0-6.0-0.74","2717417","co38929","norming","","","","","","",""
"null","../img/tt/1063tt.jpg","null","mooney1","image-keyboard-response","525","1508326","0.0-6.0-1.74","2717417","co38929","norming","","","","","","",""
"2622.1400000001304","","","post_mooney1_questions","survey-likert","526","1510950","0.0-6.0-2.74","2717417","co38929","norming","","","{""curiosity"":2,""confidence"":0}","[0,1]","../img/tt/1063tt.jpg","",""
"566.0649999999441","","","recognition","survey-text","527","1511518","0.0-6.0-3.74","2717417","co38929","norming","","","{""guess"":""""}","","../img/tt/1063tt.jpg","",""
"null","../img/gs/1063gs.jpg","null","reveal","image-keyboard-response","528","1513528","0.0-6.0-4.74","2717417","co38929","norming","","","","","","",""
"null","../img/tt/1063tt.jpg","null","mooney2","image-keyboard-response","529","1515536","0.0-6.0-5.74","2717417","co38929","norming","","","","","","",""
"1573.094999999972","","","post_reveal_questions","survey-likert","530","1517110","0.0-6.0-6.74","2717417","co38929","norming","","","{""aha"":3}","[0]","../img/tt/1063tt.jpg","",""
"null","<div style=""font-size:60px;""> </div>","null","fixation","html-keyboard-response","531","1517313","0.0-6.0-0.75","2717417","co38929","norming","","","","","","",""
"null","../img/tt/076tt.jpg","null","mooney1","image-keyboard-response","532","1520323","0.0-6.0-1.75","2717417","co38929","norming","","","","","","",""
"2671.554999999935","","","post_mooney1_questions","survey-likert","533","1522998","0.0-6.0-2.75","2717417","co38929","norming","","","{""curiosity"":2,""confidence"":1}","[0,1]","../img/tt/076tt.jpg","",""
"3062.3250000001863","","","recognition","survey-text","534","1526062","0.0-6.0-3.75","2717417","co38929","norming","","","{""guess"":""schaatsen""}","","../img/tt/076tt.jpg","",""
"null","../img/gs/076gs.jpg","null","reveal","image-keyboard-response","535","1528064","0.0-6.0-4.75","2717417","co38929","norming","","","","","","",""
"null","../img/tt/076tt.jpg","null","mooney2","image-keyboard-response","536","1530067","0.0-6.0-5.75","2717417","co38929","norming","","","","","","",""
"2159.9000000001397","","","post_reveal_questions","survey-likert","537","1532230","0.0-6.0-6.75","2717417","co38929","norming","","","{""aha"":2}","[0]","../img/tt/076tt.jpg","",""
"null","<div style=""font-size:60px;""> </div>","null","fixation","html-keyboard-response","538","1532433","0.0-6.0-0.76","2717417","co38929","norming","","","","","","",""
"null","../img/tt/1255tt.jpg","null","mooney1","image-keyboard-response","539","1535442","0.0-6.0-1.76","2717417","co38929","norming","","","","","","",""
"2528.5","","","post_mooney1_questions","survey-likert","540","1537974","0.0-6.0-2.76","2717417","co38929","norming","","","{""curiosity"":4,""confidence"":0}","[0,1]","../img/tt/1255tt.jpg","",""
"773.940000000177","","","recognition","survey-text","541","1538749","0.0-6.0-3.76","2717417","co38929","norming","","","{""guess"":""""}","","../img/tt/1255tt.jpg","",""
"null","../img/gs/1255gs.jpg","null","reveal","image-keyboard-response","542","1540753","0.0-6.0-4.76","2717417","co38929","norming","","","","","","",""
"null","../img/tt/1255tt.jpg","null","mooney2","image-keyboard-response","543","1542755","0.0-6.0-5.76","2717417","co38929","norming","","","","","","",""
"2471.4399999997113","","","post_reveal_questions","survey-likert","544","1545233","0.0-6.0-6.76","2717417","co38929","norming","","","{""aha"":1}","[0]","../img/tt/1255tt.jpg","",""
"null","<div style=""font-size:60px;""> </div>","null","fixation","html-keyboard-response","545","1545440","0.0-6.0-0.77","2717417","co38929","norming","","","","","","",""
"null","../img/tt/1061tt.jpg","null","mooney1","image-keyboard-response","546","1548447","0.0-6.0-1.77","2717417","co38929","norming","","","","","","",""
"2638.1550000002608","","","post_mooney1_questions","survey-likert","547","1551089","0.0-6.0-2.77","2717417","co38929","norming","","","{""curiosity"":2,""confidence"":1}","[0,1]","../img/tt/1061tt.jpg","",""
"1502.0600000000559","","","recognition","survey-text","548","1552592","0.0-6.0-3.77","2717417","co38929","norming","","","{""guess"":""park""}","","../img/tt/1061tt.jpg","",""
"null","../img/gs/1061gs.jpg","null","reveal","image-keyboard-response","549","1554595","0.0-6.0-4.77","2717417","co38929","norming","","","","","","",""
"null","../img/tt/1061tt.jpg","null","mooney2","image-keyboard-response","550","1556603","0.0-6.0-5.77","2717417","co38929","norming","","","","","","",""
"3234.8199999998324","","","post_reveal_questions","survey-likert","551","1559840","0.0-6.0-6.77","2717417","co38929","norming","","","{""aha"":5}","[0]","../img/tt/1061tt.jpg","",""
"null","<div style=""font-size:60px;""> </div>","null","fixation","html-keyboard-response","552","1560050","0.0-6.0-0.78","2717417","co38929","norming","","","","","","",""
