"rt","stimulus","key_press","test_part","trial_type","trial_index","time_elapsed","internal_node_id","totalTime","subject","experiment_name","button_pressed","success","responses","question_order","currentStim","old","correct"
"21418.05000000022","Welcome to the experiment. This is an online experiment so please don't close the tab/window until we say goodbye.  Press any key to begin.","32","instructions","html-keyboard-response","0","21434","0.0-0.0","3533825","co38758","norming","","","","","","",""
"50456.08999999968","<div style='word-wrap: break-word; width: 900px'><h3>Please consider this information carefully before deciding whether to participate in this research</h3><ul style='text-align: left; font-size: .8em;'><li><b>Purpose of the research</b>: To examine how people process images.</li><li><b>What you will do in this research</b>:  Stimuli (images) will be presented on the computer and you will be asked different questions about them.</li><li><b>Time required</b>: Participation will take between 45 and 60 minutes to complete.</li><li><b>Risks</b>:  There are no anticipated risks associated with participating in this study. The effects of participating should be comparable to those you would experience from viewing a computer monitor for 30 minutes and using a mouse or keyboard.</li><li><b>Benefits</b>:  This study provides no benefits to you individually except for the credit. The study provides important information about the nature of perception and learning.</li><li><b>Confidentiality</b>:  Your participation in this study will remain confidential. No personally identifiable information will be associated with your data. Your de-identified data may be shared with other researchers and used in future projects.</li><li><b>Participation and withdrawal</b>:  Your participation in this study is completely voluntary and you may refuse to participate or you may choose to withdraw at any time without penalty.</li><li><b>How to contact the researchers</b>: If you have questions or concerns about your participation or payment, or want to request a summary of research findings, please contact Sander Van de Cruys (KU Leuven), at sander.vandecruys@kuleuven.be.</li></ul><p>The nature and purpose of this research have been sufficiently explained and I agree to participate in this study.  I understand that I am free to withdraw at any time without incurring any penalty.</p><p>Please consent by clicking the button below to continue. Otherwise, please exit the study at this time.</p></div>","","instructions","html-button-response","1","71894","0.0-1.0","3533825","co38758","norming","0","","","","","",""
"","","","instructions","fullscreen","2","78275","0.0-2.0","3533825","co38758","norming","","true","","","","",""
"23607.819999999265","","","sona","survey-html-form","3","101890","0.0-3.0","3533825","co38758","norming","","","[{""name"":""sonaid"",""value"":""38758""},{""name"":""debrief"",""value"":""yes""},{""name"":""datajoin"",""value"":""yes""}]","","","",""
"95988.00499999925","<div style='word-wrap: break-word; width: 900px'><h3>Instructions</h3><p>This experiment will have 3 parts. In the first part you will see a series of distorted images like the one below on the left. As you can see in the righthand image, the distorted images are derived from actual photographs. In what follows, you will <strong>briefly</strong> be presented with <strong>only</strong> the distorted image.</p> <div style='float: left; margin-right: 20px;'><img src='../img/018tt.jpg' height='250' width='250'></img></div><div style='float: right; margin-left: 20px;'><img src='../img/018gs.jpg' height='250' width='250'></img></div><p>Subsequently you will be asked a few questions about the image: One question on how <strong>curious</strong> you are about the solution and one on how <strong>confident</strong> you are that you know the solution.</p>Next, we ask you to make a guess on what is in the image. Note that it is OK to name just the <strong>basic level category</strong>. For example when you see a parrot in the image, 'parrot' will obviously be a correct answer but also correct is 'bird'. However, 'animal' will <strong>not</strong> be counted as a correct response. For the example above, 'rose' would be correct or 'flower', but not 'plant'. When soccer players are depicted, 'soccer', 'football', 'soccer players' will be correct, but not 'humans', 'outdoors', or 'sports'. You do not need to describe the image in full, just name the main object in it <strong>in one or two words</strong>. All images depict objects from one of the following broad level categories: animals, inanimate objects, plants, sports, vehicles, and food. Recognizing means knowing <strong>more</strong> than these broad labels for a given image. But we always encourage you to <strong>make a guess</strong> if you can. Note that you are allowed to use <strong>Dutch and English</strong> in your answers, whatever comes easiest for you.</p><p>Press any key to continue.</p></div>","32","instructions","html-keyboard-response","4","197880","0.0-4.0","3533825","co38758","norming","","","","","","",""
"44621.439999998955","<div style='word-wrap: break-word; width: 900px'><h3>Instructions</h3> <p>Next, the solution image will be revealed to you and you'll be asked to indicate how strong your <strong>aha-experience</strong> was after seeing the solution. This describes the positive feeling of the 'click' you sometimes experience, when the pieces of the 'puzzle' fall together and you suddenly have 'insight' in the image.</p><img src='aha.jpg' height='188' width='250'></img><p>Note that there are no right or wrong answers. We are interested in what <strong>you</strong> see in the image and how <strong>you</strong> feel about it.</p><p>Press any key to start the experiment.</p></div>","32","instructions","html-keyboard-response","5","242504","0.0-5.0","3533825","co38758","norming","","","","","","",""
"null","<div style=""font-size:60px;""> </div>","null","fixation","html-keyboard-response","6","242715","0.0-6.0-0.0","3533825","co38758","norming","","","","","","",""
"null","../img/tt/1268tt.jpg","null","mooney1","image-keyboard-response","7","245722","0.0-6.0-1.0","3533825","co38758","norming","","","","","","",""
"16609.515000000072","","","post_mooney1_questions","survey-likert","8","262338","0.0-6.0-2.0","3533825","co38758","norming","","","{""curiosity"":5,""confidence"":1}","[0,1]","../img/tt/1268tt.jpg","",""
"7605.659999999218","","","recognition","survey-text","9","269946","0.0-6.0-3.0","3533825","co38758","norming","","","{""guess"":""Tijger""}","","../img/tt/1268tt.jpg","",""
"null","../img/gs/1268gs.jpg","null","reveal","image-keyboard-response","10","271949","0.0-6.0-4.0","3533825","co38758","norming","","","","","","",""
"null","../img/tt/1268tt.jpg","null","mooney2","image-keyboard-response","11","273953","0.0-6.0-5.0","3533825","co38758","norming","","","","","","",""
"5334.544999999693","","","post_reveal_questions","survey-likert","12","279290","0.0-6.0-6.0","3533825","co38758","norming","","","{""aha"":4}","[0]","../img/tt/1268tt.jpg","",""
"null","<div style=""font-size:60px;""> </div>","null","fixation","html-keyboard-response","13","279500","0.0-6.0-0.1","3533825","co38758","norming","","","","","","",""
"null","../img/tt/1307tt.jpg","null","mooney1","image-keyboard-response","14","282504","0.0-6.0-1.1","3533825","co38758","norming","","","","","","",""
"5159.729999999399","","","post_mooney1_questions","survey-likert","15","287666","0.0-6.0-2.1","3533825","co38758","norming","","","{""curiosity"":5,""confidence"":1}","[0,1]","../img/tt/1307tt.jpg","",""
"4837.88999999885","","","recognition","survey-text","16","292506","0.0-6.0-3.1","3533825","co38758","norming","","","{""guess"":""Vrijheidsbeeld""}","","../img/tt/1307tt.jpg","",""
"null","../img/gs/1307gs.jpg","null","reveal","image-keyboard-response","17","294513","0.0-6.0-4.1","3533825","co38758","norming","","","","","","",""
"null","../img/tt/1307tt.jpg","null","mooney2","image-keyboard-response","18","296523","0.0-6.0-5.1","3533825","co38758","norming","","","","","","",""
"3485.1749999998137","","","post_reveal_questions","survey-likert","19","300010","0.0-6.0-6.1","3533825","co38758","norming","","","{""aha"":5}","[0]","../img/tt/1307tt.jpg","",""
"null","<div style=""font-size:60px;""> </div>","null","fixation","html-keyboard-response","20","300215","0.0-6.0-0.2","3533825","co38758","norming","","","","","","",""
"null","../img/tt/052tt.jpg","null","mooney1","image-keyboard-response","21","303227","0.0-6.0-1.2","3533825","co38758","norming","","","","","","",""
"5556.459999999788","","","post_mooney1_questions","survey-likert","22","308786","0.0-6.0-2.2","3533825","co38758","norming","","","{""curiosity"":6,""confidence"":0}","[0,1]","../img/tt/052tt.jpg","",""
"5734.225000000151","","","recognition","survey-text","23","314522","0.0-6.0-3.2","3533825","co38758","norming","","","{""guess"":""Automotor""}","","../img/tt/052tt.jpg","",""
"null","../img/gs/052gs.jpg","null","reveal","image-keyboard-response","24","316525","0.0-6.0-4.2","3533825","co38758","norming","","","","","","",""
"null","../img/tt/052tt.jpg","null","mooney2","image-keyboard-response","25","318526","0.0-6.0-5.2","3533825","co38758","norming","","","","","","",""
"3817.6249999996508","","","post_reveal_questions","survey-likert","26","322342","0.0-6.0-6.2","3533825","co38758","norming","","","{""aha"":6}","[0]","../img/tt/052tt.jpg","",""
"null","<div style=""font-size:60px;""> </div>","null","fixation","html-keyboard-response","27","322551","0.0-6.0-0.3","3533825","co38758","norming","","","","","","",""
"null","../img/tt/477tt.jpg","null","mooney1","image-keyboard-response","28","325555","0.0-6.0-1.3","3533825","co38758","norming","","","","","","",""
"6258.045000000449","","","post_mooney1_questions","survey-likert","29","331814","0.0-6.0-2.3","3533825","co38758","norming","","","{""curiosity"":6,""confidence"":0}","[0,1]","../img/tt/477tt.jpg","",""
"11853.860000001092","","","recognition","survey-text","30","343670","0.0-6.0-3.3","3533825","co38758","norming","","","{""guess"":""Marktkraam""}","","../img/tt/477tt.jpg","",""
"null","../img/gs/477gs.jpg","null","reveal","image-keyboard-response","31","345671","0.0-6.0-4.3","3533825","co38758","norming","","","","","","",""
"null","../img/tt/477tt.jpg","null","mooney2","image-keyboard-response","32","347680","0.0-6.0-5.3","3533825","co38758","norming","","","","","","",""
"2436.560000000114","","","post_reveal_questions","survey-likert","33","350118","0.0-6.0-6.3","3533825","co38758","norming","","","{""aha"":6}","[0]","../img/tt/477tt.jpg","",""
"null","<div style=""font-size:60px;""> </div>","null","fixation","html-keyboard-response","34","350323","0.0-6.0-0.4","3533825","co38758","norming","","","","","","",""
"null","../img/tt/1205tt.jpg","null","mooney1","image-keyboard-response","35","353326","0.0-6.0-1.4","3533825","co38758","norming","","","","","","",""
"8269.495000000461","","","post_mooney1_questions","survey-likert","36","361598","0.0-6.0-2.4","3533825","co38758","norming","","","{""curiosity"":6,""confidence"":0}","[0,1]","../img/tt/1205tt.jpg","",""
"6054.149999999965","","","recognition","survey-text","37","367654","0.0-6.0-3.4","3533825","co38758","norming","","","{""guess"":""Zetel""}","","../img/tt/1205tt.jpg","",""
"null","../img/gs/1205gs.jpg","null","reveal","image-keyboard-response","38","369655","0.0-6.0-4.4","3533825","co38758","norming","","","","","","",""
"null","../img/tt/1205tt.jpg","null","mooney2","image-keyboard-response","39","371667","0.0-6.0-5.4","3533825","co38758","norming","","","","","","",""
"5065.754999999597","","","post_reveal_questions","survey-likert","40","376734","0.0-6.0-6.4","3533825","co38758","norming","","","{""aha"":6}","[0]","../img/tt/1205tt.jpg","",""
"null","<div style=""font-size:60px;""> </div>","null","fixation","html-keyboard-response","41","376940","0.0-6.0-0.5","3533825","co38758","norming","","","","","","",""
"null","../img/tt/1226tt.jpg","null","mooney1","image-keyboard-response","42","379950","0.0-6.0-1.5","3533825","co38758","norming","","","","","","",""
"5565.9599999999045","","","post_mooney1_questions","survey-likert","43","385522","0.0-6.0-2.5","3533825","co38758","norming","","","{""curiosity"":6,""confidence"":1}","[0,1]","../img/tt/1226tt.jpg","",""
"2182.1199999994715","","","recognition","survey-text","44","387706","0.0-6.0-3.5","3533825","co38758","norming","","","{""guess"":""Hoed""}","","../img/tt/1226tt.jpg","",""
"null","../img/gs/1226gs.jpg","null","reveal","image-keyboard-response","45","389716","0.0-6.0-4.5","3533825","co38758","norming","","","","","","",""
"null","../img/tt/1226tt.jpg","null","mooney2","image-keyboard-response","46","391717","0.0-6.0-5.5","3533825","co38758","norming","","","","","","",""
"8770.69499999925","","","post_reveal_questions","survey-likert","47","400490","0.0-6.0-6.5","3533825","co38758","norming","","","{""aha"":3}","[0]","../img/tt/1226tt.jpg","",""
"null","<div style=""font-size:60px;""> </div>","null","fixation","html-keyboard-response","48","400697","0.0-6.0-0.6","3533825","co38758","norming","","","","","","",""
"null","../img/tt/1362tt.jpg","null","mooney1","image-keyboard-response","49","403709","0.0-6.0-1.6","3533825","co38758","norming","","","","","","",""
"6523.284999999334","","","post_mooney1_questions","survey-likert","50","410234","0.0-6.0-2.6","3533825","co38758","norming","","","{""curiosity"":5,""confidence"":1}","[0,1]","../img/tt/1362tt.jpg","",""
"11214.219999999856","","","recognition","survey-text","51","421450","0.0-6.0-3.6","3533825","co38758","norming","","","{""guess"":""Kast""}","","../img/tt/1362tt.jpg","",""
"null","../img/gs/1362gs.jpg","null","reveal","image-keyboard-response","52","423451","0.0-6.0-4.6","3533825","co38758","norming","","","","","","",""
"null","../img/tt/1362tt.jpg","null","mooney2","image-keyboard-response","53","425462","0.0-6.0-5.6","3533825","co38758","norming","","","","","","",""
"2577.380000000645","","","post_reveal_questions","survey-likert","54","428042","0.0-6.0-6.6","3533825","co38758","norming","","","{""aha"":4}","[0]","../img/tt/1362tt.jpg","",""
"null","<div style=""font-size:60px;""> </div>","null","fixation","html-keyboard-response","55","428251","0.0-6.0-0.7","3533825","co38758","norming","","","","","","",""
"null","../img/tt/1072tt.jpg","null","mooney1","image-keyboard-response","56","431262","0.0-6.0-1.7","3533825","co38758","norming","","","","","","",""
"8225.505000000354","","","post_mooney1_questions","survey-likert","57","439490","0.0-6.0-2.7","3533825","co38758","norming","","","{""curiosity"":6,""confidence"":0}","[0,1]","../img/tt/1072tt.jpg","",""
"11286.360000000044","","","recognition","survey-text","58","450770","0.0-6.0-3.7","3533825","co38758","norming","","","{""guess"":""Boerderij""}","","../img/tt/1072tt.jpg","",""
"null","../img/gs/1072gs.jpg","null","reveal","image-keyboard-response","59","452771","0.0-6.0-4.7","3533825","co38758","norming","","","","","","",""
"null","../img/tt/1072tt.jpg","null","mooney2","image-keyboard-response","60","454773","0.0-6.0-5.7","3533825","co38758","norming","","","","","","",""
"5418.20000000007","","","post_reveal_questions","survey-likert","61","460194","0.0-6.0-6.7","3533825","co38758","norming","","","{""aha"":4}","[0]","../img/tt/1072tt.jpg","",""
"null","<div style=""font-size:60px;""> </div>","null","fixation","html-keyboard-response","62","460401","0.0-6.0-0.8","3533825","co38758","norming","","","","","","",""
"null","../img/tt/1255tt.jpg","null","mooney1","image-keyboard-response","63","463407","0.0-6.0-1.8","3533825","co38758","norming","","","","","","",""
"6544.190000000526","","","post_mooney1_questions","survey-likert","64","469954","0.0-6.0-2.8","3533825","co38758","norming","","","{""curiosity"":4,""confidence"":1}","[0,1]","../img/tt/1255tt.jpg","",""
"4734.215000000433","","","recognition","survey-text","65","474690","0.0-6.0-3.8","3533825","co38758","norming","","","{""guess"":""Persoon""}","","../img/tt/1255tt.jpg","",""
"null","../img/gs/1255gs.jpg","null","reveal","image-keyboard-response","66","476691","0.0-6.0-4.8","3533825","co38758","norming","","","","","","",""
"null","../img/tt/1255tt.jpg","null","mooney2","image-keyboard-response","67","478694","0.0-6.0-5.8","3533825","co38758","norming","","","","","","",""
"2937.635000000184","","","post_reveal_questions","survey-likert","68","481634","0.0-6.0-6.8","3533825","co38758","norming","","","{""aha"":4}","[0]","../img/tt/1255tt.jpg","",""
"null","<div style=""font-size:60px;""> </div>","null","fixation","html-keyboard-response","69","481839","0.0-6.0-0.9","3533825","co38758","norming","","","","","","",""
"null","../img/tt/1254tt.jpg","null","mooney1","image-keyboard-response","70","484844","0.0-6.0-1.9","3533825","co38758","norming","","","","","","",""
"6955.635000000242","","","post_mooney1_questions","survey-likert","71","491802","0.0-6.0-2.9","3533825","co38758","norming","","","{""curiosity"":5,""confidence"":2}","[0,1]","../img/tt/1254tt.jpg","",""
"3142.1350000000675","","","recognition","survey-text","72","494946","0.0-6.0-3.9","3533825","co38758","norming","","","{""guess"":""Kat""}","","../img/tt/1254tt.jpg","",""
"null","../img/gs/1254gs.jpg","null","reveal","image-keyboard-response","73","496955","0.0-6.0-4.9","3533825","co38758","norming","","","","","","",""
"null","../img/tt/1254tt.jpg","null","mooney2","image-keyboard-response","74","498957","0.0-6.0-5.9","3533825","co38758","norming","","","","","","",""
"3242.684999999299","","","post_reveal_questions","survey-likert","75","502202","0.0-6.0-6.9","3533825","co38758","norming","","","{""aha"":3}","[0]","../img/tt/1254tt.jpg","",""
"null","<div style=""font-size:60px;""> </div>","null","fixation","html-keyboard-response","76","502406","0.0-6.0-0.10","3533825","co38758","norming","","","","","","",""
"null","../img/tt/1125tt.jpg","null","mooney1","image-keyboard-response","77","505419","0.0-6.0-1.10","3533825","co38758","norming","","","","","","",""
"4221.639999999781","","","post_mooney1_questions","survey-likert","78","509643","0.0-6.0-2.10","3533825","co38758","norming","","","{""curiosity"":4,""confidence"":2}","[0,1]","../img/tt/1125tt.jpg","",""
"8141.030000000726","","","recognition","survey-text","79","517787","0.0-6.0-3.10","3533825","co38758","norming","","","{""guess"":""Boksen""}","","../img/tt/1125tt.jpg","",""
"null","../img/gs/1125gs.jpg","null","reveal","image-keyboard-response","80","519790","0.0-6.0-4.10","3533825","co38758","norming","","","","","","",""
"null","../img/tt/1125tt.jpg","null","mooney2","image-keyboard-response","81","521798","0.0-6.0-5.10","3533825","co38758","norming","","","","","","",""
"3947.059999998659","","","post_reveal_questions","survey-likert","82","525747","0.0-6.0-6.10","3533825","co38758","norming","","","{""aha"":3}","[0]","../img/tt/1125tt.jpg","",""
"null","<div style=""font-size:60px;""> </div>","null","fixation","html-keyboard-response","83","525949","0.0-6.0-0.11","3533825","co38758","norming","","","","","","",""
"null","../img/tt/1251tt.jpg","null","mooney1","image-keyboard-response","84","528951","0.0-6.0-1.11","3533825","co38758","norming","","","","","","",""
"4137.254999999655","","","post_mooney1_questions","survey-likert","85","533091","0.0-6.0-2.11","3533825","co38758","norming","","","{""curiosity"":5,""confidence"":1}","[0,1]","../img/tt/1251tt.jpg","",""
"4390.3950000002515","","","recognition","survey-text","86","537483","0.0-6.0-3.11","3533825","co38758","norming","","","{""guess"":""Persoon""}","","../img/tt/1251tt.jpg","",""
"null","../img/gs/1251gs.jpg","null","reveal","image-keyboard-response","87","539485","0.0-6.0-4.11","3533825","co38758","norming","","","","","","",""
"null","../img/tt/1251tt.jpg","null","mooney2","image-keyboard-response","88","541492","0.0-6.0-5.11","3533825","co38758","norming","","","","","","",""
"5413.485000000917","","","post_reveal_questions","survey-likert","89","546907","0.0-6.0-6.11","3533825","co38758","norming","","","{""aha"":4}","[0]","../img/tt/1251tt.jpg","",""
"null","<div style=""font-size:60px;""> </div>","null","fixation","html-keyboard-response","90","547110","0.0-6.0-0.12","3533825","co38758","norming","","","","","","",""
"null","../img/tt/599tt.jpg","null","mooney1","image-keyboard-response","91","550115","0.0-6.0-1.12","3533825","co38758","norming","","","","","","",""
"6006.704999999842","","","post_mooney1_questions","survey-likert","92","556124","0.0-6.0-2.12","3533825","co38758","norming","","","{""curiosity"":5,""confidence"":1}","[0,1]","../img/tt/599tt.jpg","",""
"6061.9600000010105","","","recognition","survey-text","93","562187","0.0-6.0-3.12","3533825","co38758","norming","","","{""guess"":""Lieveheersbeestje""}","","../img/tt/599tt.jpg","",""
"null","../img/gs/599gs.jpg","null","reveal","image-keyboard-response","94","564194","0.0-6.0-4.12","3533825","co38758","norming","","","","","","",""
"null","../img/tt/599tt.jpg","null","mooney2","image-keyboard-response","95","566197","0.0-6.0-5.12","3533825","co38758","norming","","","","","","",""
"1716.3649999983609","","","post_reveal_questions","survey-likert","96","567916","0.0-6.0-6.12","3533825","co38758","norming","","","{""aha"":6}","[0]","../img/tt/599tt.jpg","",""
"null","<div style=""font-size:60px;""> </div>","null","fixation","html-keyboard-response","97","568121","0.0-6.0-0.13","3533825","co38758","norming","","","","","","",""
"null","../img/tt/1043tt.jpg","null","mooney1","image-keyboard-response","98","571124","0.0-6.0-1.13","3533825","co38758","norming","","","","","","",""
"7941.824999999953","","","post_mooney1_questions","survey-likert","99","579068","0.0-6.0-2.13","3533825","co38758","norming","","","{""curiosity"":6,""confidence"":0}","[0,1]","../img/tt/1043tt.jpg","",""
"10302.165000000969","","","recognition","survey-text","100","589372","0.0-6.0-3.13","3533825","co38758","norming","","","{""guess"":""Hoed""}","","../img/tt/1043tt.jpg","",""
"null","../img/gs/1043gs.jpg","null","reveal","image-keyboard-response","101","591373","0.0-6.0-4.13","3533825","co38758","norming","","","","","","",""
"null","../img/tt/1043tt.jpg","null","mooney2","image-keyboard-response","102","593376","0.0-6.0-5.13","3533825","co38758","norming","","","","","","",""
"2385.5849999999627","","","post_reveal_questions","survey-likert","103","595763","0.0-6.0-6.13","3533825","co38758","norming","","","{""aha"":5}","[0]","../img/tt/1043tt.jpg","",""
"null","<div style=""font-size:60px;""> </div>","null","fixation","html-keyboard-response","104","595965","0.0-6.0-0.14","3533825","co38758","norming","","","","","","",""
"null","../img/tt/111tt.jpg","null","mooney1","image-keyboard-response","105","598968","0.0-6.0-1.14","3533825","co38758","norming","","","","","","",""
"9648.75000000035","","","post_mooney1_questions","survey-likert","106","608620","0.0-6.0-2.14","3533825","co38758","norming","","","{""curiosity"":1,""confidence"":6}","[0,1]","../img/tt/111tt.jpg","",""
"3166.2399999985937","","","recognition","survey-text","107","611788","0.0-6.0-3.14","3533825","co38758","norming","","","{""guess"":""Telefoon""}","","../img/tt/111tt.jpg","",""
"null","../img/gs/111gs.jpg","null","reveal","image-keyboard-response","108","613792","0.0-6.0-4.14","3533825","co38758","norming","","","","","","",""
"null","../img/tt/111tt.jpg","null","mooney2","image-keyboard-response","109","615795","0.0-6.0-5.14","3533825","co38758","norming","","","","","","",""
"2958.989999999176","","","post_reveal_questions","survey-likert","110","618756","0.0-6.0-6.14","3533825","co38758","norming","","","{""aha"":5}","[0]","../img/tt/111tt.jpg","",""
"null","<div style=""font-size:60px;""> </div>","null","fixation","html-keyboard-response","111","618963","0.0-6.0-0.15","3533825","co38758","norming","","","","","","",""
"null","../img/tt/222tt.jpg","null","mooney1","image-keyboard-response","112","621967","0.0-6.0-1.15","3533825","co38758","norming","","","","","","",""
"7666.58999999892","","","post_mooney1_questions","survey-likert","113","629633","0.0-6.0-2.15","3533825","co38758","norming","","","{""curiosity"":3,""confidence"":3}","[0,1]","../img/tt/222tt.jpg","",""
"7158.310000000754","","","recognition","survey-text","114","636793","0.0-6.0-3.15","3533825","co38758","norming","","","{""guess"":""Badkuip""}","","../img/tt/222tt.jpg","",""
"null","../img/gs/222gs.jpg","null","reveal","image-keyboard-response","115","638798","0.0-6.0-4.15","3533825","co38758","norming","","","","","","",""
"null","../img/tt/222tt.jpg","null","mooney2","image-keyboard-response","116","640799","0.0-6.0-5.15","3533825","co38758","norming","","","","","","",""
"3406.7649999996647","","","post_reveal_questions","survey-likert","117","644208","0.0-6.0-6.15","3533825","co38758","norming","","","{""aha"":1}","[0]","../img/tt/222tt.jpg","",""
"null","<div style=""font-size:60px;""> </div>","null","fixation","html-keyboard-response","118","644417","0.0-6.0-0.16","3533825","co38758","norming","","","","","","",""
"null","../img/tt/079tt.jpg","null","mooney1","image-keyboard-response","119","647420","0.0-6.0-1.16","3533825","co38758","norming","","","","","","",""
"4074.3149999998277","","","post_mooney1_questions","survey-likert","120","651497","0.0-6.0-2.16","3533825","co38758","norming","","","{""curiosity"":1,""confidence"":5}","[0,1]","../img/tt/079tt.jpg","",""
"2510.0300000013085","","","recognition","survey-text","121","654008","0.0-6.0-3.16","3533825","co38758","norming","","","{""guess"":""Beer""}","","../img/tt/079tt.jpg","",""
"null","../img/gs/079gs.jpg","null","reveal","image-keyboard-response","122","656014","0.0-6.0-4.16","3533825","co38758","norming","","","","","","",""
"null","../img/tt/079tt.jpg","null","mooney2","image-keyboard-response","123","658017","0.0-6.0-5.16","3533825","co38758","norming","","","","","","",""
"2421.4350000002887","","","post_reveal_questions","survey-likert","124","660441","0.0-6.0-6.16","3533825","co38758","norming","","","{""aha"":0}","[0]","../img/tt/079tt.jpg","",""
"null","<div style=""font-size:60px;""> </div>","null","fixation","html-keyboard-response","125","660649","0.0-6.0-0.17","3533825","co38758","norming","","","","","","",""
"null","../img/tt/1033tt.jpg","null","mooney1","image-keyboard-response","126","663652","0.0-6.0-1.17","3533825","co38758","norming","","","","","","",""
"5259.57500000007","","","post_mooney1_questions","survey-likert","127","668913","0.0-6.0-2.17","3533825","co38758","norming","","","{""curiosity"":4,""confidence"":3}","[0,1]","../img/tt/1033tt.jpg","",""
"5686.240000000922","","","recognition","survey-text","128","674601","0.0-6.0-3.17","3533825","co38758","norming","","","{""guess"":""Ridder""}","","../img/tt/1033tt.jpg","",""
"null","../img/gs/1033gs.jpg","null","reveal","image-keyboard-response","129","676602","0.0-6.0-4.17","3533825","co38758","norming","","","","","","",""
"null","../img/tt/1033tt.jpg","null","mooney2","image-keyboard-response","130","678605","0.0-6.0-5.17","3533825","co38758","norming","","","","","","",""
"6105.4949999997625","","","post_reveal_questions","survey-likert","131","684713","0.0-6.0-6.17","3533825","co38758","norming","","","{""aha"":5}","[0]","../img/tt/1033tt.jpg","",""
"null","<div style=""font-size:60px;""> </div>","null","fixation","html-keyboard-response","132","684915","0.0-6.0-0.18","3533825","co38758","norming","","","","","","",""
"null","../img/tt/353tt.jpg","null","mooney1","image-keyboard-response","133","687921","0.0-6.0-1.18","3533825","co38758","norming","","","","","","",""
"3592.1049999997485","","","post_mooney1_questions","survey-likert","134","691516","0.0-6.0-2.18","3533825","co38758","norming","","","{""curiosity"":4,""confidence"":3}","[0,1]","../img/tt/353tt.jpg","",""
"5102.279999999213","","","recognition","survey-text","135","696620","0.0-6.0-3.18","3533825","co38758","norming","","","{""guess"":""Pinguin""}","","../img/tt/353tt.jpg","",""
"null","../img/gs/353gs.jpg","null","reveal","image-keyboard-response","136","698621","0.0-6.0-4.18","3533825","co38758","norming","","","","","","",""
"null","../img/tt/353tt.jpg","null","mooney2","image-keyboard-response","137","700623","0.0-6.0-5.18","3533825","co38758","norming","","","","","","",""
"1874.8350000005448","","","post_reveal_questions","survey-likert","138","702500","0.0-6.0-6.18","3533825","co38758","norming","","","{""aha"":1}","[0]","../img/tt/353tt.jpg","",""
"null","<div style=""font-size:60px;""> </div>","null","fixation","html-keyboard-response","139","702701","0.0-6.0-0.19","3533825","co38758","norming","","","","","","",""
"null","../img/tt/053tt.jpg","null","mooney1","image-keyboard-response","140","705708","0.0-6.0-1.19","3533825","co38758","norming","","","","","","",""
"5302.835000000428","","","post_mooney1_questions","survey-likert","141","711012","0.0-6.0-2.19","3533825","co38758","norming","","","{""curiosity"":5,""confidence"":1}","[0,1]","../img/tt/053tt.jpg","",""
"1974.145000000135","","","recognition","survey-text","142","712988","0.0-6.0-3.19","3533825","co38758","norming","","","{""guess"":""Bos""}","","../img/tt/053tt.jpg","",""
"null","../img/gs/053gs.jpg","null","reveal","image-keyboard-response","143","714989","0.0-6.0-4.19","3533825","co38758","norming","","","","","","",""
"null","../img/tt/053tt.jpg","null","mooney2","image-keyboard-response","144","716992","0.0-6.0-5.19","3533825","co38758","norming","","","","","","",""
"3465.5849999999627","","","post_reveal_questions","survey-likert","145","720460","0.0-6.0-6.19","3533825","co38758","norming","","","{""aha"":4}","[0]","../img/tt/053tt.jpg","",""
"null","<div style=""font-size:60px;""> </div>","null","fixation","html-keyboard-response","146","720663","0.0-6.0-0.20","3533825","co38758","norming","","","","","","",""
"null","../img/tt/1243tt.jpg","null","mooney1","image-keyboard-response","147","723667","0.0-6.0-1.20","3533825","co38758","norming","","","","","","",""
"4831.700000000652","","","post_mooney1_questions","survey-likert","148","728500","0.0-6.0-2.20","3533825","co38758","norming","","","{""curiosity"":5,""confidence"":1}","[0,1]","../img/tt/1243tt.jpg","",""
"2422.1449999986216","","","recognition","survey-text","149","730924","0.0-6.0-3.20","3533825","co38758","norming","","","{""guess"":""Beer""}","","../img/tt/1243tt.jpg","",""
"null","../img/gs/1243gs.jpg","null","reveal","image-keyboard-response","150","732931","0.0-6.0-4.20","3533825","co38758","norming","","","","","","",""
"null","../img/tt/1243tt.jpg","null","mooney2","image-keyboard-response","151","734936","0.0-6.0-5.20","3533825","co38758","norming","","","","","","",""
"3313.550000000745","","","post_reveal_questions","survey-likert","152","738252","0.0-6.0-6.20","3533825","co38758","norming","","","{""aha"":6}","[0]","../img/tt/1243tt.jpg","",""
"null","<div style=""font-size:60px;""> </div>","null","fixation","html-keyboard-response","153","738461","0.0-6.0-0.21","3533825","co38758","norming","","","","","","",""
"null","../img/tt/1102tt.jpg","null","mooney1","image-keyboard-response","154","741473","0.0-6.0-1.21","3533825","co38758","norming","","","","","","",""
"5232.694999998785","","","post_mooney1_questions","survey-likert","155","746708","0.0-6.0-2.21","3533825","co38758","norming","","","{""curiosity"":3,""confidence"":5}","[0,1]","../img/tt/1102tt.jpg","",""
"3830.1250000004657","","","recognition","survey-text","156","750533","0.0-6.0-3.21","3533825","co38758","norming","","","{""guess"":""Hangmat""}","","../img/tt/1102tt.jpg","",""
"null","../img/gs/1102gs.jpg","null","reveal","image-keyboard-response","157","752542","0.0-6.0-4.21","3533825","co38758","norming","","","","","","",""
"null","../img/tt/1102tt.jpg","null","mooney2","image-keyboard-response","158","754552","0.0-6.0-5.21","3533825","co38758","norming","","","","","","",""
"2473.6450000000186","","","post_reveal_questions","survey-likert","159","757029","0.0-6.0-6.21","3533825","co38758","norming","","","{""aha"":5}","[0]","../img/tt/1102tt.jpg","",""
"null","<div style=""font-size:60px;""> </div>","null","fixation","html-keyboard-response","160","757237","0.0-6.0-0.22","3533825","co38758","norming","","","","","","",""
"null","../img/tt/406tt.jpg","null","mooney1","image-keyboard-response","161","760241","0.0-6.0-1.22","3533825","co38758","norming","","","","","","",""
"4883.179999998887","","","post_mooney1_questions","survey-likert","162","765125","0.0-6.0-2.22","3533825","co38758","norming","","","{""curiosity"":4,""confidence"":4}","[0,1]","../img/tt/406tt.jpg","",""
"4606.159999999334","","","recognition","survey-text","163","769733","0.0-6.0-3.22","3533825","co38758","norming","","","{""guess"":""Vleermuis""}","","../img/tt/406tt.jpg","",""
"null","../img/gs/406gs.jpg","null","reveal","image-keyboard-response","164","771734","0.0-6.0-4.22","3533825","co38758","norming","","","","","","",""
"null","../img/tt/406tt.jpg","null","mooney2","image-keyboard-response","165","773744","0.0-6.0-5.22","3533825","co38758","norming","","","","","","",""
"3874.7199999997392","","","post_reveal_questions","survey-likert","166","777621","0.0-6.0-6.22","3533825","co38758","norming","","","{""aha"":0}","[0]","../img/tt/406tt.jpg","",""
"null","<div style=""font-size:60px;""> </div>","null","fixation","html-keyboard-response","167","777825","0.0-6.0-0.23","3533825","co38758","norming","","","","","","",""
"null","../img/tt/296tt.jpg","null","mooney1","image-keyboard-response","168","780831","0.0-6.0-1.23","3533825","co38758","norming","","","","","","",""
"4890.494999999646","","","post_mooney1_questions","survey-likert","169","785725","0.0-6.0-2.23","3533825","co38758","norming","","","{""curiosity"":6,""confidence"":1}","[0,1]","../img/tt/296tt.jpg","",""
"2597.980000000447","","","recognition","survey-text","170","788325","0.0-6.0-3.23","3533825","co38758","norming","","","{""guess"":""Boot""}","","../img/tt/296tt.jpg","",""
"null","../img/gs/296gs.jpg","null","reveal","image-keyboard-response","171","790330","0.0-6.0-4.23","3533825","co38758","norming","","","","","","",""
"null","../img/tt/296tt.jpg","null","mooney2","image-keyboard-response","172","792333","0.0-6.0-5.23","3533825","co38758","norming","","","","","","",""
"2821.8649999998743","","","post_reveal_questions","survey-likert","173","795157","0.0-6.0-6.23","3533825","co38758","norming","","","{""aha"":6}","[0]","../img/tt/296tt.jpg","",""
"null","<div style=""font-size:60px;""> </div>","null","fixation","html-keyboard-response","174","795359","0.0-6.0-0.24","3533825","co38758","norming","","","","","","",""
"null","../img/tt/1044tt.jpg","null","mooney1","image-keyboard-response","175","798362","0.0-6.0-1.24","3533825","co38758","norming","","","","","","",""
"3312.169999999227","","","post_mooney1_questions","survey-likert","176","801677","0.0-6.0-2.24","3533825","co38758","norming","","","{""curiosity"":6,""confidence"":0}","[0,1]","../img/tt/1044tt.jpg","",""
"4406.225000000675","","","recognition","survey-text","177","806085","0.0-6.0-3.24","3533825","co38758","norming","","","{""guess"":""Meubel""}","","../img/tt/1044tt.jpg","",""
"null","../img/gs/1044gs.jpg","null","reveal","image-keyboard-response","178","808093","0.0-6.0-4.24","3533825","co38758","norming","","","","","","",""
"null","../img/tt/1044tt.jpg","null","mooney2","image-keyboard-response","179","810094","0.0-6.0-5.24","3533825","co38758","norming","","","","","","",""
"3083.1450000006007","","","post_reveal_questions","survey-likert","180","813180","0.0-6.0-6.24","3533825","co38758","norming","","","{""aha"":5}","[0]","../img/tt/1044tt.jpg","",""
"null","<div style=""font-size:60px;""> </div>","null","fixation","html-keyboard-response","181","813383","0.0-6.0-0.25","3533825","co38758","norming","","","","","","",""
"null","../img/tt/032tt.jpg","null","mooney1","image-keyboard-response","182","816389","0.0-6.0-1.25","3533825","co38758","norming","","","","","","",""
"5307.489999999292","","","post_mooney1_questions","survey-likert","183","821700","0.0-6.0-2.25","3533825","co38758","norming","","","{""curiosity"":6,""confidence"":1}","[0,1]","../img/tt/032tt.jpg","",""
"2182.240000000107","","","recognition","survey-text","184","823884","0.0-6.0-3.25","3533825","co38758","norming","","","{""guess"":""Dier""}","","../img/tt/032tt.jpg","",""
"null","../img/gs/032gs.jpg","null","reveal","image-keyboard-response","185","825886","0.0-6.0-4.25","3533825","co38758","norming","","","","","","",""
"null","../img/tt/032tt.jpg","null","mooney2","image-keyboard-response","186","827888","0.0-6.0-5.25","3533825","co38758","norming","","","","","","",""
"2289.17499999993","","","post_reveal_questions","survey-likert","187","830180","0.0-6.0-6.25","3533825","co38758","norming","","","{""aha"":6}","[0]","../img/tt/032tt.jpg","",""
"null","<div style=""font-size:60px;""> </div>","null","fixation","html-keyboard-response","188","830385","0.0-6.0-0.26","3533825","co38758","norming","","","","","","",""
"null","../img/tt/1046tt.jpg","null","mooney1","image-keyboard-response","189","833390","0.0-6.0-1.26","3533825","co38758","norming","","","","","","",""
"6475.239999999758","","","post_mooney1_questions","survey-likert","190","839868","0.0-6.0-2.26","3533825","co38758","norming","","","{""curiosity"":3,""confidence"":3}","[0,1]","../img/tt/1046tt.jpg","",""
"2878.0000000006985","","","recognition","survey-text","191","842747","0.0-6.0-3.26","3533825","co38758","norming","","","{""guess"":""Pannenkoek""}","","../img/tt/1046tt.jpg","",""
"null","../img/gs/1046gs.jpg","null","reveal","image-keyboard-response","192","844749","0.0-6.0-4.26","3533825","co38758","norming","","","","","","",""
"null","../img/tt/1046tt.jpg","null","mooney2","image-keyboard-response","193","846751","0.0-6.0-5.26","3533825","co38758","norming","","","","","","",""
"2682.8299999997253","","","post_reveal_questions","survey-likert","194","849436","0.0-6.0-6.26","3533825","co38758","norming","","","{""aha"":3}","[0]","../img/tt/1046tt.jpg","",""
"null","<div style=""font-size:60px;""> </div>","null","fixation","html-keyboard-response","195","849647","0.0-6.0-0.27","3533825","co38758","norming","","","","","","",""
"null","../img/tt/007tt.jpg","null","mooney1","image-keyboard-response","196","852653","0.0-6.0-1.27","3533825","co38758","norming","","","","","","",""
"3708.010000000242","","","post_mooney1_questions","survey-likert","197","856364","0.0-6.0-2.27","3533825","co38758","norming","","","{""curiosity"":6,""confidence"":0}","[0,1]","../img/tt/007tt.jpg","",""
"3326.0999999984633","","","recognition","survey-text","198","859691","0.0-6.0-3.27","3533825","co38758","norming","","","{""guess"":""Eten""}","","../img/tt/007tt.jpg","",""
"null","../img/gs/007gs.jpg","null","reveal","image-keyboard-response","199","861693","0.0-6.0-4.27","3533825","co38758","norming","","","","","","",""
"null","../img/tt/007tt.jpg","null","mooney2","image-keyboard-response","200","863695","0.0-6.0-5.27","3533825","co38758","norming","","","","","","",""
"5107.8249999991385","","","post_reveal_questions","survey-likert","201","868799","0.0-6.0-6.27","3533825","co38758","norming","","","{""aha"":1}","[0]","../img/tt/007tt.jpg","",""
"null","<div style=""font-size:60px;""> </div>","null","fixation","html-keyboard-response","202","869002","0.0-6.0-0.28","3533825","co38758","norming","","","","","","",""
"null","../img/tt/1171tt.jpg","null","mooney1","image-keyboard-response","203","872009","0.0-6.0-1.28","3533825","co38758","norming","","","","","","",""
"3722.8400000003166","","","post_mooney1_questions","survey-likert","204","875735","0.0-6.0-2.28","3533825","co38758","norming","","","{""curiosity"":6,""confidence"":0}","[0,1]","../img/tt/1171tt.jpg","",""
"1806.319999999716","","","recognition","survey-text","205","877543","0.0-6.0-3.28","3533825","co38758","norming","","","{""guess"":""Dier""}","","../img/tt/1171tt.jpg","",""
"null","../img/gs/1171gs.jpg","null","reveal","image-keyboard-response","206","879545","0.0-6.0-4.28","3533825","co38758","norming","","","","","","",""
"null","../img/tt/1171tt.jpg","null","mooney2","image-keyboard-response","207","881551","0.0-6.0-5.28","3533825","co38758","norming","","","","","","",""
"1502.19500000088","","","post_reveal_questions","survey-likert","208","883055","0.0-6.0-6.28","3533825","co38758","norming","","","{""aha"":2}","[0]","../img/tt/1171tt.jpg","",""
"null","<div style=""font-size:60px;""> </div>","null","fixation","html-keyboard-response","209","883266","0.0-6.0-0.29","3533825","co38758","norming","","","","","","",""
"null","../img/tt/1127tt.jpg","null","mooney1","image-keyboard-response","210","886275","0.0-6.0-1.29","3533825","co38758","norming","","","","","","",""
"6801.035000000498","","","post_mooney1_questions","survey-likert","211","893079","0.0-6.0-2.29","3533825","co38758","norming","","","{""curiosity"":4,""confidence"":3}","[0,1]","../img/tt/1127tt.jpg","",""
"3629.9749999998603","","","recognition","survey-text","212","896711","0.0-6.0-3.29","3533825","co38758","norming","","","{""guess"":""Klaslokaal""}","","../img/tt/1127tt.jpg","",""
"null","../img/gs/1127gs.jpg","null","reveal","image-keyboard-response","213","898713","0.0-6.0-4.29","3533825","co38758","norming","","","","","","",""
"null","../img/tt/1127tt.jpg","null","mooney2","image-keyboard-response","214","900716","0.0-6.0-5.29","3533825","co38758","norming","","","","","","",""
"5000.820000001113","","","post_reveal_questions","survey-likert","215","905719","0.0-6.0-6.29","3533825","co38758","norming","","","{""aha"":4}","[0]","../img/tt/1127tt.jpg","",""
"null","<div style=""font-size:60px;""> </div>","null","fixation","html-keyboard-response","216","905921","0.0-6.0-0.30","3533825","co38758","norming","","","","","","",""
"null","../img/tt/1188tt.jpg","null","mooney1","image-keyboard-response","217","908923","0.0-6.0-1.30","3533825","co38758","norming","","","","","","",""
"6027.509999999893","","","post_mooney1_questions","survey-likert","218","914951","0.0-6.0-2.30","3533825","co38758","norming","","","{""curiosity"":5,""confidence"":2}","[0,1]","../img/tt/1188tt.jpg","",""
"3213.7600000005914","","","recognition","survey-text","219","918167","0.0-6.0-3.30","3533825","co38758","norming","","","{""guess"":""Fietser""}","","../img/tt/1188tt.jpg","",""
"null","../img/gs/1188gs.jpg","null","reveal","image-keyboard-response","220","920170","0.0-6.0-4.30","3533825","co38758","norming","","","","","","",""
"null","../img/tt/1188tt.jpg","null","mooney2","image-keyboard-response","221","922171","0.0-6.0-5.30","3533825","co38758","norming","","","","","","",""
"1531.5549999995856","","","post_reveal_questions","survey-likert","222","923703","0.0-6.0-6.30","3533825","co38758","norming","","","{""aha"":2}","[0]","../img/tt/1188tt.jpg","",""
"null","<div style=""font-size:60px;""> </div>","null","fixation","html-keyboard-response","223","923905","0.0-6.0-0.31","3533825","co38758","norming","","","","","","",""
"null","../img/tt/1128tt.jpg","null","mooney1","image-keyboard-response","224","926911","0.0-6.0-1.31","3533825","co38758","norming","","","","","","",""
"10183.774999999558","","","post_mooney1_questions","survey-likert","225","937095","0.0-6.0-2.31","3533825","co38758","norming","","","{""curiosity"":4,""confidence"":3}","[0,1]","../img/tt/1128tt.jpg","",""
"4094.1499999989755","","","recognition","survey-text","226","941191","0.0-6.0-3.31","3533825","co38758","norming","","","{""guess"":""Dansend persoon""}","","../img/tt/1128tt.jpg","",""
"null","../img/gs/1128gs.jpg","null","reveal","image-keyboard-response","227","943195","0.0-6.0-4.31","3533825","co38758","norming","","","","","","",""
"null","../img/tt/1128tt.jpg","null","mooney2","image-keyboard-response","228","945205","0.0-6.0-5.31","3533825","co38758","norming","","","","","","",""
"4455.054999998538","","","post_reveal_questions","survey-likert","229","949663","0.0-6.0-6.31","3533825","co38758","norming","","","{""aha"":3}","[0]","../img/tt/1128tt.jpg","",""
"null","<div style=""font-size:60px;""> </div>","null","fixation","html-keyboard-response","230","949867","0.0-6.0-0.32","3533825","co38758","norming","","","","","","",""
"null","../img/tt/1024tt.jpg","null","mooney1","image-keyboard-response","231","952871","0.0-6.0-1.32","3533825","co38758","norming","","","","","","",""
"5749.229999999399","","","post_mooney1_questions","survey-likert","232","958623","0.0-6.0-2.32","3533825","co38758","norming","","","{""curiosity"":4,""confidence"":2}","[0,1]","../img/tt/1024tt.jpg","",""
"4261.660000000149","","","recognition","survey-text","233","962887","0.0-6.0-3.32","3533825","co38758","norming","","","{""guess"":""Vrouw""}","","../img/tt/1024tt.jpg","",""
"null","../img/gs/1024gs.jpg","null","reveal","image-keyboard-response","234","964893","0.0-6.0-4.32","3533825","co38758","norming","","","","","","",""
"null","../img/tt/1024tt.jpg","null","mooney2","image-keyboard-response","235","966897","0.0-6.0-5.32","3533825","co38758","norming","","","","","","",""
"3523.4199999995762","","","post_reveal_questions","survey-likert","236","970423","0.0-6.0-6.32","3533825","co38758","norming","","","{""aha"":4}","[0]","../img/tt/1024tt.jpg","",""
"null","<div style=""font-size:60px;""> </div>","null","fixation","html-keyboard-response","237","970628","0.0-6.0-0.33","3533825","co38758","norming","","","","","","",""
"null","../img/tt/1101tt.jpg","null","mooney1","image-keyboard-response","238","973638","0.0-6.0-1.33","3533825","co38758","norming","","","","","","",""
"7064.454999999725","","","post_mooney1_questions","survey-likert","239","980703","0.0-6.0-2.33","3533825","co38758","norming","","","{""curiosity"":5,""confidence"":3}","[0,1]","../img/tt/1101tt.jpg","",""
"3590.1650000014342","","","recognition","survey-text","240","984295","0.0-6.0-3.33","3533825","co38758","norming","","","{""guess"":""Voetballer""}","","../img/tt/1101tt.jpg","",""
"null","../img/gs/1101gs.jpg","null","reveal","image-keyboard-response","241","986296","0.0-6.0-4.33","3533825","co38758","norming","","","","","","",""
"null","../img/tt/1101tt.jpg","null","mooney2","image-keyboard-response","242","988298","0.0-6.0-5.33","3533825","co38758","norming","","","","","","",""
"3394.585000000079","","","post_reveal_questions","survey-likert","243","991693","0.0-6.0-6.33","3533825","co38758","norming","","","{""aha"":1}","[0]","../img/tt/1101tt.jpg","",""
"null","<div style=""font-size:60px;""> </div>","null","fixation","html-keyboard-response","244","991895","0.0-6.0-0.34","3533825","co38758","norming","","","","","","",""
"null","../img/tt/1080tt.jpg","null","mooney1","image-keyboard-response","245","994906","0.0-6.0-1.34","3533825","co38758","norming","","","","","","",""
"3520.36500000034","","","post_mooney1_questions","survey-likert","246","998430","0.0-6.0-2.34","3533825","co38758","norming","","","{""curiosity"":6,""confidence"":0}","[0,1]","../img/tt/1080tt.jpg","",""
"16870.274999999325","","","recognition","survey-text","247","1015302","0.0-6.0-3.34","3533825","co38758","norming","","","{""guess"":""""}","","../img/tt/1080tt.jpg","",""
"null","../img/gs/1080gs.jpg","null","reveal","image-keyboard-response","248","1017303","0.0-6.0-4.34","3533825","co38758","norming","","","","","","",""
"null","../img/tt/1080tt.jpg","null","mooney2","image-keyboard-response","249","1019306","0.0-6.0-5.34","3533825","co38758","norming","","","","","","",""
"3001.655000000028","","","post_reveal_questions","survey-likert","250","1022310","0.0-6.0-6.34","3533825","co38758","norming","","","{""aha"":5}","[0]","../img/tt/1080tt.jpg","",""
"null","<div style=""font-size:60px;""> </div>","null","fixation","html-keyboard-response","251","1022512","0.0-6.0-0.35","3533825","co38758","norming","","","","","","",""
"null","../img/tt/112tt.jpg","null","mooney1","image-keyboard-response","252","1025518","0.0-6.0-1.35","3533825","co38758","norming","","","","","","",""
"4380.604999998468","","","post_mooney1_questions","survey-likert","253","1029901","0.0-6.0-2.35","3533825","co38758","norming","","","{""curiosity"":5,""confidence"":2}","[0,1]","../img/tt/112tt.jpg","",""
"2470.399999998277","","","recognition","survey-text","254","1032374","0.0-6.0-3.35","3533825","co38758","norming","","","{""guess"":""Horloge""}","","../img/tt/112tt.jpg","",""
"null","../img/gs/112gs.jpg","null","reveal","image-keyboard-response","255","1034376","0.0-6.0-4.35","3533825","co38758","norming","","","","","","",""
"null","../img/tt/112tt.jpg","null","mooney2","image-keyboard-response","256","1036381","0.0-6.0-5.35","3533825","co38758","norming","","","","","","",""
"3038.1450000004843","","","post_reveal_questions","survey-likert","257","1039422","0.0-6.0-6.35","3533825","co38758","norming","","","{""aha"":4}","[0]","../img/tt/112tt.jpg","",""
"null","<div style=""font-size:60px;""> </div>","null","fixation","html-keyboard-response","258","1039631","0.0-6.0-0.36","3533825","co38758","norming","","","","","","",""
"null","../img/tt/1096tt.jpg","null","mooney1","image-keyboard-response","259","1042641","0.0-6.0-1.36","3533825","co38758","norming","","","","","","",""
"7226.020000000019","","","post_mooney1_questions","survey-likert","260","1049870","0.0-6.0-2.36","3533825","co38758","norming","","","{""curiosity"":3,""confidence"":4}","[0,1]","../img/tt/1096tt.jpg","",""
"2790.2350000003353","","","recognition","survey-text","261","1052668","0.0-6.0-3.36","3533825","co38758","norming","","","{""guess"":""Huiskamer""}","","../img/tt/1096tt.jpg","",""
"null","../img/gs/1096gs.jpg","null","reveal","image-keyboard-response","262","1054670","0.0-6.0-4.36","3533825","co38758","norming","","","","","","",""
"null","../img/tt/1096tt.jpg","null","mooney2","image-keyboard-response","263","1056678","0.0-6.0-5.36","3533825","co38758","norming","","","","","","",""
"2731.2849999996834","","","post_reveal_questions","survey-likert","264","1059412","0.0-6.0-6.36","3533825","co38758","norming","","","{""aha"":5}","[0]","../img/tt/1096tt.jpg","",""
"null","<div style=""font-size:60px;""> </div>","null","fixation","html-keyboard-response","265","1059622","0.0-6.0-0.37","3533825","co38758","norming","","","","","","",""
"null","../img/tt/1260tt.jpg","null","mooney1","image-keyboard-response","266","1062624","0.0-6.0-1.37","3533825","co38758","norming","","","","","","",""
"3641.449999999255","","","post_mooney1_questions","survey-likert","267","1066268","0.0-6.0-2.37","3533825","co38758","norming","","","{""curiosity"":6,""confidence"":0}","[0,1]","../img/tt/1260tt.jpg","",""
"7982.455000001239","","","recognition","survey-text","268","1074252","0.0-6.0-3.37","3533825","co38758","norming","","","{""guess"":""Boerderij""}","","../img/tt/1260tt.jpg","",""
"null","../img/gs/1260gs.jpg","null","reveal","image-keyboard-response","269","1076253","0.0-6.0-4.37","3533825","co38758","norming","","","","","","",""
"null","../img/tt/1260tt.jpg","null","mooney2","image-keyboard-response","270","1078255","0.0-6.0-5.37","3533825","co38758","norming","","","","","","",""
"3931.090000000084","","","post_reveal_questions","survey-likert","271","1082188","0.0-6.0-6.37","3533825","co38758","norming","","","{""aha"":6}","[0]","../img/tt/1260tt.jpg","",""
"null","<div style=""font-size:60px;""> </div>","null","fixation","html-keyboard-response","272","1082397","0.0-6.0-0.38","3533825","co38758","norming","","","","","","",""
"null","../img/tt/194tt.jpg","null","mooney1","image-keyboard-response","273","1085402","0.0-6.0-1.38","3533825","co38758","norming","","","","","","",""
"6102.9099999994505","","","post_mooney1_questions","survey-likert","274","1091508","0.0-6.0-2.38","3533825","co38758","norming","","","{""curiosity"":5,""confidence"":2}","[0,1]","../img/tt/194tt.jpg","",""
"5670.264999998966","","","recognition","survey-text","275","1097180","0.0-6.0-3.38","3533825","co38758","norming","","","{""guess"":""Instrument spelen""}","","../img/tt/194tt.jpg","",""
"null","../img/gs/194gs.jpg","null","reveal","image-keyboard-response","276","1099182","0.0-6.0-4.38","3533825","co38758","norming","","","","","","",""
"null","../img/tt/194tt.jpg","null","mooney2","image-keyboard-response","277","1101185","0.0-6.0-5.38","3533825","co38758","norming","","","","","","",""
"3584.5599999993574","","","post_reveal_questions","survey-likert","278","1104772","0.0-6.0-6.38","3533825","co38758","norming","","","{""aha"":1}","[0]","../img/tt/194tt.jpg","",""
"null","<div style=""font-size:60px;""> </div>","null","fixation","html-keyboard-response","279","1104978","0.0-6.0-0.39","3533825","co38758","norming","","","","","","",""
"null","../img/tt/1097tt.jpg","null","mooney1","image-keyboard-response","280","1107983","0.0-6.0-1.39","3533825","co38758","norming","","","","","","",""
"7409.980000000447","","","post_mooney1_questions","survey-likert","281","1115397","0.0-6.0-2.39","3533825","co38758","norming","","","{""curiosity"":4,""confidence"":5}","[0,1]","../img/tt/1097tt.jpg","",""
"16965.95499999984","","","recognition","survey-text","282","1132365","0.0-6.0-3.39","3533825","co38758","norming","","","{""guess"":""Staand peddelen""}","","../img/tt/1097tt.jpg","",""
"null","../img/gs/1097gs.jpg","null","reveal","image-keyboard-response","283","1134368","0.0-6.0-4.39","3533825","co38758","norming","","","","","","",""
"null","../img/tt/1097tt.jpg","null","mooney2","image-keyboard-response","284","1136373","0.0-6.0-5.39","3533825","co38758","norming","","","","","","",""
"3101.109999999637","","","post_reveal_questions","survey-likert","285","1139477","0.0-6.0-6.39","3533825","co38758","norming","","","{""aha"":1}","[0]","../img/tt/1097tt.jpg","",""
"null","<div style=""font-size:60px;""> </div>","null","fixation","html-keyboard-response","286","1139684","0.0-6.0-0.40","3533825","co38758","norming","","","","","","",""
"null","../img/tt/301tt.jpg","null","mooney1","image-keyboard-response","287","1142692","0.0-6.0-1.40","3533825","co38758","norming","","","","","","",""
"4685.704999999842","","","post_mooney1_questions","survey-likert","288","1147381","0.0-6.0-2.40","3533825","co38758","norming","","","{""curiosity"":0,""confidence"":6}","[0,1]","../img/tt/301tt.jpg","",""
"7317.9200000013225","","","recognition","survey-text","289","1154701","0.0-6.0-3.40","3533825","co38758","norming","","","{""guess"":""Klokkenluiders""}","","../img/tt/301tt.jpg","",""
"null","../img/gs/301gs.jpg","null","reveal","image-keyboard-response","290","1156702","0.0-6.0-4.40","3533825","co38758","norming","","","","","","",""
"null","../img/tt/301tt.jpg","null","mooney2","image-keyboard-response","291","1158704","0.0-6.0-5.40","3533825","co38758","norming","","","","","","",""
"1586.7700000000186","","","post_reveal_questions","survey-likert","292","1160293","0.0-6.0-6.40","3533825","co38758","norming","","","{""aha"":0}","[0]","../img/tt/301tt.jpg","",""
"null","<div style=""font-size:60px;""> </div>","null","fixation","html-keyboard-response","293","1160494","0.0-6.0-0.41","3533825","co38758","norming","","","","","","",""
"null","../img/tt/300tt.jpg","null","mooney1","image-keyboard-response","294","1163499","0.0-6.0-1.41","3533825","co38758","norming","","","","","","",""
"3286.9449999998324","","","post_mooney1_questions","survey-likert","295","1166789","0.0-6.0-2.41","3533825","co38758","norming","","","{""curiosity"":0,""confidence"":6}","[0,1]","../img/tt/300tt.jpg","",""
"2566.3550000009127","","","recognition","survey-text","296","1169357","0.0-6.0-3.41","3533825","co38758","norming","","","{""guess"":""Aapje""}","","../img/tt/300tt.jpg","",""
"null","../img/gs/300gs.jpg","null","reveal","image-keyboard-response","297","1171365","0.0-6.0-4.41","3533825","co38758","norming","","","","","","",""
"null","../img/tt/300tt.jpg","null","mooney2","image-keyboard-response","298","1173372","0.0-6.0-5.41","3533825","co38758","norming","","","","","","",""
"1930.3149999997113","","","post_reveal_questions","survey-likert","299","1175305","0.0-6.0-6.41","3533825","co38758","norming","","","{""aha"":6}","[0]","../img/tt/300tt.jpg","",""
"null","<div style=""font-size:60px;""> </div>","null","fixation","html-keyboard-response","300","1175508","0.0-6.0-0.42","3533825","co38758","norming","","","","","","",""
"null","../img/tt/082tt.jpg","null","mooney1","image-keyboard-response","301","1178520","0.0-6.0-1.42","3533825","co38758","norming","","","","","","",""
"4494.580000000307","","","post_mooney1_questions","survey-likert","302","1183017","0.0-6.0-2.42","3533825","co38758","norming","","","{""curiosity"":6,""confidence"":0}","[0,1]","../img/tt/082tt.jpg","",""
"2806.1250000009313","","","recognition","survey-text","303","1185825","0.0-6.0-3.42","3533825","co38758","norming","","","{""guess"":""Living""}","","../img/tt/082tt.jpg","",""
"null","../img/gs/082gs.jpg","null","reveal","image-keyboard-response","304","1187833","0.0-6.0-4.42","3533825","co38758","norming","","","","","","",""
"null","../img/tt/082tt.jpg","null","mooney2","image-keyboard-response","305","1189834","0.0-6.0-5.42","3533825","co38758","norming","","","","","","",""
"3217.730000000447","","","post_reveal_questions","survey-likert","306","1193057","0.0-6.0-6.42","3533825","co38758","norming","","","{""aha"":5}","[0]","../img/tt/082tt.jpg","",""
"null","<div style=""font-size:60px;""> </div>","null","fixation","html-keyboard-response","307","1193259","0.0-6.0-0.43","3533825","co38758","norming","","","","","","",""
"null","../img/tt/1148tt.jpg","null","mooney1","image-keyboard-response","308","1196264","0.0-6.0-1.43","3533825","co38758","norming","","","","","","",""
"5614.310000000987","","","post_mooney1_questions","survey-likert","309","1201881","0.0-6.0-2.43","3533825","co38758","norming","","","{""curiosity"":5,""confidence"":3}","[0,1]","../img/tt/1148tt.jpg","",""
"2534.0300000007264","","","recognition","survey-text","310","1204417","0.0-6.0-3.43","3533825","co38758","norming","","","{""guess"":""Kajakken""}","","../img/tt/1148tt.jpg","",""
"null","../img/gs/1148gs.jpg","null","reveal","image-keyboard-response","311","1206426","0.0-6.0-4.43","3533825","co38758","norming","","","","","","",""
"null","../img/tt/1148tt.jpg","null","mooney2","image-keyboard-response","312","1208428","0.0-6.0-5.43","3533825","co38758","norming","","","","","","",""
"3290.760000001639","","","post_reveal_questions","survey-likert","313","1211721","0.0-6.0-6.43","3533825","co38758","norming","","","{""aha"":3}","[0]","../img/tt/1148tt.jpg","",""
"null","<div style=""font-size:60px;""> </div>","null","fixation","html-keyboard-response","314","1211922","0.0-6.0-0.44","3533825","co38758","norming","","","","","","",""
"null","../img/tt/319tt.jpg","null","mooney1","image-keyboard-response","315","1214929","0.0-6.0-1.44","3533825","co38758","norming","","","","","","",""
"6708.649999998743","","","post_mooney1_questions","survey-likert","316","1221641","0.0-6.0-2.44","3533825","co38758","norming","","","{""curiosity"":5,""confidence"":3}","[0,1]","../img/tt/319tt.jpg","",""
"2006.029999998631","","","recognition","survey-text","317","1223649","0.0-6.0-3.44","3533825","co38758","norming","","","{""guess"":""Stier""}","","../img/tt/319tt.jpg","",""
"null","../img/gs/319gs.jpg","null","reveal","image-keyboard-response","318","1225650","0.0-6.0-4.44","3533825","co38758","norming","","","","","","",""
"null","../img/tt/319tt.jpg","null","mooney2","image-keyboard-response","319","1227650","0.0-6.0-5.44","3533825","co38758","norming","","","","","","",""
"2301.1349999997765","","","post_reveal_questions","survey-likert","320","1229953","0.0-6.0-6.44","3533825","co38758","norming","","","{""aha"":5}","[0]","../img/tt/319tt.jpg","",""
"null","<div style=""font-size:60px;""> </div>","null","fixation","html-keyboard-response","321","1230154","0.0-6.0-0.45","3533825","co38758","norming","","","","","","",""
"null","../img/tt/1084tt.jpg","null","mooney1","image-keyboard-response","322","1233158","0.0-6.0-1.45","3533825","co38758","norming","","","","","","",""
"8728.010000000708","","","post_mooney1_questions","survey-likert","323","1241890","0.0-6.0-2.45","3533825","co38758","norming","","","{""curiosity"":4,""confidence"":3}","[0,1]","../img/tt/1084tt.jpg","",""
"2702.294999999227","","","recognition","survey-text","324","1244594","0.0-6.0-3.45","3533825","co38758","norming","","","{""guess"":""Bord eten""}","","../img/tt/1084tt.jpg","",""
"null","../img/gs/1084gs.jpg","null","reveal","image-keyboard-response","325","1246599","0.0-6.0-4.45","3533825","co38758","norming","","","","","","",""
"null","../img/tt/1084tt.jpg","null","mooney2","image-keyboard-response","326","1248603","0.0-6.0-5.45","3533825","co38758","norming","","","","","","",""
"3267.2750000001397","","","post_reveal_questions","survey-likert","327","1251873","0.0-6.0-6.45","3533825","co38758","norming","","","{""aha"":1}","[0]","../img/tt/1084tt.jpg","",""
"null","<div style=""font-size:60px;""> </div>","null","fixation","html-keyboard-response","328","1252074","0.0-6.0-0.46","3533825","co38758","norming","","","","","","",""
"null","../img/tt/517tt.jpg","null","mooney1","image-keyboard-response","329","1255085","0.0-6.0-1.46","3533825","co38758","norming","","","","","","",""
"5288.9350000005215","","","post_mooney1_questions","survey-likert","330","1260378","0.0-6.0-2.46","3533825","co38758","norming","","","{""curiosity"":4,""confidence"":4}","[0,1]","../img/tt/517tt.jpg","",""
"2374.1050000009127","","","recognition","survey-text","331","1262754","0.0-6.0-3.46","3533825","co38758","norming","","","{""guess"":""Panda""}","","../img/tt/517tt.jpg","",""
"null","../img/gs/517gs.jpg","null","reveal","image-keyboard-response","332","1264755","0.0-6.0-4.46","3533825","co38758","norming","","","","","","",""
"null","../img/tt/517tt.jpg","null","mooney2","image-keyboard-response","333","1266758","0.0-6.0-5.46","3533825","co38758","norming","","","","","","",""
"4409.034999998752","","","post_reveal_questions","survey-likert","334","1271170","0.0-6.0-6.46","3533825","co38758","norming","","","{""aha"":3}","[0]","../img/tt/517tt.jpg","",""
"null","<div style=""font-size:60px;""> </div>","null","fixation","html-keyboard-response","335","1271376","0.0-6.0-0.47","3533825","co38758","norming","","","","","","",""
"null","../img/tt/020tt.jpg","null","mooney1","image-keyboard-response","336","1274379","0.0-6.0-1.47","3533825","co38758","norming","","","","","","",""
"4571.434999999823","","","post_mooney1_questions","survey-likert","337","1278954","0.0-6.0-2.47","3533825","co38758","norming","","","{""curiosity"":5,""confidence"":2}","[0,1]","../img/tt/020tt.jpg","",""
"2645.239999999758","","","recognition","survey-text","338","1281601","0.0-6.0-3.47","3533825","co38758","norming","","","{""guess"":""Jezus""}","","../img/tt/020tt.jpg","",""
"null","../img/gs/020gs.jpg","null","reveal","image-keyboard-response","339","1283608","0.0-6.0-4.47","3533825","co38758","norming","","","","","","",""
"null","../img/tt/020tt.jpg","null","mooney2","image-keyboard-response","340","1285610","0.0-6.0-5.47","3533825","co38758","norming","","","","","","",""
"4782.569999999367","","","post_reveal_questions","survey-likert","341","1290394","0.0-6.0-6.47","3533825","co38758","norming","","","{""aha"":3}","[0]","../img/tt/020tt.jpg","",""
"null","<div style=""font-size:60px;""> </div>","null","fixation","html-keyboard-response","342","1290595","0.0-6.0-0.48","3533825","co38758","norming","","","","","","",""
"null","../img/tt/584tt.jpg","null","mooney1","image-keyboard-response","343","1293599","0.0-6.0-1.48","3533825","co38758","norming","","","","","","",""
"4159.779999999795","","","post_mooney1_questions","survey-likert","344","1297762","0.0-6.0-2.48","3533825","co38758","norming","","","{""curiosity"":4,""confidence"":4}","[0,1]","../img/tt/584tt.jpg","",""
"3566.1899999994785","","","recognition","survey-text","345","1301323","0.0-6.0-3.48","3533825","co38758","norming","","","{""guess"":""Peace tekens""}","","../img/tt/584tt.jpg","",""
"null","../img/gs/584gs.jpg","null","reveal","image-keyboard-response","346","1303324","0.0-6.0-4.48","3533825","co38758","norming","","","","","","",""
"null","../img/tt/584tt.jpg","null","mooney2","image-keyboard-response","347","1305326","0.0-6.0-5.48","3533825","co38758","norming","","","","","","",""
"7113.9900000016205","","","post_reveal_questions","survey-likert","348","1312443","0.0-6.0-6.48","3533825","co38758","norming","","","{""aha"":5}","[0]","../img/tt/584tt.jpg","",""
"null","<div style=""font-size:60px;""> </div>","null","fixation","html-keyboard-response","349","1312650","0.0-6.0-0.49","3533825","co38758","norming","","","","","","",""
"null","../img/tt/329tt.jpg","null","mooney1","image-keyboard-response","350","1315663","0.0-6.0-1.49","3533825","co38758","norming","","","","","","",""
"6858.749999999534","","","post_mooney1_questions","survey-likert","351","1322523","0.0-6.0-2.49","3533825","co38758","norming","","","{""curiosity"":5,""confidence"":1}","[0,1]","../img/tt/329tt.jpg","",""
"7037.905000001192","","","recognition","survey-text","352","1329562","0.0-6.0-3.49","3533825","co38758","norming","","","{""guess"":""Buiten zitstoel""}","","../img/tt/329tt.jpg","",""
"null","../img/gs/329gs.jpg","null","reveal","image-keyboard-response","353","1331567","0.0-6.0-4.49","3533825","co38758","norming","","","","","","",""
"null","../img/tt/329tt.jpg","null","mooney2","image-keyboard-response","354","1333576","0.0-6.0-5.49","3533825","co38758","norming","","","","","","",""
"6311.229999999283","","","post_reveal_questions","survey-likert","355","1339890","0.0-6.0-6.49","3533825","co38758","norming","","","{""aha"":0}","[0]","../img/tt/329tt.jpg","",""
"null","<div style=""font-size:60px;""> </div>","null","fixation","html-keyboard-response","356","1340100","0.0-6.0-0.50","3533825","co38758","norming","","","","","","",""
"null","../img/tt/1070tt.jpg","null","mooney1","image-keyboard-response","357","1343107","0.0-6.0-1.50","3533825","co38758","norming","","","","","","",""
"8251.014999999898","","","post_mooney1_questions","survey-likert","358","1351363","0.0-6.0-2.50","3533825","co38758","norming","","","{""curiosity"":5,""confidence"":2}","[0,1]","../img/tt/1070tt.jpg","",""
"2933.969999999972","","","recognition","survey-text","359","1354299","0.0-6.0-3.50","3533825","co38758","norming","","","{""guess"":""Cake""}","","../img/tt/1070tt.jpg","",""
"null","../img/gs/1070gs.jpg","null","reveal","image-keyboard-response","360","1356300","0.0-6.0-4.50","3533825","co38758","norming","","","","","","",""
"null","../img/tt/1070tt.jpg","null","mooney2","image-keyboard-response","361","1358312","0.0-6.0-5.50","3533825","co38758","norming","","","","","","",""
"1784.3400000000838","","","post_reveal_questions","survey-likert","362","1360099","0.0-6.0-6.50","3533825","co38758","norming","","","{""aha"":1}","[0]","../img/tt/1070tt.jpg","",""
"null","<div style=""font-size:60px;""> </div>","null","fixation","html-keyboard-response","363","1360307","0.0-6.0-0.51","3533825","co38758","norming","","","","","","",""
"null","../img/tt/442tt.jpg","null","mooney1","image-keyboard-response","364","1363311","0.0-6.0-1.51","3533825","co38758","norming","","","","","","",""
"4032.704999999609","","","post_mooney1_questions","survey-likert","365","1367347","0.0-6.0-2.51","3533825","co38758","norming","","","{""curiosity"":6,""confidence"":0}","[0,1]","../img/tt/442tt.jpg","",""
"3334.094999999972","","","recognition","survey-text","366","1370683","0.0-6.0-3.51","3533825","co38758","norming","","","{""guess"":""Ananas""}","","../img/tt/442tt.jpg","",""
"null","../img/gs/442gs.jpg","null","reveal","image-keyboard-response","367","1372685","0.0-6.0-4.51","3533825","co38758","norming","","","","","","",""
"null","../img/tt/442tt.jpg","null","mooney2","image-keyboard-response","368","1374692","0.0-6.0-5.51","3533825","co38758","norming","","","","","","",""
"3796.590000000084","","","post_reveal_questions","survey-likert","369","1378491","0.0-6.0-6.51","3533825","co38758","norming","","","{""aha"":3}","[0]","../img/tt/442tt.jpg","",""
"null","<div style=""font-size:60px;""> </div>","null","fixation","html-keyboard-response","370","1378699","0.0-6.0-0.52","3533825","co38758","norming","","","","","","",""
"null","../img/tt/1004tt.jpg","null","mooney1","image-keyboard-response","371","1381708","0.0-6.0-1.52","3533825","co38758","norming","","","","","","",""
"6342.08000000054","","","post_mooney1_questions","survey-likert","372","1388051","0.0-6.0-2.52","3533825","co38758","norming","","","{""curiosity"":5,""confidence"":1}","[0,1]","../img/tt/1004tt.jpg","",""
"3573.790000000503","","","recognition","survey-text","373","1391627","0.0-6.0-3.52","3533825","co38758","norming","","","{""guess"":""Pandabeer""}","","../img/tt/1004tt.jpg","",""
"null","../img/gs/1004gs.jpg","null","reveal","image-keyboard-response","374","1393630","0.0-6.0-4.52","3533825","co38758","norming","","","","","","",""
"null","../img/tt/1004tt.jpg","null","mooney2","image-keyboard-response","375","1395638","0.0-6.0-5.52","3533825","co38758","norming","","","","","","",""
"4491.669999999227","","","post_reveal_questions","survey-likert","376","1400131","0.0-6.0-6.52","3533825","co38758","norming","","","{""aha"":4}","[0]","../img/tt/1004tt.jpg","",""
"null","<div style=""font-size:60px;""> </div>","null","fixation","html-keyboard-response","377","1400332","0.0-6.0-0.53","3533825","co38758","norming","","","","","","",""
"null","../img/tt/124tt.jpg","null","mooney1","image-keyboard-response","378","1403336","0.0-6.0-1.53","3533825","co38758","norming","","","","","","",""
"7400.045000000391","","","post_mooney1_questions","survey-likert","379","1410739","0.0-6.0-2.53","3533825","co38758","norming","","","{""curiosity"":5,""confidence"":2}","[0,1]","../img/tt/124tt.jpg","",""
"2438.1250000006985","","","recognition","survey-text","380","1413179","0.0-6.0-3.53","3533825","co38758","norming","","","{""guess"":""Indiaan""}","","../img/tt/124tt.jpg","",""
"null","../img/gs/124gs.jpg","null","reveal","image-keyboard-response","381","1415186","0.0-6.0-4.53","3533825","co38758","norming","","","","","","",""
"null","../img/tt/124tt.jpg","null","mooney2","image-keyboard-response","382","1417190","0.0-6.0-5.53","3533825","co38758","norming","","","","","","",""
"1706.2349999996368","","","post_reveal_questions","survey-likert","383","1418899","0.0-6.0-6.53","3533825","co38758","norming","","","{""aha"":4}","[0]","../img/tt/124tt.jpg","",""
"null","<div style=""font-size:60px;""> </div>","null","fixation","html-keyboard-response","384","1419106","0.0-6.0-0.54","3533825","co38758","norming","","","","","","",""
"null","../img/tt/118tt.jpg","null","mooney1","image-keyboard-response","385","1422120","0.0-6.0-1.54","3533825","co38758","norming","","","","","","",""
"7575.930000000866","","","post_mooney1_questions","survey-likert","386","1429699","0.0-6.0-2.54","3533825","co38758","norming","","","{""curiosity"":5,""confidence"":3}","[0,1]","../img/tt/118tt.jpg","",""
"2046.1500000001397","","","recognition","survey-text","387","1431747","0.0-6.0-3.54","3533825","co38758","norming","","","{""guess"":""Ladder""}","","../img/tt/118tt.jpg","",""
"null","../img/gs/118gs.jpg","null","reveal","image-keyboard-response","388","1433749","0.0-6.0-4.54","3533825","co38758","norming","","","","","","",""
"null","../img/tt/118tt.jpg","null","mooney2","image-keyboard-response","389","1435750","0.0-6.0-5.54","3533825","co38758","norming","","","","","","",""
"7131.1800000004005","","","post_reveal_questions","survey-likert","390","1442883","0.0-6.0-6.54","3533825","co38758","norming","","","{""aha"":3}","[0]","../img/tt/118tt.jpg","",""
"null","<div style=""font-size:60px;""> </div>","null","fixation","html-keyboard-response","391","1443084","0.0-6.0-0.55","3533825","co38758","norming","","","","","","",""
"null","../img/tt/135tt.jpg","null","mooney1","image-keyboard-response","392","1446087","0.0-6.0-1.55","3533825","co38758","norming","","","","","","",""
"3223.4499999994878","","","post_mooney1_questions","survey-likert","393","1449315","0.0-6.0-2.55","3533825","co38758","norming","","","{""curiosity"":0,""confidence"":6}","[0,1]","../img/tt/135tt.jpg","",""
"3534.0750000013504","","","recognition","survey-text","394","1452851","0.0-6.0-3.55","3533825","co38758","norming","","","{""guess"":""Wc""}","","../img/tt/135tt.jpg","",""
"null","../img/gs/135gs.jpg","null","reveal","image-keyboard-response","395","1454853","0.0-6.0-4.55","3533825","co38758","norming","","","","","","",""
"null","../img/tt/135tt.jpg","null","mooney2","image-keyboard-response","396","1456855","0.0-6.0-5.55","3533825","co38758","norming","","","","","","",""
"1673.4099999992177","","","post_reveal_questions","survey-likert","397","1458531","0.0-6.0-6.55","3533825","co38758","norming","","","{""aha"":0}","[0]","../img/tt/135tt.jpg","",""
"null","<div style=""font-size:60px;""> </div>","null","fixation","html-keyboard-response","398","1458735","0.0-6.0-0.56","3533825","co38758","norming","","","","","","",""
"null","../img/tt/1211tt.jpg","null","mooney1","image-keyboard-response","399","1461738","0.0-6.0-1.56","3533825","co38758","norming","","","","","","",""
"5871.599999998696","","","post_mooney1_questions","survey-likert","400","1467611","0.0-6.0-2.56","3533825","co38758","norming","","","{""curiosity"":5,""confidence"":2}","[0,1]","../img/tt/1211tt.jpg","",""
"14518.08499999973","","","recognition","survey-text","401","1482123","0.0-6.0-3.56","3533825","co38758","norming","","","{""guess"":""Werkend mens""}","","../img/tt/1211tt.jpg","",""
"null","../img/gs/1211gs.jpg","null","reveal","image-keyboard-response","402","1484125","0.0-6.0-4.56","3533825","co38758","norming","","","","","","",""
"null","../img/tt/1211tt.jpg","null","mooney2","image-keyboard-response","403","1486134","0.0-6.0-5.56","3533825","co38758","norming","","","","","","",""
"3826.215000001015","","","post_reveal_questions","survey-likert","404","1489963","0.0-6.0-6.56","3533825","co38758","norming","","","{""aha"":2}","[0]","../img/tt/1211tt.jpg","",""
"null","<div style=""font-size:60px;""> </div>","null","fixation","html-keyboard-response","405","1490168","0.0-6.0-0.57","3533825","co38758","norming","","","","","","",""
"null","../img/tt/412tt.jpg","null","mooney1","image-keyboard-response","406","1493172","0.0-6.0-1.57","3533825","co38758","norming","","","","","","",""
"8379.629999999423","","","post_mooney1_questions","survey-likert","407","1501555","0.0-6.0-2.57","3533825","co38758","norming","","","{""curiosity"":6,""confidence"":2}","[0,1]","../img/tt/412tt.jpg","",""
"4598.2050000000745","","","recognition","survey-text","408","1506155","0.0-6.0-3.57","3533825","co38758","norming","","","{""guess"":""Koffieapparaat""}","","../img/tt/412tt.jpg","",""
"null","../img/gs/412gs.jpg","null","reveal","image-keyboard-response","409","1508158","0.0-6.0-4.57","3533825","co38758","norming","","","","","","",""
"null","../img/tt/412tt.jpg","null","mooney2","image-keyboard-response","410","1510159","0.0-6.0-5.57","3533825","co38758","norming","","","","","","",""
"3169.520000001183","","","post_reveal_questions","survey-likert","411","1513331","0.0-6.0-6.57","3533825","co38758","norming","","","{""aha"":4}","[0]","../img/tt/412tt.jpg","",""
"null","<div style=""font-size:60px;""> </div>","null","fixation","html-keyboard-response","412","1513533","0.0-6.0-0.58","3533825","co38758","norming","","","","","","",""
"null","../img/tt/019tt.jpg","null","mooney1","image-keyboard-response","413","1516536","0.0-6.0-1.58","3533825","co38758","norming","","","","","","",""
"7167.4549999986775","","","post_mooney1_questions","survey-likert","414","1523707","0.0-6.0-2.58","3533825","co38758","norming","","","{""curiosity"":1,""confidence"":4}","[0,1]","../img/tt/019tt.jpg","",""
"2285.785000000149","","","recognition","survey-text","415","1525995","0.0-6.0-3.58","3533825","co38758","norming","","","{""guess"":""Tang""}","","../img/tt/019tt.jpg","",""
"null","../img/gs/019gs.jpg","null","reveal","image-keyboard-response","416","1527996","0.0-6.0-4.58","3533825","co38758","norming","","","","","","",""
"null","../img/tt/019tt.jpg","null","mooney2","image-keyboard-response","417","1530007","0.0-6.0-5.58","3533825","co38758","norming","","","","","","",""
"1465.0149999996647","","","post_reveal_questions","survey-likert","418","1531475","0.0-6.0-6.58","3533825","co38758","norming","","","{""aha"":0}","[0]","../img/tt/019tt.jpg","",""
"null","<div style=""font-size:60px;""> </div>","null","fixation","html-keyboard-response","419","1531677","0.0-6.0-0.59","3533825","co38758","norming","","","","","","",""
"null","../img/tt/580tt.jpg","null","mooney1","image-keyboard-response","420","1534680","0.0-6.0-1.59","3533825","co38758","norming","","","","","","",""
"7559.965000000317","","","post_mooney1_questions","survey-likert","421","1542251","0.0-6.0-2.59","3533825","co38758","norming","","","{""curiosity"":2,""confidence"":5}","[0,1]","../img/tt/580tt.jpg","",""
"4230.110000000335","","","recognition","survey-text","422","1546483","0.0-6.0-3.59","3533825","co38758","norming","","","{""guess"":""Wasbeertjes""}","","../img/tt/580tt.jpg","",""
"null","../img/gs/580gs.jpg","null","reveal","image-keyboard-response","423","1548484","0.0-6.0-4.59","3533825","co38758","norming","","","","","","",""
"null","../img/tt/580tt.jpg","null","mooney2","image-keyboard-response","424","1550487","0.0-6.0-5.59","3533825","co38758","norming","","","","","","",""
"4161.1250000006985","","","post_reveal_questions","survey-likert","425","1554651","0.0-6.0-6.59","3533825","co38758","norming","","","{""aha"":0}","[0]","../img/tt/580tt.jpg","",""
"null","<div style=""font-size:60px;""> </div>","null","fixation","html-keyboard-response","426","1554858","0.0-6.0-0.60","3533825","co38758","norming","","","","","","",""
"null","../img/tt/1235tt.jpg","null","mooney1","image-keyboard-response","427","1557864","0.0-6.0-1.60","3533825","co38758","norming","","","","","","",""
"7647.41999999946","","","post_mooney1_questions","survey-likert","428","1565515","0.0-6.0-2.60","3533825","co38758","norming","","","{""curiosity"":6,""confidence"":0}","[0,1]","../img/tt/1235tt.jpg","",""
"3942.16500000027","","","recognition","survey-text","429","1569459","0.0-6.0-3.60","3533825","co38758","norming","","","{""guess"":""Dieren""}","","../img/tt/1235tt.jpg","",""
"null","../img/gs/1235gs.jpg","null","reveal","image-keyboard-response","430","1571467","0.0-6.0-4.60","3533825","co38758","norming","","","","","","",""
"null","../img/tt/1235tt.jpg","null","mooney2","image-keyboard-response","431","1573470","0.0-6.0-5.60","3533825","co38758","norming","","","","","","",""
"3434.000000001164","","","post_reveal_questions","survey-likert","432","1576907","0.0-6.0-6.60","3533825","co38758","norming","","","{""aha"":5}","[0]","../img/tt/1235tt.jpg","",""
"null","<div style=""font-size:60px;""> </div>","null","fixation","html-keyboard-response","433","1577116","0.0-6.0-0.61","3533825","co38758","norming","","","","","","",""
"null","../img/tt/063tt.jpg","null","mooney1","image-keyboard-response","434","1580119","0.0-6.0-1.61","3533825","co38758","norming","","","","","","",""
"7832.840000001015","","","post_mooney1_questions","survey-likert","435","1587955","0.0-6.0-2.61","3533825","co38758","norming","","","{""curiosity"":4,""confidence"":1}","[0,1]","../img/tt/063tt.jpg","",""
"7166.150000001071","","","recognition","survey-text","436","1595123","0.0-6.0-3.61","3533825","co38758","norming","","","{""guess"":""Oud telefoonapparaat""}","","../img/tt/063tt.jpg","",""
"null","../img/gs/063gs.jpg","null","reveal","image-keyboard-response","437","1597131","0.0-6.0-4.61","3533825","co38758","norming","","","","","","",""
"null","../img/tt/063tt.jpg","null","mooney2","image-keyboard-response","438","1599132","0.0-6.0-5.61","3533825","co38758","norming","","","","","","",""
"2243.9699999995064","","","post_reveal_questions","survey-likert","439","1601379","0.0-6.0-6.61","3533825","co38758","norming","","","{""aha"":4}","[0]","../img/tt/063tt.jpg","",""
"null","<div style=""font-size:60px;""> </div>","null","fixation","html-keyboard-response","440","1601581","0.0-6.0-0.62","3533825","co38758","norming","","","","","","",""
"null","../img/tt/049tt.jpg","null","mooney1","image-keyboard-response","441","1604594","0.0-6.0-1.62","3533825","co38758","norming","","","","","","",""
"4758.099999999162","","","post_mooney1_questions","survey-likert","442","1609356","0.0-6.0-2.62","3533825","co38758","norming","","","{""curiosity"":6,""confidence"":0}","[0,1]","../img/tt/049tt.jpg","",""
"2710.034999999916","","","recognition","survey-text","443","1612067","0.0-6.0-3.62","3533825","co38758","norming","","","{""guess"":""Tuin""}","","../img/tt/049tt.jpg","",""
"null","../img/gs/049gs.jpg","null","reveal","image-keyboard-response","444","1614069","0.0-6.0-4.62","3533825","co38758","norming","","","","","","",""
"null","../img/tt/049tt.jpg","null","mooney2","image-keyboard-response","445","1616072","0.0-6.0-5.62","3533825","co38758","norming","","","","","","",""
"4120.619999999646","","","post_reveal_questions","survey-likert","446","1620195","0.0-6.0-6.62","3533825","co38758","norming","","","{""aha"":0}","[0]","../img/tt/049tt.jpg","",""
"null","<div style=""font-size:60px;""> </div>","null","fixation","html-keyboard-response","447","1620397","0.0-6.0-0.63","3533825","co38758","norming","","","","","","",""
"null","../img/tt/524tt.jpg","null","mooney1","image-keyboard-response","448","1623401","0.0-6.0-1.63","3533825","co38758","norming","","","","","","",""
"5977.235000000335","","","post_mooney1_questions","survey-likert","449","1629380","0.0-6.0-2.63","3533825","co38758","norming","","","{""curiosity"":2,""confidence"":5}","[0,1]","../img/tt/524tt.jpg","",""
"3661.7900000000373","","","recognition","survey-text","450","1633043","0.0-6.0-3.63","3533825","co38758","norming","","","{""guess"":""Olifant""}","","../img/tt/524tt.jpg","",""
"null","../img/gs/524gs.jpg","null","reveal","image-keyboard-response","451","1635044","0.0-6.0-4.63","3533825","co38758","norming","","","","","","",""
"null","../img/tt/524tt.jpg","null","mooney2","image-keyboard-response","452","1637046","0.0-6.0-5.63","3533825","co38758","norming","","","","","","",""
"5618.665000000037","","","post_reveal_questions","survey-likert","453","1642667","0.0-6.0-6.63","3533825","co38758","norming","","","{""aha"":5}","[0]","../img/tt/524tt.jpg","",""
"null","<div style=""font-size:60px;""> </div>","null","fixation","html-keyboard-response","454","1642868","0.0-6.0-0.64","3533825","co38758","norming","","","","","","",""
"null","../img/tt/1122tt.jpg","null","mooney1","image-keyboard-response","455","1645875","0.0-6.0-1.64","3533825","co38758","norming","","","","","","",""
"4037.4699999995064","","","post_mooney1_questions","survey-likert","456","1649915","0.0-6.0-2.64","3533825","co38758","norming","","","{""curiosity"":0,""confidence"":6}","[0,1]","../img/tt/1122tt.jpg","",""
"3045.7750000003725","","","recognition","survey-text","457","1652963","0.0-6.0-3.64","3533825","co38758","norming","","","{""guess"":""Haven""}","","../img/tt/1122tt.jpg","",""
"null","../img/gs/1122gs.jpg","null","reveal","image-keyboard-response","458","1654966","0.0-6.0-4.64","3533825","co38758","norming","","","","","","",""
"null","../img/tt/1122tt.jpg","null","mooney2","image-keyboard-response","459","1656967","0.0-6.0-5.64","3533825","co38758","norming","","","","","","",""
"2881.859999999404","","","post_reveal_questions","survey-likert","460","1659852","0.0-6.0-6.64","3533825","co38758","norming","","","{""aha"":0}","[0]","../img/tt/1122tt.jpg","",""
"null","<div style=""font-size:60px;""> </div>","null","fixation","html-keyboard-response","461","1660062","0.0-6.0-0.65","3533825","co38758","norming","","","","","","",""
"null","../img/tt/1363tt.jpg","null","mooney1","image-keyboard-response","462","1663072","0.0-6.0-1.65","3533825","co38758","norming","","","","","","",""
"8176.255000000354","","","post_mooney1_questions","survey-likert","463","1671248","0.0-6.0-2.65","3533825","co38758","norming","","","{""curiosity"":2,""confidence"":4}","[0,1]","../img/tt/1363tt.jpg","",""
"2990.1700000010896","","","recognition","survey-text","464","1674240","0.0-6.0-3.65","3533825","co38758","norming","","","{""guess"":""Schaal""}","","../img/tt/1363tt.jpg","",""
"null","../img/gs/1363gs.jpg","null","reveal","image-keyboard-response","465","1676241","0.0-6.0-4.65","3533825","co38758","norming","","","","","","",""
"null","../img/tt/1363tt.jpg","null","mooney2","image-keyboard-response","466","1678244","0.0-6.0-5.65","3533825","co38758","norming","","","","","","",""
"2473.369999999646","","","post_reveal_questions","survey-likert","467","1680720","0.0-6.0-6.65","3533825","co38758","norming","","","{""aha"":3}","[0]","../img/tt/1363tt.jpg","",""
"null","<div style=""font-size:60px;""> </div>","null","fixation","html-keyboard-response","468","1680928","0.0-6.0-0.66","3533825","co38758","norming","","","","","","",""
"null","../img/tt/1241tt.jpg","null","mooney1","image-keyboard-response","469","1683938","0.0-6.0-1.66","3533825","co38758","norming","","","","","","",""
"7396.684999999823","","","post_mooney1_questions","survey-likert","470","1691336","0.0-6.0-2.66","3533825","co38758","norming","","","{""curiosity"":5,""confidence"":1}","[0,1]","../img/tt/1241tt.jpg","",""
"2598.0949999992736","","","recognition","survey-text","471","1693936","0.0-6.0-3.66","3533825","co38758","norming","","","{""guess"":""Paard""}","","../img/tt/1241tt.jpg","",""
"null","../img/gs/1241gs.jpg","null","reveal","image-keyboard-response","472","1695942","0.0-6.0-4.66","3533825","co38758","norming","","","","","","",""
"null","../img/tt/1241tt.jpg","null","mooney2","image-keyboard-response","473","1697946","0.0-6.0-5.66","3533825","co38758","norming","","","","","","",""
"2283.43500000122","","","post_reveal_questions","survey-likert","474","1700232","0.0-6.0-6.66","3533825","co38758","norming","","","{""aha"":4}","[0]","../img/tt/1241tt.jpg","",""
"null","<div style=""font-size:60px;""> </div>","null","fixation","html-keyboard-response","475","1700438","0.0-6.0-0.67","3533825","co38758","norming","","","","","","",""
"null","../img/tt/1309tt.jpg","null","mooney1","image-keyboard-response","476","1703448","0.0-6.0-1.67","3533825","co38758","norming","","","","","","",""
"8460.839999999851","","","post_mooney1_questions","survey-likert","477","1711912","0.0-6.0-2.67","3533825","co38758","norming","","","{""curiosity"":5,""confidence"":2}","[0,1]","../img/tt/1309tt.jpg","",""
"3030.179999999702","","","recognition","survey-text","478","1714944","0.0-6.0-3.67","3533825","co38758","norming","","","{""guess"":""Bos""}","","../img/tt/1309tt.jpg","",""
"null","../img/gs/1309gs.jpg","null","reveal","image-keyboard-response","479","1716947","0.0-6.0-4.67","3533825","co38758","norming","","","","","","",""
"null","../img/tt/1309tt.jpg","null","mooney2","image-keyboard-response","480","1718960","0.0-6.0-5.67","3533825","co38758","norming","","","","","","",""
"4381.2399999988265","","","post_reveal_questions","survey-likert","481","1723344","0.0-6.0-6.67","3533825","co38758","norming","","","{""aha"":0}","[0]","../img/tt/1309tt.jpg","",""
"null","<div style=""font-size:60px;""> </div>","null","fixation","html-keyboard-response","482","1723555","0.0-6.0-0.68","3533825","co38758","norming","","","","","","",""
"null","../img/tt/1247tt.jpg","null","mooney1","image-keyboard-response","483","1726559","0.0-6.0-1.68","3533825","co38758","norming","","","","","","",""
"6350.445000000065","","","post_mooney1_questions","survey-likert","484","1732916","0.0-6.0-2.68","3533825","co38758","norming","","","{""curiosity"":4,""confidence"":3}","[0,1]","../img/tt/1247tt.jpg","",""
"2317.885000000475","","","recognition","survey-text","485","1735236","0.0-6.0-3.68","3533825","co38758","norming","","","{""guess"":""Aapje""}","","../img/tt/1247tt.jpg","",""
"null","../img/gs/1247gs.jpg","null","reveal","image-keyboard-response","486","1737245","0.0-6.0-4.68","3533825","co38758","norming","","","","","","",""
"null","../img/tt/1247tt.jpg","null","mooney2","image-keyboard-response","487","1739248","0.0-6.0-5.68","3533825","co38758","norming","","","","","","",""
"1633.2300000013784","","","post_reveal_questions","survey-likert","488","1740884","0.0-6.0-6.68","3533825","co38758","norming","","","{""aha"":6}","[0]","../img/tt/1247tt.jpg","",""
"null","<div style=""font-size:60px;""> </div>","null","fixation","html-keyboard-response","489","1741090","0.0-6.0-0.69","3533825","co38758","norming","","","","","","",""
"null","../img/tt/1040tt.jpg","null","mooney1","image-keyboard-response","490","1744093","0.0-6.0-1.69","3533825","co38758","norming","","","","","","",""
"4028.4899999988265","","","post_mooney1_questions","survey-likert","491","1748124","0.0-6.0-2.69","3533825","co38758","norming","","","{""curiosity"":1,""confidence"":6}","[0,1]","../img/tt/1040tt.jpg","",""
"2997.9700000004377","","","recognition","survey-text","492","1751124","0.0-6.0-3.69","3533825","co38758","norming","","","{""guess"":""Krokodil""}","","../img/tt/1040tt.jpg","",""
"null","../img/gs/1040gs.jpg","null","reveal","image-keyboard-response","493","1753135","0.0-6.0-4.69","3533825","co38758","norming","","","","","","",""
"null","../img/tt/1040tt.jpg","null","mooney2","image-keyboard-response","494","1755138","0.0-6.0-5.69","3533825","co38758","norming","","","","","","",""
"3063.149999999907","","","post_reveal_questions","survey-likert","495","1758204","0.0-6.0-6.69","3533825","co38758","norming","","","{""aha"":6}","[0]","../img/tt/1040tt.jpg","",""
"null","<div style=""font-size:60px;""> </div>","null","fixation","html-keyboard-response","496","1758407","0.0-6.0-0.70","3533825","co38758","norming","","","","","","",""
"null","../img/tt/1069tt.jpg","null","mooney1","image-keyboard-response","497","1761410","0.0-6.0-1.70","3533825","co38758","norming","","","","","","",""
"5822.719999998342","","","post_mooney1_questions","survey-likert","498","1767236","0.0-6.0-2.70","3533825","co38758","norming","","","{""curiosity"":1,""confidence"":6}","[0,1]","../img/tt/1069tt.jpg","",""
"5358.0999999996275","","","recognition","survey-text","499","1772596","0.0-6.0-3.70","3533825","co38758","norming","","","{""guess"":""Geiten""}","","../img/tt/1069tt.jpg","",""
"null","../img/gs/1069gs.jpg","null","reveal","image-keyboard-response","500","1774598","0.0-6.0-4.70","3533825","co38758","norming","","","","","","",""
"null","../img/tt/1069tt.jpg","null","mooney2","image-keyboard-response","501","1776599","0.0-6.0-5.70","3533825","co38758","norming","","","","","","",""
"2258.249999998836","","","post_reveal_questions","survey-likert","502","1778860","0.0-6.0-6.70","3533825","co38758","norming","","","{""aha"":0}","[0]","../img/tt/1069tt.jpg","",""
"null","<div style=""font-size:60px;""> </div>","null","fixation","html-keyboard-response","503","1779068","0.0-6.0-0.71","3533825","co38758","norming","","","","","","",""
"null","../img/tt/1353tt.jpg","null","mooney1","image-keyboard-response","504","1782076","0.0-6.0-1.71","3533825","co38758","norming","","","","","","",""
"6589.060000000289","","","post_mooney1_questions","survey-likert","505","1788668","0.0-6.0-2.71","3533825","co38758","norming","","","{""curiosity"":5,""confidence"":2}","[0,1]","../img/tt/1353tt.jpg","",""
"4502.244999999646","","","recognition","survey-text","506","1793163","0.0-6.0-3.71","3533825","co38758","norming","","","{""guess"":""Persoon""}","","../img/tt/1353tt.jpg","",""
"null","../img/gs/1353gs.jpg","null","reveal","image-keyboard-response","507","1795164","0.0-6.0-4.71","3533825","co38758","norming","","","","","","",""
"null","../img/tt/1353tt.jpg","null","mooney2","image-keyboard-response","508","1797170","0.0-6.0-5.71","3533825","co38758","norming","","","","","","",""
"2877.3700000001118","","","post_reveal_questions","survey-likert","509","1800051","0.0-6.0-6.71","3533825","co38758","norming","","","{""aha"":4}","[0]","../img/tt/1353tt.jpg","",""
"null","<div style=""font-size:60px;""> </div>","null","fixation","html-keyboard-response","510","1800259","0.0-6.0-0.72","3533825","co38758","norming","","","","","","",""
"null","../img/tt/1118tt.jpg","null","mooney1","image-keyboard-response","511","1803271","0.0-6.0-1.72","3533825","co38758","norming","","","","","","",""
"4639.825000000186","","","post_mooney1_questions","survey-likert","512","1807915","0.0-6.0-2.72","3533825","co38758","norming","","","{""curiosity"":5,""confidence"":3}","[0,1]","../img/tt/1118tt.jpg","",""
"5646.239999999991","","","recognition","survey-text","513","1813563","0.0-6.0-3.72","3533825","co38758","norming","","","{""guess"":""Olifant""}","","../img/tt/1118tt.jpg","",""
"null","../img/gs/1118gs.jpg","null","reveal","image-keyboard-response","514","1815567","0.0-6.0-4.72","3533825","co38758","norming","","","","","","",""
"null","../img/tt/1118tt.jpg","null","mooney2","image-keyboard-response","515","1817572","0.0-6.0-5.72","3533825","co38758","norming","","","","","","",""
"2067.5649999994785","","","post_reveal_questions","survey-likert","516","1819643","0.0-6.0-6.72","3533825","co38758","norming","","","{""aha"":1}","[0]","../img/tt/1118tt.jpg","",""
"null","<div style=""font-size:60px;""> </div>","null","fixation","html-keyboard-response","517","1819844","0.0-6.0-0.73","3533825","co38758","norming","","","","","","",""
"null","../img/tt/056tt.jpg","null","mooney1","image-keyboard-response","518","1822848","0.0-6.0-1.73","3533825","co38758","norming","","","","","","",""
"6207.945000000065","","","post_mooney1_questions","survey-likert","519","1829059","0.0-6.0-2.73","3533825","co38758","norming","","","{""curiosity"":6,""confidence"":0}","[0,1]","../img/tt/056tt.jpg","",""
"758.045000000624","","","recognition","survey-text","520","1829819","0.0-6.0-3.73","3533825","co38758","norming","","","{""guess"":""""}","","../img/tt/056tt.jpg","",""
"null","../img/gs/056gs.jpg","null","reveal","image-keyboard-response","521","1831829","0.0-6.0-4.73","3533825","co38758","norming","","","","","","",""
"null","../img/tt/056tt.jpg","null","mooney2","image-keyboard-response","522","1833831","0.0-6.0-5.73","3533825","co38758","norming","","","","","","",""
"1984.9800000011455","","","post_reveal_questions","survey-likert","523","1835819","0.0-6.0-6.73","3533825","co38758","norming","","","{""aha"":5}","[0]","../img/tt/056tt.jpg","",""
"null","<div style=""font-size:60px;""> </div>","null","fixation","html-keyboard-response","524","1836020","0.0-6.0-0.74","3533825","co38758","norming","","","","","","",""
"null","../img/tt/1161tt.jpg","null","mooney1","image-keyboard-response","525","1839026","0.0-6.0-1.74","3533825","co38758","norming","","","","","","",""
"6989.144999999553","","","post_mooney1_questions","survey-likert","526","1846019","0.0-6.0-2.74","3533825","co38758","norming","","","{""curiosity"":1,""confidence"":5}","[0,1]","../img/tt/1161tt.jpg","",""
"3429.7550000008196","","","recognition","survey-text","527","1849450","0.0-6.0-3.74","3533825","co38758","norming","","","{""guess"":""Bergbeklimmer""}","","../img/tt/1161tt.jpg","",""
"null","../img/gs/1161gs.jpg","null","reveal","image-keyboard-response","528","1851458","0.0-6.0-4.74","3533825","co38758","norming","","","","","","",""
"null","../img/tt/1161tt.jpg","null","mooney2","image-keyboard-response","529","1853468","0.0-6.0-5.74","3533825","co38758","norming","","","","","","",""
"2485.015000000363","","","post_reveal_questions","survey-likert","530","1855956","0.0-6.0-6.74","3533825","co38758","norming","","","{""aha"":0}","[0]","../img/tt/1161tt.jpg","",""
"null","<div style=""font-size:60px;""> </div>","null","fixation","html-keyboard-response","531","1856157","0.0-6.0-0.75","3533825","co38758","norming","","","","","","",""
"null","../img/tt/435tt.jpg","null","mooney1","image-keyboard-response","532","1859163","0.0-6.0-1.75","3533825","co38758","norming","","","","","","",""
"7397.25","","","post_mooney1_questions","survey-likert","533","1866564","0.0-6.0-2.75","3533825","co38758","norming","","","{""curiosity"":4,""confidence"":2}","[0,1]","../img/tt/435tt.jpg","",""
"3070.0749999997206","","","recognition","survey-text","534","1869636","0.0-6.0-3.75","3533825","co38758","norming","","","{""guess"":""Tafel""}","","../img/tt/435tt.jpg","",""
"null","../img/gs/435gs.jpg","null","reveal","image-keyboard-response","535","1871640","0.0-6.0-4.75","3533825","co38758","norming","","","","","","",""
"null","../img/tt/435tt.jpg","null","mooney2","image-keyboard-response","536","1873643","0.0-6.0-5.75","3533825","co38758","norming","","","","","","",""
"5502.399999999208","","","post_reveal_questions","survey-likert","537","1879148","0.0-6.0-6.75","3533825","co38758","norming","","","{""aha"":4}","[0]","../img/tt/435tt.jpg","",""
"null","<div style=""font-size:60px;""> </div>","null","fixation","html-keyboard-response","538","1879352","0.0-6.0-0.76","3533825","co38758","norming","","","","","","",""
"null","../img/tt/1156tt.jpg","null","mooney1","image-keyboard-response","539","1882355","0.0-6.0-1.76","3533825","co38758","norming","","","","","","",""
"5693.28500000108","","","post_mooney1_questions","survey-likert","540","1888052","0.0-6.0-2.76","3533825","co38758","norming","","","{""curiosity"":0,""confidence"":6}","[0,1]","../img/tt/1156tt.jpg","",""
"6510.095000001369","","","recognition","survey-text","541","1894564","0.0-6.0-3.76","3533825","co38758","norming","","","{""guess"":""Zonnende vrouw""}","","../img/tt/1156tt.jpg","",""
"null","../img/gs/1156gs.jpg","null","reveal","image-keyboard-response","542","1896573","0.0-6.0-4.76","3533825","co38758","norming","","","","","","",""
"null","../img/tt/1156tt.jpg","null","mooney2","image-keyboard-response","543","1898578","0.0-6.0-5.76","3533825","co38758","norming","","","","","","",""
"3959.315000000177","","","post_reveal_questions","survey-likert","544","1902540","0.0-6.0-6.76","3533825","co38758","norming","","","{""aha"":3}","[0]","../img/tt/1156tt.jpg","",""
"null","<div style=""font-size:60px;""> </div>","null","fixation","html-keyboard-response","545","1902745","0.0-6.0-0.77","3533825","co38758","norming","","","","","","",""
"null","../img/tt/318tt.jpg","null","mooney1","image-keyboard-response","546","1905748","0.0-6.0-1.77","3533825","co38758","norming","","","","","","",""
"6503.064999999013","","","post_mooney1_questions","survey-likert","547","1912252","0.0-6.0-2.77","3533825","co38758","norming","","","{""curiosity"":4,""confidence"":3}","[0,1]","../img/tt/318tt.jpg","",""
"3862.0050000010524","","","recognition","survey-text","548","1916116","0.0-6.0-3.77","3533825","co38758","norming","","","{""guess"":""Helm""}","","../img/tt/318tt.jpg","",""
"null","../img/gs/318gs.jpg","null","reveal","image-keyboard-response","549","1918118","0.0-6.0-4.77","3533825","co38758","norming","","","","","","",""
"null","../img/tt/318tt.jpg","null","mooney2","image-keyboard-response","550","1920126","0.0-6.0-5.77","3533825","co38758","norming","","","","","","",""
