"rt","stimulus","key_press","test_part","trial_type","trial_index","time_elapsed","internal_node_id","totalTime","subject","experiment_name","button_pressed","success","responses","question_order","currentStim","old","correct"
"5232.880000000023","Welcome to the experiment. This is an online experiment so please don't close the tab/window until we say goodbye.  Press any key to begin.","72","instructions","html-keyboard-response","0","5247","0.0-0.0","2886452","co38821","norming","","","","","","",""
"25222.340000000004","<div style='word-wrap: break-word; width: 900px'><h3>Please consider this information carefully before deciding whether to participate in this research</h3><ul style='text-align: left; font-size: .8em;'><li><b>Purpose of the research</b>: To examine how people process images.</li><li><b>What you will do in this research</b>:  Stimuli (images) will be presented on the computer and you will be asked different questions about them.</li><li><b>Time required</b>: Participation will take between 45 and 60 minutes to complete.</li><li><b>Risks</b>:  There are no anticipated risks associated with participating in this study. The effects of participating should be comparable to those you would experience from viewing a computer monitor for 30 minutes and using a mouse or keyboard.</li><li><b>Benefits</b>:  This study provides no benefits to you individually except for the credit. The study provides important information about the nature of perception and learning.</li><li><b>Confidentiality</b>:  Your participation in this study will remain confidential. No personally identifiable information will be associated with your data. Your de-identified data may be shared with other researchers and used in future projects.</li><li><b>Participation and withdrawal</b>:  Your participation in this study is completely voluntary and you may refuse to participate or you may choose to withdraw at any time without penalty.</li><li><b>How to contact the researchers</b>: If you have questions or concerns about your participation or payment, or want to request a summary of research findings, please contact Sander Van de Cruys (KU Leuven), at sander.vandecruys@kuleuven.be.</li></ul><p>The nature and purpose of this research have been sufficiently explained and I agree to participate in this study.  I understand that I am free to withdraw at any time without incurring any penalty.</p><p>Please consent by clicking the button below to continue. Otherwise, please exit the study at this time.</p></div>","","instructions","html-button-response","1","30468","0.0-1.0","2886452","co38821","norming","0","","","","","",""
"","","","instructions","fullscreen","2","32992","0.0-2.0","2886452","co38821","norming","","true","","","","",""
"41562.124999999985","","","sona","survey-html-form","3","74560","0.0-3.0","2886452","co38821","norming","","","[{""name"":""sonaid"",""value"":""38821""},{""name"":""debrief"",""value"":""no""},{""name"":""datajoin"",""value"":""yes""}]","","","",""
"42306.91499999998","<div style='word-wrap: break-word; width: 900px'><h3>Instructions</h3><p>This experiment will have 3 parts. In the first part you will see a series of distorted images like the one below on the left. As you can see in the righthand image, the distorted images are derived from actual photographs. In what follows, you will <strong>briefly</strong> be presented with <strong>only</strong> the distorted image.</p> <div style='float: left; margin-right: 20px;'><img src='../img/018tt.jpg' height='250' width='250'></img></div><div style='float: right; margin-left: 20px;'><img src='../img/018gs.jpg' height='250' width='250'></img></div><p>Subsequently you will be asked a few questions about the image: One question on how <strong>curious</strong> you are about the solution and one on how <strong>confident</strong> you are that you know the solution.</p>Next, we ask you to make a guess on what is in the image. Note that it is OK to name just the <strong>basic level category</strong>. For example when you see a parrot in the image, 'parrot' will obviously be a correct answer but also correct is 'bird'. However, 'animal' will <strong>not</strong> be counted as a correct response. For the example above, 'rose' would be correct or 'flower', but not 'plant'. When soccer players are depicted, 'soccer', 'football', 'soccer players' will be correct, but not 'humans', 'outdoors', or 'sports'. You do not need to describe the image in full, just name the main object in it <strong>in one or two words</strong>. All images depict objects from one of the following broad level categories: animals, inanimate objects, plants, sports, vehicles, and food. Recognizing means knowing <strong>more</strong> than these broad labels for a given image. But we always encourage you to <strong>make a guess</strong> if you can. Note that you are allowed to use <strong>Dutch and English</strong> in your answers, whatever comes easiest for you.</p><p>Press any key to continue.</p></div>","32","instructions","html-keyboard-response","4","116868","0.0-4.0","2886452","co38821","norming","","","","","","",""
"14375.749999999985","<div style='word-wrap: break-word; width: 900px'><h3>Instructions</h3> <p>Next, the solution image will be revealed to you and you'll be asked to indicate how strong your <strong>aha-experience</strong> was after seeing the solution. This describes the positive feeling of the 'click' you sometimes experience, when the pieces of the 'puzzle' fall together and you suddenly have 'insight' in the image.</p><img src='aha.jpg' height='188' width='250'></img><p>Note that there are no right or wrong answers. We are interested in what <strong>you</strong> see in the image and how <strong>you</strong> feel about it.</p><p>Press any key to start the experiment.</p></div>","32","instructions","html-keyboard-response","5","131244","0.0-5.0","2886452","co38821","norming","","","","","","",""
"null","<div style=""font-size:60px;""> </div>","null","fixation","html-keyboard-response","6","131446","0.0-6.0-0.0","2886452","co38821","norming","","","","","","",""
"null","../img/tt/468tt.jpg","null","mooney1","image-keyboard-response","7","134447","0.0-6.0-1.0","2886452","co38821","norming","","","","","","",""
"12412.744999999966","","","post_mooney1_questions","survey-likert","8","146861","0.0-6.0-2.0","2886452","co38821","norming","","","{""curiosity"":4,""confidence"":6}","[0,1]","../img/tt/468tt.jpg","",""
"4669.280000000028","","","recognition","survey-text","9","151532","0.0-6.0-3.0","2886452","co38821","norming","","","{""guess"":""Cello""}","","../img/tt/468tt.jpg","",""
"null","../img/gs/468gs.jpg","null","reveal","image-keyboard-response","10","153536","0.0-6.0-4.0","2886452","co38821","norming","","","","","","",""
"null","../img/tt/468tt.jpg","null","mooney2","image-keyboard-response","11","155540","0.0-6.0-5.0","2886452","co38821","norming","","","","","","",""
"6318.974999999948","","","post_reveal_questions","survey-likert","12","161860","0.0-6.0-6.0","2886452","co38821","norming","","","{""aha"":1}","[0]","../img/tt/468tt.jpg","",""
"null","<div style=""font-size:60px;""> </div>","null","fixation","html-keyboard-response","13","162066","0.0-6.0-0.1","2886452","co38821","norming","","","","","","",""
"null","../img/tt/1143tt.jpg","null","mooney1","image-keyboard-response","14","165074","0.0-6.0-1.1","2886452","co38821","norming","","","","","","",""
"10745.070000000007","","","post_mooney1_questions","survey-likert","15","175817","0.0-6.0-2.1","2886452","co38821","norming","","","{""curiosity"":5,""confidence"":0}","[0,1]","../img/tt/1143tt.jpg","",""
"9453.994999999995","","","recognition","survey-text","16","185273","0.0-6.0-3.1","2886452","co38821","norming","","","{""guess"":""bankjes""}","","../img/tt/1143tt.jpg","",""
"null","../img/gs/1143gs.jpg","null","reveal","image-keyboard-response","17","187283","0.0-6.0-4.1","2886452","co38821","norming","","","","","","",""
"null","../img/tt/1143tt.jpg","null","mooney2","image-keyboard-response","18","189290","0.0-6.0-5.1","2886452","co38821","norming","","","","","","",""
"13950.505000000034","","","post_reveal_questions","survey-likert","19","203241","0.0-6.0-6.1","2886452","co38821","norming","","","{""aha"":0}","[0]","../img/tt/1143tt.jpg","",""
"null","<div style=""font-size:60px;""> </div>","null","fixation","html-keyboard-response","20","203446","0.0-6.0-0.2","2886452","co38821","norming","","","","","","",""
"null","../img/tt/1004tt.jpg","null","mooney1","image-keyboard-response","21","206451","0.0-6.0-1.2","2886452","co38821","norming","","","","","","",""
"8948.88500000001","","","post_mooney1_questions","survey-likert","22","215401","0.0-6.0-2.2","2886452","co38821","norming","","","{""curiosity"":5,""confidence"":0}","[0,1]","../img/tt/1004tt.jpg","",""
"3846.079999999987","","","recognition","survey-text","23","219249","0.0-6.0-3.2","2886452","co38821","norming","","","{""guess"":""bos""}","","../img/tt/1004tt.jpg","",""
"null","../img/gs/1004gs.jpg","null","reveal","image-keyboard-response","24","221252","0.0-6.0-4.2","2886452","co38821","norming","","","","","","",""
"null","../img/tt/1004tt.jpg","null","mooney2","image-keyboard-response","25","223261","0.0-6.0-5.2","2886452","co38821","norming","","","","","","",""
"3051.0900000000547","","","post_reveal_questions","survey-likert","26","226313","0.0-6.0-6.2","2886452","co38821","norming","","","{""aha"":6}","[0]","../img/tt/1004tt.jpg","",""
"null","<div style=""font-size:60px;""> </div>","null","fixation","html-keyboard-response","27","226519","0.0-6.0-0.3","2886452","co38821","norming","","","","","","",""
"null","../img/tt/194tt.jpg","null","mooney1","image-keyboard-response","28","229529","0.0-6.0-1.3","2886452","co38821","norming","","","","","","",""
"7751.295000000013","","","post_mooney1_questions","survey-likert","29","237215","0.0-6.0-2.3","2886452","co38821","norming","","","{""curiosity"":4,""confidence"":4}","[0,1]","../img/tt/194tt.jpg","",""
"5950.250000000029","","","recognition","survey-text","30","243167","0.0-6.0-3.3","2886452","co38821","norming","","","{""guess"":""harpist""}","","../img/tt/194tt.jpg","",""
"null","../img/gs/194gs.jpg","null","reveal","image-keyboard-response","31","245172","0.0-6.0-4.3","2886452","co38821","norming","","","","","","",""
"null","../img/tt/194tt.jpg","null","mooney2","image-keyboard-response","32","247173","0.0-6.0-5.3","2886452","co38821","norming","","","","","","",""
"7608.64499999996","","","post_reveal_questions","survey-likert","33","254783","0.0-6.0-6.3","2886452","co38821","norming","","","{""aha"":3}","[0]","../img/tt/194tt.jpg","",""
"null","<div style=""font-size:60px;""> </div>","null","fixation","html-keyboard-response","34","254991","0.0-6.0-0.4","2886452","co38821","norming","","","","","","",""
"null","../img/tt/1226tt.jpg","null","mooney1","image-keyboard-response","35","257998","0.0-6.0-1.4","2886452","co38821","norming","","","","","","",""
"7071.8249999999825","","","post_mooney1_questions","survey-likert","36","265071","0.0-6.0-2.4","2886452","co38821","norming","","","{""curiosity"":2,""confidence"":5}","[0,1]","../img/tt/1226tt.jpg","",""
"13494.360000000044","","","recognition","survey-text","37","278567","0.0-6.0-3.4","2886452","co38821","norming","","","{""guess"":""kippen, gevogelte""}","","../img/tt/1226tt.jpg","",""
"null","../img/gs/1226gs.jpg","null","reveal","image-keyboard-response","38","280575","0.0-6.0-4.4","2886452","co38821","norming","","","","","","",""
"null","../img/tt/1226tt.jpg","null","mooney2","image-keyboard-response","39","282589","0.0-6.0-5.4","2886452","co38821","norming","","","","","","",""
"6024.729999999981","","","post_reveal_questions","survey-likert","40","288615","0.0-6.0-6.4","2886452","co38821","norming","","","{""aha"":4}","[0]","../img/tt/1226tt.jpg","",""
"null","<div style=""font-size:60px;""> </div>","null","fixation","html-keyboard-response","41","288822","0.0-6.0-0.5","2886452","co38821","norming","","","","","","",""
"null","../img/tt/1053tt.jpg","null","mooney1","image-keyboard-response","42","291834","0.0-6.0-1.5","2886452","co38821","norming","","","","","","",""
"8570.709999999963","","","post_mooney1_questions","survey-likert","43","300288","0.0-6.0-2.5","2886452","co38821","norming","","","{""curiosity"":1,""confidence"":6}","[0,1]","../img/tt/1053tt.jpg","",""
"5830.159999999974","","","recognition","survey-text","44","306119","0.0-6.0-3.5","2886452","co38821","norming","","","{""guess"":""koeien""}","","../img/tt/1053tt.jpg","",""
"null","../img/gs/1053gs.jpg","null","reveal","image-keyboard-response","45","308125","0.0-6.0-4.5","2886452","co38821","norming","","","","","","",""
"null","../img/tt/1053tt.jpg","null","mooney2","image-keyboard-response","46","310127","0.0-6.0-5.5","2886452","co38821","norming","","","","","","",""
"3518.7850000000326","","","post_reveal_questions","survey-likert","47","313648","0.0-6.0-6.5","2886452","co38821","norming","","","{""aha"":2}","[0]","../img/tt/1053tt.jpg","",""
"null","<div style=""font-size:60px;""> </div>","null","fixation","html-keyboard-response","48","313855","0.0-6.0-0.6","2886452","co38821","norming","","","","","","",""
"null","../img/tt/1290tt.jpg","null","mooney1","image-keyboard-response","49","316859","0.0-6.0-1.6","2886452","co38821","norming","","","","","","",""
"13202.195000000007","","","post_mooney1_questions","survey-likert","50","330064","0.0-6.0-2.6","2886452","co38821","norming","","","{""curiosity"":5,""confidence"":6}","[0,1]","../img/tt/1290tt.jpg","",""
"4510.184999999998","","","recognition","survey-text","51","334576","0.0-6.0-3.6","2886452","co38821","norming","","","{""guess"":""skilift""}","","../img/tt/1290tt.jpg","",""
"null","../img/gs/1290gs.jpg","null","reveal","image-keyboard-response","52","336582","0.0-6.0-4.6","2886452","co38821","norming","","","","","","",""
"null","../img/tt/1290tt.jpg","null","mooney2","image-keyboard-response","53","338583","0.0-6.0-5.6","2886452","co38821","norming","","","","","","",""
"3870.0350000000326","","","post_reveal_questions","survey-likert","54","342456","0.0-6.0-6.6","2886452","co38821","norming","","","{""aha"":1}","[0]","../img/tt/1290tt.jpg","",""
"null","<div style=""font-size:60px;""> </div>","null","fixation","html-keyboard-response","55","342666","0.0-6.0-0.7","2886452","co38821","norming","","","","","","",""
"null","../img/tt/108tt.jpg","null","mooney1","image-keyboard-response","56","345674","0.0-6.0-1.7","2886452","co38821","norming","","","","","","",""
"6130.700000000012","","","post_mooney1_questions","survey-likert","57","351807","0.0-6.0-2.7","2886452","co38821","norming","","","{""curiosity"":5,""confidence"":0}","[0,1]","../img/tt/108tt.jpg","",""
"4566.400000000023","","","recognition","survey-text","58","356376","0.0-6.0-3.7","2886452","co38821","norming","","","{""guess"":""""}","","../img/tt/108tt.jpg","",""
"null","../img/gs/108gs.jpg","null","reveal","image-keyboard-response","59","358257","0.0-6.0-4.7","2886452","co38821","norming","","","","","","",""
"null","../img/tt/108tt.jpg","null","mooney2","image-keyboard-response","60","360263","0.0-6.0-5.7","2886452","co38821","norming","","","","","","",""
"3785.8850000000093","","","post_reveal_questions","survey-likert","61","364051","0.0-6.0-6.7","2886452","co38821","norming","","","{""aha"":6}","[0]","../img/tt/108tt.jpg","",""
"null","<div style=""font-size:60px;""> </div>","null","fixation","html-keyboard-response","62","364253","0.0-6.0-0.8","2886452","co38821","norming","","","","","","",""
"null","../img/tt/584tt.jpg","null","mooney1","image-keyboard-response","63","367256","0.0-6.0-1.8","2886452","co38821","norming","","","","","","",""
"7872.909999999916","","","post_mooney1_questions","survey-likert","64","375132","0.0-6.0-2.8","2886452","co38821","norming","","","{""curiosity"":6,""confidence"":4}","[0,1]","../img/tt/584tt.jpg","",""
"5397.954999999958","","","recognition","survey-text","65","380531","0.0-6.0-3.8","2886452","co38821","norming","","","{""guess"":""bloem""}","","../img/tt/584tt.jpg","",""
"null","../img/gs/584gs.jpg","null","reveal","image-keyboard-response","66","382537","0.0-6.0-4.8","2886452","co38821","norming","","","","","","",""
"null","../img/tt/584tt.jpg","null","mooney2","image-keyboard-response","67","384548","0.0-6.0-5.8","2886452","co38821","norming","","","","","","",""
"6653.070000000123","","","post_reveal_questions","survey-likert","68","391203","0.0-6.0-6.8","2886452","co38821","norming","","","{""aha"":3}","[0]","../img/tt/584tt.jpg","",""
"null","<div style=""font-size:60px;""> </div>","null","fixation","html-keyboard-response","69","391407","0.0-6.0-0.9","2886452","co38821","norming","","","","","","",""
"null","../img/tt/1261tt.jpg","null","mooney1","image-keyboard-response","70","394415","0.0-6.0-1.9","2886452","co38821","norming","","","","","","",""
"7081.665000000037","","","post_mooney1_questions","survey-likert","71","401500","0.0-6.0-2.9","2886452","co38821","norming","","","{""curiosity"":5,""confidence"":1}","[0,1]","../img/tt/1261tt.jpg","",""
"3397.7700000000186","","","recognition","survey-text","72","404899","0.0-6.0-3.9","2886452","co38821","norming","","","{""guess"":""arend""}","","../img/tt/1261tt.jpg","",""
"null","../img/gs/1261gs.jpg","null","reveal","image-keyboard-response","73","406909","0.0-6.0-4.9","2886452","co38821","norming","","","","","","",""
"null","../img/tt/1261tt.jpg","null","mooney2","image-keyboard-response","74","408914","0.0-6.0-5.9","2886452","co38821","norming","","","","","","",""
"3351.1849999999977","","","post_reveal_questions","survey-likert","75","412267","0.0-6.0-6.9","2886452","co38821","norming","","","{""aha"":2}","[0]","../img/tt/1261tt.jpg","",""
"null","<div style=""font-size:60px;""> </div>","null","fixation","html-keyboard-response","76","412478","0.0-6.0-0.10","2886452","co38821","norming","","","","","","",""
"null","../img/tt/1173tt.jpg","null","mooney1","image-keyboard-response","77","415485","0.0-6.0-1.10","2886452","co38821","norming","","","","","","",""
"7067.390000000072","","","post_mooney1_questions","survey-likert","78","422439","0.0-6.0-2.10","2886452","co38821","norming","","","{""curiosity"":6,""confidence"":3}","[0,1]","../img/tt/1173tt.jpg","",""
"9764.959999999963","","","recognition","survey-text","79","432206","0.0-6.0-3.10","2886452","co38821","norming","","","{""guess"":""sportmensen""}","","../img/tt/1173tt.jpg","",""
"null","../img/gs/1173gs.jpg","null","reveal","image-keyboard-response","80","434214","0.0-6.0-4.10","2886452","co38821","norming","","","","","","",""
"null","../img/tt/1173tt.jpg","null","mooney2","image-keyboard-response","81","436217","0.0-6.0-5.10","2886452","co38821","norming","","","","","","",""
"3844.2050000000163","","","post_reveal_questions","survey-likert","82","440062","0.0-6.0-6.10","2886452","co38821","norming","","","{""aha"":6}","[0]","../img/tt/1173tt.jpg","",""
"null","<div style=""font-size:60px;""> </div>","null","fixation","html-keyboard-response","83","440265","0.0-6.0-0.11","2886452","co38821","norming","","","","","","",""
"null","../img/tt/1309tt.jpg","null","mooney1","image-keyboard-response","84","443272","0.0-6.0-1.11","2886452","co38821","norming","","","","","","",""
"7484.135000000009","","","post_mooney1_questions","survey-likert","85","450758","0.0-6.0-2.11","2886452","co38821","norming","","","{""curiosity"":6,""confidence"":1}","[0,1]","../img/tt/1309tt.jpg","",""
"4406.124999999942","","","recognition","survey-text","86","455166","0.0-6.0-3.11","2886452","co38821","norming","","","{""guess"":""auto""}","","../img/tt/1309tt.jpg","",""
"null","../img/gs/1309gs.jpg","null","reveal","image-keyboard-response","87","457168","0.0-6.0-4.11","2886452","co38821","norming","","","","","","",""
"null","../img/tt/1309tt.jpg","null","mooney2","image-keyboard-response","88","459178","0.0-6.0-5.11","2886452","co38821","norming","","","","","","",""
"2769.784999999916","","","post_reveal_questions","survey-likert","89","461950","0.0-6.0-6.11","2886452","co38821","norming","","","{""aha"":4}","[0]","../img/tt/1309tt.jpg","",""
"null","<div style=""font-size:60px;""> </div>","null","fixation","html-keyboard-response","90","462160","0.0-6.0-0.12","2886452","co38821","norming","","","","","","",""
"null","../img/tt/477tt.jpg","null","mooney1","image-keyboard-response","91","465167","0.0-6.0-1.12","2886452","co38821","norming","","","","","","",""
"6933.260000000009","","","post_mooney1_questions","survey-likert","92","472103","0.0-6.0-2.12","2886452","co38821","norming","","","{""curiosity"":5,""confidence"":0}","[0,1]","../img/tt/477tt.jpg","",""
"3862.0350000000326","","","recognition","survey-text","93","475966","0.0-6.0-3.12","2886452","co38821","norming","","","{""guess"":""panda""}","","../img/tt/477tt.jpg","",""
"null","../img/gs/477gs.jpg","null","reveal","image-keyboard-response","94","477968","0.0-6.0-4.12","2886452","co38821","norming","","","","","","",""
"null","../img/tt/477tt.jpg","null","mooney2","image-keyboard-response","95","479861","0.0-6.0-5.12","2886452","co38821","norming","","","","","","",""
"3450.3499999999767","","","post_reveal_questions","survey-likert","96","483314","0.0-6.0-6.12","2886452","co38821","norming","","","{""aha"":6}","[0]","../img/tt/477tt.jpg","",""
"null","<div style=""font-size:60px;""> </div>","null","fixation","html-keyboard-response","97","483524","0.0-6.0-0.13","2886452","co38821","norming","","","","","","",""
"null","../img/tt/076tt.jpg","null","mooney1","image-keyboard-response","98","486526","0.0-6.0-1.13","2886452","co38821","norming","","","","","","",""
"6448.3850000000675","","","post_mooney1_questions","survey-likert","99","492978","0.0-6.0-2.13","2886452","co38821","norming","","","{""curiosity"":4,""confidence"":5}","[0,1]","../img/tt/076tt.jpg","",""
"11958.019999999902","","","recognition","survey-text","100","504937","0.0-6.0-3.13","2886452","co38821","norming","","","{""guess"":""rollerschaatsen""}","","../img/tt/076tt.jpg","",""
"null","../img/gs/076gs.jpg","null","reveal","image-keyboard-response","101","506940","0.0-6.0-4.13","2886452","co38821","norming","","","","","","",""
"null","../img/tt/076tt.jpg","null","mooney2","image-keyboard-response","102","508951","0.0-6.0-5.13","2886452","co38821","norming","","","","","","",""
"3432.3949999999604","","","post_reveal_questions","survey-likert","103","512385","0.0-6.0-6.13","2886452","co38821","norming","","","{""aha"":3}","[0]","../img/tt/076tt.jpg","",""
"null","<div style=""font-size:60px;""> </div>","null","fixation","html-keyboard-response","104","512587","0.0-6.0-0.14","2886452","co38821","norming","","","","","","",""
"null","../img/tt/1202tt.jpg","null","mooney1","image-keyboard-response","105","515598","0.0-6.0-1.14","2886452","co38821","norming","","","","","","",""
"6217.085000000021","","","post_mooney1_questions","survey-likert","106","521818","0.0-6.0-2.14","2886452","co38821","norming","","","{""curiosity"":6,""confidence"":0}","[0,1]","../img/tt/1202tt.jpg","",""
"5398.0450000001","","","recognition","survey-text","107","527217","0.0-6.0-3.14","2886452","co38821","norming","","","{""guess"":""gitaristen""}","","../img/tt/1202tt.jpg","",""
"null","../img/gs/1202gs.jpg","null","reveal","image-keyboard-response","108","529219","0.0-6.0-4.14","2886452","co38821","norming","","","","","","",""
"null","../img/tt/1202tt.jpg","null","mooney2","image-keyboard-response","109","531230","0.0-6.0-5.14","2886452","co38821","norming","","","","","","",""
"3225.4899999999907","","","post_reveal_questions","survey-likert","110","534458","0.0-6.0-6.14","2886452","co38821","norming","","","{""aha"":1}","[0]","../img/tt/1202tt.jpg","",""
"null","<div style=""font-size:60px;""> </div>","null","fixation","html-keyboard-response","111","534665","0.0-6.0-0.15","2886452","co38821","norming","","","","","","",""
"null","../img/tt/378tt.jpg","null","mooney1","image-keyboard-response","112","537668","0.0-6.0-1.15","2886452","co38821","norming","","","","","","",""
"6058.850000000093","","","post_mooney1_questions","survey-likert","113","543687","0.0-6.0-2.15","2886452","co38821","norming","","","{""curiosity"":3,""confidence"":0}","[0,1]","../img/tt/378tt.jpg","",""
"1646.059999999823","","","recognition","survey-text","114","545335","0.0-6.0-3.15","2886452","co38821","norming","","","{""guess"":""""}","","../img/tt/378tt.jpg","",""
"null","../img/gs/378gs.jpg","null","reveal","image-keyboard-response","115","547341","0.0-6.0-4.15","2886452","co38821","norming","","","","","","",""
"null","../img/tt/378tt.jpg","null","mooney2","image-keyboard-response","116","549343","0.0-6.0-5.15","2886452","co38821","norming","","","","","","",""
"3973.1699999999255","","","post_reveal_questions","survey-likert","117","553319","0.0-6.0-6.15","2886452","co38821","norming","","","{""aha"":5}","[0]","../img/tt/378tt.jpg","",""
"null","<div style=""font-size:60px;""> </div>","null","fixation","html-keyboard-response","118","553524","0.0-6.0-0.16","2886452","co38821","norming","","","","","","",""
"null","../img/tt/1151tt.jpg","null","mooney1","image-keyboard-response","119","556531","0.0-6.0-1.16","2886452","co38821","norming","","","","","","",""
"7561.050000000047","","","post_mooney1_questions","survey-likert","120","564095","0.0-6.0-2.16","2886452","co38821","norming","","","{""curiosity"":6,""confidence"":1}","[0,1]","../img/tt/1151tt.jpg","",""
"4869.665000000037","","","recognition","survey-text","121","568966","0.0-6.0-3.16","2886452","co38821","norming","","","{""guess"":""gnoe""}","","../img/tt/1151tt.jpg","",""
"null","../img/gs/1151gs.jpg","null","reveal","image-keyboard-response","122","570968","0.0-6.0-4.16","2886452","co38821","norming","","","","","","",""
"null","../img/tt/1151tt.jpg","null","mooney2","image-keyboard-response","123","572970","0.0-6.0-5.16","2886452","co38821","norming","","","","","","",""
"5658.239999999991","","","post_reveal_questions","survey-likert","124","578631","0.0-6.0-6.16","2886452","co38821","norming","","","{""aha"":1}","[0]","../img/tt/1151tt.jpg","",""
"null","<div style=""font-size:60px;""> </div>","null","fixation","html-keyboard-response","125","578834","0.0-6.0-0.17","2886452","co38821","norming","","","","","","",""
"null","../img/tt/279tt.jpg","null","mooney1","image-keyboard-response","126","581836","0.0-6.0-1.17","2886452","co38821","norming","","","","","","",""
"8671.765000000014","","","post_mooney1_questions","survey-likert","127","590511","0.0-6.0-2.17","2886452","co38821","norming","","","{""curiosity"":0,""confidence"":6}","[0,1]","../img/tt/279tt.jpg","",""
"2686.2149999999674","","","recognition","survey-text","128","593199","0.0-6.0-3.17","2886452","co38821","norming","","","{""guess"":""koala""}","","../img/tt/279tt.jpg","",""
"null","../img/gs/279gs.jpg","null","reveal","image-keyboard-response","129","595201","0.0-6.0-4.17","2886452","co38821","norming","","","","","","",""
"null","../img/tt/279tt.jpg","null","mooney2","image-keyboard-response","130","597204","0.0-6.0-5.17","2886452","co38821","norming","","","","","","",""
"1880.2399999999907","","","post_reveal_questions","survey-likert","131","599087","0.0-6.0-6.17","2886452","co38821","norming","","","{""aha"":6}","[0]","../img/tt/279tt.jpg","",""
"null","<div style=""font-size:60px;""> </div>","null","fixation","html-keyboard-response","132","599294","0.0-6.0-0.18","2886452","co38821","norming","","","","","","",""
"null","../img/tt/1048tt.jpg","null","mooney1","image-keyboard-response","133","602307","0.0-6.0-1.18","2886452","co38821","norming","","","","","","",""
"5144.5449999999255","","","post_mooney1_questions","survey-likert","134","607454","0.0-6.0-2.18","2886452","co38821","norming","","","{""curiosity"":5,""confidence"":4}","[0,1]","../img/tt/1048tt.jpg","",""
"2982.419999999809","","","recognition","survey-text","135","610438","0.0-6.0-3.18","2886452","co38821","norming","","","{""guess"":""paard""}","","../img/tt/1048tt.jpg","",""
"null","../img/gs/1048gs.jpg","null","reveal","image-keyboard-response","136","612446","0.0-6.0-4.18","2886452","co38821","norming","","","","","","",""
"null","../img/tt/1048tt.jpg","null","mooney2","image-keyboard-response","137","614449","0.0-6.0-5.18","2886452","co38821","norming","","","","","","",""
"3364.435000000056","","","post_reveal_questions","survey-likert","138","617814","0.0-6.0-6.18","2886452","co38821","norming","","","{""aha"":3}","[0]","../img/tt/1048tt.jpg","",""
"null","<div style=""font-size:60px;""> </div>","null","fixation","html-keyboard-response","139","618021","0.0-6.0-0.19","2886452","co38821","norming","","","","","","",""
"null","../img/tt/598tt.jpg","null","mooney1","image-keyboard-response","140","621027","0.0-6.0-1.19","2886452","co38821","norming","","","","","","",""
"6000.345000000205","","","post_mooney1_questions","survey-likert","141","627030","0.0-6.0-2.19","2886452","co38821","norming","","","{""curiosity"":3,""confidence"":0}","[0,1]","../img/tt/598tt.jpg","",""
"2862.169999999809","","","recognition","survey-text","142","629894","0.0-6.0-3.19","2886452","co38821","norming","","","{""guess"":""persoon""}","","../img/tt/598tt.jpg","",""
"null","../img/gs/598gs.jpg","null","reveal","image-keyboard-response","143","631898","0.0-6.0-4.19","2886452","co38821","norming","","","","","","",""
"null","../img/tt/598tt.jpg","null","mooney2","image-keyboard-response","144","633898","0.0-6.0-5.19","2886452","co38821","norming","","","","","","",""
"2706.594999999972","","","post_reveal_questions","survey-likert","145","636606","0.0-6.0-6.19","2886452","co38821","norming","","","{""aha"":1}","[0]","../img/tt/598tt.jpg","",""
"null","<div style=""font-size:60px;""> </div>","null","fixation","html-keyboard-response","146","636807","0.0-6.0-0.20","2886452","co38821","norming","","","","","","",""
"null","../img/tt/438tt.jpg","null","mooney1","image-keyboard-response","147","639817","0.0-6.0-1.20","2886452","co38821","norming","","","","","","",""
"5210.569999999949","","","post_mooney1_questions","survey-likert","148","645030","0.0-6.0-2.20","2886452","co38821","norming","","","{""curiosity"":6,""confidence"":0}","[0,1]","../img/tt/438tt.jpg","",""
"2494.07500000007","","","recognition","survey-text","149","647526","0.0-6.0-3.20","2886452","co38821","norming","","","{""guess"":""standbeeld""}","","../img/tt/438tt.jpg","",""
"null","../img/gs/438gs.jpg","null","reveal","image-keyboard-response","150","649533","0.0-6.0-4.20","2886452","co38821","norming","","","","","","",""
"null","../img/tt/438tt.jpg","null","mooney2","image-keyboard-response","151","651534","0.0-6.0-5.20","2886452","co38821","norming","","","","","","",""
"2231.2049999997253","","","post_reveal_questions","survey-likert","152","653766","0.0-6.0-6.20","2886452","co38821","norming","","","{""aha"":1}","[0]","../img/tt/438tt.jpg","",""
"null","<div style=""font-size:60px;""> </div>","null","fixation","html-keyboard-response","153","653972","0.0-6.0-0.21","2886452","co38821","norming","","","","","","",""
"null","../img/tt/1006tt.jpg","null","mooney1","image-keyboard-response","154","656983","0.0-6.0-1.21","2886452","co38821","norming","","","","","","",""
"6484.335000000079","","","post_mooney1_questions","survey-likert","155","663461","0.0-6.0-2.21","2886452","co38821","norming","","","{""curiosity"":6,""confidence"":4}","[0,1]","../img/tt/1006tt.jpg","",""
"2206.454999999958","","","recognition","survey-text","156","665669","0.0-6.0-3.21","2886452","co38821","norming","","","{""guess"":""schapen""}","","../img/tt/1006tt.jpg","",""
"null","../img/gs/1006gs.jpg","null","reveal","image-keyboard-response","157","667673","0.0-6.0-4.21","2886452","co38821","norming","","","","","","",""
"null","../img/tt/1006tt.jpg","null","mooney2","image-keyboard-response","158","669675","0.0-6.0-5.21","2886452","co38821","norming","","","","","","",""
"4632.35999999987","","","post_reveal_questions","survey-likert","159","674309","0.0-6.0-6.21","2886452","co38821","norming","","","{""aha"":5}","[0]","../img/tt/1006tt.jpg","",""
"null","<div style=""font-size:60px;""> </div>","null","fixation","html-keyboard-response","160","674520","0.0-6.0-0.22","2886452","co38821","norming","","","","","","",""
"null","../img/tt/599tt.jpg","null","mooney1","image-keyboard-response","161","677529","0.0-6.0-1.22","2886452","co38821","norming","","","","","","",""
"4691.045000000042","","","post_mooney1_questions","survey-likert","162","682221","0.0-6.0-2.22","2886452","co38821","norming","","","{""curiosity"":1,""confidence"":6}","[0,1]","../img/tt/599tt.jpg","",""
"3709.939999999944","","","recognition","survey-text","163","685933","0.0-6.0-3.22","2886452","co38821","norming","","","{""guess"":""uilen""}","","../img/tt/599tt.jpg","",""
"null","../img/gs/599gs.jpg","null","reveal","image-keyboard-response","164","687936","0.0-6.0-4.22","2886452","co38821","norming","","","","","","",""
"null","../img/tt/599tt.jpg","null","mooney2","image-keyboard-response","165","689943","0.0-6.0-5.22","2886452","co38821","norming","","","","","","",""
"3836.255000000121","","","post_reveal_questions","survey-likert","166","693781","0.0-6.0-6.22","2886452","co38821","norming","","","{""aha"":1}","[0]","../img/tt/599tt.jpg","",""
"null","<div style=""font-size:60px;""> </div>","null","fixation","html-keyboard-response","167","693986","0.0-6.0-0.23","2886452","co38821","norming","","","","","","",""
"null","../img/tt/063tt.jpg","null","mooney1","image-keyboard-response","168","696990","0.0-6.0-1.23","2886452","co38821","norming","","","","","","",""
"7749.98499999987","","","post_mooney1_questions","survey-likert","169","704741","0.0-6.0-2.23","2886452","co38821","norming","","","{""curiosity"":2,""confidence"":6}","[0,1]","../img/tt/063tt.jpg","",""
"3838.2050000000745","","","recognition","survey-text","170","708581","0.0-6.0-3.23","2886452","co38821","norming","","","{""guess"":""accordeon""}","","../img/tt/063tt.jpg","",""
"null","../img/gs/063gs.jpg","null","reveal","image-keyboard-response","171","710584","0.0-6.0-4.23","2886452","co38821","norming","","","","","","",""
"null","../img/tt/063tt.jpg","null","mooney2","image-keyboard-response","172","712591","0.0-6.0-5.23","2886452","co38821","norming","","","","","","",""
"3763.204999999958","","","post_reveal_questions","survey-likert","173","716357","0.0-6.0-6.23","2886452","co38821","norming","","","{""aha"":5}","[0]","../img/tt/063tt.jpg","",""
"null","<div style=""font-size:60px;""> </div>","null","fixation","html-keyboard-response","174","716559","0.0-6.0-0.24","2886452","co38821","norming","","","","","","",""
"null","../img/tt/1275tt.jpg","null","mooney1","image-keyboard-response","175","719570","0.0-6.0-1.24","2886452","co38821","norming","","","","","","",""
"6417.589999999967","","","post_mooney1_questions","survey-likert","176","725996","0.0-6.0-2.24","2886452","co38821","norming","","","{""curiosity"":6,""confidence"":1}","[0,1]","../img/tt/1275tt.jpg","",""
"2198.4599999998463","","","recognition","survey-text","177","728196","0.0-6.0-3.24","2886452","co38821","norming","","","{""guess"":""clown""}","","../img/tt/1275tt.jpg","",""
"null","../img/gs/1275gs.jpg","null","reveal","image-keyboard-response","178","730204","0.0-6.0-4.24","2886452","co38821","norming","","","","","","",""
"null","../img/tt/1275tt.jpg","null","mooney2","image-keyboard-response","179","732206","0.0-6.0-5.24","2886452","co38821","norming","","","","","","",""
"6058.199999999953","","","post_reveal_questions","survey-likert","180","738268","0.0-6.0-6.24","2886452","co38821","norming","","","{""aha"":4}","[0]","../img/tt/1275tt.jpg","",""
"null","<div style=""font-size:60px;""> </div>","null","fixation","html-keyboard-response","181","738474","0.0-6.0-0.25","2886452","co38821","norming","","","","","","",""
"null","../img/tt/522tt.jpg","null","mooney1","image-keyboard-response","182","741478","0.0-6.0-1.25","2886452","co38821","norming","","","","","","",""
"5597.880000000005","","","post_mooney1_questions","survey-likert","183","747077","0.0-6.0-2.25","2886452","co38821","norming","","","{""curiosity"":6,""confidence"":1}","[0,1]","../img/tt/522tt.jpg","",""
"8317.604999999865","","","recognition","survey-text","184","755396","0.0-6.0-3.25","2886452","co38821","norming","","","{""guess"":""rups""}","","../img/tt/522tt.jpg","",""
"null","../img/gs/522gs.jpg","null","reveal","image-keyboard-response","185","757397","0.0-6.0-4.25","2886452","co38821","norming","","","","","","",""
"null","../img/tt/522tt.jpg","null","mooney2","image-keyboard-response","186","759399","0.0-6.0-5.25","2886452","co38821","norming","","","","","","",""
"4531.324999999953","","","post_reveal_questions","survey-likert","187","763932","0.0-6.0-6.25","2886452","co38821","norming","","","{""aha"":6}","[0]","../img/tt/522tt.jpg","",""
"null","<div style=""font-size:60px;""> </div>","null","fixation","html-keyboard-response","188","764140","0.0-6.0-0.26","2886452","co38821","norming","","","","","","",""
"null","../img/tt/078tt.jpg","null","mooney1","image-keyboard-response","189","767147","0.0-6.0-1.26","2886452","co38821","norming","","","","","","",""
"6040.635000000126","","","post_mooney1_questions","survey-likert","190","773188","0.0-6.0-2.26","2886452","co38821","norming","","","{""curiosity"":3,""confidence"":0}","[0,1]","../img/tt/078tt.jpg","",""
"638.2849999999162","","","recognition","survey-text","191","773828","0.0-6.0-3.26","2886452","co38821","norming","","","{""guess"":""""}","","../img/tt/078tt.jpg","",""
"null","../img/gs/078gs.jpg","null","reveal","image-keyboard-response","192","775829","0.0-6.0-4.26","2886452","co38821","norming","","","","","","",""
"null","../img/tt/078tt.jpg","null","mooney2","image-keyboard-response","193","777836","0.0-6.0-5.26","2886452","co38821","norming","","","","","","",""
"2693.7449999999953","","","post_reveal_questions","survey-likert","194","780532","0.0-6.0-6.26","2886452","co38821","norming","","","{""aha"":1}","[0]","../img/tt/078tt.jpg","",""
"null","<div style=""font-size:60px;""> </div>","null","fixation","html-keyboard-response","195","780733","0.0-6.0-0.27","2886452","co38821","norming","","","","","","",""
"null","../img/tt/353tt.jpg","null","mooney1","image-keyboard-response","196","783739","0.0-6.0-1.27","2886452","co38821","norming","","","","","","",""
"7448.145000000135","","","post_mooney1_questions","survey-likert","197","791190","0.0-6.0-2.27","2886452","co38821","norming","","","{""curiosity"":6,""confidence"":1}","[0,1]","../img/tt/353tt.jpg","",""
"3110.379999999772","","","recognition","survey-text","198","794302","0.0-6.0-3.27","2886452","co38821","norming","","","{""guess"":""kikker""}","","../img/tt/353tt.jpg","",""
"null","../img/gs/353gs.jpg","null","reveal","image-keyboard-response","199","796309","0.0-6.0-4.27","2886452","co38821","norming","","","","","","",""
"null","../img/tt/353tt.jpg","null","mooney2","image-keyboard-response","200","798317","0.0-6.0-5.27","2886452","co38821","norming","","","","","","",""
"3398.5100000000093","","","post_reveal_questions","survey-likert","201","801718","0.0-6.0-6.27","2886452","co38821","norming","","","{""aha"":4}","[0]","../img/tt/353tt.jpg","",""
"null","<div style=""font-size:60px;""> </div>","null","fixation","html-keyboard-response","202","801929","0.0-6.0-0.28","2886452","co38821","norming","","","","","","",""
"null","../img/tt/1200tt.jpg","null","mooney1","image-keyboard-response","203","804938","0.0-6.0-1.28","2886452","co38821","norming","","","","","","",""
"7465.594999999972","","","post_mooney1_questions","survey-likert","204","812406","0.0-6.0-2.28","2886452","co38821","norming","","","{""curiosity"":6,""confidence"":3}","[0,1]","../img/tt/1200tt.jpg","",""
"3038.1399999998976","","","recognition","survey-text","205","815446","0.0-6.0-3.28","2886452","co38821","norming","","","{""guess"":""helikopter""}","","../img/tt/1200tt.jpg","",""
"null","../img/gs/1200gs.jpg","null","reveal","image-keyboard-response","206","817448","0.0-6.0-4.28","2886452","co38821","norming","","","","","","",""
"null","../img/tt/1200tt.jpg","null","mooney2","image-keyboard-response","207","819454","0.0-6.0-5.28","2886452","co38821","norming","","","","","","",""
"2551.4100000000326","","","post_reveal_questions","survey-likert","208","822006","0.0-6.0-6.28","2886452","co38821","norming","","","{""aha"":3}","[0]","../img/tt/1200tt.jpg","",""
"null","<div style=""font-size:60px;""> </div>","null","fixation","html-keyboard-response","209","822216","0.0-6.0-0.29","2886452","co38821","norming","","","","","","",""
"null","../img/tt/079tt.jpg","null","mooney1","image-keyboard-response","210","825225","0.0-6.0-1.29","2886452","co38821","norming","","","","","","",""
"6338.244999999879","","","post_mooney1_questions","survey-likert","211","831566","0.0-6.0-2.29","2886452","co38821","norming","","","{""curiosity"":3,""confidence"":5}","[0,1]","../img/tt/079tt.jpg","",""
"2030.0700000000652","","","recognition","survey-text","212","833598","0.0-6.0-3.29","2886452","co38821","norming","","","{""guess"":""beer""}","","../img/tt/079tt.jpg","",""
"null","../img/gs/079gs.jpg","null","reveal","image-keyboard-response","213","835601","0.0-6.0-4.29","2886452","co38821","norming","","","","","","",""
"null","../img/tt/079tt.jpg","null","mooney2","image-keyboard-response","214","837604","0.0-6.0-5.29","2886452","co38821","norming","","","","","","",""
"2457.7999999998137","","","post_reveal_questions","survey-likert","215","840062","0.0-6.0-6.29","2886452","co38821","norming","","","{""aha"":4}","[0]","../img/tt/079tt.jpg","",""
"null","<div style=""font-size:60px;""> </div>","null","fixation","html-keyboard-response","216","840268","0.0-6.0-0.30","2886452","co38821","norming","","","","","","",""
"null","../img/tt/1096tt.jpg","null","mooney1","image-keyboard-response","217","843274","0.0-6.0-1.30","2886452","co38821","norming","","","","","","",""
"4289.459999999963","","","post_mooney1_questions","survey-likert","218","847570","0.0-6.0-2.30","2886452","co38821","norming","","","{""curiosity"":3,""confidence"":4}","[0,1]","../img/tt/1096tt.jpg","",""
"3150.2450000001118","","","recognition","survey-text","219","850722","0.0-6.0-3.30","2886452","co38821","norming","","","{""guess"":""paard""}","","../img/tt/1096tt.jpg","",""
"null","../img/gs/1096gs.jpg","null","reveal","image-keyboard-response","220","852726","0.0-6.0-4.30","2886452","co38821","norming","","","","","","",""
"null","../img/tt/1096tt.jpg","null","mooney2","image-keyboard-response","221","854729","0.0-6.0-5.30","2886452","co38821","norming","","","","","","",""
"3022.5249999997905","","","post_reveal_questions","survey-likert","222","857754","0.0-6.0-6.30","2886452","co38821","norming","","","{""aha"":5}","[0]","../img/tt/1096tt.jpg","",""
"null","<div style=""font-size:60px;""> </div>","null","fixation","html-keyboard-response","223","857963","0.0-6.0-0.31","2886452","co38821","norming","","","","","","",""
"null","../img/tt/118tt.jpg","null","mooney1","image-keyboard-response","224","860967","0.0-6.0-1.31","2886452","co38821","norming","","","","","","",""
"9008.205000000191","","","post_mooney1_questions","survey-likert","225","869978","0.0-6.0-2.31","2886452","co38821","norming","","","{""curiosity"":4,""confidence"":0}","[0,1]","../img/tt/118tt.jpg","",""
"1662.404999999795","","","recognition","survey-text","226","871642","0.0-6.0-3.31","2886452","co38821","norming","","","{""guess"":""""}","","../img/tt/118tt.jpg","",""
"null","../img/gs/118gs.jpg","null","reveal","image-keyboard-response","227","873643","0.0-6.0-4.31","2886452","co38821","norming","","","","","","",""
"null","../img/tt/118tt.jpg","null","mooney2","image-keyboard-response","228","875651","0.0-6.0-5.31","2886452","co38821","norming","","","","","","",""
"7211.694999999949","","","post_reveal_questions","survey-likert","229","882866","0.0-6.0-6.31","2886452","co38821","norming","","","{""aha"":1}","[0]","../img/tt/118tt.jpg","",""
"null","<div style=""font-size:60px;""> </div>","null","fixation","html-keyboard-response","230","883067","0.0-6.0-0.32","2886452","co38821","norming","","","","","","",""
"null","../img/tt/1234tt.jpg","null","mooney1","image-keyboard-response","231","886078","0.0-6.0-1.32","2886452","co38821","norming","","","","","","",""
"6478.394999999786","","","post_mooney1_questions","survey-likert","232","892562","0.0-6.0-2.32","2886452","co38821","norming","","","{""curiosity"":6,""confidence"":0}","[0,1]","../img/tt/1234tt.jpg","",""
"2174.210000000079","","","recognition","survey-text","233","894738","0.0-6.0-3.32","2886452","co38821","norming","","","{""guess"":""rots""}","","../img/tt/1234tt.jpg","",""
"null","../img/gs/1234gs.jpg","null","reveal","image-keyboard-response","234","896744","0.0-6.0-4.32","2886452","co38821","norming","","","","","","",""
"null","../img/tt/1234tt.jpg","null","mooney2","image-keyboard-response","235","898753","0.0-6.0-5.32","2886452","co38821","norming","","","","","","",""
"2854.640000000014","","","post_reveal_questions","survey-likert","236","901610","0.0-6.0-6.32","2886452","co38821","norming","","","{""aha"":5}","[0]","../img/tt/1234tt.jpg","",""
"null","<div style=""font-size:60px;""> </div>","null","fixation","html-keyboard-response","237","901813","0.0-6.0-0.33","2886452","co38821","norming","","","","","","",""
"null","../img/tt/1159tt.jpg","null","mooney1","image-keyboard-response","238","904822","0.0-6.0-1.33","2886452","co38821","norming","","","","","","",""
"8973.310000000056","","","post_mooney1_questions","survey-likert","239","913798","0.0-6.0-2.33","2886452","co38821","norming","","","{""curiosity"":1,""confidence"":0}","[0,1]","../img/tt/1159tt.jpg","",""
"1806.4000000000233","","","recognition","survey-text","240","915606","0.0-6.0-3.33","2886452","co38821","norming","","","{""guess"":""duif""}","","../img/tt/1159tt.jpg","",""
"null","../img/gs/1159gs.jpg","null","reveal","image-keyboard-response","241","917615","0.0-6.0-4.33","2886452","co38821","norming","","","","","","",""
"null","../img/tt/1159tt.jpg","null","mooney2","image-keyboard-response","242","919621","0.0-6.0-5.33","2886452","co38821","norming","","","","","","",""
"2647.4550000000745","","","post_reveal_questions","survey-likert","243","922270","0.0-6.0-6.33","2886452","co38821","norming","","","{""aha"":1}","[0]","../img/tt/1159tt.jpg","",""
"null","<div style=""font-size:60px;""> </div>","null","fixation","html-keyboard-response","244","922472","0.0-6.0-0.34","2886452","co38821","norming","","","","","","",""
"null","../img/tt/135tt.jpg","null","mooney1","image-keyboard-response","245","925483","0.0-6.0-1.34","2886452","co38821","norming","","","","","","",""
"6986.194999999949","","","post_mooney1_questions","survey-likert","246","932470","0.0-6.0-2.34","2886452","co38821","norming","","","{""curiosity"":4,""confidence"":5}","[0,1]","../img/tt/135tt.jpg","",""
"3006.039999999921","","","recognition","survey-text","247","935478","0.0-6.0-3.34","2886452","co38821","norming","","","{""guess"":""toilet""}","","../img/tt/135tt.jpg","",""
"null","../img/gs/135gs.jpg","null","reveal","image-keyboard-response","248","937484","0.0-6.0-4.34","2886452","co38821","norming","","","","","","",""
"null","../img/tt/135tt.jpg","null","mooney2","image-keyboard-response","249","939485","0.0-6.0-5.34","2886452","co38821","norming","","","","","","",""
"3895.7299999999814","","","post_reveal_questions","survey-likert","250","943382","0.0-6.0-6.34","2886452","co38821","norming","","","{""aha"":4}","[0]","../img/tt/135tt.jpg","",""
"null","<div style=""font-size:60px;""> </div>","null","fixation","html-keyboard-response","251","943586","0.0-6.0-0.35","2886452","co38821","norming","","","","","","",""
"null","../img/tt/1254tt.jpg","null","mooney1","image-keyboard-response","252","946590","0.0-6.0-1.35","2886452","co38821","norming","","","","","","",""
"6454.875000000233","","","post_mooney1_questions","survey-likert","253","953046","0.0-6.0-2.35","2886452","co38821","norming","","","{""curiosity"":6,""confidence"":1}","[0,1]","../img/tt/1254tt.jpg","",""
"1822.1699999999255","","","recognition","survey-text","254","954870","0.0-6.0-3.35","2886452","co38821","norming","","","{""guess"":""ezel""}","","../img/tt/1254tt.jpg","",""
"null","../img/gs/1254gs.jpg","null","reveal","image-keyboard-response","255","956880","0.0-6.0-4.35","2886452","co38821","norming","","","","","","",""
"null","../img/tt/1254tt.jpg","null","mooney2","image-keyboard-response","256","958882","0.0-6.0-5.35","2886452","co38821","norming","","","","","","",""
"2034.844999999972","","","post_reveal_questions","survey-likert","257","960918","0.0-6.0-6.35","2886452","co38821","norming","","","{""aha"":4}","[0]","../img/tt/1254tt.jpg","",""
"null","<div style=""font-size:60px;""> </div>","null","fixation","html-keyboard-response","258","961120","0.0-6.0-0.36","2886452","co38821","norming","","","","","","",""
"null","../img/tt/140tt.jpg","null","mooney1","image-keyboard-response","259","964121","0.0-6.0-1.36","2886452","co38821","norming","","","","","","",""
"6180.04999999993","","","post_mooney1_questions","survey-likert","260","970299","0.0-6.0-2.36","2886452","co38821","norming","","","{""curiosity"":6,""confidence"":6}","[0,1]","../img/tt/140tt.jpg","",""
"2605.7550000000047","","","recognition","survey-text","261","972907","0.0-6.0-3.36","2886452","co38821","norming","","","{""guess"":""vorken""}","","../img/tt/140tt.jpg","",""
"null","../img/gs/140gs.jpg","null","reveal","image-keyboard-response","262","974913","0.0-6.0-4.36","2886452","co38821","norming","","","","","","",""
"null","../img/tt/140tt.jpg","null","mooney2","image-keyboard-response","263","976916","0.0-6.0-5.36","2886452","co38821","norming","","","","","","",""
"3062.394999999902","","","post_reveal_questions","survey-likert","264","979979","0.0-6.0-6.36","2886452","co38821","norming","","","{""aha"":6}","[0]","../img/tt/140tt.jpg","",""
"null","<div style=""font-size:60px;""> </div>","null","fixation","html-keyboard-response","265","980186","0.0-6.0-0.37","2886452","co38821","norming","","","","","","",""
"null","../img/tt/1362tt.jpg","null","mooney1","image-keyboard-response","266","983190","0.0-6.0-1.37","2886452","co38821","norming","","","","","","",""
"6508.165000000154","","","post_mooney1_questions","survey-likert","267","989699","0.0-6.0-2.37","2886452","co38821","norming","","","{""curiosity"":5,""confidence"":2}","[0,1]","../img/tt/1362tt.jpg","",""
"5061.9400000000605","","","recognition","survey-text","268","994763","0.0-6.0-3.37","2886452","co38821","norming","","","{""guess"":""pannen""}","","../img/tt/1362tt.jpg","",""
"null","../img/gs/1362gs.jpg","null","reveal","image-keyboard-response","269","996768","0.0-6.0-4.37","2886452","co38821","norming","","","","","","",""
"null","../img/tt/1362tt.jpg","null","mooney2","image-keyboard-response","270","998770","0.0-6.0-5.37","2886452","co38821","norming","","","","","","",""
"2559.784999999916","","","post_reveal_questions","survey-likert","271","1001331","0.0-6.0-6.37","2886452","co38821","norming","","","{""aha"":4}","[0]","../img/tt/1362tt.jpg","",""
"null","<div style=""font-size:60px;""> </div>","null","fixation","html-keyboard-response","272","1001542","0.0-6.0-0.38","2886452","co38821","norming","","","","","","",""
"null","../img/tt/1161tt.jpg","null","mooney1","image-keyboard-response","273","1004548","0.0-6.0-1.38","2886452","co38821","norming","","","","","","",""
"6213.729999999865","","","post_mooney1_questions","survey-likert","274","1010763","0.0-6.0-2.38","2886452","co38821","norming","","","{""curiosity"":5,""confidence"":0}","[0,1]","../img/tt/1161tt.jpg","",""
"1318.2600000000093","","","recognition","survey-text","275","1012083","0.0-6.0-3.38","2886452","co38821","norming","","","{""guess"":""""}","","../img/tt/1161tt.jpg","",""
"null","../img/gs/1161gs.jpg","null","reveal","image-keyboard-response","276","1014093","0.0-6.0-4.38","2886452","co38821","norming","","","","","","",""
"null","../img/tt/1161tt.jpg","null","mooney2","image-keyboard-response","277","1016098","0.0-6.0-5.38","2886452","co38821","norming","","","","","","",""
"4175.560000000172","","","post_reveal_questions","survey-likert","278","1020275","0.0-6.0-6.38","2886452","co38821","norming","","","{""aha"":2}","[0]","../img/tt/1161tt.jpg","",""
"null","<div style=""font-size:60px;""> </div>","null","fixation","html-keyboard-response","279","1020476","0.0-6.0-0.39","2886452","co38821","norming","","","","","","",""
"null","../img/tt/1270tt.jpg","null","mooney1","image-keyboard-response","280","1023484","0.0-6.0-1.39","2886452","co38821","norming","","","","","","",""
"8718.724999999977","","","post_mooney1_questions","survey-likert","281","1032207","0.0-6.0-2.39","2886452","co38821","norming","","","{""curiosity"":4,""confidence"":0}","[0,1]","../img/tt/1270tt.jpg","",""
"406.2449999998789","","","recognition","survey-text","282","1032615","0.0-6.0-3.39","2886452","co38821","norming","","","{""guess"":""""}","","../img/tt/1270tt.jpg","",""
"null","../img/gs/1270gs.jpg","null","reveal","image-keyboard-response","283","1034622","0.0-6.0-4.39","2886452","co38821","norming","","","","","","",""
"null","../img/tt/1270tt.jpg","null","mooney2","image-keyboard-response","284","1036626","0.0-6.0-5.39","2886452","co38821","norming","","","","","","",""
"3931.3000000000466","","","post_reveal_questions","survey-likert","285","1040559","0.0-6.0-6.39","2886452","co38821","norming","","","{""aha"":5}","[0]","../img/tt/1270tt.jpg","",""
"null","<div style=""font-size:60px;""> </div>","null","fixation","html-keyboard-response","286","1040767","0.0-6.0-0.40","2886452","co38821","norming","","","","","","",""
"null","../img/tt/1061tt.jpg","null","mooney1","image-keyboard-response","287","1043769","0.0-6.0-1.40","2886452","co38821","norming","","","","","","",""
"5932.149999999907","","","post_mooney1_questions","survey-likert","288","1049702","0.0-6.0-2.40","2886452","co38821","norming","","","{""curiosity"":6,""confidence"":4}","[0,1]","../img/tt/1061tt.jpg","",""
"5054.529999999795","","","recognition","survey-text","289","1054759","0.0-6.0-3.40","2886452","co38821","norming","","","{""guess"":""basketballers""}","","../img/tt/1061tt.jpg","",""
"null","../img/gs/1061gs.jpg","null","reveal","image-keyboard-response","290","1056760","0.0-6.0-4.40","2886452","co38821","norming","","","","","","",""
"null","../img/tt/1061tt.jpg","null","mooney2","image-keyboard-response","291","1058762","0.0-6.0-5.40","2886452","co38821","norming","","","","","","",""
"2786.344999999972","","","post_reveal_questions","survey-likert","292","1061551","0.0-6.0-6.40","2886452","co38821","norming","","","{""aha"":3}","[0]","../img/tt/1061tt.jpg","",""
"null","<div style=""font-size:60px;""> </div>","null","fixation","html-keyboard-response","293","1061754","0.0-6.0-0.41","2886452","co38821","norming","","","","","","",""
"null","../img/tt/273tt.jpg","null","mooney1","image-keyboard-response","294","1064758","0.0-6.0-1.41","2886452","co38821","norming","","","","","","",""
"8064.149999999907","","","post_mooney1_questions","survey-likert","295","1072823","0.0-6.0-2.41","2886452","co38821","norming","","","{""curiosity"":4,""confidence"":0}","[0,1]","../img/tt/273tt.jpg","",""
"3773.899999999907","","","recognition","survey-text","296","1076598","0.0-6.0-3.41","2886452","co38821","norming","","","{""guess"":""uurwerk""}","","../img/tt/273tt.jpg","",""
"null","../img/gs/273gs.jpg","null","reveal","image-keyboard-response","297","1078604","0.0-6.0-4.41","2886452","co38821","norming","","","","","","",""
"null","../img/tt/273tt.jpg","null","mooney2","image-keyboard-response","298","1080609","0.0-6.0-5.41","2886452","co38821","norming","","","","","","",""
"2355.385000000242","","","post_reveal_questions","survey-likert","299","1082967","0.0-6.0-6.41","2886452","co38821","norming","","","{""aha"":4}","[0]","../img/tt/273tt.jpg","",""
"null","<div style=""font-size:60px;""> </div>","null","fixation","html-keyboard-response","300","1083168","0.0-6.0-0.42","2886452","co38821","norming","","","","","","",""
"null","../img/tt/020tt.jpg","null","mooney1","image-keyboard-response","301","1086176","0.0-6.0-1.42","2886452","co38821","norming","","","","","","",""
"8586.880000000121","","","post_mooney1_questions","survey-likert","302","1094761","0.0-6.0-2.42","2886452","co38821","norming","","","{""curiosity"":4,""confidence"":3}","[0,1]","../img/tt/020tt.jpg","",""
"6677.979999999981","","","recognition","survey-text","303","1101441","0.0-6.0-3.42","2886452","co38821","norming","","","{""guess"":""bebaarde man""}","","../img/tt/020tt.jpg","",""
"null","../img/gs/020gs.jpg","null","reveal","image-keyboard-response","304","1103444","0.0-6.0-4.42","2886452","co38821","norming","","","","","","",""
"null","../img/tt/020tt.jpg","null","mooney2","image-keyboard-response","305","1105448","0.0-6.0-5.42","2886452","co38821","norming","","","","","","",""
"4656.185000000056","","","post_reveal_questions","survey-likert","306","1110106","0.0-6.0-6.42","2886452","co38821","norming","","","{""aha"":5}","[0]","../img/tt/020tt.jpg","",""
"null","<div style=""font-size:60px;""> </div>","null","fixation","html-keyboard-response","307","1110313","0.0-6.0-0.43","2886452","co38821","norming","","","","","","",""
"null","../img/tt/442tt.jpg","null","mooney1","image-keyboard-response","308","1113319","0.0-6.0-1.43","2886452","co38821","norming","","","","","","",""
"5778.375","","","post_mooney1_questions","survey-likert","309","1119106","0.0-6.0-2.43","2886452","co38821","norming","","","{""curiosity"":6,""confidence"":0}","[0,1]","../img/tt/442tt.jpg","",""
"5494.014999999898","","","recognition","survey-text","310","1124601","0.0-6.0-3.43","2886452","co38821","norming","","","{""guess"":""lelie""}","","../img/tt/442tt.jpg","",""
"null","../img/gs/442gs.jpg","null","reveal","image-keyboard-response","311","1126603","0.0-6.0-4.43","2886452","co38821","norming","","","","","","",""
"null","../img/tt/442tt.jpg","null","mooney2","image-keyboard-response","312","1128605","0.0-6.0-5.43","2886452","co38821","norming","","","","","","",""
"2466.0850000001956","","","post_reveal_questions","survey-likert","313","1131073","0.0-6.0-6.43","2886452","co38821","norming","","","{""aha"":1}","[0]","../img/tt/442tt.jpg","",""
"null","<div style=""font-size:60px;""> </div>","null","fixation","html-keyboard-response","314","1131274","0.0-6.0-0.44","2886452","co38821","norming","","","","","","",""
"null","../img/tt/1097tt.jpg","null","mooney1","image-keyboard-response","315","1134286","0.0-6.0-1.44","2886452","co38821","norming","","","","","","",""
"5856.545000000158","","","post_mooney1_questions","survey-likert","316","1140146","0.0-6.0-2.44","2886452","co38821","norming","","","{""curiosity"":5,""confidence"":6}","[0,1]","../img/tt/1097tt.jpg","",""
"5429.77500000014","","","recognition","survey-text","317","1145577","0.0-6.0-3.44","2886452","co38821","norming","","","{""guess"":""peddelsurfer""}","","../img/tt/1097tt.jpg","",""
"null","../img/gs/1097gs.jpg","null","reveal","image-keyboard-response","318","1147587","0.0-6.0-4.44","2886452","co38821","norming","","","","","","",""
"null","../img/tt/1097tt.jpg","null","mooney2","image-keyboard-response","319","1149600","0.0-6.0-5.44","2886452","co38821","norming","","","","","","",""
"3114.844999999972","","","post_reveal_questions","survey-likert","320","1152716","0.0-6.0-6.44","2886452","co38821","norming","","","{""aha"":6}","[0]","../img/tt/1097tt.jpg","",""
"null","<div style=""font-size:60px;""> </div>","null","fixation","html-keyboard-response","321","1152922","0.0-6.0-0.45","2886452","co38821","norming","","","","","","",""
"null","../img/tt/1186tt.jpg","null","mooney1","image-keyboard-response","322","1155934","0.0-6.0-1.45","2886452","co38821","norming","","","","","","",""
"6379.574999999953","","","post_mooney1_questions","survey-likert","323","1162317","0.0-6.0-2.45","2886452","co38821","norming","","","{""curiosity"":6,""confidence"":4}","[0,1]","../img/tt/1186tt.jpg","",""
"3557.8299999998417","","","recognition","survey-text","324","1165876","0.0-6.0-3.45","2886452","co38821","norming","","","{""guess"":""cowboy""}","","../img/tt/1186tt.jpg","",""
"null","../img/gs/1186gs.jpg","null","reveal","image-keyboard-response","325","1167887","0.0-6.0-4.45","2886452","co38821","norming","","","","","","",""
"null","../img/tt/1186tt.jpg","null","mooney2","image-keyboard-response","326","1169892","0.0-6.0-5.45","2886452","co38821","norming","","","","","","",""
"3133.839999999851","","","post_reveal_questions","survey-likert","327","1173028","0.0-6.0-6.45","2886452","co38821","norming","","","{""aha"":4}","[0]","../img/tt/1186tt.jpg","",""
"null","<div style=""font-size:60px;""> </div>","null","fixation","html-keyboard-response","328","1173231","0.0-6.0-0.46","2886452","co38821","norming","","","","","","",""
"null","../img/tt/590tt.jpg","null","mooney1","image-keyboard-response","329","1176242","0.0-6.0-1.46","2886452","co38821","norming","","","","","","",""
"6374.610000000102","","","post_mooney1_questions","survey-likert","330","1182620","0.0-6.0-2.46","2886452","co38821","norming","","","{""curiosity"":6,""confidence"":1}","[0,1]","../img/tt/590tt.jpg","",""
"2981.6150000002235","","","recognition","survey-text","331","1185604","0.0-6.0-3.46","2886452","co38821","norming","","","{""guess"":""pianist""}","","../img/tt/590tt.jpg","",""
"null","../img/gs/590gs.jpg","null","reveal","image-keyboard-response","332","1187609","0.0-6.0-4.46","2886452","co38821","norming","","","","","","",""
"null","../img/tt/590tt.jpg","null","mooney2","image-keyboard-response","333","1189619","0.0-6.0-5.46","2886452","co38821","norming","","","","","","",""
"3279.590000000084","","","post_reveal_questions","survey-likert","334","1192900","0.0-6.0-6.46","2886452","co38821","norming","","","{""aha"":5}","[0]","../img/tt/590tt.jpg","",""
"null","<div style=""font-size:60px;""> </div>","null","fixation","html-keyboard-response","335","1193106","0.0-6.0-0.47","2886452","co38821","norming","","","","","","",""
"null","../img/tt/315tt.jpg","null","mooney1","image-keyboard-response","336","1196114","0.0-6.0-1.47","2886452","co38821","norming","","","","","","",""
"5607.030000000028","","","post_mooney1_questions","survey-likert","337","1201725","0.0-6.0-2.47","2886452","co38821","norming","","","{""curiosity"":3,""confidence"":2}","[0,1]","../img/tt/315tt.jpg","",""
"2205.4550000000745","","","recognition","survey-text","338","1203932","0.0-6.0-3.47","2886452","co38821","norming","","","{""guess"":""bij""}","","../img/tt/315tt.jpg","",""
"null","../img/gs/315gs.jpg","null","reveal","image-keyboard-response","339","1205933","0.0-6.0-4.47","2886452","co38821","norming","","","","","","",""
"null","../img/tt/315tt.jpg","null","mooney2","image-keyboard-response","340","1207935","0.0-6.0-5.47","2886452","co38821","norming","","","","","","",""
"2586.965000000084","","","post_reveal_questions","survey-likert","341","1210517","0.0-6.0-6.47","2886452","co38821","norming","","","{""aha"":1}","[0]","../img/tt/315tt.jpg","",""
"null","<div style=""font-size:60px;""> </div>","null","fixation","html-keyboard-response","342","1210725","0.0-6.0-0.48","2886452","co38821","norming","","","","","","",""
"null","../img/tt/1181tt.jpg","null","mooney1","image-keyboard-response","343","1213729","0.0-6.0-1.48","2886452","co38821","norming","","","","","","",""
"7569.119999999879","","","post_mooney1_questions","survey-likert","344","1221301","0.0-6.0-2.48","2886452","co38821","norming","","","{""curiosity"":5,""confidence"":2}","[0,1]","../img/tt/1181tt.jpg","",""
"3174.4550000003073","","","recognition","survey-text","345","1224477","0.0-6.0-3.48","2886452","co38821","norming","","","{""guess"":""honkbalspeler""}","","../img/tt/1181tt.jpg","",""
"null","../img/gs/1181gs.jpg","null","reveal","image-keyboard-response","346","1226481","0.0-6.0-4.48","2886452","co38821","norming","","","","","","",""
"null","../img/tt/1181tt.jpg","null","mooney2","image-keyboard-response","347","1228492","0.0-6.0-5.48","2886452","co38821","norming","","","","","","",""
"2966.644999999786","","","post_reveal_questions","survey-likert","348","1231461","0.0-6.0-6.48","2886452","co38821","norming","","","{""aha"":5}","[0]","../img/tt/1181tt.jpg","",""
"null","<div style=""font-size:60px;""> </div>","null","fixation","html-keyboard-response","349","1231671","0.0-6.0-0.49","2886452","co38821","norming","","","","","","",""
"null","../img/tt/1107tt.jpg","null","mooney1","image-keyboard-response","350","1234672","0.0-6.0-1.49","2886452","co38821","norming","","","","","","",""
"5825.854999999981","","","post_mooney1_questions","survey-likert","351","1240502","0.0-6.0-2.49","2886452","co38821","norming","","","{""curiosity"":5,""confidence"":0}","[0,1]","../img/tt/1107tt.jpg","",""
"1350.0150000001304","","","recognition","survey-text","352","1241853","0.0-6.0-3.49","2886452","co38821","norming","","","{""guess"":""kat""}","","../img/tt/1107tt.jpg","",""
"null","../img/gs/1107gs.jpg","null","reveal","image-keyboard-response","353","1243862","0.0-6.0-4.49","2886452","co38821","norming","","","","","","",""
"null","../img/tt/1107tt.jpg","null","mooney2","image-keyboard-response","354","1245864","0.0-6.0-5.49","2886452","co38821","norming","","","","","","",""
"2954.6100000001024","","","post_reveal_questions","survey-likert","355","1248821","0.0-6.0-6.49","2886452","co38821","norming","","","{""aha"":6}","[0]","../img/tt/1107tt.jpg","",""
"null","<div style=""font-size:60px;""> </div>","null","fixation","html-keyboard-response","356","1249031","0.0-6.0-0.50","2886452","co38821","norming","","","","","","",""
"null","../img/tt/1269tt.jpg","null","mooney1","image-keyboard-response","357","1252042","0.0-6.0-1.50","2886452","co38821","norming","","","","","","",""
"4512.454999999842","","","post_mooney1_questions","survey-likert","358","1256557","0.0-6.0-2.50","2886452","co38821","norming","","","{""curiosity"":0,""confidence"":6}","[0,1]","../img/tt/1269tt.jpg","",""
"2606.2600000000093","","","recognition","survey-text","359","1259165","0.0-6.0-3.50","2886452","co38821","norming","","","{""guess"":""eekhoorn""}","","../img/tt/1269tt.jpg","",""
"null","../img/gs/1269gs.jpg","null","reveal","image-keyboard-response","360","1261168","0.0-6.0-4.50","2886452","co38821","norming","","","","","","",""
"null","../img/tt/1269tt.jpg","null","mooney2","image-keyboard-response","361","1263169","0.0-6.0-5.50","2886452","co38821","norming","","","","","","",""
"2969.3599999998696","","","post_reveal_questions","survey-likert","362","1266141","0.0-6.0-6.50","2886452","co38821","norming","","","{""aha"":4}","[0]","../img/tt/1269tt.jpg","",""
"null","<div style=""font-size:60px;""> </div>","null","fixation","html-keyboard-response","363","1266345","0.0-6.0-0.51","2886452","co38821","norming","","","","","","",""
"null","../img/tt/1196tt.jpg","null","mooney1","image-keyboard-response","364","1269356","0.0-6.0-1.51","2886452","co38821","norming","","","","","","",""
"7013.920000000158","","","post_mooney1_questions","survey-likert","365","1276379","0.0-6.0-2.51","2886452","co38821","norming","","","{""curiosity"":6,""confidence"":2}","[0,1]","../img/tt/1196tt.jpg","",""
"8470.155000000028","","","recognition","survey-text","366","1284851","0.0-6.0-3.51","2886452","co38821","norming","","","{""guess"":""american footballspeler""}","","../img/tt/1196tt.jpg","",""
"null","../img/gs/1196gs.jpg","null","reveal","image-keyboard-response","367","1286853","0.0-6.0-4.51","2886452","co38821","norming","","","","","","",""
"null","../img/tt/1196tt.jpg","null","mooney2","image-keyboard-response","368","1288855","0.0-6.0-5.51","2886452","co38821","norming","","","","","","",""
"3344.6450000000186","","","post_reveal_questions","survey-likert","369","1292203","0.0-6.0-6.51","2886452","co38821","norming","","","{""aha"":2}","[0]","../img/tt/1196tt.jpg","",""
"null","<div style=""font-size:60px;""> </div>","null","fixation","html-keyboard-response","370","1292404","0.0-6.0-0.52","2886452","co38821","norming","","","","","","",""
"null","../img/tt/515tt.jpg","null","mooney1","image-keyboard-response","371","1295411","0.0-6.0-1.52","2886452","co38821","norming","","","","","","",""
"7782.694999999832","","","post_mooney1_questions","survey-likert","372","1303195","0.0-6.0-2.52","2886452","co38821","norming","","","{""curiosity"":5,""confidence"":3}","[0,1]","../img/tt/515tt.jpg","",""
"2477.850000000093","","","recognition","survey-text","373","1305674","0.0-6.0-3.52","2886452","co38821","norming","","","{""guess"":""boek""}","","../img/tt/515tt.jpg","",""
"null","../img/gs/515gs.jpg","null","reveal","image-keyboard-response","374","1307681","0.0-6.0-4.52","2886452","co38821","norming","","","","","","",""
"null","../img/tt/515tt.jpg","null","mooney2","image-keyboard-response","375","1309693","0.0-6.0-5.52","2886452","co38821","norming","","","","","","",""
"2435.2600000000093","","","post_reveal_questions","survey-likert","376","1312130","0.0-6.0-6.52","2886452","co38821","norming","","","{""aha"":4}","[0]","../img/tt/515tt.jpg","",""
"null","<div style=""font-size:60px;""> </div>","null","fixation","html-keyboard-response","377","1312336","0.0-6.0-0.53","2886452","co38821","norming","","","","","","",""
"null","../img/tt/112tt.jpg","null","mooney1","image-keyboard-response","378","1315347","0.0-6.0-1.53","2886452","co38821","norming","","","","","","",""
"6492.25","","","post_mooney1_questions","survey-likert","379","1321843","0.0-6.0-2.53","2886452","co38821","norming","","","{""curiosity"":6,""confidence"":3}","[0,1]","../img/tt/112tt.jpg","",""
"3174.024999999907","","","recognition","survey-text","380","1325018","0.0-6.0-3.53","2886452","co38821","norming","","","{""guess"":""fles wijn""}","","../img/tt/112tt.jpg","",""
"null","../img/gs/112gs.jpg","null","reveal","image-keyboard-response","381","1327029","0.0-6.0-4.53","2886452","co38821","norming","","","","","","",""
"null","../img/tt/112tt.jpg","null","mooney2","image-keyboard-response","382","1329030","0.0-6.0-5.53","2886452","co38821","norming","","","","","","",""
"2785.6200000001118","","","post_reveal_questions","survey-likert","383","1331819","0.0-6.0-6.53","2886452","co38821","norming","","","{""aha"":4}","[0]","../img/tt/112tt.jpg","",""
"null","<div style=""font-size:60px;""> </div>","null","fixation","html-keyboard-response","384","1332026","0.0-6.0-0.54","2886452","co38821","norming","","","","","","",""
"null","../img/tt/580tt.jpg","null","mooney1","image-keyboard-response","385","1335036","0.0-6.0-1.54","2886452","co38821","norming","","","","","","",""
"6623.334999999963","","","post_mooney1_questions","survey-likert","386","1341663","0.0-6.0-2.54","2886452","co38821","norming","","","{""curiosity"":2,""confidence"":0}","[0,1]","../img/tt/580tt.jpg","",""
"493.8950000000186","","","recognition","survey-text","387","1342158","0.0-6.0-3.54","2886452","co38821","norming","","","{""guess"":""""}","","../img/tt/580tt.jpg","",""
"null","../img/gs/580gs.jpg","null","reveal","image-keyboard-response","388","1344164","0.0-6.0-4.54","2886452","co38821","norming","","","","","","",""
"null","../img/tt/580tt.jpg","null","mooney2","image-keyboard-response","389","1346168","0.0-6.0-5.54","2886452","co38821","norming","","","","","","",""
"2868.2099999999627","","","post_reveal_questions","survey-likert","390","1349038","0.0-6.0-6.54","2886452","co38821","norming","","","{""aha"":6}","[0]","../img/tt/580tt.jpg","",""
"null","<div style=""font-size:60px;""> </div>","null","fixation","html-keyboard-response","391","1349240","0.0-6.0-0.55","2886452","co38821","norming","","","","","","",""
"null","../img/tt/1078tt.jpg","null","mooney1","image-keyboard-response","392","1352253","0.0-6.0-1.55","2886452","co38821","norming","","","","","","",""
"6062.339999999851","","","post_mooney1_questions","survey-likert","393","1358318","0.0-6.0-2.55","2886452","co38821","norming","","","{""curiosity"":3,""confidence"":6}","[0,1]","../img/tt/1078tt.jpg","",""
"1838.2199999997392","","","recognition","survey-text","394","1360158","0.0-6.0-3.55","2886452","co38821","norming","","","{""guess"":""skater""}","","../img/tt/1078tt.jpg","",""
"null","../img/gs/1078gs.jpg","null","reveal","image-keyboard-response","395","1362160","0.0-6.0-4.55","2886452","co38821","norming","","","","","","",""
"null","../img/tt/1078tt.jpg","null","mooney2","image-keyboard-response","396","1364162","0.0-6.0-5.55","2886452","co38821","norming","","","","","","",""
"2473.4549999998417","","","post_reveal_questions","survey-likert","397","1366638","0.0-6.0-6.55","2886452","co38821","norming","","","{""aha"":5}","[0]","../img/tt/1078tt.jpg","",""
"null","<div style=""font-size:60px;""> </div>","null","fixation","html-keyboard-response","398","1366847","0.0-6.0-0.56","2886452","co38821","norming","","","","","","",""
"null","../img/tt/318tt.jpg","null","mooney1","image-keyboard-response","399","1369852","0.0-6.0-1.56","2886452","co38821","norming","","","","","","",""
"6366.65000000014","","","post_mooney1_questions","survey-likert","400","1376222","0.0-6.0-2.56","2886452","co38821","norming","","","{""curiosity"":4,""confidence"":2}","[0,1]","../img/tt/318tt.jpg","",""
"6342.25","","","recognition","survey-text","401","1382566","0.0-6.0-3.56","2886452","co38821","norming","","","{""guess"":""koptelefoon jongen""}","","../img/tt/318tt.jpg","",""
"null","../img/gs/318gs.jpg","null","reveal","image-keyboard-response","402","1384570","0.0-6.0-4.56","2886452","co38821","norming","","","","","","",""
"null","../img/tt/318tt.jpg","null","mooney2","image-keyboard-response","403","1386572","0.0-6.0-5.56","2886452","co38821","norming","","","","","","",""
"2392.689999999944","","","post_reveal_questions","survey-likert","404","1388966","0.0-6.0-6.56","2886452","co38821","norming","","","{""aha"":6}","[0]","../img/tt/318tt.jpg","",""
"null","<div style=""font-size:60px;""> </div>","null","fixation","html-keyboard-response","405","1389170","0.0-6.0-0.57","2886452","co38821","norming","","","","","","",""
"null","../img/tt/1276tt.jpg","null","mooney1","image-keyboard-response","406","1392178","0.0-6.0-1.57","2886452","co38821","norming","","","","","","",""
"5001.139999999898","","","post_mooney1_questions","survey-likert","407","1397182","0.0-6.0-2.57","2886452","co38821","norming","","","{""curiosity"":6,""confidence"":0}","[0,1]","../img/tt/1276tt.jpg","",""
"2357.530000000028","","","recognition","survey-text","408","1399542","0.0-6.0-3.57","2886452","co38821","norming","","","{""guess"":""vogel""}","","../img/tt/1276tt.jpg","",""
"null","../img/gs/1276gs.jpg","null","reveal","image-keyboard-response","409","1401547","0.0-6.0-4.57","2886452","co38821","norming","","","","","","",""
"null","../img/tt/1276tt.jpg","null","mooney2","image-keyboard-response","410","1403549","0.0-6.0-5.57","2886452","co38821","norming","","","","","","",""
"2984.244999999879","","","post_reveal_questions","survey-likert","411","1406534","0.0-6.0-6.57","2886452","co38821","norming","","","{""aha"":0}","[0]","../img/tt/1276tt.jpg","",""
"null","<div style=""font-size:60px;""> </div>","null","fixation","html-keyboard-response","412","1406735","0.0-6.0-0.58","2886452","co38821","norming","","","","","","",""
"null","../img/tt/524tt.jpg","null","mooney1","image-keyboard-response","413","1409738","0.0-6.0-1.58","2886452","co38821","norming","","","","","","",""
"5512.479999999981","","","post_mooney1_questions","survey-likert","414","1415254","0.0-6.0-2.58","2886452","co38821","norming","","","{""curiosity"":4,""confidence"":1}","[0,1]","../img/tt/524tt.jpg","",""
"3046.2949999999255","","","recognition","survey-text","415","1418302","0.0-6.0-3.58","2886452","co38821","norming","","","{""guess"":""olifant""}","","../img/tt/524tt.jpg","",""
"null","../img/gs/524gs.jpg","null","reveal","image-keyboard-response","416","1420305","0.0-6.0-4.58","2886452","co38821","norming","","","","","","",""
"null","../img/tt/524tt.jpg","null","mooney2","image-keyboard-response","417","1422310","0.0-6.0-5.58","2886452","co38821","norming","","","","","","",""
"2477.570000000065","","","post_reveal_questions","survey-likert","418","1424790","0.0-6.0-6.58","2886452","co38821","norming","","","{""aha"":0}","[0]","../img/tt/524tt.jpg","",""
"null","<div style=""font-size:60px;""> </div>","null","fixation","html-keyboard-response","419","1424991","0.0-6.0-0.59","2886452","co38821","norming","","","","","","",""
"null","../img/tt/1142tt.jpg","null","mooney1","image-keyboard-response","420","1427999","0.0-6.0-1.59","2886452","co38821","norming","","","","","","",""
"6523.989999999758","","","post_mooney1_questions","survey-likert","421","1434526","0.0-6.0-2.59","2886452","co38821","norming","","","{""curiosity"":5,""confidence"":4}","[0,1]","../img/tt/1142tt.jpg","",""
"6438.054999999935","","","recognition","survey-text","422","1440966","0.0-6.0-3.59","2886452","co38821","norming","","","{""guess"":""verwerpster""}","","../img/tt/1142tt.jpg","",""
"null","../img/gs/1142gs.jpg","null","reveal","image-keyboard-response","423","1442971","0.0-6.0-4.59","2886452","co38821","norming","","","","","","",""
"null","../img/tt/1142tt.jpg","null","mooney2","image-keyboard-response","424","1444973","0.0-6.0-5.59","2886452","co38821","norming","","","","","","",""
"1940.3550000002142","","","post_reveal_questions","survey-likert","425","1446918","0.0-6.0-6.59","2886452","co38821","norming","","","{""aha"":4}","[0]","../img/tt/1142tt.jpg","",""
"null","<div style=""font-size:60px;""> </div>","null","fixation","html-keyboard-response","426","1447124","0.0-6.0-0.60","2886452","co38821","norming","","","","","","",""
"null","../img/tt/001tt.jpg","null","mooney1","image-keyboard-response","427","1450127","0.0-6.0-1.60","2886452","co38821","norming","","","","","","",""
"4627.614999999991","","","post_mooney1_questions","survey-likert","428","1454758","0.0-6.0-2.60","2886452","co38821","norming","","","{""curiosity"":4,""confidence"":5}","[0,1]","../img/tt/001tt.jpg","",""
"2710.1700000001583","","","recognition","survey-text","429","1457470","0.0-6.0-3.60","2886452","co38821","norming","","","{""guess"":""uil""}","","../img/tt/001tt.jpg","",""
"null","../img/gs/001gs.jpg","null","reveal","image-keyboard-response","430","1459474","0.0-6.0-4.60","2886452","co38821","norming","","","","","","",""
"null","../img/tt/001tt.jpg","null","mooney2","image-keyboard-response","431","1461482","0.0-6.0-5.60","2886452","co38821","norming","","","","","","",""
"4754.655000000028","","","post_reveal_questions","survey-likert","432","1466238","0.0-6.0-6.60","2886452","co38821","norming","","","{""aha"":5}","[0]","../img/tt/001tt.jpg","",""
"null","<div style=""font-size:60px;""> </div>","null","fixation","html-keyboard-response","433","1466446","0.0-6.0-0.61","2886452","co38821","norming","","","","","","",""
"null","../img/tt/096tt.jpg","null","mooney1","image-keyboard-response","434","1469449","0.0-6.0-1.61","2886452","co38821","norming","","","","","","",""
"9609.625","","","post_mooney1_questions","survey-likert","435","1479062","0.0-6.0-2.61","2886452","co38821","norming","","","{""curiosity"":1,""confidence"":6}","[0,1]","../img/tt/096tt.jpg","",""
"1726.0849999999627","","","recognition","survey-text","436","1480790","0.0-6.0-3.61","2886452","co38821","norming","","","{""guess"":""piano""}","","../img/tt/096tt.jpg","",""
"null","../img/gs/096gs.jpg","null","reveal","image-keyboard-response","437","1482793","0.0-6.0-4.61","2886452","co38821","norming","","","","","","",""
"null","../img/tt/096tt.jpg","null","mooney2","image-keyboard-response","438","1484802","0.0-6.0-5.61","2886452","co38821","norming","","","","","","",""
"3184.6700000001583","","","post_reveal_questions","survey-likert","439","1487990","0.0-6.0-6.61","2886452","co38821","norming","","","{""aha"":0}","[0]","../img/tt/096tt.jpg","",""
"null","<div style=""font-size:60px;""> </div>","null","fixation","html-keyboard-response","440","1488191","0.0-6.0-0.62","2886452","co38821","norming","","","","","","",""
"null","../img/tt/1037tt.jpg","null","mooney1","image-keyboard-response","441","1491194","0.0-6.0-1.62","2886452","co38821","norming","","","","","","",""
"5320.310000000056","","","post_mooney1_questions","survey-likert","442","1496518","0.0-6.0-2.62","2886452","co38821","norming","","","{""curiosity"":2,""confidence"":5}","[0,1]","../img/tt/1037tt.jpg","",""
"3069.8050000001676","","","recognition","survey-text","443","1499590","0.0-6.0-3.62","2886452","co38821","norming","","","{""guess"":""hond""}","","../img/tt/1037tt.jpg","",""
"null","../img/gs/1037gs.jpg","null","reveal","image-keyboard-response","444","1501598","0.0-6.0-4.62","2886452","co38821","norming","","","","","","",""
"null","../img/tt/1037tt.jpg","null","mooney2","image-keyboard-response","445","1503603","0.0-6.0-5.62","2886452","co38821","norming","","","","","","",""
"2425.780000000028","","","post_reveal_questions","survey-likert","446","1506030","0.0-6.0-6.62","2886452","co38821","norming","","","{""aha"":5}","[0]","../img/tt/1037tt.jpg","",""
"null","<div style=""font-size:60px;""> </div>","null","fixation","html-keyboard-response","447","1506236","0.0-6.0-0.63","2886452","co38821","norming","","","","","","",""
"null","../img/tt/1279tt.jpg","null","mooney1","image-keyboard-response","448","1509244","0.0-6.0-1.63","2886452","co38821","norming","","","","","","",""
"4518.354999999981","","","post_mooney1_questions","survey-likert","449","1513766","0.0-6.0-2.63","2886452","co38821","norming","","","{""curiosity"":6,""confidence"":0}","[0,1]","../img/tt/1279tt.jpg","",""
"1069.9499999999534","","","recognition","survey-text","450","1514838","0.0-6.0-3.63","2886452","co38821","norming","","","{""guess"":""""}","","../img/tt/1279tt.jpg","",""
"null","../img/gs/1279gs.jpg","null","reveal","image-keyboard-response","451","1516840","0.0-6.0-4.63","2886452","co38821","norming","","","","","","",""
"null","../img/tt/1279tt.jpg","null","mooney2","image-keyboard-response","452","1518849","0.0-6.0-5.63","2886452","co38821","norming","","","","","","",""
"3338.5049999998882","","","post_reveal_questions","survey-likert","453","1522190","0.0-6.0-6.63","2886452","co38821","norming","","","{""aha"":0}","[0]","../img/tt/1279tt.jpg","",""
"null","<div style=""font-size:60px;""> </div>","null","fixation","html-keyboard-response","454","1522392","0.0-6.0-0.64","2886452","co38821","norming","","","","","","",""
"null","../img/tt/080tt.jpg","null","mooney1","image-keyboard-response","455","1525403","0.0-6.0-1.64","2886452","co38821","norming","","","","","","",""
"4152.014999999898","","","post_mooney1_questions","survey-likert","456","1529558","0.0-6.0-2.64","2886452","co38821","norming","","","{""curiosity"":5,""confidence"":1}","[0,1]","../img/tt/080tt.jpg","",""
"3517.744999999879","","","recognition","survey-text","457","1533078","0.0-6.0-3.64","2886452","co38821","norming","","","{""guess"":""hondje""}","","../img/tt/080tt.jpg","",""
"null","../img/gs/080gs.jpg","null","reveal","image-keyboard-response","458","1535080","0.0-6.0-4.64","2886452","co38821","norming","","","","","","",""
"null","../img/tt/080tt.jpg","null","mooney2","image-keyboard-response","459","1537082","0.0-6.0-5.64","2886452","co38821","norming","","","","","","",""
"2848.8349999999627","","","post_reveal_questions","survey-likert","460","1539934","0.0-6.0-6.64","2886452","co38821","norming","","","{""aha"":5}","[0]","../img/tt/080tt.jpg","",""
"null","<div style=""font-size:60px;""> </div>","null","fixation","html-keyboard-response","461","1540139","0.0-6.0-0.65","2886452","co38821","norming","","","","","","",""
"null","../img/tt/496tt.jpg","null","mooney1","image-keyboard-response","462","1543144","0.0-6.0-1.65","2886452","co38821","norming","","","","","","",""
"5354.305000000168","","","post_mooney1_questions","survey-likert","463","1548502","0.0-6.0-2.65","2886452","co38821","norming","","","{""curiosity"":5,""confidence"":1}","[0,1]","../img/tt/496tt.jpg","",""
"2206.064999999944","","","recognition","survey-text","464","1550710","0.0-6.0-3.65","2886452","co38821","norming","","","{""guess"":""varken""}","","../img/tt/496tt.jpg","",""
"null","../img/gs/496gs.jpg","null","reveal","image-keyboard-response","465","1552717","0.0-6.0-4.65","2886452","co38821","norming","","","","","","",""
"null","../img/tt/496tt.jpg","null","mooney2","image-keyboard-response","466","1554729","0.0-6.0-5.65","2886452","co38821","norming","","","","","","",""
"3155.3000000002794","","","post_reveal_questions","survey-likert","467","1557886","0.0-6.0-6.65","2886452","co38821","norming","","","{""aha"":3}","[0]","../img/tt/496tt.jpg","",""
"null","<div style=""font-size:60px;""> </div>","null","fixation","html-keyboard-response","468","1558095","0.0-6.0-0.66","2886452","co38821","norming","","","","","","",""
"null","../img/tt/1087tt.jpg","null","mooney1","image-keyboard-response","469","1561104","0.0-6.0-1.66","2886452","co38821","norming","","","","","","",""
"6354.395000000019","","","post_mooney1_questions","survey-likert","470","1567462","0.0-6.0-2.66","2886452","co38821","norming","","","{""curiosity"":6,""confidence"":1}","[0,1]","../img/tt/1087tt.jpg","",""
"3141.994999999879","","","recognition","survey-text","471","1570606","0.0-6.0-3.66","2886452","co38821","norming","","","{""guess"":""luiaard""}","","../img/tt/1087tt.jpg","",""
"null","../img/gs/1087gs.jpg","null","reveal","image-keyboard-response","472","1572617","0.0-6.0-4.66","2886452","co38821","norming","","","","","","",""
"null","../img/tt/1087tt.jpg","null","mooney2","image-keyboard-response","473","1574626","0.0-6.0-5.66","2886452","co38821","norming","","","","","","",""
"2905.1350000000093","","","post_reveal_questions","survey-likert","474","1577534","0.0-6.0-6.66","2886452","co38821","norming","","","{""aha"":3}","[0]","../img/tt/1087tt.jpg","",""
"null","<div style=""font-size:60px;""> </div>","null","fixation","html-keyboard-response","475","1577740","0.0-6.0-0.67","2886452","co38821","norming","","","","","","",""
"null","../img/tt/121tt.jpg","null","mooney1","image-keyboard-response","476","1580751","0.0-6.0-1.67","2886452","co38821","norming","","","","","","",""
"5027.375000000233","","","post_mooney1_questions","survey-likert","477","1585782","0.0-6.0-2.67","2886452","co38821","norming","","","{""curiosity"":5,""confidence"":5}","[0,1]","../img/tt/121tt.jpg","",""
"4614.035000000149","","","recognition","survey-text","478","1590398","0.0-6.0-3.67","2886452","co38821","norming","","","{""guess"":""kangoeroe""}","","../img/tt/121tt.jpg","",""
"null","../img/gs/121gs.jpg","null","reveal","image-keyboard-response","479","1592406","0.0-6.0-4.67","2886452","co38821","norming","","","","","","",""
"null","../img/tt/121tt.jpg","null","mooney2","image-keyboard-response","480","1594418","0.0-6.0-5.67","2886452","co38821","norming","","","","","","",""
"2785.4000000001397","","","post_reveal_questions","survey-likert","481","1597206","0.0-6.0-6.67","2886452","co38821","norming","","","{""aha"":4}","[0]","../img/tt/121tt.jpg","",""
"null","<div style=""font-size:60px;""> </div>","null","fixation","html-keyboard-response","482","1597410","0.0-6.0-0.68","2886452","co38821","norming","","","","","","",""
"null","../img/tt/1366tt.jpg","null","mooney1","image-keyboard-response","483","1600416","0.0-6.0-1.68","2886452","co38821","norming","","","","","","",""
"5442.260000000009","","","post_mooney1_questions","survey-likert","484","1605862","0.0-6.0-2.68","2886452","co38821","norming","","","{""curiosity"":5,""confidence"":3}","[0,1]","../img/tt/1366tt.jpg","",""
"3157.874999999767","","","recognition","survey-text","485","1609022","0.0-6.0-3.68","2886452","co38821","norming","","","{""guess"":""kikker""}","","../img/tt/1366tt.jpg","",""
"null","../img/gs/1366gs.jpg","null","reveal","image-keyboard-response","486","1611028","0.0-6.0-4.68","2886452","co38821","norming","","","","","","",""
"null","../img/tt/1366tt.jpg","null","mooney2","image-keyboard-response","487","1613034","0.0-6.0-5.68","2886452","co38821","norming","","","","","","",""
"2304.570000000065","","","post_reveal_questions","survey-likert","488","1615342","0.0-6.0-6.68","2886452","co38821","norming","","","{""aha"":1}","[0]","../img/tt/1366tt.jpg","",""
"null","<div style=""font-size:60px;""> </div>","null","fixation","html-keyboard-response","489","1615544","0.0-6.0-0.69","2886452","co38821","norming","","","","","","",""
"null","../img/tt/019tt.jpg","null","mooney1","image-keyboard-response","490","1618551","0.0-6.0-1.69","2886452","co38821","norming","","","","","","",""
"4091.5500000000466","","","post_mooney1_questions","survey-likert","491","1622646","0.0-6.0-2.69","2886452","co38821","norming","","","{""curiosity"":4,""confidence"":4}","[0,1]","../img/tt/019tt.jpg","",""
"1893.719999999972","","","recognition","survey-text","492","1624542","0.0-6.0-3.69","2886452","co38821","norming","","","{""guess"":""tang""}","","../img/tt/019tt.jpg","",""
"null","../img/gs/019gs.jpg","null","reveal","image-keyboard-response","493","1626543","0.0-6.0-4.69","2886452","co38821","norming","","","","","","",""
"null","../img/tt/019tt.jpg","null","mooney2","image-keyboard-response","494","1628547","0.0-6.0-5.69","2886452","co38821","norming","","","","","","",""
"3175.905000000028","","","post_reveal_questions","survey-likert","495","1631726","0.0-6.0-6.69","2886452","co38821","norming","","","{""aha"":5}","[0]","../img/tt/019tt.jpg","",""
"null","<div style=""font-size:60px;""> </div>","null","fixation","html-keyboard-response","496","1631928","0.0-6.0-0.70","2886452","co38821","norming","","","","","","",""
"null","../img/tt/1227tt.jpg","null","mooney1","image-keyboard-response","497","1634938","0.0-6.0-1.70","2886452","co38821","norming","","","","","","",""
"5416.5200000002515","","","post_mooney1_questions","survey-likert","498","1640350","0.0-6.0-2.70","2886452","co38821","norming","","","{""curiosity"":6,""confidence"":5}","[0,1]","../img/tt/1227tt.jpg","",""
"3437.945000000065","","","recognition","survey-text","499","1643790","0.0-6.0-3.70","2886452","co38821","norming","","","{""guess"":""kalkoenen""}","","../img/tt/1227tt.jpg","",""
"null","../img/gs/1227gs.jpg","null","reveal","image-keyboard-response","500","1645798","0.0-6.0-4.70","2886452","co38821","norming","","","","","","",""
"null","../img/tt/1227tt.jpg","null","mooney2","image-keyboard-response","501","1647807","0.0-6.0-5.70","2886452","co38821","norming","","","","","","",""
"5092.100000000093","","","post_reveal_questions","survey-likert","502","1652902","0.0-6.0-6.70","2886452","co38821","norming","","","{""aha"":5}","[0]","../img/tt/1227tt.jpg","",""
"null","<div style=""font-size:60px;""> </div>","null","fixation","html-keyboard-response","503","1653108","0.0-6.0-0.71","2886452","co38821","norming","","","","","","",""
"null","../img/tt/124tt.jpg","null","mooney1","image-keyboard-response","504","1656114","0.0-6.0-1.71","2886452","co38821","norming","","","","","","",""
"9039.444999999832","","","post_mooney1_questions","survey-likert","505","1665158","0.0-6.0-2.71","2886452","co38821","norming","","","{""curiosity"":6,""confidence"":2}","[0,1]","../img/tt/124tt.jpg","",""
"1808.4499999999534","","","recognition","survey-text","506","1666974","0.0-6.0-3.71","2886452","co38821","norming","","","{""guess"":""koala""}","","../img/tt/124tt.jpg","",""
"null","../img/gs/124gs.jpg","null","reveal","image-keyboard-response","507","1668980","0.0-6.0-4.71","2886452","co38821","norming","","","","","","",""
"null","../img/tt/124tt.jpg","null","mooney2","image-keyboard-response","508","1670982","0.0-6.0-5.71","2886452","co38821","norming","","","","","","",""
"18012.64500000002","","","post_reveal_questions","survey-likert","509","1688998","0.0-6.0-6.71","2886452","co38821","norming","","","{""aha"":5}","[0]","../img/tt/124tt.jpg","",""
"null","<div style=""font-size:60px;""> </div>","null","fixation","html-keyboard-response","510","1689200","0.0-6.0-0.72","2886452","co38821","norming","","","","","","",""
"null","../img/tt/1268tt.jpg","null","mooney1","image-keyboard-response","511","1692203","0.0-6.0-1.72","2886452","co38821","norming","","","","","","",""
"5510.825000000186","","","post_mooney1_questions","survey-likert","512","1697721","0.0-6.0-2.72","2886452","co38821","norming","","","{""curiosity"":2,""confidence"":6}","[0,1]","../img/tt/1268tt.jpg","",""
"3230.0149999998976","","","recognition","survey-text","513","1700952","0.0-6.0-3.72","2886452","co38821","norming","","","{""guess"":""eekhoorn""}","","../img/tt/1268tt.jpg","",""
"null","../img/gs/1268gs.jpg","null","reveal","image-keyboard-response","514","1702957","0.0-6.0-4.72","2886452","co38821","norming","","","","","","",""
"null","../img/tt/1268tt.jpg","null","mooney2","image-keyboard-response","515","1704967","0.0-6.0-5.72","2886452","co38821","norming","","","","","","",""
"5054.445000000065","","","post_reveal_questions","survey-likert","516","1710024","0.0-6.0-6.72","2886452","co38821","norming","","","{""aha"":3}","[0]","../img/tt/1268tt.jpg","",""
"null","<div style=""font-size:60px;""> </div>","null","fixation","html-keyboard-response","517","1710233","0.0-6.0-0.73","2886452","co38821","norming","","","","","","",""
"null","../img/tt/1102tt.jpg","null","mooney1","image-keyboard-response","518","1713238","0.0-6.0-1.73","2886452","co38821","norming","","","","","","",""
"6151.229999999981","","","post_mooney1_questions","survey-likert","519","1719393","0.0-6.0-2.73","2886452","co38821","norming","","","{""curiosity"":5,""confidence"":0}","[0,1]","../img/tt/1102tt.jpg","",""
"494.21999999973923","","","recognition","survey-text","520","1719889","0.0-6.0-3.73","2886452","co38821","norming","","","{""guess"":""""}","","../img/tt/1102tt.jpg","",""
"null","../img/gs/1102gs.jpg","null","reveal","image-keyboard-response","521","1721898","0.0-6.0-4.73","2886452","co38821","norming","","","","","","",""
"null","../img/tt/1102tt.jpg","null","mooney2","image-keyboard-response","522","1723901","0.0-6.0-5.73","2886452","co38821","norming","","","","","","",""
"3960.2900000000373","","","post_reveal_questions","survey-likert","523","1727864","0.0-6.0-6.73","2886452","co38821","norming","","","{""aha"":4}","[0]","../img/tt/1102tt.jpg","",""
"null","<div style=""font-size:60px;""> </div>","null","fixation","html-keyboard-response","524","1728074","0.0-6.0-0.74","2886452","co38821","norming","","","","","","",""
"null","../img/tt/1116tt.jpg","null","mooney1","image-keyboard-response","525","1731082","0.0-6.0-1.74","2886452","co38821","norming","","","","","","",""
"6107.395000000019","","","post_mooney1_questions","survey-likert","526","1737193","0.0-6.0-2.74","2886452","co38821","norming","","","{""curiosity"":6,""confidence"":3}","[0,1]","../img/tt/1116tt.jpg","",""
"2869.869999999879","","","recognition","survey-text","527","1740064","0.0-6.0-3.74","2886452","co38821","norming","","","{""guess"":""vliegtuig""}","","../img/tt/1116tt.jpg","",""
"null","../img/gs/1116gs.jpg","null","reveal","image-keyboard-response","528","1742074","0.0-6.0-4.74","2886452","co38821","norming","","","","","","",""
"null","../img/tt/1116tt.jpg","null","mooney2","image-keyboard-response","529","1744080","0.0-6.0-5.74","2886452","co38821","norming","","","","","","",""
"3942.225000000093","","","post_reveal_questions","survey-likert","530","1748025","0.0-6.0-6.74","2886452","co38821","norming","","","{""aha"":6}","[0]","../img/tt/1116tt.jpg","",""
"null","<div style=""font-size:60px;""> </div>","null","fixation","html-keyboard-response","531","1748227","0.0-6.0-0.75","2886452","co38821","norming","","","","","","",""
"null","../img/tt/163tt.jpg","null","mooney1","image-keyboard-response","532","1751234","0.0-6.0-1.75","2886452","co38821","norming","","","","","","",""
"4210.880000000121","","","post_mooney1_questions","survey-likert","533","1755449","0.0-6.0-2.75","2886452","co38821","norming","","","{""curiosity"":4,""confidence"":6}","[0,1]","../img/tt/163tt.jpg","",""
"1678.4849999998696","","","recognition","survey-text","534","1757129","0.0-6.0-3.75","2886452","co38821","norming","","","{""guess"":""kikker""}","","../img/tt/163tt.jpg","",""
"null","../img/gs/163gs.jpg","null","reveal","image-keyboard-response","535","1759142","0.0-6.0-4.75","2886452","co38821","norming","","","","","","",""
"null","../img/tt/163tt.jpg","null","mooney2","image-keyboard-response","536","1761149","0.0-6.0-5.75","2886452","co38821","norming","","","","","","",""
"3782.7649999998976","","","post_reveal_questions","survey-likert","537","1764934","0.0-6.0-6.75","2886452","co38821","norming","","","{""aha"":5}","[0]","../img/tt/163tt.jpg","",""
"null","<div style=""font-size:60px;""> </div>","null","fixation","html-keyboard-response","538","1765144","0.0-6.0-0.76","2886452","co38821","norming","","","","","","",""
"null","../img/tt/1211tt.jpg","null","mooney1","image-keyboard-response","539","1768151","0.0-6.0-1.76","2886452","co38821","norming","","","","","","",""
"5804.270000000019","","","post_mooney1_questions","survey-likert","540","1773959","0.0-6.0-2.76","2886452","co38821","norming","","","{""curiosity"":5,""confidence"":4}","[0,1]","../img/tt/1211tt.jpg","",""
"1838.0200000000186","","","recognition","survey-text","541","1775798","0.0-6.0-3.76","2886452","co38821","norming","","","{""guess"":""golf""}","","../img/tt/1211tt.jpg","",""
"null","../img/gs/1211gs.jpg","null","reveal","image-keyboard-response","542","1777805","0.0-6.0-4.76","2886452","co38821","norming","","","","","","",""
"null","../img/tt/1211tt.jpg","null","mooney2","image-keyboard-response","543","1779814","0.0-6.0-5.76","2886452","co38821","norming","","","","","","",""
"1927.1800000001676","","","post_reveal_questions","survey-likert","544","1781742","0.0-6.0-6.76","2886452","co38821","norming","","","{""aha"":5}","[0]","../img/tt/1211tt.jpg","",""
"null","<div style=""font-size:60px;""> </div>","null","fixation","html-keyboard-response","545","1781953","0.0-6.0-0.77","2886452","co38821","norming","","","","","","",""
"null","../img/tt/1154tt.jpg","null","mooney1","image-keyboard-response","546","1784959","0.0-6.0-1.77","2886452","co38821","norming","","","","","","",""
"4331.77500000014","","","post_mooney1_questions","survey-likert","547","1789295","0.0-6.0-2.77","2886452","co38821","norming","","","{""curiosity"":4,""confidence"":1}","[0,1]","../img/tt/1154tt.jpg","",""
"3558.070000000065","","","recognition","survey-text","548","1792854","0.0-6.0-3.77","2886452","co38821","norming","","","{""guess"":""dinosaurus""}","","../img/tt/1154tt.jpg","",""
"null","../img/gs/1154gs.jpg","null","reveal","image-keyboard-response","549","1794862","0.0-6.0-4.77","2886452","co38821","norming","","","","","","",""
"null","../img/tt/1154tt.jpg","null","mooney2","image-keyboard-response","550","1796865","0.0-6.0-5.77","2886452","co38821","norming","","","","","","",""
"6610.319999999832","","","post_reveal_questions","survey-likert","551","1803478","0.0-6.0-6.77","2886452","co38821","norming","","","{""aha"":1}","[0]","../img/tt/1154tt.jpg","",""
