"rt","stimulus","key_press","test_part","trial_type","trial_index","time_elapsed","internal_node_id","totalTime","subject","experiment_name","button_pressed","success","responses","question_order","currentStim","old","correct"
"10736.469999999827","Welcome to the experiment. This is an online experiment so please don't close the tab/window until we say goodbye.  Press any key to begin.","13","instructions","html-keyboard-response","0","10782","0.0-0.0","2561504","co38710","norming","","","","","","",""
"3262.3849999999948","<div style='word-wrap: break-word; width: 900px'><h3>Please consider this information carefully before deciding whether to participate in this research</h3><ul style='text-align: left; font-size: .8em;'><li><b>Purpose of the research</b>: To examine how people process images.</li><li><b>What you will do in this research</b>:  Stimuli (images) will be presented on the computer and you will be asked different questions about them.</li><li><b>Time required</b>: Participation will take between 45 and 60 minutes to complete.</li><li><b>Risks</b>:  There are no anticipated risks associated with participating in this study. The effects of participating should be comparable to those you would experience from viewing a computer monitor for 30 minutes and using a mouse or keyboard.</li><li><b>Benefits</b>:  This study provides no benefits to you individually except for the credit. The study provides important information about the nature of perception and learning.</li><li><b>Confidentiality</b>:  Your participation in this study will remain confidential. No personally identifiable information will be associated with your data. Your de-identified data may be shared with other researchers and used in future projects.</li><li><b>Participation and withdrawal</b>:  Your participation in this study is completely voluntary and you may refuse to participate or you may choose to withdraw at any time without penalty.</li><li><b>How to contact the researchers</b>: If you have questions or concerns about your participation or payment, or want to request a summary of research findings, please contact Sander Van de Cruys (KU Leuven), at sander.vandecruys@kuleuven.be.</li></ul><p>The nature and purpose of this research have been sufficiently explained and I agree to participate in this study.  I understand that I am free to withdraw at any time without incurring any penalty.</p><p>Please consent by clicking the button below to continue. Otherwise, please exit the study at this time.</p></div>","","instructions","html-button-response","1","14046","0.0-1.0","2561504","co38710","norming","0","","","","","",""
"","","","instructions","fullscreen","2","17511","0.0-2.0","2561504","co38710","norming","","true","","","","",""
"34067.86000000102","","","sona","survey-html-form","3","51586","0.0-3.0","2561504","co38710","norming","","","[{""name"":""sonaid"",""value"":""38710""},{""name"":""debrief"",""value"":""yes""},{""name"":""datajoin"",""value"":""yes""}]","","","",""
"82874.49000000014","<div style='word-wrap: break-word; width: 900px'><h3>Instructions</h3><p>This experiment will have 3 parts. In the first part you will see a series of distorted images like the one below on the left. As you can see in the righthand image, the distorted images are derived from actual photographs. In what follows, you will <strong>briefly</strong> be presented with <strong>only</strong> the distorted image.</p> <div style='float: left; margin-right: 20px;'><img src='../img/018tt.jpg' height='250' width='250'></img></div><div style='float: right; margin-left: 20px;'><img src='../img/018gs.jpg' height='250' width='250'></img></div><p>Subsequently you will be asked a few questions about the image: One question on how <strong>curious</strong> you are about the solution and one on how <strong>confident</strong> you are that you know the solution.</p>Next, we ask you to make a guess on what is in the image. Note that it is OK to name just the <strong>basic level category</strong>. For example when you see a parrot in the image, 'parrot' will obviously be a correct answer but also correct is 'bird'. However, 'animal' will <strong>not</strong> be counted as a correct response. For the example above, 'rose' would be correct or 'flower', but not 'plant'. When soccer players are depicted, 'soccer', 'football', 'soccer players' will be correct, but not 'humans', 'outdoors', or 'sports'. You do not need to describe the image in full, just name the main object in it <strong>in one or two words</strong>. All images depict objects from one of the following broad level categories: animals, inanimate objects, plants, sports, vehicles, and food. Recognizing means knowing <strong>more</strong> than these broad labels for a given image. But we always encourage you to <strong>make a guess</strong> if you can. Note that you are allowed to use <strong>Dutch and English</strong> in your answers, whatever comes easiest for you.</p><p>Press any key to continue.</p></div>","13","instructions","html-keyboard-response","4","134458","0.0-4.0","2561504","co38710","norming","","","","","","",""
"145775.2300000011","<div style='word-wrap: break-word; width: 900px'><h3>Instructions</h3> <p>Next, the solution image will be revealed to you and you'll be asked to indicate how strong your <strong>aha-experience</strong> was after seeing the solution. This describes the positive feeling of the 'click' you sometimes experience, when the pieces of the 'puzzle' fall together and you suddenly have 'insight' in the image.</p><img src='aha.jpg' height='188' width='250'></img><p>Note that there are no right or wrong answers. We are interested in what <strong>you</strong> see in the image and how <strong>you</strong> feel about it.</p><p>Press any key to start the experiment.</p></div>","13","instructions","html-keyboard-response","5","280230","0.0-5.0","2561504","co38710","norming","","","","","","",""
"null","<div style=""font-size:60px;""> </div>","null","fixation","html-keyboard-response","6","280440","0.0-6.0-0.0","2561504","co38710","norming","","","","","","",""
"null","../img/tt/440tt.jpg","null","mooney1","image-keyboard-response","7","283444","0.0-6.0-1.0","2561504","co38710","norming","","","","","","",""
"7830.174999999173","","","post_mooney1_questions","survey-likert","8","291278","0.0-6.0-2.0","2561504","co38710","norming","","","{""curiosity"":3,""confidence"":1}","[0,1]","../img/tt/440tt.jpg","",""
"5893.530000001192","","","recognition","survey-text","9","297174","0.0-6.0-3.0","2561504","co38710","norming","","","{""guess"":""dog""}","","../img/tt/440tt.jpg","",""
"null","../img/gs/440gs.jpg","null","reveal","image-keyboard-response","10","299177","0.0-6.0-4.0","2561504","co38710","norming","","","","","","",""
"null","../img/tt/440tt.jpg","null","mooney2","image-keyboard-response","11","301183","0.0-6.0-5.0","2561504","co38710","norming","","","","","","",""
"5556.500000000582","","","post_reveal_questions","survey-likert","12","306742","0.0-6.0-6.0","2561504","co38710","norming","","","{""aha"":1}","[0]","../img/tt/440tt.jpg","",""
"null","<div style=""font-size:60px;""> </div>","null","fixation","html-keyboard-response","13","306952","0.0-6.0-0.1","2561504","co38710","norming","","","","","","",""
"null","../img/tt/1202tt.jpg","null","mooney1","image-keyboard-response","14","309962","0.0-6.0-1.1","2561504","co38710","norming","","","","","","",""
"8465.169999999518","","","post_mooney1_questions","survey-likert","15","318430","0.0-6.0-2.1","2561504","co38710","norming","","","{""curiosity"":1,""confidence"":1}","[0,1]","../img/tt/1202tt.jpg","",""
"6566.189999999595","","","recognition","survey-text","16","324998","0.0-6.0-3.1","2561504","co38710","norming","","","{""guess"":""dog""}","","../img/tt/1202tt.jpg","",""
"null","../img/gs/1202gs.jpg","null","reveal","image-keyboard-response","17","327004","0.0-6.0-4.1","2561504","co38710","norming","","","","","","",""
"null","../img/tt/1202tt.jpg","null","mooney2","image-keyboard-response","18","329006","0.0-6.0-5.1","2561504","co38710","norming","","","","","","",""
"3501.844999998866","","","post_reveal_questions","survey-likert","19","332510","0.0-6.0-6.1","2561504","co38710","norming","","","{""aha"":0}","[0]","../img/tt/1202tt.jpg","",""
"null","<div style=""font-size:60px;""> </div>","null","fixation","html-keyboard-response","20","332713","0.0-6.0-0.2","2561504","co38710","norming","","","","","","",""
"null","../img/tt/1353tt.jpg","null","mooney1","image-keyboard-response","21","335716","0.0-6.0-1.2","2561504","co38710","norming","","","","","","",""
"5513.274999999383","","","post_mooney1_questions","survey-likert","22","341233","0.0-6.0-2.2","2561504","co38710","norming","","","{""curiosity"":4,""confidence"":1}","[0,1]","../img/tt/1353tt.jpg","",""
"8566.13500000094","","","recognition","survey-text","23","349800","0.0-6.0-3.2","2561504","co38710","norming","","","{""guess"":""dont know""}","","../img/tt/1353tt.jpg","",""
"null","../img/gs/1353gs.jpg","null","reveal","image-keyboard-response","24","351806","0.0-6.0-4.2","2561504","co38710","norming","","","","","","",""
"null","../img/tt/1353tt.jpg","null","mooney2","image-keyboard-response","25","353816","0.0-6.0-5.2","2561504","co38710","norming","","","","","","",""
"1925.9449999990175","","","post_reveal_questions","survey-likert","26","355744","0.0-6.0-6.2","2561504","co38710","norming","","","{""aha"":3}","[0]","../img/tt/1353tt.jpg","",""
"null","<div style=""font-size:60px;""> </div>","null","fixation","html-keyboard-response","27","355952","0.0-6.0-0.3","2561504","co38710","norming","","","","","","",""
"null","../img/tt/1069tt.jpg","null","mooney1","image-keyboard-response","28","358961","0.0-6.0-1.3","2561504","co38710","norming","","","","","","",""
"6492.64500000031","","","post_mooney1_questions","survey-likert","29","365456","0.0-6.0-2.3","2561504","co38710","norming","","","{""curiosity"":3,""confidence"":0}","[0,1]","../img/tt/1069tt.jpg","",""
"3598.2100000001374","","","recognition","survey-text","30","369056","0.0-6.0-3.3","2561504","co38710","norming","","","{""guess"":""man""}","","../img/tt/1069tt.jpg","",""
"null","../img/gs/1069gs.jpg","null","reveal","image-keyboard-response","31","371066","0.0-6.0-4.3","2561504","co38710","norming","","","","","","",""
"null","../img/tt/1069tt.jpg","null","mooney2","image-keyboard-response","32","373068","0.0-6.0-5.3","2561504","co38710","norming","","","","","","",""
"2122.429999999469","","","post_reveal_questions","survey-likert","33","375192","0.0-6.0-6.3","2561504","co38710","norming","","","{""aha"":3}","[0]","../img/tt/1069tt.jpg","",""
"null","<div style=""font-size:60px;""> </div>","null","fixation","html-keyboard-response","34","375394","0.0-6.0-0.4","2561504","co38710","norming","","","","","","",""
"null","../img/tt/273tt.jpg","null","mooney1","image-keyboard-response","35","378399","0.0-6.0-1.4","2561504","co38710","norming","","","","","","",""
"4782.870000000927","","","post_mooney1_questions","survey-likert","36","383185","0.0-6.0-2.4","2561504","co38710","norming","","","{""curiosity"":3,""confidence"":4}","[0,1]","../img/tt/273tt.jpg","",""
"3493.8149999997695","","","recognition","survey-text","37","386680","0.0-6.0-3.4","2561504","co38710","norming","","","{""guess"":""teeth""}","","../img/tt/273tt.jpg","",""
"null","../img/gs/273gs.jpg","null","reveal","image-keyboard-response","38","388685","0.0-6.0-4.4","2561504","co38710","norming","","","","","","",""
"null","../img/tt/273tt.jpg","null","mooney2","image-keyboard-response","39","390686","0.0-6.0-5.4","2561504","co38710","norming","","","","","","",""
"2345.4000000001397","","","post_reveal_questions","survey-likert","40","393032","0.0-6.0-6.4","2561504","co38710","norming","","","{""aha"":3}","[0]","../img/tt/273tt.jpg","",""
"null","<div style=""font-size:60px;""> </div>","null","fixation","html-keyboard-response","41","393242","0.0-6.0-0.5","2561504","co38710","norming","","","","","","",""
"null","../img/tt/105tt.jpg","null","mooney1","image-keyboard-response","42","396247","0.0-6.0-1.5","2561504","co38710","norming","","","","","","",""
"6951.104999998293","","","post_mooney1_questions","survey-likert","43","403203","0.0-6.0-2.5","2561504","co38710","norming","","","{""curiosity"":3,""confidence"":1}","[0,1]","../img/tt/105tt.jpg","",""
"2278.2350000015576","","","recognition","survey-text","44","405483","0.0-6.0-3.5","2561504","co38710","norming","","","{""guess"":""ground""}","","../img/tt/105tt.jpg","",""
"null","../img/gs/105gs.jpg","null","reveal","image-keyboard-response","45","407489","0.0-6.0-4.5","2561504","co38710","norming","","","","","","",""
"null","../img/tt/105tt.jpg","null","mooney2","image-keyboard-response","46","409496","0.0-6.0-5.5","2561504","co38710","norming","","","","","","",""
"4561.134999999893","","","post_reveal_questions","survey-likert","47","414059","0.0-6.0-6.5","2561504","co38710","norming","","","{""aha"":2}","[0]","../img/tt/105tt.jpg","",""
"null","<div style=""font-size:60px;""> </div>","null","fixation","html-keyboard-response","48","414264","0.0-6.0-0.6","2561504","co38710","norming","","","","","","",""
"null","../img/tt/307tt.jpg","null","mooney1","image-keyboard-response","49","417271","0.0-6.0-1.6","2561504","co38710","norming","","","","","","",""
"4496.919999999576","","","post_mooney1_questions","survey-likert","50","421771","0.0-6.0-2.6","2561504","co38710","norming","","","{""curiosity"":3,""confidence"":2}","[0,1]","../img/tt/307tt.jpg","",""
"3182.2650000012363","","","recognition","survey-text","51","424955","0.0-6.0-3.6","2561504","co38710","norming","","","{""guess"":""dog""}","","../img/tt/307tt.jpg","",""
"null","../img/gs/307gs.jpg","null","reveal","image-keyboard-response","52","426962","0.0-6.0-4.6","2561504","co38710","norming","","","","","","",""
"null","../img/tt/307tt.jpg","null","mooney2","image-keyboard-response","53","428972","0.0-6.0-5.6","2561504","co38710","norming","","","","","","",""
"1924.73500000051","","","post_reveal_questions","survey-likert","54","430899","0.0-6.0-6.6","2561504","co38710","norming","","","{""aha"":3}","[0]","../img/tt/307tt.jpg","",""
"null","<div style=""font-size:60px;""> </div>","null","fixation","html-keyboard-response","55","431104","0.0-6.0-0.7","2561504","co38710","norming","","","","","","",""
"null","../img/tt/1044tt.jpg","null","mooney1","image-keyboard-response","56","434116","0.0-6.0-1.7","2561504","co38710","norming","","","","","","",""
"4733.0600000005215","","","post_mooney1_questions","survey-likert","57","438851","0.0-6.0-2.7","2561504","co38710","norming","","","{""curiosity"":3,""confidence"":2}","[0,1]","../img/tt/1044tt.jpg","",""
"2262.114999999525","","","recognition","survey-text","58","441115","0.0-6.0-3.7","2561504","co38710","norming","","","{""guess"":""hat""}","","../img/tt/1044tt.jpg","",""
"null","../img/gs/1044gs.jpg","null","reveal","image-keyboard-response","59","443117","0.0-6.0-4.7","2561504","co38710","norming","","","","","","",""
"null","../img/tt/1044tt.jpg","null","mooney2","image-keyboard-response","60","445121","0.0-6.0-5.7","2561504","co38710","norming","","","","","","",""
"1631.6500000011874","","","post_reveal_questions","survey-likert","61","446755","0.0-6.0-6.7","2561504","co38710","norming","","","{""aha"":3}","[0]","../img/tt/1044tt.jpg","",""
"null","<div style=""font-size:60px;""> </div>","null","fixation","html-keyboard-response","62","446956","0.0-6.0-0.8","2561504","co38710","norming","","","","","","",""
"null","../img/tt/1189tt.jpg","null","mooney1","image-keyboard-response","63","449967","0.0-6.0-1.8","2561504","co38710","norming","","","","","","",""
"5673.409999999392","","","post_mooney1_questions","survey-likert","64","455643","0.0-6.0-2.8","2561504","co38710","norming","","","{""curiosity"":3,""confidence"":0}","[0,1]","../img/tt/1189tt.jpg","",""
"2798.004999998724","","","recognition","survey-text","65","458443","0.0-6.0-3.8","2561504","co38710","norming","","","{""guess"":""/""}","","../img/tt/1189tt.jpg","",""
"null","../img/gs/1189gs.jpg","null","reveal","image-keyboard-response","66","460449","0.0-6.0-4.8","2561504","co38710","norming","","","","","","",""
"null","../img/tt/1189tt.jpg","null","mooney2","image-keyboard-response","67","462462","0.0-6.0-5.8","2561504","co38710","norming","","","","","","",""
"2478.449999998731","","","post_reveal_questions","survey-likert","68","464943","0.0-6.0-6.8","2561504","co38710","norming","","","{""aha"":2}","[0]","../img/tt/1189tt.jpg","",""
"null","<div style=""font-size:60px;""> </div>","null","fixation","html-keyboard-response","69","465147","0.0-6.0-0.9","2561504","co38710","norming","","","","","","",""
"null","../img/tt/1049tt.jpg","null","mooney1","image-keyboard-response","70","468153","0.0-6.0-1.9","2561504","co38710","norming","","","","","","",""
"3947.0650000002934","","","post_mooney1_questions","survey-likert","71","472103","0.0-6.0-2.9","2561504","co38710","norming","","","{""curiosity"":3,""confidence"":0}","[0,1]","../img/tt/1049tt.jpg","",""
"2326.2350000004517","","","recognition","survey-text","72","474431","0.0-6.0-3.9","2561504","co38710","norming","","","{""guess"":""/""}","","../img/tt/1049tt.jpg","",""
"null","../img/gs/1049gs.jpg","null","reveal","image-keyboard-response","73","476433","0.0-6.0-4.9","2561504","co38710","norming","","","","","","",""
"null","../img/tt/1049tt.jpg","null","mooney2","image-keyboard-response","74","478441","0.0-6.0-5.9","2561504","co38710","norming","","","","","","",""
"2480.250000000524","","","post_reveal_questions","survey-likert","75","480927","0.0-6.0-6.9","2561504","co38710","norming","","","{""aha"":3}","[0]","../img/tt/1049tt.jpg","",""
"null","<div style=""font-size:60px;""> </div>","null","fixation","html-keyboard-response","76","481128","0.0-6.0-0.10","2561504","co38710","norming","","","","","","",""
"null","../img/tt/1251tt.jpg","null","mooney1","image-keyboard-response","77","484132","0.0-6.0-1.10","2561504","co38710","norming","","","","","","",""
"5784.485000000102","","","post_mooney1_questions","survey-likert","78","489919","0.0-6.0-2.10","2561504","co38710","norming","","","{""curiosity"":4,""confidence"":2}","[0,1]","../img/tt/1251tt.jpg","",""
"2781.9300000009825","","","recognition","survey-text","79","492703","0.0-6.0-3.10","2561504","co38710","norming","","","{""guess"":""panda""}","","../img/tt/1251tt.jpg","",""
"null","../img/gs/1251gs.jpg","null","reveal","image-keyboard-response","80","494707","0.0-6.0-4.10","2561504","co38710","norming","","","","","","",""
"null","../img/tt/1251tt.jpg","null","mooney2","image-keyboard-response","81","496708","0.0-6.0-5.10","2561504","co38710","norming","","","","","","",""
"1722.2099999999045","","","post_reveal_questions","survey-likert","82","498431","0.0-6.0-6.10","2561504","co38710","norming","","","{""aha"":4}","[0]","../img/tt/1251tt.jpg","",""
"null","<div style=""font-size:60px;""> </div>","null","fixation","html-keyboard-response","83","498632","0.0-6.0-0.11","2561504","co38710","norming","","","","","","",""
"null","../img/tt/118tt.jpg","null","mooney1","image-keyboard-response","84","501641","0.0-6.0-1.11","2561504","co38710","norming","","","","","","",""
"3930.9599999996717","","","post_mooney1_questions","survey-likert","85","505575","0.0-6.0-2.11","2561504","co38710","norming","","","{""curiosity"":3,""confidence"":1}","[0,1]","../img/tt/118tt.jpg","",""
"2084.210000000894","","","recognition","survey-text","86","507663","0.0-6.0-3.11","2561504","co38710","norming","","","{""guess"":""harp""}","","../img/tt/118tt.jpg","",""
"null","../img/gs/118gs.jpg","null","reveal","image-keyboard-response","87","509667","0.0-6.0-4.11","2561504","co38710","norming","","","","","","",""
"null","../img/tt/118tt.jpg","null","mooney2","image-keyboard-response","88","511669","0.0-6.0-5.11","2561504","co38710","norming","","","","","","",""
"1431.7350000001024","","","post_reveal_questions","survey-likert","89","513103","0.0-6.0-6.11","2561504","co38710","norming","","","{""aha"":4}","[0]","../img/tt/118tt.jpg","",""
"null","<div style=""font-size:60px;""> </div>","null","fixation","html-keyboard-response","90","513304","0.0-6.0-0.12","2561504","co38710","norming","","","","","","",""
"null","../img/tt/319tt.jpg","null","mooney1","image-keyboard-response","91","516309","0.0-6.0-1.12","2561504","co38710","norming","","","","","","",""
"3759.1749999992317","","","post_mooney1_questions","survey-likert","92","520071","0.0-6.0-2.12","2561504","co38710","norming","","","{""curiosity"":4,""confidence"":3}","[0,1]","../img/tt/319tt.jpg","",""
"3478.125000001455","","","recognition","survey-text","93","523547","0.0-6.0-3.12","2561504","co38710","norming","","","{""guess"":""donkey""}","","../img/tt/319tt.jpg","",""
"null","../img/gs/319gs.jpg","null","reveal","image-keyboard-response","94","525548","0.0-6.0-4.12","2561504","co38710","norming","","","","","","",""
"null","../img/tt/319tt.jpg","null","mooney2","image-keyboard-response","95","527551","0.0-6.0-5.12","2561504","co38710","norming","","","","","","",""
"1881.7249999992782","","","post_reveal_questions","survey-likert","96","529435","0.0-6.0-6.12","2561504","co38710","norming","","","{""aha"":3}","[0]","../img/tt/319tt.jpg","",""
"null","<div style=""font-size:60px;""> </div>","null","fixation","html-keyboard-response","97","529636","0.0-6.0-0.13","2561504","co38710","norming","","","","","","",""
"null","../img/tt/1048tt.jpg","null","mooney1","image-keyboard-response","98","532641","0.0-6.0-1.13","2561504","co38710","norming","","","","","","",""
"4319.334999998333","","","post_mooney1_questions","survey-likert","99","536963","0.0-6.0-2.13","2561504","co38710","norming","","","{""curiosity"":4,""confidence"":0}","[0,1]","../img/tt/1048tt.jpg","",""
"1622.5700000013458","","","recognition","survey-text","100","538587","0.0-6.0-3.13","2561504","co38710","norming","","","{""guess"":""/""}","","../img/tt/1048tt.jpg","",""
"null","../img/gs/1048gs.jpg","null","reveal","image-keyboard-response","101","540589","0.0-6.0-4.13","2561504","co38710","norming","","","","","","",""
"null","../img/tt/1048tt.jpg","null","mooney2","image-keyboard-response","102","542590","0.0-6.0-5.13","2561504","co38710","norming","","","","","","",""
"1066.4949999991804","","","post_reveal_questions","survey-likert","103","543659","0.0-6.0-6.13","2561504","co38710","norming","","","{""aha"":4}","[0]","../img/tt/1048tt.jpg","",""
"null","<div style=""font-size:60px;""> </div>","null","fixation","html-keyboard-response","104","543861","0.0-6.0-0.14","2561504","co38710","norming","","","","","","",""
"null","../img/tt/1006tt.jpg","null","mooney1","image-keyboard-response","105","546873","0.0-6.0-1.14","2561504","co38710","norming","","","","","","",""
"6519.744999999646","","","post_mooney1_questions","survey-likert","106","553395","0.0-6.0-2.14","2561504","co38710","norming","","","{""curiosity"":3,""confidence"":0}","[0,1]","../img/tt/1006tt.jpg","",""
"2358.1599999997998","","","recognition","survey-text","107","555755","0.0-6.0-3.14","2561504","co38710","norming","","","{""guess"":""woods""}","","../img/tt/1006tt.jpg","",""
"null","../img/gs/1006gs.jpg","null","reveal","image-keyboard-response","108","557757","0.0-6.0-4.14","2561504","co38710","norming","","","","","","",""
"null","../img/tt/1006tt.jpg","null","mooney2","image-keyboard-response","109","559758","0.0-6.0-5.14","2561504","co38710","norming","","","","","","",""
"2554.500000000233","","","post_reveal_questions","survey-likert","110","562315","0.0-6.0-6.14","2561504","co38710","norming","","","{""aha"":0}","[0]","../img/tt/1006tt.jpg","",""
"null","<div style=""font-size:60px;""> </div>","null","fixation","html-keyboard-response","111","562516","0.0-6.0-0.15","2561504","co38710","norming","","","","","","",""
"null","../img/tt/1156tt.jpg","null","mooney1","image-keyboard-response","112","565524","0.0-6.0-1.15","2561504","co38710","norming","","","","","","",""
"4156.800000000745","","","post_mooney1_questions","survey-likert","113","569683","0.0-6.0-2.15","2561504","co38710","norming","","","{""curiosity"":3,""confidence"":0}","[0,1]","../img/tt/1156tt.jpg","",""
"1430.089999999851","","","recognition","survey-text","114","571115","0.0-6.0-3.15","2561504","co38710","norming","","","{""guess"":""/""}","","../img/tt/1156tt.jpg","",""
"null","../img/gs/1156gs.jpg","null","reveal","image-keyboard-response","115","573118","0.0-6.0-4.15","2561504","co38710","norming","","","","","","",""
"null","../img/tt/1156tt.jpg","null","mooney2","image-keyboard-response","116","575119","0.0-6.0-5.15","2561504","co38710","norming","","","","","","",""
"2281.5650000012247","","","post_reveal_questions","survey-likert","117","577403","0.0-6.0-6.15","2561504","co38710","norming","","","{""aha"":2}","[0]","../img/tt/1156tt.jpg","",""
"null","<div style=""font-size:60px;""> </div>","null","fixation","html-keyboard-response","118","577604","0.0-6.0-0.16","2561504","co38710","norming","","","","","","",""
"null","../img/tt/1228tt.jpg","null","mooney1","image-keyboard-response","119","580615","0.0-6.0-1.16","2561504","co38710","norming","","","","","","",""
"3929.234999999637","","","post_mooney1_questions","survey-likert","120","584551","0.0-6.0-2.16","2561504","co38710","norming","","","{""curiosity"":3,""confidence"":1}","[0,1]","../img/tt/1228tt.jpg","",""
"1878.240000000107","","","recognition","survey-text","121","586431","0.0-6.0-3.16","2561504","co38710","norming","","","{""guess"":""bird""}","","../img/tt/1228tt.jpg","",""
"null","../img/gs/1228gs.jpg","null","reveal","image-keyboard-response","122","588440","0.0-6.0-4.16","2561504","co38710","norming","","","","","","",""
"null","../img/tt/1228tt.jpg","null","mooney2","image-keyboard-response","123","590443","0.0-6.0-5.16","2561504","co38710","norming","","","","","","",""
"1809.81499999878","","","post_reveal_questions","survey-likert","124","592255","0.0-6.0-6.16","2561504","co38710","norming","","","{""aha"":4}","[0]","../img/tt/1228tt.jpg","",""
"null","<div style=""font-size:60px;""> </div>","null","fixation","html-keyboard-response","125","592456","0.0-6.0-0.17","2561504","co38710","norming","","","","","","",""
"null","../img/tt/567tt.jpg","null","mooney1","image-keyboard-response","126","595464","0.0-6.0-1.17","2561504","co38710","norming","","","","","","",""
"4739.910000000265","","","post_mooney1_questions","survey-likert","127","600207","0.0-6.0-2.17","2561504","co38710","norming","","","{""curiosity"":2,""confidence"":0}","[0,1]","../img/tt/567tt.jpg","",""
"1886.0850000000792","","","recognition","survey-text","128","602095","0.0-6.0-3.17","2561504","co38710","norming","","","{""guess"":""mirror""}","","../img/tt/567tt.jpg","",""
"null","../img/gs/567gs.jpg","null","reveal","image-keyboard-response","129","604096","0.0-6.0-4.17","2561504","co38710","norming","","","","","","",""
"null","../img/tt/567tt.jpg","null","mooney2","image-keyboard-response","130","606107","0.0-6.0-5.17","2561504","co38710","norming","","","","","","",""
"3169.4100000004983","","","post_reveal_questions","survey-likert","131","609279","0.0-6.0-6.17","2561504","co38710","norming","","","{""aha"":3}","[0]","../img/tt/567tt.jpg","",""
"null","<div style=""font-size:60px;""> </div>","null","fixation","html-keyboard-response","132","609482","0.0-6.0-0.18","2561504","co38710","norming","","","","","","",""
"null","../img/tt/329tt.jpg","null","mooney1","image-keyboard-response","133","612491","0.0-6.0-1.18","2561504","co38710","norming","","","","","","",""
"3674.539999999921","","","post_mooney1_questions","survey-likert","134","616167","0.0-6.0-2.18","2561504","co38710","norming","","","{""curiosity"":0,""confidence"":0}","[0,1]","../img/tt/329tt.jpg","",""
"1430.550000000978","","","recognition","survey-text","135","617599","0.0-6.0-3.18","2561504","co38710","norming","","","{""guess"":""/""}","","../img/tt/329tt.jpg","",""
"null","../img/gs/329gs.jpg","null","reveal","image-keyboard-response","136","619605","0.0-6.0-4.18","2561504","co38710","norming","","","","","","",""
"null","../img/tt/329tt.jpg","null","mooney2","image-keyboard-response","137","621608","0.0-6.0-5.18","2561504","co38710","norming","","","","","","",""
"1939.9849999990547","","","post_reveal_questions","survey-likert","138","623550","0.0-6.0-6.18","2561504","co38710","norming","","","{""aha"":1}","[0]","../img/tt/329tt.jpg","",""
"null","<div style=""font-size:60px;""> </div>","null","fixation","html-keyboard-response","139","623752","0.0-6.0-0.19","2561504","co38710","norming","","","","","","",""
"null","../img/tt/1205tt.jpg","null","mooney1","image-keyboard-response","140","626755","0.0-6.0-1.19","2561504","co38710","norming","","","","","","",""
"3187.1150000005728","","","post_mooney1_questions","survey-likert","141","629943","0.0-6.0-2.19","2561504","co38710","norming","","","{""curiosity"":0,""confidence"":0}","[0,1]","../img/tt/1205tt.jpg","",""
"2630.32500000007","","","recognition","survey-text","142","632575","0.0-6.0-3.19","2561504","co38710","norming","","","{""guess"":""/""}","","../img/tt/1205tt.jpg","",""
"null","../img/gs/1205gs.jpg","null","reveal","image-keyboard-response","143","634580","0.0-6.0-4.19","2561504","co38710","norming","","","","","","",""
"null","../img/tt/1205tt.jpg","null","mooney2","image-keyboard-response","144","636583","0.0-6.0-5.19","2561504","co38710","norming","","","","","","",""
"3445.469999998808","","","post_reveal_questions","survey-likert","145","640031","0.0-6.0-6.19","2561504","co38710","norming","","","{""aha"":1}","[0]","../img/tt/1205tt.jpg","",""
"null","<div style=""font-size:60px;""> </div>","null","fixation","html-keyboard-response","146","640234","0.0-6.0-0.20","2561504","co38710","norming","","","","","","",""
"null","../img/tt/412tt.jpg","null","mooney1","image-keyboard-response","147","643246","0.0-6.0-1.20","2561504","co38710","norming","","","","","","",""
"3622.405000000028","","","post_mooney1_questions","survey-likert","148","646870","0.0-6.0-2.20","2561504","co38710","norming","","","{""curiosity"":2,""confidence"":1}","[0,1]","../img/tt/412tt.jpg","",""
"1878.0349999996834","","","recognition","survey-text","149","648750","0.0-6.0-3.20","2561504","co38710","norming","","","{""guess"":""bird""}","","../img/tt/412tt.jpg","",""
"null","../img/gs/412gs.jpg","null","reveal","image-keyboard-response","150","650757","0.0-6.0-4.20","2561504","co38710","norming","","","","","","",""
"null","../img/tt/412tt.jpg","null","mooney2","image-keyboard-response","151","652758","0.0-6.0-5.20","2561504","co38710","norming","","","","","","",""
"2311.359999999753","","","post_reveal_questions","survey-likert","152","655070","0.0-6.0-6.20","2561504","co38710","norming","","","{""aha"":0}","[0]","../img/tt/412tt.jpg","",""
"null","<div style=""font-size:60px;""> </div>","null","fixation","html-keyboard-response","153","655271","0.0-6.0-0.21","2561504","co38710","norming","","","","","","",""
"null","../img/tt/1037tt.jpg","null","mooney1","image-keyboard-response","154","658283","0.0-6.0-1.21","2561504","co38710","norming","","","","","","",""
"3248.410000000149","","","post_mooney1_questions","survey-likert","155","661534","0.0-6.0-2.21","2561504","co38710","norming","","","{""curiosity"":2,""confidence"":0}","[0,1]","../img/tt/1037tt.jpg","",""
"1982.3799999994226","","","recognition","survey-text","156","663518","0.0-6.0-3.21","2561504","co38710","norming","","","{""guess"":""/""}","","../img/tt/1037tt.jpg","",""
"null","../img/gs/1037gs.jpg","null","reveal","image-keyboard-response","157","665519","0.0-6.0-4.21","2561504","co38710","norming","","","","","","",""
"null","../img/tt/1037tt.jpg","null","mooney2","image-keyboard-response","158","667521","0.0-6.0-5.21","2561504","co38710","norming","","","","","","",""
"2178.599999999278","","","post_reveal_questions","survey-likert","159","669702","0.0-6.0-6.21","2561504","co38710","norming","","","{""aha"":0}","[0]","../img/tt/1037tt.jpg","",""
"null","<div style=""font-size:60px;""> </div>","null","fixation","html-keyboard-response","160","669903","0.0-6.0-0.22","2561504","co38710","norming","","","","","","",""
"null","../img/tt/123tt.jpg","null","mooney1","image-keyboard-response","161","672908","0.0-6.0-1.22","2561504","co38710","norming","","","","","","",""
"5416.994999999646","","","post_mooney1_questions","survey-likert","162","678326","0.0-6.0-2.22","2561504","co38710","norming","","","{""curiosity"":2,""confidence"":1}","[0,1]","../img/tt/123tt.jpg","",""
"1846.0450000001583","","","recognition","survey-text","163","680174","0.0-6.0-3.22","2561504","co38710","norming","","","{""guess"":""shoe""}","","../img/tt/123tt.jpg","",""
"null","../img/gs/123gs.jpg","null","reveal","image-keyboard-response","164","682176","0.0-6.0-4.22","2561504","co38710","norming","","","","","","",""
"null","../img/tt/123tt.jpg","null","mooney2","image-keyboard-response","165","684178","0.0-6.0-5.22","2561504","co38710","norming","","","","","","",""
"1945.5500000003958","","","post_reveal_questions","survey-likert","166","686126","0.0-6.0-6.22","2561504","co38710","norming","","","{""aha"":2}","[0]","../img/tt/123tt.jpg","",""
"null","<div style=""font-size:60px;""> </div>","null","fixation","html-keyboard-response","167","686332","0.0-6.0-0.23","2561504","co38710","norming","","","","","","",""
"null","../img/tt/279tt.jpg","null","mooney1","image-keyboard-response","168","689341","0.0-6.0-1.23","2561504","co38710","norming","","","","","","",""
"3222.069999999716","","","post_mooney1_questions","survey-likert","169","692566","0.0-6.0-2.23","2561504","co38710","norming","","","{""curiosity"":2,""confidence"":1}","[0,1]","../img/tt/279tt.jpg","",""
"2694.2350000009174","","","recognition","survey-text","170","695262","0.0-6.0-3.23","2561504","co38710","norming","","","{""guess"":""bear""}","","../img/tt/279tt.jpg","",""
"null","../img/gs/279gs.jpg","null","reveal","image-keyboard-response","171","697264","0.0-6.0-4.23","2561504","co38710","norming","","","","","","",""
"null","../img/tt/279tt.jpg","null","mooney2","image-keyboard-response","172","699265","0.0-6.0-5.23","2561504","co38710","norming","","","","","","",""
"1290.4899999994086","","","post_reveal_questions","survey-likert","173","700558","0.0-6.0-6.23","2561504","co38710","norming","","","{""aha"":4}","[0]","../img/tt/279tt.jpg","",""
"null","<div style=""font-size:60px;""> </div>","null","fixation","html-keyboard-response","174","700760","0.0-6.0-0.24","2561504","co38710","norming","","","","","","",""
"null","../img/tt/599tt.jpg","null","mooney1","image-keyboard-response","175","703767","0.0-6.0-1.24","2561504","co38710","norming","","","","","","",""
"3964.2800000001444","","","post_mooney1_questions","survey-likert","176","707739","0.0-6.0-2.24","2561504","co38710","norming","","","{""curiosity"":1,""confidence"":1}","[0,1]","../img/tt/599tt.jpg","",""
"2662.395000001183","","","recognition","survey-text","177","710403","0.0-6.0-3.24","2561504","co38710","norming","","","{""guess"":""ninja""}","","../img/tt/599tt.jpg","",""
"null","../img/gs/599gs.jpg","null","reveal","image-keyboard-response","178","712405","0.0-6.0-4.24","2561504","co38710","norming","","","","","","",""
"null","../img/tt/599tt.jpg","null","mooney2","image-keyboard-response","179","714413","0.0-6.0-5.24","2561504","co38710","norming","","","","","","",""
"1660.014999999432","","","post_reveal_questions","survey-likert","180","716075","0.0-6.0-6.24","2561504","co38710","norming","","","{""aha"":4}","[0]","../img/tt/599tt.jpg","",""
"null","<div style=""font-size:60px;""> </div>","null","fixation","html-keyboard-response","181","716277","0.0-6.0-0.25","2561504","co38710","norming","","","","","","",""
"null","../img/tt/549tt.jpg","null","mooney1","image-keyboard-response","182","719279","0.0-6.0-1.25","2561504","co38710","norming","","","","","","",""
"4921.624999999069","","","post_mooney1_questions","survey-likert","183","724203","0.0-6.0-2.25","2561504","co38710","norming","","","{""curiosity"":2,""confidence"":0}","[0,1]","../img/tt/549tt.jpg","",""
"1397.999999999185","","","recognition","survey-text","184","725603","0.0-6.0-3.25","2561504","co38710","norming","","","{""guess"":""/""}","","../img/tt/549tt.jpg","",""
"null","../img/gs/549gs.jpg","null","reveal","image-keyboard-response","185","727606","0.0-6.0-4.25","2561504","co38710","norming","","","","","","",""
"null","../img/tt/549tt.jpg","null","mooney2","image-keyboard-response","186","729608","0.0-6.0-5.25","2561504","co38710","norming","","","","","","",""
"1633.0649999999441","","","post_reveal_questions","survey-likert","187","731243","0.0-6.0-6.25","2561504","co38710","norming","","","{""aha"":0}","[0]","../img/tt/549tt.jpg","",""
"null","<div style=""font-size:60px;""> </div>","null","fixation","html-keyboard-response","188","731446","0.0-6.0-0.26","2561504","co38710","norming","","","","","","",""
"null","../img/tt/1046tt.jpg","null","mooney1","image-keyboard-response","189","734454","0.0-6.0-1.26","2561504","co38710","norming","","","","","","",""
"2993.7850000006147","","","post_mooney1_questions","survey-likert","190","737451","0.0-6.0-2.26","2561504","co38710","norming","","","{""curiosity"":0,""confidence"":0}","[0,1]","../img/tt/1046tt.jpg","",""
"1414.4699999996228","","","recognition","survey-text","191","738867","0.0-6.0-3.26","2561504","co38710","norming","","","{""guess"":""/""}","","../img/tt/1046tt.jpg","",""
"null","../img/gs/1046gs.jpg","null","reveal","image-keyboard-response","192","740869","0.0-6.0-4.26","2561504","co38710","norming","","","","","","",""
"null","../img/tt/1046tt.jpg","null","mooney2","image-keyboard-response","193","742871","0.0-6.0-5.26","2561504","co38710","norming","","","","","","",""
"1969.9700000000885","","","post_reveal_questions","survey-likert","194","744843","0.0-6.0-6.26","2561504","co38710","norming","","","{""aha"":1}","[0]","../img/tt/1046tt.jpg","",""
"null","<div style=""font-size:60px;""> </div>","null","fixation","html-keyboard-response","195","745044","0.0-6.0-0.27","2561504","co38710","norming","","","","","","",""
"null","../img/tt/121tt.jpg","null","mooney1","image-keyboard-response","196","748055","0.0-6.0-1.27","2561504","co38710","norming","","","","","","",""
"3105.180000000517","","","post_mooney1_questions","survey-likert","197","751163","0.0-6.0-2.27","2561504","co38710","norming","","","{""curiosity"":1,""confidence"":0}","[0,1]","../img/tt/121tt.jpg","",""
"4006.170000000624","","","recognition","survey-text","198","755171","0.0-6.0-3.27","2561504","co38710","norming","","","{""guess"":""/""}","","../img/tt/121tt.jpg","",""
"null","../img/gs/121gs.jpg","null","reveal","image-keyboard-response","199","757181","0.0-6.0-4.27","2561504","co38710","norming","","","","","","",""
"null","../img/tt/121tt.jpg","null","mooney2","image-keyboard-response","200","759182","0.0-6.0-5.27","2561504","co38710","norming","","","","","","",""
"2363.2600000000093","","","post_reveal_questions","survey-likert","201","761547","0.0-6.0-6.27","2561504","co38710","norming","","","{""aha"":0}","[0]","../img/tt/121tt.jpg","",""
"null","<div style=""font-size:60px;""> </div>","null","fixation","html-keyboard-response","202","761749","0.0-6.0-0.28","2561504","co38710","norming","","","","","","",""
"null","../img/tt/112tt.jpg","null","mooney1","image-keyboard-response","203","764752","0.0-6.0-1.28","2561504","co38710","norming","","","","","","",""
"2890.3399999999674","","","post_mooney1_questions","survey-likert","204","767645","0.0-6.0-2.28","2561504","co38710","norming","","","{""curiosity"":2,""confidence"":1}","[0,1]","../img/tt/112tt.jpg","",""
"2614.2250000012573","","","recognition","survey-text","205","770261","0.0-6.0-3.28","2561504","co38710","norming","","","{""guess"":""knife""}","","../img/tt/112tt.jpg","",""
"null","../img/gs/112gs.jpg","null","reveal","image-keyboard-response","206","772270","0.0-6.0-4.28","2561504","co38710","norming","","","","","","",""
"null","../img/tt/112tt.jpg","null","mooney2","image-keyboard-response","207","774271","0.0-6.0-5.28","2561504","co38710","norming","","","","","","",""
"2971.859999999637","","","post_reveal_questions","survey-likert","208","777245","0.0-6.0-6.28","2561504","co38710","norming","","","{""aha"":4}","[0]","../img/tt/112tt.jpg","",""
"null","<div style=""font-size:60px;""> </div>","null","fixation","html-keyboard-response","209","777448","0.0-6.0-0.29","2561504","co38710","norming","","","","","","",""
"null","../img/tt/056tt.jpg","null","mooney1","image-keyboard-response","210","780458","0.0-6.0-1.29","2561504","co38710","norming","","","","","","",""
"4080.3549999999814","","","post_mooney1_questions","survey-likert","211","784541","0.0-6.0-2.29","2561504","co38710","norming","","","{""curiosity"":3,""confidence"":2}","[0,1]","../img/tt/056tt.jpg","",""
"1829.9499999993714","","","recognition","survey-text","212","786373","0.0-6.0-3.29","2561504","co38710","norming","","","{""guess"":""wolf""}","","../img/tt/056tt.jpg","",""
"null","../img/gs/056gs.jpg","null","reveal","image-keyboard-response","213","788376","0.0-6.0-4.29","2561504","co38710","norming","","","","","","",""
"null","../img/tt/056tt.jpg","null","mooney2","image-keyboard-response","214","790378","0.0-6.0-5.29","2561504","co38710","norming","","","","","","",""
"1296.56499999878","","","post_reveal_questions","survey-likert","215","791677","0.0-6.0-6.29","2561504","co38710","norming","","","{""aha"":1}","[0]","../img/tt/056tt.jpg","",""
"null","<div style=""font-size:60px;""> </div>","null","fixation","html-keyboard-response","216","791879","0.0-6.0-0.30","2561504","co38710","norming","","","","","","",""
"null","../img/tt/1012tt.jpg","null","mooney1","image-keyboard-response","217","794889","0.0-6.0-1.30","2561504","co38710","norming","","","","","","",""
"5025.3749999993015","","","post_mooney1_questions","survey-likert","218","799917","0.0-6.0-2.30","2561504","co38710","norming","","","{""curiosity"":3,""confidence"":1}","[0,1]","../img/tt/1012tt.jpg","",""
"2038.080000000191","","","recognition","survey-text","219","801957","0.0-6.0-3.30","2561504","co38710","norming","","","{""guess"":""animal""}","","../img/tt/1012tt.jpg","",""
"null","../img/gs/1012gs.jpg","null","reveal","image-keyboard-response","220","803962","0.0-6.0-4.30","2561504","co38710","norming","","","","","","",""
"null","../img/tt/1012tt.jpg","null","mooney2","image-keyboard-response","221","805964","0.0-6.0-5.30","2561504","co38710","norming","","","","","","",""
"1311.100000000908","","","post_reveal_questions","survey-likert","222","807277","0.0-6.0-6.30","2561504","co38710","norming","","","{""aha"":4}","[0]","../img/tt/1012tt.jpg","",""
"null","<div style=""font-size:60px;""> </div>","null","fixation","html-keyboard-response","223","807479","0.0-6.0-0.31","2561504","co38710","norming","","","","","","",""
"null","../img/tt/1159tt.jpg","null","mooney1","image-keyboard-response","224","810482","0.0-6.0-1.31","2561504","co38710","norming","","","","","","",""
"6120.394999999902","","","post_mooney1_questions","survey-likert","225","816605","0.0-6.0-2.31","2561504","co38710","norming","","","{""curiosity"":3,""confidence"":1}","[0,1]","../img/tt/1159tt.jpg","",""
"4150.220000001369","","","recognition","survey-text","226","820757","0.0-6.0-3.31","2561504","co38710","norming","","","{""guess"":""bridge""}","","../img/tt/1159tt.jpg","",""
"null","../img/gs/1159gs.jpg","null","reveal","image-keyboard-response","227","822760","0.0-6.0-4.31","2561504","co38710","norming","","","","","","",""
"null","../img/tt/1159tt.jpg","null","mooney2","image-keyboard-response","228","824770","0.0-6.0-5.31","2561504","co38710","norming","","","","","","",""
"3713.8549999999814","","","post_reveal_questions","survey-likert","229","828477","0.0-6.0-6.31","2561504","co38710","norming","","","{""aha"":0}","[0]","../img/tt/1159tt.jpg","",""
"null","<div style=""font-size:60px;""> </div>","null","fixation","html-keyboard-response","230","828680","0.0-6.0-0.32","2561504","co38710","norming","","","","","","",""
"null","../img/tt/007tt.jpg","null","mooney1","image-keyboard-response","231","831682","0.0-6.0-1.32","2561504","co38710","norming","","","","","","",""
"4392.685000000638","","","post_mooney1_questions","survey-likert","232","836077","0.0-6.0-2.32","2561504","co38710","norming","","","{""curiosity"":2,""confidence"":1}","[0,1]","../img/tt/007tt.jpg","",""
"2622.025000000489","","","recognition","survey-text","233","838701","0.0-6.0-3.32","2561504","co38710","norming","","","{""guess"":""chicken""}","","../img/tt/007tt.jpg","",""
"null","../img/gs/007gs.jpg","null","reveal","image-keyboard-response","234","840704","0.0-6.0-4.32","2561504","co38710","norming","","","","","","",""
"null","../img/tt/007tt.jpg","null","mooney2","image-keyboard-response","235","842706","0.0-6.0-5.32","2561504","co38710","norming","","","","","","",""
"1730.5649999998277","","","post_reveal_questions","survey-likert","236","844437","0.0-6.0-6.32","2561504","co38710","norming","","","{""aha"":0}","[0]","../img/tt/007tt.jpg","",""
"null","<div style=""font-size:60px;""> </div>","null","fixation","html-keyboard-response","237","844640","0.0-6.0-0.33","2561504","co38710","norming","","","","","","",""
"null","../img/tt/477tt.jpg","null","mooney1","image-keyboard-response","238","847644","0.0-6.0-1.33","2561504","co38710","norming","","","","","","",""
"4222.2799999999115","","","post_mooney1_questions","survey-likert","239","851870","0.0-6.0-2.33","2561504","co38710","norming","","","{""curiosity"":0,""confidence"":1}","[0,1]","../img/tt/477tt.jpg","",""
"1886.6150000012713","","","recognition","survey-text","240","853758","0.0-6.0-3.33","2561504","co38710","norming","","","{""guess"":""snake""}","","../img/tt/477tt.jpg","",""
"null","../img/gs/477gs.jpg","null","reveal","image-keyboard-response","241","855760","0.0-6.0-4.33","2561504","co38710","norming","","","","","","",""
"null","../img/tt/477tt.jpg","null","mooney2","image-keyboard-response","242","857767","0.0-6.0-5.33","2561504","co38710","norming","","","","","","",""
"2107.9099999988684","","","post_reveal_questions","survey-likert","243","859877","0.0-6.0-6.33","2561504","co38710","norming","","","{""aha"":0}","[0]","../img/tt/477tt.jpg","",""
"null","<div style=""font-size:60px;""> </div>","null","fixation","html-keyboard-response","244","860078","0.0-6.0-0.34","2561504","co38710","norming","","","","","","",""
"null","../img/tt/060tt.jpg","null","mooney1","image-keyboard-response","245","863083","0.0-6.0-1.34","2561504","co38710","norming","","","","","","",""
"2911.439999999944","","","post_mooney1_questions","survey-likert","246","865998","0.0-6.0-2.34","2561504","co38710","norming","","","{""curiosity"":0,""confidence"":0}","[0,1]","../img/tt/060tt.jpg","",""
"1710.3499999993946","","","recognition","survey-text","247","867709","0.0-6.0-3.34","2561504","co38710","norming","","","{""guess"":""/""}","","../img/tt/060tt.jpg","",""
"null","../img/gs/060gs.jpg","null","reveal","image-keyboard-response","248","869714","0.0-6.0-4.34","2561504","co38710","norming","","","","","","",""
"null","../img/tt/060tt.jpg","null","mooney2","image-keyboard-response","249","871717","0.0-6.0-5.34","2561504","co38710","norming","","","","","","",""
"1685.750000000582","","","post_reveal_questions","survey-likert","250","873405","0.0-6.0-6.34","2561504","co38710","norming","","","{""aha"":1}","[0]","../img/tt/060tt.jpg","",""
"null","<div style=""font-size:60px;""> </div>","null","fixation","html-keyboard-response","251","873606","0.0-6.0-0.35","2561504","co38710","norming","","","","","","",""
"null","../img/tt/1116tt.jpg","null","mooney1","image-keyboard-response","252","876612","0.0-6.0-1.35","2561504","co38710","norming","","","","","","",""
"5942.465000000084","","","post_mooney1_questions","survey-likert","253","882558","0.0-6.0-2.35","2561504","co38710","norming","","","{""curiosity"":1,""confidence"":1}","[0,1]","../img/tt/1116tt.jpg","",""
"1341.7549999994226","","","recognition","survey-text","254","883901","0.0-6.0-3.35","2561504","co38710","norming","","","{""guess"":""lake""}","","../img/tt/1116tt.jpg","",""
"null","../img/gs/1116gs.jpg","null","reveal","image-keyboard-response","255","885902","0.0-6.0-4.35","2561504","co38710","norming","","","","","","",""
"null","../img/tt/1116tt.jpg","null","mooney2","image-keyboard-response","256","887914","0.0-6.0-5.35","2561504","co38710","norming","","","","","","",""
"1507.695000000298","","","post_reveal_questions","survey-likert","257","889423","0.0-6.0-6.35","2561504","co38710","norming","","","{""aha"":0}","[0]","../img/tt/1116tt.jpg","",""
"null","<div style=""font-size:60px;""> </div>","null","fixation","html-keyboard-response","258","889624","0.0-6.0-0.36","2561504","co38710","norming","","","","","","",""
"null","../img/tt/1275tt.jpg","null","mooney1","image-keyboard-response","259","892625","0.0-6.0-1.36","2561504","co38710","norming","","","","","","",""
"4924.864999999059","","","post_mooney1_questions","survey-likert","260","897551","0.0-6.0-2.36","2561504","co38710","norming","","","{""curiosity"":2,""confidence"":1}","[0,1]","../img/tt/1275tt.jpg","",""
"1701.7450000003446","","","recognition","survey-text","261","899255","0.0-6.0-3.36","2561504","co38710","norming","","","{""guess"":""dog""}","","../img/tt/1275tt.jpg","",""
"null","../img/gs/1275gs.jpg","null","reveal","image-keyboard-response","262","901262","0.0-6.0-4.36","2561504","co38710","norming","","","","","","",""
"null","../img/tt/1275tt.jpg","null","mooney2","image-keyboard-response","263","903264","0.0-6.0-5.36","2561504","co38710","norming","","","","","","",""
"1765.70999999973","","","post_reveal_questions","survey-likert","264","905031","0.0-6.0-6.36","2561504","co38710","norming","","","{""aha"":0}","[0]","../img/tt/1275tt.jpg","",""
"null","<div style=""font-size:60px;""> </div>","null","fixation","html-keyboard-response","265","905232","0.0-6.0-0.37","2561504","co38710","norming","","","","","","",""
"null","../img/tt/1362tt.jpg","null","mooney1","image-keyboard-response","266","908237","0.0-6.0-1.37","2561504","co38710","norming","","","","","","",""
"5335.520000000484","","","post_mooney1_questions","survey-likert","267","913575","0.0-6.0-2.37","2561504","co38710","norming","","","{""curiosity"":0,""confidence"":1}","[0,1]","../img/tt/1362tt.jpg","",""
"1726.020000000135","","","recognition","survey-text","268","915303","0.0-6.0-3.37","2561504","co38710","norming","","","{""guess"":""shoe""}","","../img/tt/1362tt.jpg","",""
"null","../img/gs/1362gs.jpg","null","reveal","image-keyboard-response","269","917307","0.0-6.0-4.37","2561504","co38710","norming","","","","","","",""
"null","../img/tt/1362tt.jpg","null","mooney2","image-keyboard-response","270","919310","0.0-6.0-5.37","2561504","co38710","norming","","","","","","",""
"3662.4599999996135","","","post_reveal_questions","survey-likert","271","922975","0.0-6.0-6.37","2561504","co38710","norming","","","{""aha"":0}","[0]","../img/tt/1362tt.jpg","",""
"null","<div style=""font-size:60px;""> </div>","null","fixation","html-keyboard-response","272","923186","0.0-6.0-0.38","2561504","co38710","norming","","","","","","",""
"null","../img/tt/1243tt.jpg","null","mooney1","image-keyboard-response","273","926195","0.0-6.0-1.38","2561504","co38710","norming","","","","","","",""
"4105.074999999488","","","post_mooney1_questions","survey-likert","274","930303","0.0-6.0-2.38","2561504","co38710","norming","","","{""curiosity"":1,""confidence"":1}","[0,1]","../img/tt/1243tt.jpg","",""
"2582.0550000007497","","","recognition","survey-text","275","932887","0.0-6.0-3.38","2561504","co38710","norming","","","{""guess"":""bear""}","","../img/tt/1243tt.jpg","",""
"null","../img/gs/1243gs.jpg","null","reveal","image-keyboard-response","276","934889","0.0-6.0-4.38","2561504","co38710","norming","","","","","","",""
"null","../img/tt/1243tt.jpg","null","mooney2","image-keyboard-response","277","936891","0.0-6.0-5.38","2561504","co38710","norming","","","","","","",""
"2666.1299999996554","","","post_reveal_questions","survey-likert","278","939559","0.0-6.0-6.38","2561504","co38710","norming","","","{""aha"":1}","[0]","../img/tt/1243tt.jpg","",""
"null","<div style=""font-size:60px;""> </div>","null","fixation","html-keyboard-response","279","939760","0.0-6.0-0.39","2561504","co38710","norming","","","","","","",""
"null","../img/tt/584tt.jpg","null","mooney1","image-keyboard-response","280","942771","0.0-6.0-1.39","2561504","co38710","norming","","","","","","",""
"4171.425000000512","","","post_mooney1_questions","survey-likert","281","946943","0.0-6.0-2.39","2561504","co38710","norming","","","{""curiosity"":3,""confidence"":0}","[0,1]","../img/tt/584tt.jpg","",""
"4965.995000000461","","","recognition","survey-text","282","951911","0.0-6.0-3.39","2561504","co38710","norming","","","{""guess"":""plastic""}","","../img/tt/584tt.jpg","",""
"null","../img/gs/584gs.jpg","null","reveal","image-keyboard-response","283","953912","0.0-6.0-4.39","2561504","co38710","norming","","","","","","",""
"null","../img/tt/584tt.jpg","null","mooney2","image-keyboard-response","284","955914","0.0-6.0-5.39","2561504","co38710","norming","","","","","","",""
"1730.4299999995856","","","post_reveal_questions","survey-likert","285","957647","0.0-6.0-6.39","2561504","co38710","norming","","","{""aha"":0}","[0]","../img/tt/584tt.jpg","",""
"null","<div style=""font-size:60px;""> </div>","null","fixation","html-keyboard-response","286","957848","0.0-6.0-0.40","2561504","co38710","norming","","","","","","",""
"null","../img/tt/1272tt.jpg","null","mooney1","image-keyboard-response","287","960850","0.0-6.0-1.40","2561504","co38710","norming","","","","","","",""
"3418.314999999013","","","post_mooney1_questions","survey-likert","288","964271","0.0-6.0-2.40","2561504","co38710","norming","","","{""curiosity"":3,""confidence"":1}","[0,1]","../img/tt/1272tt.jpg","",""
"2070.2799999999115","","","recognition","survey-text","289","966343","0.0-6.0-3.40","2561504","co38710","norming","","","{""guess"":""a bee""}","","../img/tt/1272tt.jpg","",""
"null","../img/gs/1272gs.jpg","null","reveal","image-keyboard-response","290","968345","0.0-6.0-4.40","2561504","co38710","norming","","","","","","",""
"null","../img/tt/1272tt.jpg","null","mooney2","image-keyboard-response","291","970347","0.0-6.0-5.40","2561504","co38710","norming","","","","","","",""
"1194.03000000061","","","post_reveal_questions","survey-likert","292","971543","0.0-6.0-6.40","2561504","co38710","norming","","","{""aha"":1}","[0]","../img/tt/1272tt.jpg","",""
"null","<div style=""font-size:60px;""> </div>","null","fixation","html-keyboard-response","293","971744","0.0-6.0-0.41","2561504","co38710","norming","","","","","","",""
"null","../img/tt/590tt.jpg","null","mooney1","image-keyboard-response","294","974748","0.0-6.0-1.41","2561504","co38710","norming","","","","","","",""
"2506.1199999999953","","","post_mooney1_questions","survey-likert","295","977255","0.0-6.0-2.41","2561504","co38710","norming","","","{""curiosity"":0,""confidence"":0}","[0,1]","../img/tt/590tt.jpg","",""
"1886.6999999991385","","","recognition","survey-text","296","979143","0.0-6.0-3.41","2561504","co38710","norming","","","{""guess"":""/""}","","../img/tt/590tt.jpg","",""
"null","../img/gs/590gs.jpg","null","reveal","image-keyboard-response","297","981145","0.0-6.0-4.41","2561504","co38710","norming","","","","","","",""
"null","../img/tt/590tt.jpg","null","mooney2","image-keyboard-response","298","983146","0.0-6.0-5.41","2561504","co38710","norming","","","","","","",""
"1458.1650000000373","","","post_reveal_questions","survey-likert","299","984607","0.0-6.0-6.41","2561504","co38710","norming","","","{""aha"":0}","[0]","../img/tt/590tt.jpg","",""
"null","<div style=""font-size:60px;""> </div>","null","fixation","html-keyboard-response","300","984809","0.0-6.0-0.42","2561504","co38710","norming","","","","","","",""
"null","../img/tt/1366tt.jpg","null","mooney1","image-keyboard-response","301","987810","0.0-6.0-1.42","2561504","co38710","norming","","","","","","",""
"2865.880000001169","","","post_mooney1_questions","survey-likert","302","990679","0.0-6.0-2.42","2561504","co38710","norming","","","{""curiosity"":1,""confidence"":1}","[0,1]","../img/tt/1366tt.jpg","",""
"1822.154999999795","","","recognition","survey-text","303","992503","0.0-6.0-3.42","2561504","co38710","norming","","","{""guess"":""food""}","","../img/tt/1366tt.jpg","",""
"null","../img/gs/1366gs.jpg","null","reveal","image-keyboard-response","304","994506","0.0-6.0-4.42","2561504","co38710","norming","","","","","","",""
"null","../img/tt/1366tt.jpg","null","mooney2","image-keyboard-response","305","996516","0.0-6.0-5.42","2561504","co38710","norming","","","","","","",""
"2405.3150000000605","","","post_reveal_questions","survey-likert","306","998927","0.0-6.0-6.42","2561504","co38710","norming","","","{""aha"":5}","[0]","../img/tt/1366tt.jpg","",""
"null","<div style=""font-size:60px;""> </div>","null","fixation","html-keyboard-response","307","999135","0.0-6.0-0.43","2561504","co38710","norming","","","","","","",""
"null","../img/tt/406tt.jpg","null","mooney1","image-keyboard-response","308","1002138","0.0-6.0-1.43","2561504","co38710","norming","","","","","","",""
"3241.749999999185","","","post_mooney1_questions","survey-likert","309","1005383","0.0-6.0-2.43","2561504","co38710","norming","","","{""curiosity"":1,""confidence"":1}","[0,1]","../img/tt/406tt.jpg","",""
"2654.2250000002095","","","recognition","survey-text","310","1008039","0.0-6.0-3.43","2561504","co38710","norming","","","{""guess"":""/""}","","../img/tt/406tt.jpg","",""
"null","../img/gs/406gs.jpg","null","reveal","image-keyboard-response","311","1010045","0.0-6.0-4.43","2561504","co38710","norming","","","","","","",""
"null","../img/tt/406tt.jpg","null","mooney2","image-keyboard-response","312","1012047","0.0-6.0-5.43","2561504","co38710","norming","","","","","","",""
"2296.9050000010757","","","post_reveal_questions","survey-likert","313","1014345","0.0-6.0-6.43","2561504","co38710","norming","","","{""aha"":1}","[0]","../img/tt/406tt.jpg","",""
"null","<div style=""font-size:60px;""> </div>","null","fixation","html-keyboard-response","314","1014546","0.0-6.0-0.44","2561504","co38710","norming","","","","","","",""
"null","../img/tt/456tt.jpg","null","mooney1","image-keyboard-response","315","1017556","0.0-6.0-1.44","2561504","co38710","norming","","","","","","",""
"3737.375000000582","","","post_mooney1_questions","survey-likert","316","1021297","0.0-6.0-2.44","2561504","co38710","norming","","","{""curiosity"":2,""confidence"":3}","[0,1]","../img/tt/456tt.jpg","",""
"2166.1000000004424","","","recognition","survey-text","317","1023465","0.0-6.0-3.44","2561504","co38710","norming","","","{""guess"":""bear""}","","../img/tt/456tt.jpg","",""
"null","../img/gs/456gs.jpg","null","reveal","image-keyboard-response","318","1025475","0.0-6.0-4.44","2561504","co38710","norming","","","","","","",""
"null","../img/tt/456tt.jpg","null","mooney2","image-keyboard-response","319","1027478","0.0-6.0-5.44","2561504","co38710","norming","","","","","","",""
"1440.7900000006193","","","post_reveal_questions","survey-likert","320","1028921","0.0-6.0-6.44","2561504","co38710","norming","","","{""aha"":6}","[0]","../img/tt/456tt.jpg","",""
"null","<div style=""font-size:60px;""> </div>","null","fixation","html-keyboard-response","321","1029131","0.0-6.0-0.45","2561504","co38710","norming","","","","","","",""
"null","../img/tt/135tt.jpg","null","mooney1","image-keyboard-response","322","1032135","0.0-6.0-1.45","2561504","co38710","norming","","","","","","",""
"3391.30499999912","","","post_mooney1_questions","survey-likert","323","1035529","0.0-6.0-2.45","2561504","co38710","norming","","","{""curiosity"":2,""confidence"":1}","[0,1]","../img/tt/135tt.jpg","",""
"3070.394999998738","","","recognition","survey-text","324","1038601","0.0-6.0-3.45","2561504","co38710","norming","","","{""guess"":""thee pot""}","","../img/tt/135tt.jpg","",""
"null","../img/gs/135gs.jpg","null","reveal","image-keyboard-response","325","1040602","0.0-6.0-4.45","2561504","co38710","norming","","","","","","",""
"null","../img/tt/135tt.jpg","null","mooney2","image-keyboard-response","326","1042604","0.0-6.0-5.45","2561504","co38710","norming","","","","","","",""
"1225.9099999992177","","","post_reveal_questions","survey-likert","327","1043833","0.0-6.0-6.45","2561504","co38710","norming","","","{""aha"":3}","[0]","../img/tt/135tt.jpg","",""
"null","<div style=""font-size:60px;""> </div>","null","fixation","html-keyboard-response","328","1044034","0.0-6.0-0.46","2561504","co38710","norming","","","","","","",""
"null","../img/tt/1200tt.jpg","null","mooney1","image-keyboard-response","329","1047037","0.0-6.0-1.46","2561504","co38710","norming","","","","","","",""
"4360.709999998915","","","post_mooney1_questions","survey-likert","330","1051401","0.0-6.0-2.46","2561504","co38710","norming","","","{""curiosity"":1,""confidence"":0}","[0,1]","../img/tt/1200tt.jpg","",""
"1325.4899999992922","","","recognition","survey-text","331","1052729","0.0-6.0-3.46","2561504","co38710","norming","","","{""guess"":""/""}","","../img/tt/1200tt.jpg","",""
"null","../img/gs/1200gs.jpg","null","reveal","image-keyboard-response","332","1054730","0.0-6.0-4.46","2561504","co38710","norming","","","","","","",""
"null","../img/tt/1200tt.jpg","null","mooney2","image-keyboard-response","333","1056731","0.0-6.0-5.46","2561504","co38710","norming","","","","","","",""
"2317.354999999283","","","post_reveal_questions","survey-likert","334","1059049","0.0-6.0-6.46","2561504","co38710","norming","","","{""aha"":3}","[0]","../img/tt/1200tt.jpg","",""
"null","<div style=""font-size:60px;""> </div>","null","fixation","html-keyboard-response","335","1059253","0.0-6.0-0.47","2561504","co38710","norming","","","","","","",""
"null","../img/tt/1080tt.jpg","null","mooney1","image-keyboard-response","336","1062256","0.0-6.0-1.47","2561504","co38710","norming","","","","","","",""
"3981.6299999984913","","","post_mooney1_questions","survey-likert","337","1066241","0.0-6.0-2.47","2561504","co38710","norming","","","{""curiosity"":3,""confidence"":3}","[0,1]","../img/tt/1080tt.jpg","",""
"1909.5750000015832","","","recognition","survey-text","338","1068153","0.0-6.0-3.47","2561504","co38710","norming","","","{""guess"":""woman""}","","../img/tt/1080tt.jpg","",""
"null","../img/gs/1080gs.jpg","null","reveal","image-keyboard-response","339","1070161","0.0-6.0-4.47","2561504","co38710","norming","","","","","","",""
"null","../img/tt/1080tt.jpg","null","mooney2","image-keyboard-response","340","1072164","0.0-6.0-5.47","2561504","co38710","norming","","","","","","",""
"1796.3049999999348","","","post_reveal_questions","survey-likert","341","1073962","0.0-6.0-6.47","2561504","co38710","norming","","","{""aha"":0}","[0]","../img/tt/1080tt.jpg","",""
"null","<div style=""font-size:60px;""> </div>","null","fixation","html-keyboard-response","342","1074163","0.0-6.0-0.48","2561504","co38710","norming","","","","","","",""
"null","../img/tt/1142tt.jpg","null","mooney1","image-keyboard-response","343","1077167","0.0-6.0-1.48","2561504","co38710","norming","","","","","","",""
"3441.8750000004657","","","post_mooney1_questions","survey-likert","344","1080610","0.0-6.0-2.48","2561504","co38710","norming","","","{""curiosity"":3,""confidence"":3}","[0,1]","../img/tt/1142tt.jpg","",""
"2374.2950000013225","","","recognition","survey-text","345","1082986","0.0-6.0-3.48","2561504","co38710","norming","","","{""guess"":""sport""}","","../img/tt/1142tt.jpg","",""
"null","../img/gs/1142gs.jpg","null","reveal","image-keyboard-response","346","1084988","0.0-6.0-4.48","2561504","co38710","norming","","","","","","",""
"null","../img/tt/1142tt.jpg","null","mooney2","image-keyboard-response","347","1086998","0.0-6.0-5.48","2561504","co38710","norming","","","","","","",""
"1817.820000000298","","","post_reveal_questions","survey-likert","348","1088818","0.0-6.0-6.48","2561504","co38710","norming","","","{""aha"":5}","[0]","../img/tt/1142tt.jpg","",""
"null","<div style=""font-size:60px;""> </div>","null","fixation","html-keyboard-response","349","1089019","0.0-6.0-0.49","2561504","co38710","norming","","","","","","",""
"null","../img/tt/552tt.jpg","null","mooney1","image-keyboard-response","350","1092029","0.0-6.0-1.49","2561504","co38710","norming","","","","","","",""
"3433.7599999997765","","","post_mooney1_questions","survey-likert","351","1095466","0.0-6.0-2.49","2561504","co38710","norming","","","{""curiosity"":3,""confidence"":3}","[0,1]","../img/tt/552tt.jpg","",""
"5245.880000000354","","","recognition","survey-text","352","1100713","0.0-6.0-3.49","2561504","co38710","norming","","","{""guess"":""squarell""}","","../img/tt/552tt.jpg","",""
"null","../img/gs/552gs.jpg","null","reveal","image-keyboard-response","353","1102714","0.0-6.0-4.49","2561504","co38710","norming","","","","","","",""
"null","../img/tt/552tt.jpg","null","mooney2","image-keyboard-response","354","1104716","0.0-6.0-5.49","2561504","co38710","norming","","","","","","",""
"1988.4949999994133","","","post_reveal_questions","survey-likert","355","1106706","0.0-6.0-6.49","2561504","co38710","norming","","","{""aha"":4}","[0]","../img/tt/552tt.jpg","",""
"null","<div style=""font-size:60px;""> </div>","null","fixation","html-keyboard-response","356","1106916","0.0-6.0-0.50","2561504","co38710","norming","","","","","","",""
"null","../img/tt/111tt.jpg","null","mooney1","image-keyboard-response","357","1109927","0.0-6.0-1.50","2561504","co38710","norming","","","","","","",""
"2895.9049999995623","","","post_mooney1_questions","survey-likert","358","1112826","0.0-6.0-2.50","2561504","co38710","norming","","","{""curiosity"":1,""confidence"":0}","[0,1]","../img/tt/111tt.jpg","",""
"1534.3150000008754","","","recognition","survey-text","359","1114362","0.0-6.0-3.50","2561504","co38710","norming","","","{""guess"":""/""}","","../img/tt/111tt.jpg","",""
"null","../img/gs/111gs.jpg","null","reveal","image-keyboard-response","360","1116369","0.0-6.0-4.50","2561504","co38710","norming","","","","","","",""
"null","../img/tt/111tt.jpg","null","mooney2","image-keyboard-response","361","1118371","0.0-6.0-5.50","2561504","co38710","norming","","","","","","",""
"1564.719999998575","","","post_reveal_questions","survey-likert","362","1119938","0.0-6.0-6.50","2561504","co38710","norming","","","{""aha"":2}","[0]","../img/tt/111tt.jpg","",""
"null","<div style=""font-size:60px;""> </div>","null","fixation","html-keyboard-response","363","1120139","0.0-6.0-0.51","2561504","co38710","norming","","","","","","",""
"null","../img/tt/378tt.jpg","null","mooney1","image-keyboard-response","364","1123146","0.0-6.0-1.51","2561504","co38710","norming","","","","","","",""
"3084.4850000010338","","","post_mooney1_questions","survey-likert","365","1126234","0.0-6.0-2.51","2561504","co38710","norming","","","{""curiosity"":1,""confidence"":3}","[0,1]","../img/tt/378tt.jpg","",""
"4030.264999999432","","","recognition","survey-text","366","1130263","0.0-6.0-3.51","2561504","co38710","norming","","","{""guess"":""animal""}","","../img/tt/378tt.jpg","",""
"null","../img/gs/378gs.jpg","null","reveal","image-keyboard-response","367","1132265","0.0-6.0-4.51","2561504","co38710","norming","","","","","","",""
"null","../img/tt/378tt.jpg","null","mooney2","image-keyboard-response","368","1134266","0.0-6.0-5.51","2561504","co38710","norming","","","","","","",""
"1834.2749999992084","","","post_reveal_questions","survey-likert","369","1136103","0.0-6.0-6.51","2561504","co38710","norming","","","{""aha"":2}","[0]","../img/tt/378tt.jpg","",""
"null","<div style=""font-size:60px;""> </div>","null","fixation","html-keyboard-response","370","1136305","0.0-6.0-0.52","2561504","co38710","norming","","","","","","",""
"null","../img/tt/1055tt.jpg","null","mooney1","image-keyboard-response","371","1139311","0.0-6.0-1.52","2561504","co38710","norming","","","","","","",""
"4333.285000000615","","","post_mooney1_questions","survey-likert","372","1143647","0.0-6.0-2.52","2561504","co38710","norming","","","{""curiosity"":3,""confidence"":3}","[0,1]","../img/tt/1055tt.jpg","",""
"1669.654999999795","","","recognition","survey-text","373","1145319","0.0-6.0-3.52","2561504","co38710","norming","","","{""guess"":""water""}","","../img/tt/1055tt.jpg","",""
"null","../img/gs/1055gs.jpg","null","reveal","image-keyboard-response","374","1147320","0.0-6.0-4.52","2561504","co38710","norming","","","","","","",""
"null","../img/tt/1055tt.jpg","null","mooney2","image-keyboard-response","375","1149331","0.0-6.0-5.52","2561504","co38710","norming","","","","","","",""
"1633.2750000001397","","","post_reveal_questions","survey-likert","376","1150967","0.0-6.0-6.52","2561504","co38710","norming","","","{""aha"":5}","[0]","../img/tt/1055tt.jpg","",""
"null","<div style=""font-size:60px;""> </div>","null","fixation","html-keyboard-response","377","1151168","0.0-6.0-0.53","2561504","co38710","norming","","","","","","",""
"null","../img/tt/1128tt.jpg","null","mooney1","image-keyboard-response","378","1154171","0.0-6.0-1.53","2561504","co38710","norming","","","","","","",""
"3016.5949999992736","","","post_mooney1_questions","survey-likert","379","1157191","0.0-6.0-2.53","2561504","co38710","norming","","","{""curiosity"":3,""confidence"":2}","[0,1]","../img/tt/1128tt.jpg","",""
"1902.1799999992363","","","recognition","survey-text","380","1159095","0.0-6.0-3.53","2561504","co38710","norming","","","{""guess"":""panda""}","","../img/tt/1128tt.jpg","",""
"null","../img/gs/1128gs.jpg","null","reveal","image-keyboard-response","381","1161097","0.0-6.0-4.53","2561504","co38710","norming","","","","","","",""
"null","../img/tt/1128tt.jpg","null","mooney2","image-keyboard-response","382","1163099","0.0-6.0-5.53","2561504","co38710","norming","","","","","","",""
"2233.674999999581","","","post_reveal_questions","survey-likert","383","1165335","0.0-6.0-6.53","2561504","co38710","norming","","","{""aha"":1}","[0]","../img/tt/1128tt.jpg","",""
"null","<div style=""font-size:60px;""> </div>","null","fixation","html-keyboard-response","384","1165537","0.0-6.0-0.54","2561504","co38710","norming","","","","","","",""
"null","../img/tt/1096tt.jpg","null","mooney1","image-keyboard-response","385","1168540","0.0-6.0-1.54","2561504","co38710","norming","","","","","","",""
"4031.859999999171","","","post_mooney1_questions","survey-likert","386","1172575","0.0-6.0-2.54","2561504","co38710","norming","","","{""curiosity"":2,""confidence"":3}","[0,1]","../img/tt/1096tt.jpg","",""
"2518.239999999525","","","recognition","survey-text","387","1175095","0.0-6.0-3.54","2561504","co38710","norming","","","{""guess"":""house""}","","../img/tt/1096tt.jpg","",""
"null","../img/gs/1096gs.jpg","null","reveal","image-keyboard-response","388","1177096","0.0-6.0-4.54","2561504","co38710","norming","","","","","","",""
"null","../img/tt/1096tt.jpg","null","mooney2","image-keyboard-response","389","1179098","0.0-6.0-5.54","2561504","co38710","norming","","","","","","",""
"1410.1950000005309","","","post_reveal_questions","survey-likert","390","1180511","0.0-6.0-6.54","2561504","co38710","norming","","","{""aha"":2}","[0]","../img/tt/1096tt.jpg","",""
"null","<div style=""font-size:60px;""> </div>","null","fixation","html-keyboard-response","391","1180713","0.0-6.0-0.55","2561504","co38710","norming","","","","","","",""
"null","../img/tt/1078tt.jpg","null","mooney1","image-keyboard-response","392","1183717","0.0-6.0-1.55","2561504","co38710","norming","","","","","","",""
"2918.7050000000745","","","post_mooney1_questions","survey-likert","393","1186639","0.0-6.0-2.55","2561504","co38710","norming","","","{""curiosity"":2,""confidence"":3}","[0,1]","../img/tt/1078tt.jpg","",""
"5190.039999999572","","","recognition","survey-text","394","1191827","0.0-6.0-3.55","2561504","co38710","norming","","","{""guess"":""attraction park""}","","../img/tt/1078tt.jpg","",""
"null","../img/gs/1078gs.jpg","null","reveal","image-keyboard-response","395","1193829","0.0-6.0-4.55","2561504","co38710","norming","","","","","","",""
"null","../img/tt/1078tt.jpg","null","mooney2","image-keyboard-response","396","1195830","0.0-6.0-5.55","2561504","co38710","norming","","","","","","",""
"1770.174999999581","","","post_reveal_questions","survey-likert","397","1197603","0.0-6.0-6.55","2561504","co38710","norming","","","{""aha"":3}","[0]","../img/tt/1078tt.jpg","",""
"null","<div style=""font-size:60px;""> </div>","null","fixation","html-keyboard-response","398","1197804","0.0-6.0-0.56","2561504","co38710","norming","","","","","","",""
"null","../img/tt/1199tt.jpg","null","mooney1","image-keyboard-response","399","1200806","0.0-6.0-1.56","2561504","co38710","norming","","","","","","",""
"2723.880000001285","","","post_mooney1_questions","survey-likert","400","1203531","0.0-6.0-2.56","2561504","co38710","norming","","","{""curiosity"":3,""confidence"":1}","[0,1]","../img/tt/1199tt.jpg","",""
"1526.2949999994598","","","recognition","survey-text","401","1205059","0.0-6.0-3.56","2561504","co38710","norming","","","{""guess"":""bed""}","","../img/tt/1199tt.jpg","",""
"null","../img/gs/1199gs.jpg","null","reveal","image-keyboard-response","402","1207061","0.0-6.0-4.56","2561504","co38710","norming","","","","","","",""
"null","../img/tt/1199tt.jpg","null","mooney2","image-keyboard-response","403","1209070","0.0-6.0-5.56","2561504","co38710","norming","","","","","","",""
"1898.9749999998603","","","post_reveal_questions","survey-likert","404","1210971","0.0-6.0-6.56","2561504","co38710","norming","","","{""aha"":3}","[0]","../img/tt/1199tt.jpg","",""
"null","<div style=""font-size:60px;""> </div>","null","fixation","html-keyboard-response","405","1211172","0.0-6.0-0.57","2561504","co38710","norming","","","","","","",""
"null","../img/tt/126tt.jpg","null","mooney1","image-keyboard-response","406","1214175","0.0-6.0-1.57","2561504","co38710","norming","","","","","","",""
"4264.834999999963","","","post_mooney1_questions","survey-likert","407","1218443","0.0-6.0-2.57","2561504","co38710","norming","","","{""curiosity"":0,""confidence"":0}","[0,1]","../img/tt/126tt.jpg","",""
"1413.9599999999627","","","recognition","survey-text","408","1219859","0.0-6.0-3.57","2561504","co38710","norming","","","{""guess"":""/""}","","../img/tt/126tt.jpg","",""
"null","../img/gs/126gs.jpg","null","reveal","image-keyboard-response","409","1221861","0.0-6.0-4.57","2561504","co38710","norming","","","","","","",""
"null","../img/tt/126tt.jpg","null","mooney2","image-keyboard-response","410","1223863","0.0-6.0-5.57","2561504","co38710","norming","","","","","","",""
"1874.2099999999627","","","post_reveal_questions","survey-likert","411","1225739","0.0-6.0-6.57","2561504","co38710","norming","","","{""aha"":1}","[0]","../img/tt/126tt.jpg","",""
"null","<div style=""font-size:60px;""> </div>","null","fixation","html-keyboard-response","412","1225941","0.0-6.0-0.58","2561504","co38710","norming","","","","","","",""
"null","../img/tt/108tt.jpg","null","mooney1","image-keyboard-response","413","1228953","0.0-6.0-1.58","2561504","co38710","norming","","","","","","",""
"3774.755000000354","","","post_mooney1_questions","survey-likert","414","1232731","0.0-6.0-2.58","2561504","co38710","norming","","","{""curiosity"":3,""confidence"":1}","[0,1]","../img/tt/108tt.jpg","",""
"3222.505000001518","","","recognition","survey-text","415","1235955","0.0-6.0-3.58","2561504","co38710","norming","","","{""guess"":""cow""}","","../img/tt/108tt.jpg","",""
"null","../img/gs/108gs.jpg","null","reveal","image-keyboard-response","416","1237957","0.0-6.0-4.58","2561504","co38710","norming","","","","","","",""
"null","../img/tt/108tt.jpg","null","mooney2","image-keyboard-response","417","1239959","0.0-6.0-5.58","2561504","co38710","norming","","","","","","",""
"1609.8000000002794","","","post_reveal_questions","survey-likert","418","1241571","0.0-6.0-6.58","2561504","co38710","norming","","","{""aha"":2}","[0]","../img/tt/108tt.jpg","",""
"null","<div style=""font-size:60px;""> </div>","null","fixation","html-keyboard-response","419","1241773","0.0-6.0-0.59","2561504","co38710","norming","","","","","","",""
"null","../img/tt/032tt.jpg","null","mooney1","image-keyboard-response","420","1244774","0.0-6.0-1.59","2561504","co38710","norming","","","","","","",""
"3428.2300000011455","","","post_mooney1_questions","survey-likert","421","1248204","0.0-6.0-2.59","2561504","co38710","norming","","","{""curiosity"":2,""confidence"":3}","[0,1]","../img/tt/032tt.jpg","",""
"2405.950000000419","","","recognition","survey-text","422","1250618","0.0-6.0-3.59","2561504","co38710","norming","","","{""guess"":""duck""}","","../img/tt/032tt.jpg","",""
"null","../img/gs/032gs.jpg","null","reveal","image-keyboard-response","423","1252626","0.0-6.0-4.59","2561504","co38710","norming","","","","","","",""
"null","../img/tt/032tt.jpg","null","mooney2","image-keyboard-response","424","1254633","0.0-6.0-5.59","2561504","co38710","norming","","","","","","",""
"3332.6249999990687","","","post_reveal_questions","survey-likert","425","1257970","0.0-6.0-6.59","2561504","co38710","norming","","","{""aha"":1}","[0]","../img/tt/032tt.jpg","",""
"null","<div style=""font-size:60px;""> </div>","null","fixation","html-keyboard-response","426","1258171","0.0-6.0-0.60","2561504","co38710","norming","","","","","","",""
"null","../img/tt/1236tt.jpg","null","mooney1","image-keyboard-response","427","1261174","0.0-6.0-1.60","2561504","co38710","norming","","","","","","",""
"3280.230000000447","","","post_mooney1_questions","survey-likert","428","1264458","0.0-6.0-2.60","2561504","co38710","norming","","","{""curiosity"":2,""confidence"":1}","[0,1]","../img/tt/1236tt.jpg","",""
"2158.170000000624","","","recognition","survey-text","429","1266618","0.0-6.0-3.60","2561504","co38710","norming","","","{""guess"":""boat""}","","../img/tt/1236tt.jpg","",""
"null","../img/gs/1236gs.jpg","null","reveal","image-keyboard-response","430","1268619","0.0-6.0-4.60","2561504","co38710","norming","","","","","","",""
"null","../img/tt/1236tt.jpg","null","mooney2","image-keyboard-response","431","1270622","0.0-6.0-5.60","2561504","co38710","norming","","","","","","",""
"1801.1850000002887","","","post_reveal_questions","survey-likert","432","1272426","0.0-6.0-6.60","2561504","co38710","norming","","","{""aha"":2}","[0]","../img/tt/1236tt.jpg","",""
"null","<div style=""font-size:60px;""> </div>","null","fixation","html-keyboard-response","433","1272628","0.0-6.0-0.61","2561504","co38710","norming","","","","","","",""
"null","../img/tt/091tt.jpg","null","mooney1","image-keyboard-response","434","1275639","0.0-6.0-1.61","2561504","co38710","norming","","","","","","",""
"3214.9850000003353","","","post_mooney1_questions","survey-likert","435","1278858","0.0-6.0-2.61","2561504","co38710","norming","","","{""curiosity"":2,""confidence"":1}","[0,1]","../img/tt/091tt.jpg","",""
"3853.83499999973","","","recognition","survey-text","436","1282714","0.0-6.0-3.61","2561504","co38710","norming","","","{""guess"":""wate""}","","../img/tt/091tt.jpg","",""
"null","../img/gs/091gs.jpg","null","reveal","image-keyboard-response","437","1284715","0.0-6.0-4.61","2561504","co38710","norming","","","","","","",""
"null","../img/tt/091tt.jpg","null","mooney2","image-keyboard-response","438","1286716","0.0-6.0-5.61","2561504","co38710","norming","","","","","","",""
"1605.4649999986868","","","post_reveal_questions","survey-likert","439","1288322","0.0-6.0-6.61","2561504","co38710","norming","","","{""aha"":2}","[0]","../img/tt/091tt.jpg","",""
"null","<div style=""font-size:60px;""> </div>","null","fixation","html-keyboard-response","440","1288524","0.0-6.0-0.62","2561504","co38710","norming","","","","","","",""
"null","../img/tt/124tt.jpg","null","mooney1","image-keyboard-response","441","1291527","0.0-6.0-1.62","2561504","co38710","norming","","","","","","",""
"3080.3299999986775","","","post_mooney1_questions","survey-likert","442","1294610","0.0-6.0-2.62","2561504","co38710","norming","","","{""curiosity"":2,""confidence"":3}","[0,1]","../img/tt/124tt.jpg","",""
"1718.1099999998696","","","recognition","survey-text","443","1296330","0.0-6.0-3.62","2561504","co38710","norming","","","{""guess"":""ape""}","","../img/tt/124tt.jpg","",""
"null","../img/gs/124gs.jpg","null","reveal","image-keyboard-response","444","1298331","0.0-6.0-4.62","2561504","co38710","norming","","","","","","",""
"null","../img/tt/124tt.jpg","null","mooney2","image-keyboard-response","445","1300334","0.0-6.0-5.62","2561504","co38710","norming","","","","","","",""
"2641.2050000000745","","","post_reveal_questions","survey-likert","446","1302978","0.0-6.0-6.62","2561504","co38710","norming","","","{""aha"":4}","[0]","../img/tt/124tt.jpg","",""
"null","<div style=""font-size:60px;""> </div>","null","fixation","html-keyboard-response","447","1303179","0.0-6.0-0.63","2561504","co38710","norming","","","","","","",""
"null","../img/tt/497tt.jpg","null","mooney1","image-keyboard-response","448","1306183","0.0-6.0-1.63","2561504","co38710","norming","","","","","","",""
"3791.394999998389","","","post_mooney1_questions","survey-likert","449","1309978","0.0-6.0-2.63","2561504","co38710","norming","","","{""curiosity"":2,""confidence"":2}","[0,1]","../img/tt/497tt.jpg","",""
"4366.145000000019","","","recognition","survey-text","450","1314347","0.0-6.0-3.63","2561504","co38710","norming","","","{""guess"":""/""}","","../img/tt/497tt.jpg","",""
"null","../img/gs/497gs.jpg","null","reveal","image-keyboard-response","451","1316353","0.0-6.0-4.63","2561504","co38710","norming","","","","","","",""
"null","../img/tt/497tt.jpg","null","mooney2","image-keyboard-response","452","1318355","0.0-6.0-5.63","2561504","co38710","norming","","","","","","",""
"3629.9499999985565","","","post_reveal_questions","survey-likert","453","1321987","0.0-6.0-6.63","2561504","co38710","norming","","","{""aha"":6}","[0]","../img/tt/497tt.jpg","",""
"null","<div style=""font-size:60px;""> </div>","null","fixation","html-keyboard-response","454","1322189","0.0-6.0-0.64","2561504","co38710","norming","","","","","","",""
"null","../img/tt/1191tt.jpg","null","mooney1","image-keyboard-response","455","1325192","0.0-6.0-1.64","2561504","co38710","norming","","","","","","",""
"2974.8400000005495","","","post_mooney1_questions","survey-likert","456","1328171","0.0-6.0-2.64","2561504","co38710","norming","","","{""curiosity"":3,""confidence"":3}","[0,1]","../img/tt/1191tt.jpg","",""
"2286.245000001043","","","recognition","survey-text","457","1330459","0.0-6.0-3.64","2561504","co38710","norming","","","{""guess"":""horse""}","","../img/tt/1191tt.jpg","",""
"null","../img/gs/1191gs.jpg","null","reveal","image-keyboard-response","458","1332461","0.0-6.0-4.64","2561504","co38710","norming","","","","","","",""
"null","../img/tt/1191tt.jpg","null","mooney2","image-keyboard-response","459","1334465","0.0-6.0-5.64","2561504","co38710","norming","","","","","","",""
"2463.850000000093","","","post_reveal_questions","survey-likert","460","1336931","0.0-6.0-6.64","2561504","co38710","norming","","","{""aha"":4}","[0]","../img/tt/1191tt.jpg","",""
"null","<div style=""font-size:60px;""> </div>","null","fixation","html-keyboard-response","461","1337132","0.0-6.0-0.65","2561504","co38710","norming","","","","","","",""
"null","../img/tt/1241tt.jpg","null","mooney1","image-keyboard-response","462","1340144","0.0-6.0-1.65","2561504","co38710","norming","","","","","","",""
"3759.7449999994133","","","post_mooney1_questions","survey-likert","463","1343907","0.0-6.0-2.65","2561504","co38710","norming","","","{""curiosity"":3,""confidence"":3}","[0,1]","../img/tt/1241tt.jpg","",""
"1654.1949999991339","","","recognition","survey-text","464","1345563","0.0-6.0-3.65","2561504","co38710","norming","","","{""guess"":""wolf""}","","../img/tt/1241tt.jpg","",""
"null","../img/gs/1241gs.jpg","null","reveal","image-keyboard-response","465","1347564","0.0-6.0-4.65","2561504","co38710","norming","","","","","","",""
"null","../img/tt/1241tt.jpg","null","mooney2","image-keyboard-response","466","1349572","0.0-6.0-5.65","2561504","co38710","norming","","","","","","",""
"1628.0150000001304","","","post_reveal_questions","survey-likert","467","1351203","0.0-6.0-6.65","2561504","co38710","norming","","","{""aha"":6}","[0]","../img/tt/1241tt.jpg","",""
"null","<div style=""font-size:60px;""> </div>","null","fixation","html-keyboard-response","468","1351405","0.0-6.0-0.66","2561504","co38710","norming","","","","","","",""
"null","../img/tt/1043tt.jpg","null","mooney1","image-keyboard-response","469","1354410","0.0-6.0-1.66","2561504","co38710","norming","","","","","","",""
"5013.375000000466","","","post_mooney1_questions","survey-likert","470","1359427","0.0-6.0-2.66","2561504","co38710","norming","","","{""curiosity"":0,""confidence"":0}","[0,1]","../img/tt/1043tt.jpg","",""
"1142.4149999984074","","","recognition","survey-text","471","1360571","0.0-6.0-3.66","2561504","co38710","norming","","","{""guess"":""/""}","","../img/tt/1043tt.jpg","",""
"null","../img/gs/1043gs.jpg","null","reveal","image-keyboard-response","472","1362578","0.0-6.0-4.66","2561504","co38710","norming","","","","","","",""
"null","../img/tt/1043tt.jpg","null","mooney2","image-keyboard-response","473","1364579","0.0-6.0-5.66","2561504","co38710","norming","","","","","","",""
"1741.7449999994133","","","post_reveal_questions","survey-likert","474","1366323","0.0-6.0-6.66","2561504","co38710","norming","","","{""aha"":0}","[0]","../img/tt/1043tt.jpg","",""
"null","<div style=""font-size:60px;""> </div>","null","fixation","html-keyboard-response","475","1366524","0.0-6.0-0.67","2561504","co38710","norming","","","","","","",""
"null","../img/tt/189tt.jpg","null","mooney1","image-keyboard-response","476","1369533","0.0-6.0-1.67","2561504","co38710","norming","","","","","","",""
"3122.7649999998976","","","post_mooney1_questions","survey-likert","477","1372659","0.0-6.0-2.67","2561504","co38710","norming","","","{""curiosity"":3,""confidence"":2}","[0,1]","../img/tt/189tt.jpg","",""
"1526.130000000121","","","recognition","survey-text","478","1374185","0.0-6.0-3.67","2561504","co38710","norming","","","{""guess"":""bird""}","","../img/tt/189tt.jpg","",""
"null","../img/gs/189gs.jpg","null","reveal","image-keyboard-response","479","1376190","0.0-6.0-4.67","2561504","co38710","norming","","","","","","",""
"null","../img/tt/189tt.jpg","null","mooney2","image-keyboard-response","480","1378194","0.0-6.0-5.67","2561504","co38710","norming","","","","","","",""
"1436.5550000001676","","","post_reveal_questions","survey-likert","481","1379634","0.0-6.0-6.67","2561504","co38710","norming","","","{""aha"":1}","[0]","../img/tt/189tt.jpg","",""
"null","<div style=""font-size:60px;""> </div>","null","fixation","html-keyboard-response","482","1379835","0.0-6.0-0.68","2561504","co38710","norming","","","","","","",""
"null","../img/tt/055tt.jpg","null","mooney1","image-keyboard-response","483","1382843","0.0-6.0-1.68","2561504","co38710","norming","","","","","","",""
"2853.2649999996647","","","post_mooney1_questions","survey-likert","484","1385698","0.0-6.0-2.68","2561504","co38710","norming","","","{""curiosity"":3,""confidence"":4}","[0,1]","../img/tt/055tt.jpg","",""
"2230.144999999553","","","recognition","survey-text","485","1387930","0.0-6.0-3.68","2561504","co38710","norming","","","{""guess"":""sadle""}","","../img/tt/055tt.jpg","",""
"null","../img/gs/055gs.jpg","null","reveal","image-keyboard-response","486","1389931","0.0-6.0-4.68","2561504","co38710","norming","","","","","","",""
"null","../img/tt/055tt.jpg","null","mooney2","image-keyboard-response","487","1391933","0.0-6.0-5.68","2561504","co38710","norming","","","","","","",""
"2433.404999999795","","","post_reveal_questions","survey-likert","488","1394370","0.0-6.0-6.68","2561504","co38710","norming","","","{""aha"":3}","[0]","../img/tt/055tt.jpg","",""
"null","<div style=""font-size:60px;""> </div>","null","fixation","html-keyboard-response","489","1394571","0.0-6.0-0.69","2561504","co38710","norming","","","","","","",""
"null","../img/tt/1097tt.jpg","null","mooney1","image-keyboard-response","490","1397581","0.0-6.0-1.69","2561504","co38710","norming","","","","","","",""
"3515.365000001155","","","post_mooney1_questions","survey-likert","491","1401098","0.0-6.0-2.69","2561504","co38710","norming","","","{""curiosity"":3,""confidence"":5}","[0,1]","../img/tt/1097tt.jpg","",""
"1550.2600000000093","","","recognition","survey-text","492","1402650","0.0-6.0-3.69","2561504","co38710","norming","","","{""guess"":""man""}","","../img/tt/1097tt.jpg","",""
"null","../img/gs/1097gs.jpg","null","reveal","image-keyboard-response","493","1404651","0.0-6.0-4.69","2561504","co38710","norming","","","","","","",""
"null","../img/tt/1097tt.jpg","null","mooney2","image-keyboard-response","494","1406652","0.0-6.0-5.69","2561504","co38710","norming","","","","","","",""
"1530.7050000010058","","","post_reveal_questions","survey-likert","495","1408186","0.0-6.0-6.69","2561504","co38710","norming","","","{""aha"":3}","[0]","../img/tt/1097tt.jpg","",""
"null","<div style=""font-size:60px;""> </div>","null","fixation","html-keyboard-response","496","1408387","0.0-6.0-0.70","2561504","co38710","norming","","","","","","",""
"null","../img/tt/222tt.jpg","null","mooney1","image-keyboard-response","497","1411392","0.0-6.0-1.70","2561504","co38710","norming","","","","","","",""
"3934.390000000363","","","post_mooney1_questions","survey-likert","498","1415330","0.0-6.0-2.70","2561504","co38710","norming","","","{""curiosity"":3,""confidence"":3}","[0,1]","../img/tt/222tt.jpg","",""
"1894.344999998808","","","recognition","survey-text","499","1417226","0.0-6.0-3.70","2561504","co38710","norming","","","{""guess"":""cook""}","","../img/tt/222tt.jpg","",""
"null","../img/gs/222gs.jpg","null","reveal","image-keyboard-response","500","1419227","0.0-6.0-4.70","2561504","co38710","norming","","","","","","",""
"null","../img/tt/222tt.jpg","null","mooney2","image-keyboard-response","501","1421230","0.0-6.0-5.70","2561504","co38710","norming","","","","","","",""
"1800.8699999991804","","","post_reveal_questions","survey-likert","502","1423033","0.0-6.0-6.70","2561504","co38710","norming","","","{""aha"":4}","[0]","../img/tt/222tt.jpg","",""
"null","<div style=""font-size:60px;""> </div>","null","fixation","html-keyboard-response","503","1423235","0.0-6.0-0.71","2561504","co38710","norming","","","","","","",""
"null","../img/tt/438tt.jpg","null","mooney1","image-keyboard-response","504","1426238","0.0-6.0-1.71","2561504","co38710","norming","","","","","","",""
"3808.3100000002887","","","post_mooney1_questions","survey-likert","505","1430050","0.0-6.0-2.71","2561504","co38710","norming","","","{""curiosity"":2,""confidence"":3}","[0,1]","../img/tt/438tt.jpg","",""
"2005.9250000012107","","","recognition","survey-text","506","1432057","0.0-6.0-3.71","2561504","co38710","norming","","","{""guess"":""bird""}","","../img/tt/438tt.jpg","",""
"null","../img/gs/438gs.jpg","null","reveal","image-keyboard-response","507","1434059","0.0-6.0-4.71","2561504","co38710","norming","","","","","","",""
"null","../img/tt/438tt.jpg","null","mooney2","image-keyboard-response","508","1436066","0.0-6.0-5.71","2561504","co38710","norming","","","","","","",""
"1345.1499999992084","","","post_reveal_questions","survey-likert","509","1437414","0.0-6.0-6.71","2561504","co38710","norming","","","{""aha"":2}","[0]","../img/tt/438tt.jpg","",""
"null","<div style=""font-size:60px;""> </div>","null","fixation","html-keyboard-response","510","1437615","0.0-6.0-0.72","2561504","co38710","norming","","","","","","",""
"null","../img/tt/1247tt.jpg","null","mooney1","image-keyboard-response","511","1440618","0.0-6.0-1.72","2561504","co38710","norming","","","","","","",""
"4616.039999999106","","","post_mooney1_questions","survey-likert","512","1445238","0.0-6.0-2.72","2561504","co38710","norming","","","{""curiosity"":3,""confidence"":3}","[0,1]","../img/tt/1247tt.jpg","",""
"2150.0500000002794","","","recognition","survey-text","513","1447390","0.0-6.0-3.72","2561504","co38710","norming","","","{""guess"":""flower""}","","../img/tt/1247tt.jpg","",""
"null","../img/gs/1247gs.jpg","null","reveal","image-keyboard-response","514","1449392","0.0-6.0-4.72","2561504","co38710","norming","","","","","","",""
"null","../img/tt/1247tt.jpg","null","mooney2","image-keyboard-response","515","1451396","0.0-6.0-5.72","2561504","co38710","norming","","","","","","",""
"2063.270000000717","","","post_reveal_questions","survey-likert","516","1453462","0.0-6.0-6.72","2561504","co38710","norming","","","{""aha"":2}","[0]","../img/tt/1247tt.jpg","",""
"null","<div style=""font-size:60px;""> </div>","null","fixation","html-keyboard-response","517","1453663","0.0-6.0-0.73","2561504","co38710","norming","","","","","","",""
"null","../img/tt/008tt.jpg","null","mooney1","image-keyboard-response","518","1456667","0.0-6.0-1.73","2561504","co38710","norming","","","","","","",""
"2647.659999998752","","","post_mooney1_questions","survey-likert","519","1459318","0.0-6.0-2.73","2561504","co38710","norming","","","{""curiosity"":3,""confidence"":2}","[0,1]","../img/tt/008tt.jpg","",""
"1782.14500000095","","","recognition","survey-text","520","1461102","0.0-6.0-3.73","2561504","co38710","norming","","","{""guess"":""knife""}","","../img/tt/008tt.jpg","",""
"null","../img/gs/008gs.jpg","null","reveal","image-keyboard-response","521","1463112","0.0-6.0-4.73","2561504","co38710","norming","","","","","","",""
"null","../img/tt/008tt.jpg","null","mooney2","image-keyboard-response","522","1465113","0.0-6.0-5.73","2561504","co38710","norming","","","","","","",""
"2369.3000000002794","","","post_reveal_questions","survey-likert","523","1467485","0.0-6.0-6.73","2561504","co38710","norming","","","{""aha"":2}","[0]","../img/tt/008tt.jpg","",""
"null","<div style=""font-size:60px;""> </div>","null","fixation","html-keyboard-response","524","1467693","0.0-6.0-0.74","2561504","co38710","norming","","","","","","",""
"null","../img/tt/1269tt.jpg","null","mooney1","image-keyboard-response","525","1470706","0.0-6.0-1.74","2561504","co38710","norming","","","","","","",""
"2752.309999999823","","","post_mooney1_questions","survey-likert","526","1473462","0.0-6.0-2.74","2561504","co38710","norming","","","{""curiosity"":3,""confidence"":2}","[0,1]","../img/tt/1269tt.jpg","",""
"1861.9550000003073","","","recognition","survey-text","527","1475325","0.0-6.0-3.74","2561504","co38710","norming","","","{""guess"":""animal""}","","../img/tt/1269tt.jpg","",""
"null","../img/gs/1269gs.jpg","null","reveal","image-keyboard-response","528","1477335","0.0-6.0-4.74","2561504","co38710","norming","","","","","","",""
"null","../img/tt/1269tt.jpg","null","mooney2","image-keyboard-response","529","1479338","0.0-6.0-5.74","2561504","co38710","norming","","","","","","",""
"1561.1700000008568","","","post_reveal_questions","survey-likert","530","1480901","0.0-6.0-6.74","2561504","co38710","norming","","","{""aha"":3}","[0]","../img/tt/1269tt.jpg","",""
"null","<div style=""font-size:60px;""> </div>","null","fixation","html-keyboard-response","531","1481103","0.0-6.0-0.75","2561504","co38710","norming","","","","","","",""
"null","../img/tt/079tt.jpg","null","mooney1","image-keyboard-response","532","1484106","0.0-6.0-1.75","2561504","co38710","norming","","","","","","",""
"2639.7199999992736","","","post_mooney1_questions","survey-likert","533","1486749","0.0-6.0-2.75","2561504","co38710","norming","","","{""curiosity"":3,""confidence"":5}","[0,1]","../img/tt/079tt.jpg","",""
"2302.3549999997485","","","recognition","survey-text","534","1489053","0.0-6.0-3.75","2561504","co38710","norming","","","{""guess"":""bear""}","","../img/tt/079tt.jpg","",""
"null","../img/gs/079gs.jpg","null","reveal","image-keyboard-response","535","1491056","0.0-6.0-4.75","2561504","co38710","norming","","","","","","",""
"null","../img/tt/079tt.jpg","null","mooney2","image-keyboard-response","536","1493058","0.0-6.0-5.75","2561504","co38710","norming","","","","","","",""
"2193.0900000005495","","","post_reveal_questions","survey-likert","537","1495253","0.0-6.0-6.75","2561504","co38710","norming","","","{""aha"":1}","[0]","../img/tt/079tt.jpg","",""
"null","<div style=""font-size:60px;""> </div>","null","fixation","html-keyboard-response","538","1495455","0.0-6.0-0.76","2561504","co38710","norming","","","","","","",""
"null","../img/tt/1186tt.jpg","null","mooney1","image-keyboard-response","539","1498460","0.0-6.0-1.76","2561504","co38710","norming","","","","","","",""
"3542.0300000004936","","","post_mooney1_questions","survey-likert","540","1502006","0.0-6.0-2.76","2561504","co38710","norming","","","{""curiosity"":2,""confidence"":4}","[0,1]","../img/tt/1186tt.jpg","",""
"1654.3000000002794","","","recognition","survey-text","541","1503662","0.0-6.0-3.76","2561504","co38710","norming","","","{""guess"":""skie""}","","../img/tt/1186tt.jpg","",""
"null","../img/gs/1186gs.jpg","null","reveal","image-keyboard-response","542","1505663","0.0-6.0-4.76","2561504","co38710","norming","","","","","","",""
"null","../img/tt/1186tt.jpg","null","mooney2","image-keyboard-response","543","1507666","0.0-6.0-5.76","2561504","co38710","norming","","","","","","",""
"2016.514999999432","","","post_reveal_questions","survey-likert","544","1509686","0.0-6.0-6.76","2561504","co38710","norming","","","{""aha"":4}","[0]","../img/tt/1186tt.jpg","",""
"null","<div style=""font-size:60px;""> </div>","null","fixation","html-keyboard-response","545","1509894","0.0-6.0-0.77","2561504","co38710","norming","","","","","","",""
"null","../img/tt/358tt.jpg","null","mooney1","image-keyboard-response","546","1512904","0.0-6.0-1.77","2561504","co38710","norming","","","","","","",""
"2754.334999999497","","","post_mooney1_questions","survey-likert","547","1515662","0.0-6.0-2.77","2561504","co38710","norming","","","{""curiosity"":3,""confidence"":5}","[0,1]","../img/tt/358tt.jpg","",""
"2798.394999999786","","","recognition","survey-text","548","1518462","0.0-6.0-3.77","2561504","co38710","norming","","","{""guess"":""camel""}","","../img/tt/358tt.jpg","",""
"null","../img/gs/358gs.jpg","null","reveal","image-keyboard-response","549","1520464","0.0-6.0-4.77","2561504","co38710","norming","","","","","","",""
"null","../img/tt/358tt.jpg","null","mooney2","image-keyboard-response","550","1522465","0.0-6.0-5.77","2561504","co38710","norming","","","","","","",""
"1881.6950000000652","","","post_reveal_questions","survey-likert","551","1524350","0.0-6.0-6.77","2561504","co38710","norming","","","{""aha"":0}","[0]","../img/tt/358tt.jpg","",""
"null","<div style=""font-size:60px;""> </div>","null","fixation","html-keyboard-response","552","1524551","0.0-6.0-0.78","2561504","co38710","norming","","","","","","",""
