"rt","stimulus","key_press","test_part","trial_type","trial_index","time_elapsed","internal_node_id","totalTime","subject","experiment_name","button_pressed","success","responses","question_order","currentStim","old","correct"
"4852.1800000007715","Welcome to the experiment. This is an online experiment so please don't close the tab/window until we say goodbye.  Press any key to begin.","32","instructions","html-keyboard-response","0","4866","0.0-0.0","2714088","co38959","norming","","","","","","",""
"25542.23499999989","<div style='word-wrap: break-word; width: 900px'><h3>Please consider this information carefully before deciding whether to participate in this research</h3><ul style='text-align: left; font-size: .8em;'><li><b>Purpose of the research</b>: To examine how people process images.</li><li><b>What you will do in this research</b>:  Stimuli (images) will be presented on the computer and you will be asked different questions about them.</li><li><b>Time required</b>: Participation will take between 45 and 60 minutes to complete.</li><li><b>Risks</b>:  There are no anticipated risks associated with participating in this study. The effects of participating should be comparable to those you would experience from viewing a computer monitor for 30 minutes and using a mouse or keyboard.</li><li><b>Benefits</b>:  This study provides no benefits to you individually except for the credit. The study provides important information about the nature of perception and learning.</li><li><b>Confidentiality</b>:  Your participation in this study will remain confidential. No personally identifiable information will be associated with your data. Your de-identified data may be shared with other researchers and used in future projects.</li><li><b>Participation and withdrawal</b>:  Your participation in this study is completely voluntary and you may refuse to participate or you may choose to withdraw at any time without penalty.</li><li><b>How to contact the researchers</b>: If you have questions or concerns about your participation or payment, or want to request a summary of research findings, please contact Sander Van de Cruys (KU Leuven), at sander.vandecruys@kuleuven.be.</li></ul><p>The nature and purpose of this research have been sufficiently explained and I agree to participate in this study.  I understand that I am free to withdraw at any time without incurring any penalty.</p><p>Please consent by clicking the button below to continue. Otherwise, please exit the study at this time.</p></div>","","instructions","html-button-response","1","30414","0.0-1.0","2714088","co38959","norming","0","","","","","",""
"","","","instructions","fullscreen","2","35000","0.0-2.0","2714088","co38959","norming","","true","","","","",""
"468860.16000000015","","","sona","survey-html-form","3","503874","0.0-3.0","2714088","co38959","norming","","","[{""name"":""sonaid"",""value"":""38959""},{""name"":""debrief"",""value"":""yes""},{""name"":""datajoin"",""value"":""yes""}]","","","",""
"54447.01499999972","<div style='word-wrap: break-word; width: 900px'><h3>Instructions</h3><p>This experiment will have 3 parts. In the first part you will see a series of distorted images like the one below on the left. As you can see in the righthand image, the distorted images are derived from actual photographs. In what follows, you will <strong>briefly</strong> be presented with <strong>only</strong> the distorted image.</p> <div style='float: left; margin-right: 20px;'><img src='../img/018tt.jpg' height='250' width='250'></img></div><div style='float: right; margin-left: 20px;'><img src='../img/018gs.jpg' height='250' width='250'></img></div><p>Subsequently you will be asked a few questions about the image: One question on how <strong>curious</strong> you are about the solution and one on how <strong>confident</strong> you are that you know the solution.</p>Next, we ask you to make a guess on what is in the image. Note that it is OK to name just the <strong>basic level category</strong>. For example when you see a parrot in the image, 'parrot' will obviously be a correct answer but also correct is 'bird'. However, 'animal' will <strong>not</strong> be counted as a correct response. For the example above, 'rose' would be correct or 'flower', but not 'plant'. When soccer players are depicted, 'soccer', 'football', 'soccer players' will be correct, but not 'humans', 'outdoors', or 'sports'. You do not need to describe the image in full, just name the main object in it <strong>in one or two words</strong>. All images depict objects from one of the following broad level categories: animals, inanimate objects, plants, sports, vehicles, and food. Recognizing means knowing <strong>more</strong> than these broad labels for a given image. But we always encourage you to <strong>make a guess</strong> if you can. Note that you are allowed to use <strong>Dutch and English</strong> in your answers, whatever comes easiest for you.</p><p>Press any key to continue.</p></div>","32","instructions","html-keyboard-response","4","558328","0.0-4.0","2714088","co38959","norming","","","","","","",""
"12845.194999999832","<div style='word-wrap: break-word; width: 900px'><h3>Instructions</h3> <p>Next, the solution image will be revealed to you and you'll be asked to indicate how strong your <strong>aha-experience</strong> was after seeing the solution. This describes the positive feeling of the 'click' you sometimes experience, when the pieces of the 'puzzle' fall together and you suddenly have 'insight' in the image.</p><img src='aha.jpg' height='188' width='250'></img><p>Note that there are no right or wrong answers. We are interested in what <strong>you</strong> see in the image and how <strong>you</strong> feel about it.</p><p>Press any key to start the experiment.</p></div>","32","instructions","html-keyboard-response","5","571175","0.0-5.0","2714088","co38959","norming","","","","","","",""
"null","<div style=""font-size:60px;""> </div>","null","fixation","html-keyboard-response","6","571385","0.0-6.0-0.0","2714088","co38959","norming","","","","","","",""
"null","../img/tt/1053tt.jpg","null","mooney1","image-keyboard-response","7","574389","0.0-6.0-1.0","2714088","co38959","norming","","","","","","",""
"11724.535000000265","","","post_mooney1_questions","survey-likert","8","586117","0.0-6.0-2.0","2714088","co38959","norming","","","{""curiosity"":2,""confidence"":4}","[0,1]","../img/tt/1053tt.jpg","",""
"2861.4549999992596","","","recognition","survey-text","9","588981","0.0-6.0-3.0","2714088","co38959","norming","","","{""guess"":""cow""}","","../img/tt/1053tt.jpg","",""
"null","../img/gs/1053gs.jpg","null","reveal","image-keyboard-response","10","590991","0.0-6.0-4.0","2714088","co38959","norming","","","","","","",""
"null","../img/tt/1053tt.jpg","null","mooney2","image-keyboard-response","11","592999","0.0-6.0-5.0","2714088","co38959","norming","","","","","","",""
"3852.1350000001257","","","post_reveal_questions","survey-likert","12","596853","0.0-6.0-6.0","2714088","co38959","norming","","","{""aha"":1}","[0]","../img/tt/1053tt.jpg","",""
"null","<div style=""font-size:60px;""> </div>","null","fixation","html-keyboard-response","13","597056","0.0-6.0-0.1","2714088","co38959","norming","","","","","","",""
"null","../img/tt/1146tt.jpg","null","mooney1","image-keyboard-response","14","600058","0.0-6.0-1.1","2714088","co38959","norming","","","","","","",""
"4289.574999999721","","","post_mooney1_questions","survey-likert","15","604349","0.0-6.0-2.1","2714088","co38959","norming","","","{""curiosity"":6,""confidence"":0}","[0,1]","../img/tt/1146tt.jpg","",""
"2134.0899999995017","","","recognition","survey-text","16","606485","0.0-6.0-3.1","2714088","co38959","norming","","","{""guess"":""man""}","","../img/tt/1146tt.jpg","",""
"null","../img/gs/1146gs.jpg","null","reveal","image-keyboard-response","17","608493","0.0-6.0-4.1","2714088","co38959","norming","","","","","","",""
"null","../img/tt/1146tt.jpg","null","mooney2","image-keyboard-response","18","610504","0.0-6.0-5.1","2714088","co38959","norming","","","","","","",""
"1858.6749999994645","","","post_reveal_questions","survey-likert","19","612365","0.0-6.0-6.1","2714088","co38959","norming","","","{""aha"":6}","[0]","../img/tt/1146tt.jpg","",""
"null","<div style=""font-size:60px;""> </div>","null","fixation","html-keyboard-response","20","612566","0.0-6.0-0.2","2714088","co38959","norming","","","","","","",""
"null","../img/tt/1048tt.jpg","null","mooney1","image-keyboard-response","21","615574","0.0-6.0-1.2","2714088","co38959","norming","","","","","","",""
"7102.920000000275","","","post_mooney1_questions","survey-likert","22","622678","0.0-6.0-2.2","2714088","co38959","norming","","","{""curiosity"":6,""confidence"":1}","[0,1]","../img/tt/1048tt.jpg","",""
"7085.744999999413","","","recognition","survey-text","23","629766","0.0-6.0-3.2","2714088","co38959","norming","","","{""guess"":""schildpad""}","","../img/tt/1048tt.jpg","",""
"null","../img/gs/1048gs.jpg","null","reveal","image-keyboard-response","24","631767","0.0-6.0-4.2","2714088","co38959","norming","","","","","","",""
"null","../img/tt/1048tt.jpg","null","mooney2","image-keyboard-response","25","633769","0.0-6.0-5.2","2714088","co38959","norming","","","","","","",""
"1682.0450000005076","","","post_reveal_questions","survey-likert","26","635453","0.0-6.0-6.2","2714088","co38959","norming","","","{""aha"":6}","[0]","../img/tt/1048tt.jpg","",""
"null","<div style=""font-size:60px;""> </div>","null","fixation","html-keyboard-response","27","635654","0.0-6.0-0.3","2714088","co38959","norming","","","","","","",""
"null","../img/tt/1033tt.jpg","null","mooney1","image-keyboard-response","28","638656","0.0-6.0-1.3","2714088","co38959","norming","","","","","","",""
"4795.500000000116","","","post_mooney1_questions","survey-likert","29","643454","0.0-6.0-2.3","2714088","co38959","norming","","","{""curiosity"":1,""confidence"":6}","[0,1]","../img/tt/1033tt.jpg","",""
"3078.4549999998417","","","recognition","survey-text","30","646534","0.0-6.0-3.3","2714088","co38959","norming","","","{""guess"":""golf player""}","","../img/tt/1033tt.jpg","",""
"null","../img/gs/1033gs.jpg","null","reveal","image-keyboard-response","31","648543","0.0-6.0-4.3","2714088","co38959","norming","","","","","","",""
"null","../img/tt/1033tt.jpg","null","mooney2","image-keyboard-response","32","650548","0.0-6.0-5.3","2714088","co38959","norming","","","","","","",""
"1551.2600000002421","","","post_reveal_questions","survey-likert","33","652102","0.0-6.0-6.3","2714088","co38959","norming","","","{""aha"":4}","[0]","../img/tt/1033tt.jpg","",""
"null","<div style=""font-size:60px;""> </div>","null","fixation","html-keyboard-response","34","652306","0.0-6.0-0.4","2714088","co38959","norming","","","","","","",""
"null","../img/tt/1086tt.jpg","null","mooney1","image-keyboard-response","35","655314","0.0-6.0-1.4","2714088","co38959","norming","","","","","","",""
"3594.09499999939","","","post_mooney1_questions","survey-likert","36","658910","0.0-6.0-2.4","2714088","co38959","norming","","","{""curiosity"":4,""confidence"":3}","[0,1]","../img/tt/1086tt.jpg","",""
"5205.939999999828","","","recognition","survey-text","37","664118","0.0-6.0-3.4","2714088","co38959","norming","","","{""guess"":""two dogs""}","","../img/tt/1086tt.jpg","",""
"null","../img/gs/1086gs.jpg","null","reveal","image-keyboard-response","38","666120","0.0-6.0-4.4","2714088","co38959","norming","","","","","","",""
"null","../img/tt/1086tt.jpg","null","mooney2","image-keyboard-response","39","668126","0.0-6.0-5.4","2714088","co38959","norming","","","","","","",""
"2053.3549999999814","","","post_reveal_questions","survey-likert","40","670181","0.0-6.0-6.4","2714088","co38959","norming","","","{""aha"":5}","[0]","../img/tt/1086tt.jpg","",""
"null","<div style=""font-size:60px;""> </div>","null","fixation","html-keyboard-response","41","670388","0.0-6.0-0.5","2714088","co38959","norming","","","","","","",""
"null","../img/tt/064tt.jpg","null","mooney1","image-keyboard-response","42","673400","0.0-6.0-1.5","2714088","co38959","norming","","","","","","",""
"4412.285000000265","","","post_mooney1_questions","survey-likert","43","677814","0.0-6.0-2.5","2714088","co38959","norming","","","{""curiosity"":4,""confidence"":1}","[0,1]","../img/tt/064tt.jpg","",""
"2174.3549999991665","","","recognition","survey-text","44","679990","0.0-6.0-3.5","2714088","co38959","norming","","","{""guess"":""een beer""}","","../img/tt/064tt.jpg","",""
"null","../img/gs/064gs.jpg","null","reveal","image-keyboard-response","45","681996","0.0-6.0-4.5","2714088","co38959","norming","","","","","","",""
"null","../img/tt/064tt.jpg","null","mooney2","image-keyboard-response","46","683998","0.0-6.0-5.5","2714088","co38959","norming","","","","","","",""
"1870.580000000773","","","post_reveal_questions","survey-likert","47","685870","0.0-6.0-6.5","2714088","co38959","norming","","","{""aha"":5}","[0]","../img/tt/064tt.jpg","",""
"null","<div style=""font-size:60px;""> </div>","null","fixation","html-keyboard-response","48","686071","0.0-6.0-0.6","2714088","co38959","norming","","","","","","",""
"null","../img/tt/194tt.jpg","null","mooney1","image-keyboard-response","49","689079","0.0-6.0-1.6","2714088","co38959","norming","","","","","","",""
"6501.019999999669","","","post_mooney1_questions","survey-likert","50","695582","0.0-6.0-2.6","2714088","co38959","norming","","","{""curiosity"":2,""confidence"":1}","[0,1]","../img/tt/194tt.jpg","",""
"2918.1100000004517","","","recognition","survey-text","51","698502","0.0-6.0-3.6","2714088","co38959","norming","","","{""guess"":""een vrouw""}","","../img/tt/194tt.jpg","",""
"null","../img/gs/194gs.jpg","null","reveal","image-keyboard-response","52","700511","0.0-6.0-4.6","2714088","co38959","norming","","","","","","",""
"null","../img/tt/194tt.jpg","null","mooney2","image-keyboard-response","53","702520","0.0-6.0-5.6","2714088","co38959","norming","","","","","","",""
"3083.83000000054","","","post_reveal_questions","survey-likert","54","705606","0.0-6.0-6.6","2714088","co38959","norming","","","{""aha"":2}","[0]","../img/tt/194tt.jpg","",""
"null","<div style=""font-size:60px;""> </div>","null","fixation","html-keyboard-response","55","705808","0.0-6.0-0.7","2714088","co38959","norming","","","","","","",""
"null","../img/tt/1012tt.jpg","null","mooney1","image-keyboard-response","56","708817","0.0-6.0-1.7","2714088","co38959","norming","","","","","","",""
"3491.130000000354","","","post_mooney1_questions","survey-likert","57","712310","0.0-6.0-2.7","2714088","co38959","norming","","","{""curiosity"":3,""confidence"":3}","[0,1]","../img/tt/1012tt.jpg","",""
"4830.254999999772","","","recognition","survey-text","58","717142","0.0-6.0-3.7","2714088","co38959","norming","","","{""guess"":""een surfplank""}","","../img/tt/1012tt.jpg","",""
"null","../img/gs/1012gs.jpg","null","reveal","image-keyboard-response","59","719152","0.0-6.0-4.7","2714088","co38959","norming","","","","","","",""
"null","../img/tt/1012tt.jpg","null","mooney2","image-keyboard-response","60","721162","0.0-6.0-5.7","2714088","co38959","norming","","","","","","",""
"1873.864999999525","","","post_reveal_questions","survey-likert","61","723038","0.0-6.0-6.7","2714088","co38959","norming","","","{""aha"":4}","[0]","../img/tt/1012tt.jpg","",""
"null","<div style=""font-size:60px;""> </div>","null","fixation","html-keyboard-response","62","723246","0.0-6.0-0.8","2714088","co38959","norming","","","","","","",""
"null","../img/tt/442tt.jpg","null","mooney1","image-keyboard-response","63","726249","0.0-6.0-1.8","2714088","co38959","norming","","","","","","",""
"8498.964999999735","","","post_mooney1_questions","survey-likert","64","734750","0.0-6.0-2.8","2714088","co38959","norming","","","{""curiosity"":2,""confidence"":0}","[0,1]","../img/tt/442tt.jpg","",""
"1878.05499999912","","","recognition","survey-text","65","736621","0.0-6.0-3.8","2714088","co38959","norming","","","{""guess"":""grass""}","","../img/tt/442tt.jpg","",""
"null","../img/gs/442gs.jpg","null","reveal","image-keyboard-response","66","738627","0.0-6.0-4.8","2714088","co38959","norming","","","","","","",""
"null","../img/tt/442tt.jpg","null","mooney2","image-keyboard-response","67","740628","0.0-6.0-5.8","2714088","co38959","norming","","","","","","",""
"2367.280000000377","","","post_reveal_questions","survey-likert","68","742997","0.0-6.0-6.8","2714088","co38959","norming","","","{""aha"":5}","[0]","../img/tt/442tt.jpg","",""
"null","<div style=""font-size:60px;""> </div>","null","fixation","html-keyboard-response","69","743198","0.0-6.0-0.9","2714088","co38959","norming","","","","","","",""
"null","../img/tt/1125tt.jpg","null","mooney1","image-keyboard-response","70","746206","0.0-6.0-1.9","2714088","co38959","norming","","","","","","",""
"9531.99000000034","","","post_mooney1_questions","survey-likert","71","755741","0.0-6.0-2.9","2714088","co38959","norming","","","{""curiosity"":5,""confidence"":0}","[0,1]","../img/tt/1125tt.jpg","",""
"3726.040000000503","","","recognition","survey-text","72","759469","0.0-6.0-3.9","2714088","co38959","norming","","","{""guess"":""sea""}","","../img/tt/1125tt.jpg","",""
"null","../img/gs/1125gs.jpg","null","reveal","image-keyboard-response","73","761475","0.0-6.0-4.9","2714088","co38959","norming","","","","","","",""
"null","../img/tt/1125tt.jpg","null","mooney2","image-keyboard-response","74","763477","0.0-6.0-5.9","2714088","co38959","norming","","","","","","",""
"2646.939999999595","","","post_reveal_questions","survey-likert","75","766125","0.0-6.0-6.9","2714088","co38959","norming","","","{""aha"":6}","[0]","../img/tt/1125tt.jpg","",""
"null","<div style=""font-size:60px;""> </div>","null","fixation","html-keyboard-response","76","766333","0.0-6.0-0.10","2714088","co38959","norming","","","","","","",""
"null","../img/tt/060tt.jpg","null","mooney1","image-keyboard-response","77","769338","0.0-6.0-1.10","2714088","co38959","norming","","","","","","",""
"3359.954999999958","","","post_mooney1_questions","survey-likert","78","772701","0.0-6.0-2.10","2714088","co38959","norming","","","{""curiosity"":4,""confidence"":1}","[0,1]","../img/tt/060tt.jpg","",""
"2317.4699999998556","","","recognition","survey-text","79","775021","0.0-6.0-3.10","2714088","co38959","norming","","","{""guess"":""a helmet""}","","../img/tt/060tt.jpg","",""
"null","../img/gs/060gs.jpg","null","reveal","image-keyboard-response","80","777030","0.0-6.0-4.10","2714088","co38959","norming","","","","","","",""
"null","../img/tt/060tt.jpg","null","mooney2","image-keyboard-response","81","779032","0.0-6.0-5.10","2714088","co38959","norming","","","","","","",""
"3450.600000000093","","","post_reveal_questions","survey-likert","82","782484","0.0-6.0-6.10","2714088","co38959","norming","","","{""aha"":6}","[0]","../img/tt/060tt.jpg","",""
"null","<div style=""font-size:60px;""> </div>","null","fixation","html-keyboard-response","83","782686","0.0-6.0-0.11","2714088","co38959","norming","","","","","","",""
"null","../img/tt/515tt.jpg","null","mooney1","image-keyboard-response","84","785691","0.0-6.0-1.11","2714088","co38959","norming","","","","","","",""
"5679.304999999702","","","post_mooney1_questions","survey-likert","85","791373","0.0-6.0-2.11","2714088","co38959","norming","","","{""curiosity"":6,""confidence"":0}","[0,1]","../img/tt/515tt.jpg","",""
"3214.2299999995157","","","recognition","survey-text","86","794589","0.0-6.0-3.11","2714088","co38959","norming","","","{""guess"":""sunglasses""}","","../img/tt/515tt.jpg","",""
"null","../img/gs/515gs.jpg","null","reveal","image-keyboard-response","87","796608","0.0-6.0-4.11","2714088","co38959","norming","","","","","","",""
"null","../img/tt/515tt.jpg","null","mooney2","image-keyboard-response","88","798611","0.0-6.0-5.11","2714088","co38959","norming","","","","","","",""
"2361.2899999998044","","","post_reveal_questions","survey-likert","89","800974","0.0-6.0-6.11","2714088","co38959","norming","","","{""aha"":6}","[0]","../img/tt/515tt.jpg","",""
"null","<div style=""font-size:60px;""> </div>","null","fixation","html-keyboard-response","90","801180","0.0-6.0-0.12","2714088","co38959","norming","","","","","","",""
"null","../img/tt/008tt.jpg","null","mooney1","image-keyboard-response","91","804190","0.0-6.0-1.12","2714088","co38959","norming","","","","","","",""
"5261.445000000065","","","post_mooney1_questions","survey-likert","92","809454","0.0-6.0-2.12","2714088","co38959","norming","","","{""curiosity"":5,""confidence"":2}","[0,1]","../img/tt/008tt.jpg","",""
"2614.4249999996973","","","recognition","survey-text","93","812070","0.0-6.0-3.12","2714088","co38959","norming","","","{""guess"":""een geweer""}","","../img/tt/008tt.jpg","",""
"null","../img/gs/008gs.jpg","null","reveal","image-keyboard-response","94","814075","0.0-6.0-4.12","2714088","co38959","norming","","","","","","",""
"null","../img/tt/008tt.jpg","null","mooney2","image-keyboard-response","95","816080","0.0-6.0-5.12","2714088","co38959","norming","","","","","","",""
"6212.574999999604","","","post_reveal_questions","survey-likert","96","822294","0.0-6.0-6.12","2714088","co38959","norming","","","{""aha"":4}","[0]","../img/tt/008tt.jpg","",""
"null","<div style=""font-size:60px;""> </div>","null","fixation","html-keyboard-response","97","822503","0.0-6.0-0.13","2714088","co38959","norming","","","","","","",""
"null","../img/tt/1234tt.jpg","null","mooney1","image-keyboard-response","98","825515","0.0-6.0-1.13","2714088","co38959","norming","","","","","","",""
"4842.5349999998","","","post_mooney1_questions","survey-likert","99","830358","0.0-6.0-2.13","2714088","co38959","norming","","","{""curiosity"":5,""confidence"":1}","[0,1]","../img/tt/1234tt.jpg","",""
"4253.980000000447","","","recognition","survey-text","100","834614","0.0-6.0-3.13","2714088","co38959","norming","","","{""guess"":""cliff jumping""}","","../img/tt/1234tt.jpg","",""
"null","../img/gs/1234gs.jpg","null","reveal","image-keyboard-response","101","836623","0.0-6.0-4.13","2714088","co38959","norming","","","","","","",""
"null","../img/tt/1234tt.jpg","null","mooney2","image-keyboard-response","102","838632","0.0-6.0-5.13","2714088","co38959","norming","","","","","","",""
"3276.3399999995017","","","post_reveal_questions","survey-likert","103","841910","0.0-6.0-6.13","2714088","co38959","norming","","","{""aha"":6}","[0]","../img/tt/1234tt.jpg","",""
"null","<div style=""font-size:60px;""> </div>","null","fixation","html-keyboard-response","104","842111","0.0-6.0-0.14","2714088","co38959","norming","","","","","","",""
"null","../img/tt/1024tt.jpg","null","mooney1","image-keyboard-response","105","845121","0.0-6.0-1.14","2714088","co38959","norming","","","","","","",""
"3971.8950000004843","","","post_mooney1_questions","survey-likert","106","849094","0.0-6.0-2.14","2714088","co38959","norming","","","{""curiosity"":6,""confidence"":0}","[0,1]","../img/tt/1024tt.jpg","",""
"2702.4000000001397","","","recognition","survey-text","107","851798","0.0-6.0-3.14","2714088","co38959","norming","","","{""guess"":""man""}","","../img/tt/1024tt.jpg","",""
"null","../img/gs/1024gs.jpg","null","reveal","image-keyboard-response","108","853801","0.0-6.0-4.14","2714088","co38959","norming","","","","","","",""
"null","../img/tt/1024tt.jpg","null","mooney2","image-keyboard-response","109","855803","0.0-6.0-5.14","2714088","co38959","norming","","","","","","",""
"2032.7899999992223","","","post_reveal_questions","survey-likert","110","857833","0.0-6.0-6.14","2714088","co38959","norming","","","{""aha"":6}","[0]","../img/tt/1024tt.jpg","",""
"null","<div style=""font-size:60px;""> </div>","null","fixation","html-keyboard-response","111","858043","0.0-6.0-0.15","2714088","co38959","norming","","","","","","",""
"null","../img/tt/1046tt.jpg","null","mooney1","image-keyboard-response","112","861051","0.0-6.0-1.15","2714088","co38959","norming","","","","","","",""
"9109.064999999595","","","post_mooney1_questions","survey-likert","113","870161","0.0-6.0-2.15","2714088","co38959","norming","","","{""curiosity"":3,""confidence"":0}","[0,1]","../img/tt/1046tt.jpg","",""
"3662.3200000004144","","","recognition","survey-text","114","873826","0.0-6.0-3.15","2714088","co38959","norming","","","{""guess"":""mountains""}","","../img/tt/1046tt.jpg","",""
"null","../img/gs/1046gs.jpg","null","reveal","image-keyboard-response","115","875827","0.0-6.0-4.15","2714088","co38959","norming","","","","","","",""
"null","../img/tt/1046tt.jpg","null","mooney2","image-keyboard-response","116","877829","0.0-6.0-5.15","2714088","co38959","norming","","","","","","",""
"1658.2049999997253","","","post_reveal_questions","survey-likert","117","879489","0.0-6.0-6.15","2714088","co38959","norming","","","{""aha"":6}","[0]","../img/tt/1046tt.jpg","",""
"null","<div style=""font-size:60px;""> </div>","null","fixation","html-keyboard-response","118","879695","0.0-6.0-0.16","2714088","co38959","norming","","","","","","",""
"null","../img/tt/552tt.jpg","null","mooney1","image-keyboard-response","119","882699","0.0-6.0-1.16","2714088","co38959","norming","","","","","","",""
"3979.9300000004005","","","post_mooney1_questions","survey-likert","120","886682","0.0-6.0-2.16","2714088","co38959","norming","","","{""curiosity"":6,""confidence"":0}","[0,1]","../img/tt/552tt.jpg","",""
"3014.3500000004424","","","recognition","survey-text","121","889698","0.0-6.0-3.16","2714088","co38959","norming","","","{""guess"":""haardroger""}","","../img/tt/552tt.jpg","",""
"null","../img/gs/552gs.jpg","null","reveal","image-keyboard-response","122","891703","0.0-6.0-4.16","2714088","co38959","norming","","","","","","",""
"null","../img/tt/552tt.jpg","null","mooney2","image-keyboard-response","123","893711","0.0-6.0-5.16","2714088","co38959","norming","","","","","","",""
"2576.2900000000373","","","post_reveal_questions","survey-likert","124","896290","0.0-6.0-6.16","2714088","co38959","norming","","","{""aha"":3}","[0]","../img/tt/552tt.jpg","",""
"null","<div style=""font-size:60px;""> </div>","null","fixation","html-keyboard-response","125","896494","0.0-6.0-0.17","2714088","co38959","norming","","","","","","",""
"null","../img/tt/1226tt.jpg","null","mooney1","image-keyboard-response","126","899506","0.0-6.0-1.17","2714088","co38959","norming","","","","","","",""
"9918.275000000023","","","post_mooney1_questions","survey-likert","127","909425","0.0-6.0-2.17","2714088","co38959","norming","","","{""curiosity"":6,""confidence"":0}","[0,1]","../img/tt/1226tt.jpg","",""
"2269.8250000003027","","","recognition","survey-text","128","911697","0.0-6.0-3.17","2714088","co38959","norming","","","{""guess"":""grass""}","","../img/tt/1226tt.jpg","",""
"null","../img/gs/1226gs.jpg","null","reveal","image-keyboard-response","129","913699","0.0-6.0-4.17","2714088","co38959","norming","","","","","","",""
"null","../img/tt/1226tt.jpg","null","mooney2","image-keyboard-response","130","915702","0.0-6.0-5.17","2714088","co38959","norming","","","","","","",""
"2002.7550000004703","","","post_reveal_questions","survey-likert","131","917710","0.0-6.0-6.17","2714088","co38959","norming","","","{""aha"":3}","[0]","../img/tt/1226tt.jpg","",""
"null","<div style=""font-size:60px;""> </div>","null","fixation","html-keyboard-response","132","917921","0.0-6.0-0.18","2714088","co38959","norming","","","","","","",""
"null","../img/tt/040tt.jpg","null","mooney1","image-keyboard-response","133","920929","0.0-6.0-1.18","2714088","co38959","norming","","","","","","",""
"3731.679999999935","","","post_mooney1_questions","survey-likert","134","924662","0.0-6.0-2.18","2714088","co38959","norming","","","{""curiosity"":5,""confidence"":1}","[0,1]","../img/tt/040tt.jpg","",""
"3597.595000000205","","","recognition","survey-text","135","928262","0.0-6.0-3.18","2714088","co38959","norming","","","{""guess"":""konijn""}","","../img/tt/040tt.jpg","",""
"null","../img/gs/040gs.jpg","null","reveal","image-keyboard-response","136","930264","0.0-6.0-4.18","2714088","co38959","norming","","","","","","",""
"null","../img/tt/040tt.jpg","null","mooney2","image-keyboard-response","137","932268","0.0-6.0-5.18","2714088","co38959","norming","","","","","","",""
"2185.3799999998882","","","post_reveal_questions","survey-likert","138","934454","0.0-6.0-6.18","2714088","co38959","norming","","","{""aha"":6}","[0]","../img/tt/040tt.jpg","",""
"null","<div style=""font-size:60px;""> </div>","null","fixation","html-keyboard-response","139","934661","0.0-6.0-0.19","2714088","co38959","norming","","","","","","",""
"null","../img/tt/517tt.jpg","null","mooney1","image-keyboard-response","140","937663","0.0-6.0-1.19","2714088","co38959","norming","","","","","","",""
"5693.4400000000605","","","post_mooney1_questions","survey-likert","141","943359","0.0-6.0-2.19","2714088","co38959","norming","","","{""curiosity"":6,""confidence"":1}","[0,1]","../img/tt/517tt.jpg","",""
"1846.1500000002561","","","recognition","survey-text","142","945206","0.0-6.0-3.19","2714088","co38959","norming","","","{""guess"":""muis""}","","../img/tt/517tt.jpg","",""
"null","../img/gs/517gs.jpg","null","reveal","image-keyboard-response","143","947214","0.0-6.0-4.19","2714088","co38959","norming","","","","","","",""
"null","../img/tt/517tt.jpg","null","mooney2","image-keyboard-response","144","949216","0.0-6.0-5.19","2714088","co38959","norming","","","","","","",""
"1619.8000000003958","","","post_reveal_questions","survey-likert","145","950838","0.0-6.0-6.19","2714088","co38959","norming","","","{""aha"":4}","[0]","../img/tt/517tt.jpg","",""
"null","<div style=""font-size:60px;""> </div>","null","fixation","html-keyboard-response","146","951039","0.0-6.0-0.20","2714088","co38959","norming","","","","","","",""
"null","../img/tt/1123tt.jpg","null","mooney1","image-keyboard-response","147","954042","0.0-6.0-1.20","2714088","co38959","norming","","","","","","",""
"3841.7349999998696","","","post_mooney1_questions","survey-likert","148","957886","0.0-6.0-2.20","2714088","co38959","norming","","","{""curiosity"":2,""confidence"":4}","[0,1]","../img/tt/1123tt.jpg","",""
"3206.304999999702","","","recognition","survey-text","149","961094","0.0-6.0-3.20","2714088","co38959","norming","","","{""guess"":""volleyball""}","","../img/tt/1123tt.jpg","",""
"null","../img/gs/1123gs.jpg","null","reveal","image-keyboard-response","150","963103","0.0-6.0-4.20","2714088","co38959","norming","","","","","","",""
"null","../img/tt/1123tt.jpg","null","mooney2","image-keyboard-response","151","965114","0.0-6.0-5.20","2714088","co38959","norming","","","","","","",""
"3330.129999999306","","","post_reveal_questions","survey-likert","152","968446","0.0-6.0-6.20","2714088","co38959","norming","","","{""aha"":3}","[0]","../img/tt/1123tt.jpg","",""
"null","<div style=""font-size:60px;""> </div>","null","fixation","html-keyboard-response","153","968650","0.0-6.0-0.21","2714088","co38959","norming","","","","","","",""
"null","../img/tt/081tt.jpg","null","mooney1","image-keyboard-response","154","971655","0.0-6.0-1.21","2714088","co38959","norming","","","","","","",""
"3108.850000000559","","","post_mooney1_questions","survey-likert","155","974767","0.0-6.0-2.21","2714088","co38959","norming","","","{""curiosity"":6,""confidence"":0}","[0,1]","../img/tt/081tt.jpg","",""
"3990.1849999997066","","","recognition","survey-text","156","978758","0.0-6.0-3.21","2714088","co38959","norming","","","{""guess"":""bejaarde man""}","","../img/tt/081tt.jpg","",""
"null","../img/gs/081gs.jpg","null","reveal","image-keyboard-response","157","980760","0.0-6.0-4.21","2714088","co38959","norming","","","","","","",""
"null","../img/tt/081tt.jpg","null","mooney2","image-keyboard-response","158","982765","0.0-6.0-5.21","2714088","co38959","norming","","","","","","",""
"1631.7349999998696","","","post_reveal_questions","survey-likert","159","984399","0.0-6.0-6.21","2714088","co38959","norming","","","{""aha"":6}","[0]","../img/tt/081tt.jpg","",""
"null","<div style=""font-size:60px;""> </div>","null","fixation","html-keyboard-response","160","984599","0.0-6.0-0.22","2714088","co38959","norming","","","","","","",""
"null","../img/tt/440tt.jpg","null","mooney1","image-keyboard-response","161","987608","0.0-6.0-1.22","2714088","co38959","norming","","","","","","",""
"3964.3149999992456","","","post_mooney1_questions","survey-likert","162","991575","0.0-6.0-2.22","2714088","co38959","norming","","","{""curiosity"":4,""confidence"":2}","[0,1]","../img/tt/440tt.jpg","",""
"1598.3049999994691","","","recognition","survey-text","163","993175","0.0-6.0-3.22","2714088","co38959","norming","","","{""guess"":""paard""}","","../img/tt/440tt.jpg","",""
"null","../img/gs/440gs.jpg","null","reveal","image-keyboard-response","164","995176","0.0-6.0-4.22","2714088","co38959","norming","","","","","","",""
"null","../img/tt/440tt.jpg","null","mooney2","image-keyboard-response","165","997179","0.0-6.0-5.22","2714088","co38959","norming","","","","","","",""
"2209.1950000004144","","","post_reveal_questions","survey-likert","166","999390","0.0-6.0-6.22","2714088","co38959","norming","","","{""aha"":6}","[0]","../img/tt/440tt.jpg","",""
"null","<div style=""font-size:60px;""> </div>","null","fixation","html-keyboard-response","167","999596","0.0-6.0-0.23","2714088","co38959","norming","","","","","","",""
"null","../img/tt/1190tt.jpg","null","mooney1","image-keyboard-response","168","1002598","0.0-6.0-1.23","2714088","co38959","norming","","","","","","",""
"3437.9749999998603","","","post_mooney1_questions","survey-likert","169","1006039","0.0-6.0-2.23","2714088","co38959","norming","","","{""curiosity"":4,""confidence"":2}","[0,1]","../img/tt/1190tt.jpg","",""
"2510.5800000000745","","","recognition","survey-text","170","1008551","0.0-6.0-3.23","2714088","co38959","norming","","","{""guess"":""soldaat""}","","../img/tt/1190tt.jpg","",""
"null","../img/gs/1190gs.jpg","null","reveal","image-keyboard-response","171","1010557","0.0-6.0-4.23","2714088","co38959","norming","","","","","","",""
"null","../img/tt/1190tt.jpg","null","mooney2","image-keyboard-response","172","1012559","0.0-6.0-5.23","2714088","co38959","norming","","","","","","",""
"2061.8850000001257","","","post_reveal_questions","survey-likert","173","1014623","0.0-6.0-6.23","2714088","co38959","norming","","","{""aha"":4}","[0]","../img/tt/1190tt.jpg","",""
"null","<div style=""font-size:60px;""> </div>","null","fixation","html-keyboard-response","174","1014833","0.0-6.0-0.24","2714088","co38959","norming","","","","","","",""
"null","../img/tt/184tt.jpg","null","mooney1","image-keyboard-response","175","1017836","0.0-6.0-1.24","2714088","co38959","norming","","","","","","",""
"2872.445000000065","","","post_mooney1_questions","survey-likert","176","1020711","0.0-6.0-2.24","2714088","co38959","norming","","","{""curiosity"":3,""confidence"":2}","[0,1]","../img/tt/184tt.jpg","",""
"2110.445000000298","","","recognition","survey-text","177","1022823","0.0-6.0-3.24","2714088","co38959","norming","","","{""guess"":""beer""}","","../img/tt/184tt.jpg","",""
"null","../img/gs/184gs.jpg","null","reveal","image-keyboard-response","178","1024832","0.0-6.0-4.24","2714088","co38959","norming","","","","","","",""
"null","../img/tt/184tt.jpg","null","mooney2","image-keyboard-response","179","1026834","0.0-6.0-5.24","2714088","co38959","norming","","","","","","",""
"2042.669999999809","","","post_reveal_questions","survey-likert","180","1028879","0.0-6.0-6.24","2714088","co38959","norming","","","{""aha"":4}","[0]","../img/tt/184tt.jpg","",""
"null","<div style=""font-size:60px;""> </div>","null","fixation","html-keyboard-response","181","1029085","0.0-6.0-0.25","2714088","co38959","norming","","","","","","",""
"null","../img/tt/1102tt.jpg","null","mooney1","image-keyboard-response","182","1032092","0.0-6.0-1.25","2714088","co38959","norming","","","","","","",""
"5791.739999999641","","","post_mooney1_questions","survey-likert","183","1037886","0.0-6.0-2.25","2714088","co38959","norming","","","{""curiosity"":4,""confidence"":0}","[0,1]","../img/tt/1102tt.jpg","",""
"2486.1350000001257","","","recognition","survey-text","184","1040374","0.0-6.0-3.25","2714088","co38959","norming","","","{""guess"":""rivier""}","","../img/tt/1102tt.jpg","",""
"null","../img/gs/1102gs.jpg","null","reveal","image-keyboard-response","185","1042375","0.0-6.0-4.25","2714088","co38959","norming","","","","","","",""
"null","../img/tt/1102tt.jpg","null","mooney2","image-keyboard-response","186","1044378","0.0-6.0-5.25","2714088","co38959","norming","","","","","","",""
"2185.899999999441","","","post_reveal_questions","survey-likert","187","1046566","0.0-6.0-6.25","2714088","co38959","norming","","","{""aha"":4}","[0]","../img/tt/1102tt.jpg","",""
"null","<div style=""font-size:60px;""> </div>","null","fixation","html-keyboard-response","188","1046769","0.0-6.0-0.26","2714088","co38959","norming","","","","","","",""
"null","../img/tt/1199tt.jpg","null","mooney1","image-keyboard-response","189","1049772","0.0-6.0-1.26","2714088","co38959","norming","","","","","","",""
"5471.140000000596","","","post_mooney1_questions","survey-likert","190","1055246","0.0-6.0-2.26","2714088","co38959","norming","","","{""curiosity"":5,""confidence"":0}","[0,1]","../img/tt/1199tt.jpg","",""
"2694.2849999996834","","","recognition","survey-text","191","1057942","0.0-6.0-3.26","2714088","co38959","norming","","","{""guess"":""jongen""}","","../img/tt/1199tt.jpg","",""
"null","../img/gs/1199gs.jpg","null","reveal","image-keyboard-response","192","1059945","0.0-6.0-4.26","2714088","co38959","norming","","","","","","",""
"null","../img/tt/1199tt.jpg","null","mooney2","image-keyboard-response","193","1061952","0.0-6.0-5.26","2714088","co38959","norming","","","","","","",""
"2395.304999999935","","","post_reveal_questions","survey-likert","194","1064350","0.0-6.0-6.26","2714088","co38959","norming","","","{""aha"":6}","[0]","../img/tt/1199tt.jpg","",""
"null","<div style=""font-size:60px;""> </div>","null","fixation","html-keyboard-response","195","1064553","0.0-6.0-0.27","2714088","co38959","norming","","","","","","",""
"null","../img/tt/1290tt.jpg","null","mooney1","image-keyboard-response","196","1067561","0.0-6.0-1.27","2714088","co38959","norming","","","","","","",""
"2850.9150000000373","","","post_mooney1_questions","survey-likert","197","1070414","0.0-6.0-2.27","2714088","co38959","norming","","","{""curiosity"":5,""confidence"":1}","[0,1]","../img/tt/1290tt.jpg","",""
"2262.195000000298","","","recognition","survey-text","198","1072678","0.0-6.0-3.27","2714088","co38959","norming","","","{""guess"":""kabelbaan""}","","../img/tt/1290tt.jpg","",""
"null","../img/gs/1290gs.jpg","null","reveal","image-keyboard-response","199","1074687","0.0-6.0-4.27","2714088","co38959","norming","","","","","","",""
"null","../img/tt/1290tt.jpg","null","mooney2","image-keyboard-response","200","1076696","0.0-6.0-5.27","2714088","co38959","norming","","","","","","",""
"2515.155000000028","","","post_reveal_questions","survey-likert","201","1079214","0.0-6.0-6.27","2714088","co38959","norming","","","{""aha"":3}","[0]","../img/tt/1290tt.jpg","",""
"null","<div style=""font-size:60px;""> </div>","null","fixation","html-keyboard-response","202","1079415","0.0-6.0-0.28","2714088","co38959","norming","","","","","","",""
"null","../img/tt/126tt.jpg","null","mooney1","image-keyboard-response","203","1082418","0.0-6.0-1.28","2714088","co38959","norming","","","","","","",""
"2721.359999999637","","","post_mooney1_questions","survey-likert","204","1085142","0.0-6.0-2.28","2714088","co38959","norming","","","{""curiosity"":6,""confidence"":0}","[0,1]","../img/tt/126tt.jpg","",""
"1582.294999999227","","","recognition","survey-text","205","1086726","0.0-6.0-3.28","2714088","co38959","norming","","","{""guess"":""de ze""}","","../img/tt/126tt.jpg","",""
"null","../img/gs/126gs.jpg","null","reveal","image-keyboard-response","206","1088734","0.0-6.0-4.28","2714088","co38959","norming","","","","","","",""
"null","../img/tt/126tt.jpg","null","mooney2","image-keyboard-response","207","1090735","0.0-6.0-5.28","2714088","co38959","norming","","","","","","",""
"3156.0099999997765","","","post_reveal_questions","survey-likert","208","1093894","0.0-6.0-6.28","2714088","co38959","norming","","","{""aha"":0}","[0]","../img/tt/126tt.jpg","",""
"null","<div style=""font-size:60px;""> </div>","null","fixation","html-keyboard-response","209","1094103","0.0-6.0-0.29","2714088","co38959","norming","","","","","","",""
"null","../img/tt/085tt.jpg","null","mooney1","image-keyboard-response","210","1097107","0.0-6.0-1.29","2714088","co38959","norming","","","","","","",""
"3745.5749999999534","","","post_mooney1_questions","survey-likert","211","1100858","0.0-6.0-2.29","2714088","co38959","norming","","","{""curiosity"":3,""confidence"":3}","[0,1]","../img/tt/085tt.jpg","",""
"1774.3849999995437","","","recognition","survey-text","212","1102634","0.0-6.0-3.29","2714088","co38959","norming","","","{""guess"":""skelet""}","","../img/tt/085tt.jpg","",""
"null","../img/gs/085gs.jpg","null","reveal","image-keyboard-response","213","1104636","0.0-6.0-4.29","2714088","co38959","norming","","","","","","",""
"null","../img/tt/085tt.jpg","null","mooney2","image-keyboard-response","214","1106647","0.0-6.0-5.29","2714088","co38959","norming","","","","","","",""
"2015.975000000326","","","post_reveal_questions","survey-likert","215","1108665","0.0-6.0-6.29","2714088","co38959","norming","","","{""aha"":5}","[0]","../img/tt/085tt.jpg","",""
"null","<div style=""font-size:60px;""> </div>","null","fixation","html-keyboard-response","216","1108869","0.0-6.0-0.30","2714088","co38959","norming","","","","","","",""
"null","../img/tt/1276tt.jpg","null","mooney1","image-keyboard-response","217","1111882","0.0-6.0-1.30","2714088","co38959","norming","","","","","","",""
"3677.0150000001304","","","post_mooney1_questions","survey-likert","218","1115562","0.0-6.0-2.30","2714088","co38959","norming","","","{""curiosity"":4,""confidence"":0}","[0,1]","../img/tt/1276tt.jpg","",""
"1534.5999999998603","","","recognition","survey-text","219","1117098","0.0-6.0-3.30","2714088","co38959","norming","","","{""guess"":""koe""}","","../img/tt/1276tt.jpg","",""
"null","../img/gs/1276gs.jpg","null","reveal","image-keyboard-response","220","1119104","0.0-6.0-4.30","2714088","co38959","norming","","","","","","",""
"null","../img/tt/1276tt.jpg","null","mooney2","image-keyboard-response","221","1121106","0.0-6.0-5.30","2714088","co38959","norming","","","","","","",""
"1374.0150000001304","","","post_reveal_questions","survey-likert","222","1122482","0.0-6.0-6.30","2714088","co38959","norming","","","{""aha"":6}","[0]","../img/tt/1276tt.jpg","",""
"null","<div style=""font-size:60px;""> </div>","null","fixation","html-keyboard-response","223","1122683","0.0-6.0-0.31","2714088","co38959","norming","","","","","","",""
"null","../img/tt/1040tt.jpg","null","mooney1","image-keyboard-response","224","1125690","0.0-6.0-1.31","2714088","co38959","norming","","","","","","",""
"2804.619999999879","","","post_mooney1_questions","survey-likert","225","1128498","0.0-6.0-2.31","2714088","co38959","norming","","","{""curiosity"":4,""confidence"":2}","[0,1]","../img/tt/1040tt.jpg","",""
"1942.3900000001304","","","recognition","survey-text","226","1130442","0.0-6.0-3.31","2714088","co38959","norming","","","{""guess"":""fietser""}","","../img/tt/1040tt.jpg","",""
"null","../img/gs/1040gs.jpg","null","reveal","image-keyboard-response","227","1132443","0.0-6.0-4.31","2714088","co38959","norming","","","","","","",""
"null","../img/tt/1040tt.jpg","null","mooney2","image-keyboard-response","228","1134452","0.0-6.0-5.31","2714088","co38959","norming","","","","","","",""
"1875.5650000004098","","","post_reveal_questions","survey-likert","229","1136329","0.0-6.0-6.31","2714088","co38959","norming","","","{""aha"":6}","[0]","../img/tt/1040tt.jpg","",""
"null","<div style=""font-size:60px;""> </div>","null","fixation","html-keyboard-response","230","1136534","0.0-6.0-0.32","2714088","co38959","norming","","","","","","",""
"null","../img/tt/1069tt.jpg","null","mooney1","image-keyboard-response","231","1139544","0.0-6.0-1.32","2714088","co38959","norming","","","","","","",""
"4208.720000000671","","","post_mooney1_questions","survey-likert","232","1143754","0.0-6.0-2.32","2714088","co38959","norming","","","{""curiosity"":6,""confidence"":0}","[0,1]","../img/tt/1069tt.jpg","",""
"2237.9949999994133","","","recognition","survey-text","233","1145994","0.0-6.0-3.32","2714088","co38959","norming","","","{""guess"":""schapen""}","","../img/tt/1069tt.jpg","",""
"null","../img/gs/1069gs.jpg","null","reveal","image-keyboard-response","234","1148004","0.0-6.0-4.32","2714088","co38959","norming","","","","","","",""
"null","../img/tt/1069tt.jpg","null","mooney2","image-keyboard-response","235","1150013","0.0-6.0-5.32","2714088","co38959","norming","","","","","","",""
"2394.000000000233","","","post_reveal_questions","survey-likert","236","1152410","0.0-6.0-6.32","2714088","co38959","norming","","","{""aha"":6}","[0]","../img/tt/1069tt.jpg","",""
"null","<div style=""font-size:60px;""> </div>","null","fixation","html-keyboard-response","237","1152618","0.0-6.0-0.33","2714088","co38959","norming","","","","","","",""
"null","../img/tt/1070tt.jpg","null","mooney1","image-keyboard-response","238","1155623","0.0-6.0-1.33","2714088","co38959","norming","","","","","","",""
"4680.295000000158","","","post_mooney1_questions","survey-likert","239","1160308","0.0-6.0-2.33","2714088","co38959","norming","","","{""curiosity"":6,""confidence"":5}","[0,1]","../img/tt/1070tt.jpg","",""
"4694.354999999516","","","recognition","survey-text","240","1165004","0.0-6.0-3.33","2714088","co38959","norming","","","{""guess"":""pannenkoeken""}","","../img/tt/1070tt.jpg","",""
"null","../img/gs/1070gs.jpg","null","reveal","image-keyboard-response","241","1167006","0.0-6.0-4.33","2714088","co38959","norming","","","","","","",""
"null","../img/tt/1070tt.jpg","null","mooney2","image-keyboard-response","242","1169010","0.0-6.0-5.33","2714088","co38959","norming","","","","","","",""
"1720.4399999999441","","","post_reveal_questions","survey-likert","243","1170732","0.0-6.0-6.33","2714088","co38959","norming","","","{""aha"":4}","[0]","../img/tt/1070tt.jpg","",""
"null","<div style=""font-size:60px;""> </div>","null","fixation","html-keyboard-response","244","1170933","0.0-6.0-0.34","2714088","co38959","norming","","","","","","",""
"null","../img/tt/590tt.jpg","null","mooney1","image-keyboard-response","245","1173937","0.0-6.0-1.34","2714088","co38959","norming","","","","","","",""
"3888.5749999999534","","","post_mooney1_questions","survey-likert","246","1177829","0.0-6.0-2.34","2714088","co38959","norming","","","{""curiosity"":6,""confidence"":0}","[0,1]","../img/tt/590tt.jpg","",""
"2118.1450000004843","","","recognition","survey-text","247","1179948","0.0-6.0-3.34","2714088","co38959","norming","","","{""guess"":""kledij""}","","../img/tt/590tt.jpg","",""
"null","../img/gs/590gs.jpg","null","reveal","image-keyboard-response","248","1181951","0.0-6.0-4.34","2714088","co38959","norming","","","","","","",""
"null","../img/tt/590tt.jpg","null","mooney2","image-keyboard-response","249","1183954","0.0-6.0-5.34","2714088","co38959","norming","","","","","","",""
"1383.8649999997579","","","post_reveal_questions","survey-likert","250","1185340","0.0-6.0-6.34","2714088","co38959","norming","","","{""aha"":4}","[0]","../img/tt/590tt.jpg","",""
"null","<div style=""font-size:60px;""> </div>","null","fixation","html-keyboard-response","251","1185542","0.0-6.0-0.35","2714088","co38959","norming","","","","","","",""
"null","../img/tt/1353tt.jpg","null","mooney1","image-keyboard-response","252","1188549","0.0-6.0-1.35","2714088","co38959","norming","","","","","","",""
"3668.725000000559","","","post_mooney1_questions","survey-likert","253","1192220","0.0-6.0-2.35","2714088","co38959","norming","","","{""curiosity"":4,""confidence"":0}","[0,1]","../img/tt/1353tt.jpg","",""
"3214.2450000001118","","","recognition","survey-text","254","1195436","0.0-6.0-3.35","2714088","co38959","norming","","","{""guess"":""brillendoos""}","","../img/tt/1353tt.jpg","",""
"null","../img/gs/1353gs.jpg","null","reveal","image-keyboard-response","255","1197442","0.0-6.0-4.35","2714088","co38959","norming","","","","","","",""
"null","../img/tt/1353tt.jpg","null","mooney2","image-keyboard-response","256","1199450","0.0-6.0-5.35","2714088","co38959","norming","","","","","","",""
"1969.0600000002887","","","post_reveal_questions","survey-likert","257","1201420","0.0-6.0-6.35","2714088","co38959","norming","","","{""aha"":4}","[0]","../img/tt/1353tt.jpg","",""
"null","<div style=""font-size:60px;""> </div>","null","fixation","html-keyboard-response","258","1201623","0.0-6.0-0.36","2714088","co38959","norming","","","","","","",""
"null","../img/tt/1196tt.jpg","null","mooney1","image-keyboard-response","259","1204628","0.0-6.0-1.36","2714088","co38959","norming","","","","","","",""
"5749.02500000014","","","post_mooney1_questions","survey-likert","260","1210380","0.0-6.0-2.36","2714088","co38959","norming","","","{""curiosity"":4,""confidence"":0}","[0,1]","../img/tt/1196tt.jpg","",""
"2622.3849999997765","","","recognition","survey-text","261","1213004","0.0-6.0-3.36","2714088","co38959","norming","","","{""guess"":""mannen""}","","../img/tt/1196tt.jpg","",""
"null","../img/gs/1196gs.jpg","null","reveal","image-keyboard-response","262","1215009","0.0-6.0-4.36","2714088","co38959","norming","","","","","","",""
"null","../img/tt/1196tt.jpg","null","mooney2","image-keyboard-response","263","1217013","0.0-6.0-5.36","2714088","co38959","norming","","","","","","",""
"2045.1949999998324","","","post_reveal_questions","survey-likert","264","1219060","0.0-6.0-6.36","2714088","co38959","norming","","","{""aha"":3}","[0]","../img/tt/1196tt.jpg","",""
"null","<div style=""font-size:60px;""> </div>","null","fixation","html-keyboard-response","265","1219271","0.0-6.0-0.37","2714088","co38959","norming","","","","","","",""
"null","../img/tt/416tt.jpg","null","mooney1","image-keyboard-response","266","1222283","0.0-6.0-1.37","2714088","co38959","norming","","","","","","",""
"5520.154999999097","","","post_mooney1_questions","survey-likert","267","1227806","0.0-6.0-2.37","2714088","co38959","norming","","","{""curiosity"":3,""confidence"":3}","[0,1]","../img/tt/416tt.jpg","",""
"1742.4299999992363","","","recognition","survey-text","268","1229550","0.0-6.0-3.37","2714088","co38959","norming","","","{""guess"":""de zee""}","","../img/tt/416tt.jpg","",""
"null","../img/gs/416gs.jpg","null","reveal","image-keyboard-response","269","1231552","0.0-6.0-4.37","2714088","co38959","norming","","","","","","",""
"null","../img/tt/416tt.jpg","null","mooney2","image-keyboard-response","270","1233559","0.0-6.0-5.37","2714088","co38959","norming","","","","","","",""
"2085.1750000002794","","","post_reveal_questions","survey-likert","271","1235646","0.0-6.0-6.37","2714088","co38959","norming","","","{""aha"":6}","[0]","../img/tt/416tt.jpg","",""
"null","<div style=""font-size:60px;""> </div>","null","fixation","html-keyboard-response","272","1235855","0.0-6.0-0.38","2714088","co38959","norming","","","","","","",""
"null","../img/tt/123tt.jpg","null","mooney1","image-keyboard-response","273","1238857","0.0-6.0-1.38","2714088","co38959","norming","","","","","","",""
"4369.925000000047","","","post_mooney1_questions","survey-likert","274","1243230","0.0-6.0-2.38","2714088","co38959","norming","","","{""curiosity"":5,""confidence"":1}","[0,1]","../img/tt/123tt.jpg","",""
"5566.10999999987","","","recognition","survey-text","275","1248798","0.0-6.0-3.38","2714088","co38959","norming","","","{""guess"":""portefeuille""}","","../img/tt/123tt.jpg","",""
"null","../img/gs/123gs.jpg","null","reveal","image-keyboard-response","276","1250800","0.0-6.0-4.38","2714088","co38959","norming","","","","","","",""
"null","../img/tt/123tt.jpg","null","mooney2","image-keyboard-response","277","1252801","0.0-6.0-5.38","2714088","co38959","norming","","","","","","",""
"1768.9799999997485","","","post_reveal_questions","survey-likert","278","1254574","0.0-6.0-6.38","2714088","co38959","norming","","","{""aha"":4}","[0]","../img/tt/123tt.jpg","",""
"null","<div style=""font-size:60px;""> </div>","null","fixation","html-keyboard-response","279","1254776","0.0-6.0-0.39","2714088","co38959","norming","","","","","","",""
"null","../img/tt/1227tt.jpg","null","mooney1","image-keyboard-response","280","1257777","0.0-6.0-1.39","2714088","co38959","norming","","","","","","",""
"2609.8799999998882","","","post_mooney1_questions","survey-likert","281","1260390","0.0-6.0-2.39","2714088","co38959","norming","","","{""curiosity"":2,""confidence"":2}","[0,1]","../img/tt/1227tt.jpg","",""
"1973.9800000006799","","","recognition","survey-text","282","1262366","0.0-6.0-3.39","2714088","co38959","norming","","","{""guess"":""kippen""}","","../img/tt/1227tt.jpg","",""
"null","../img/gs/1227gs.jpg","null","reveal","image-keyboard-response","283","1264367","0.0-6.0-4.39","2714088","co38959","norming","","","","","","",""
"null","../img/tt/1227tt.jpg","null","mooney2","image-keyboard-response","284","1266371","0.0-6.0-5.39","2714088","co38959","norming","","","","","","",""
"3056.2800000007264","","","post_reveal_questions","survey-likert","285","1269430","0.0-6.0-6.39","2714088","co38959","norming","","","{""aha"":2}","[0]","../img/tt/1227tt.jpg","",""
"null","<div style=""font-size:60px;""> </div>","null","fixation","html-keyboard-response","286","1269631","0.0-6.0-0.40","2714088","co38959","norming","","","","","","",""
"null","../img/tt/1232tt.jpg","null","mooney1","image-keyboard-response","287","1272635","0.0-6.0-1.40","2714088","co38959","norming","","","","","","",""
"3319.829999999609","","","post_mooney1_questions","survey-likert","288","1275958","0.0-6.0-2.40","2714088","co38959","norming","","","{""curiosity"":6,""confidence"":0}","[0,1]","../img/tt/1232tt.jpg","",""
"3622.235000000801","","","recognition","survey-text","289","1279582","0.0-6.0-3.40","2714088","co38959","norming","","","{""guess"":""een duif""}","","../img/tt/1232tt.jpg","",""
"null","../img/gs/1232gs.jpg","null","reveal","image-keyboard-response","290","1281586","0.0-6.0-4.40","2714088","co38959","norming","","","","","","",""
"null","../img/tt/1232tt.jpg","null","mooney2","image-keyboard-response","291","1283594","0.0-6.0-5.40","2714088","co38959","norming","","","","","","",""
"2605.0349999996834","","","post_reveal_questions","survey-likert","292","1286200","0.0-6.0-6.40","2714088","co38959","norming","","","{""aha"":6}","[0]","../img/tt/1232tt.jpg","",""
"null","<div style=""font-size:60px;""> </div>","null","fixation","html-keyboard-response","293","1286402","0.0-6.0-0.41","2714088","co38959","norming","","","","","","",""
"null","../img/tt/013tt.jpg","null","mooney1","image-keyboard-response","294","1289406","0.0-6.0-1.41","2714088","co38959","norming","","","","","","",""
"3086.6349999995437","","","post_mooney1_questions","survey-likert","295","1292496","0.0-6.0-2.41","2714088","co38959","norming","","","{""curiosity"":4,""confidence"":0}","[0,1]","../img/tt/013tt.jpg","",""
"1534.3199999998324","","","recognition","survey-text","296","1294032","0.0-6.0-3.41","2714088","co38959","norming","","","{""guess"":""heks""}","","../img/tt/013tt.jpg","",""
"null","../img/gs/013gs.jpg","null","reveal","image-keyboard-response","297","1296033","0.0-6.0-4.41","2714088","co38959","norming","","","","","","",""
"null","../img/tt/013tt.jpg","null","mooney2","image-keyboard-response","298","1298036","0.0-6.0-5.41","2714088","co38959","norming","","","","","","",""
"1889.5599999995902","","","post_reveal_questions","survey-likert","299","1299927","0.0-6.0-6.41","2714088","co38959","norming","","","{""aha"":6}","[0]","../img/tt/013tt.jpg","",""
"null","<div style=""font-size:60px;""> </div>","null","fixation","html-keyboard-response","300","1300132","0.0-6.0-0.42","2714088","co38959","norming","","","","","","",""
"null","../img/tt/063tt.jpg","null","mooney1","image-keyboard-response","301","1303142","0.0-6.0-1.42","2714088","co38959","norming","","","","","","",""
"3399.424999999581","","","post_mooney1_questions","survey-likert","302","1306544","0.0-6.0-2.42","2714088","co38959","norming","","","{""curiosity"":4,""confidence"":0}","[0,1]","../img/tt/063tt.jpg","",""
"2862.2949999999255","","","recognition","survey-text","303","1309408","0.0-6.0-3.42","2714088","co38959","norming","","","{""guess"":""computer""}","","../img/tt/063tt.jpg","",""
"null","../img/gs/063gs.jpg","null","reveal","image-keyboard-response","304","1311410","0.0-6.0-4.42","2714088","co38959","norming","","","","","","",""
"null","../img/tt/063tt.jpg","null","mooney2","image-keyboard-response","305","1313419","0.0-6.0-5.42","2714088","co38959","norming","","","","","","",""
"2794.9049999995623","","","post_reveal_questions","survey-likert","306","1316216","0.0-6.0-6.42","2714088","co38959","norming","","","{""aha"":4}","[0]","../img/tt/063tt.jpg","",""
"null","<div style=""font-size:60px;""> </div>","null","fixation","html-keyboard-response","307","1316425","0.0-6.0-0.43","2714088","co38959","norming","","","","","","",""
"null","../img/tt/096tt.jpg","null","mooney1","image-keyboard-response","308","1319432","0.0-6.0-1.43","2714088","co38959","norming","","","","","","",""
"3724.385000000475","","","post_mooney1_questions","survey-likert","309","1323160","0.0-6.0-2.43","2714088","co38959","norming","","","{""curiosity"":2,""confidence"":6}","[0,1]","../img/tt/096tt.jpg","",""
"1957.4799999999814","","","recognition","survey-text","310","1325120","0.0-6.0-3.43","2714088","co38959","norming","","","{""guess"":""piano""}","","../img/tt/096tt.jpg","",""
"null","../img/gs/096gs.jpg","null","reveal","image-keyboard-response","311","1327127","0.0-6.0-4.43","2714088","co38959","norming","","","","","","",""
"null","../img/tt/096tt.jpg","null","mooney2","image-keyboard-response","312","1329129","0.0-6.0-5.43","2714088","co38959","norming","","","","","","",""
"2091.605000000447","","","post_reveal_questions","survey-likert","313","1331224","0.0-6.0-6.43","2714088","co38959","norming","","","{""aha"":2}","[0]","../img/tt/096tt.jpg","",""
"null","<div style=""font-size:60px;""> </div>","null","fixation","html-keyboard-response","314","1331425","0.0-6.0-0.44","2714088","co38959","norming","","","","","","",""
"null","../img/tt/1127tt.jpg","null","mooney1","image-keyboard-response","315","1334427","0.0-6.0-1.44","2714088","co38959","norming","","","","","","",""
"2737.6149999999907","","","post_mooney1_questions","survey-likert","316","1337168","0.0-6.0-2.44","2714088","co38959","norming","","","{""curiosity"":6,""confidence"":1}","[0,1]","../img/tt/1127tt.jpg","",""
"2398.165000000503","","","recognition","survey-text","317","1339568","0.0-6.0-3.44","2714088","co38959","norming","","","{""guess"":""woonkamer""}","","../img/tt/1127tt.jpg","",""
"null","../img/gs/1127gs.jpg","null","reveal","image-keyboard-response","318","1341577","0.0-6.0-4.44","2714088","co38959","norming","","","","","","",""
"null","../img/tt/1127tt.jpg","null","mooney2","image-keyboard-response","319","1343583","0.0-6.0-5.44","2714088","co38959","norming","","","","","","",""
"1847.0749999994878","","","post_reveal_questions","survey-likert","320","1345432","0.0-6.0-6.44","2714088","co38959","norming","","","{""aha"":6}","[0]","../img/tt/1127tt.jpg","",""
"null","<div style=""font-size:60px;""> </div>","null","fixation","html-keyboard-response","321","1345633","0.0-6.0-0.45","2714088","co38959","norming","","","","","","",""
"null","../img/tt/1130tt.jpg","null","mooney1","image-keyboard-response","322","1348638","0.0-6.0-1.45","2714088","co38959","norming","","","","","","",""
"2662.9700000004377","","","post_mooney1_questions","survey-likert","323","1351304","0.0-6.0-2.45","2714088","co38959","norming","","","{""curiosity"":4,""confidence"":1}","[0,1]","../img/tt/1130tt.jpg","",""
"2246.3799999996554","","","recognition","survey-text","324","1353552","0.0-6.0-3.45","2714088","co38959","norming","","","{""guess"":""wielrenner""}","","../img/tt/1130tt.jpg","",""
"null","../img/gs/1130gs.jpg","null","reveal","image-keyboard-response","325","1355560","0.0-6.0-4.45","2714088","co38959","norming","","","","","","",""
"null","../img/tt/1130tt.jpg","null","mooney2","image-keyboard-response","326","1357561","0.0-6.0-5.45","2714088","co38959","norming","","","","","","",""
"1598.2949999996927","","","post_reveal_questions","survey-likert","327","1359160","0.0-6.0-6.45","2714088","co38959","norming","","","{""aha"":0}","[0]","../img/tt/1130tt.jpg","",""
"null","<div style=""font-size:60px;""> </div>","null","fixation","html-keyboard-response","328","1359367","0.0-6.0-0.46","2714088","co38959","norming","","","","","","",""
"null","../img/tt/599tt.jpg","null","mooney1","image-keyboard-response","329","1362378","0.0-6.0-1.46","2714088","co38959","norming","","","","","","",""
"5067.930000000168","","","post_mooney1_questions","survey-likert","330","1367448","0.0-6.0-2.46","2714088","co38959","norming","","","{""curiosity"":2,""confidence"":2}","[0,1]","../img/tt/599tt.jpg","",""
"2086.019999999786","","","recognition","survey-text","331","1369536","0.0-6.0-3.46","2714088","co38959","norming","","","{""guess"":""haan""}","","../img/tt/599tt.jpg","",""
"null","../img/gs/599gs.jpg","null","reveal","image-keyboard-response","332","1371542","0.0-6.0-4.46","2714088","co38959","norming","","","","","","",""
"null","../img/tt/599tt.jpg","null","mooney2","image-keyboard-response","333","1373543","0.0-6.0-5.46","2714088","co38959","norming","","","","","","",""
"1295.8549999995157","","","post_reveal_questions","survey-likert","334","1374840","0.0-6.0-6.46","2714088","co38959","norming","","","{""aha"":2}","[0]","../img/tt/599tt.jpg","",""
"null","<div style=""font-size:60px;""> </div>","null","fixation","html-keyboard-response","335","1375048","0.0-6.0-0.47","2714088","co38959","norming","","","","","","",""
"null","../img/tt/1191tt.jpg","null","mooney1","image-keyboard-response","336","1378050","0.0-6.0-1.47","2714088","co38959","norming","","","","","","",""
"2227.644999999786","","","post_mooney1_questions","survey-likert","337","1380280","0.0-6.0-2.47","2714088","co38959","norming","","","{""curiosity"":4,""confidence"":2}","[0,1]","../img/tt/1191tt.jpg","",""
"2662.0449999999255","","","recognition","survey-text","338","1382944","0.0-6.0-3.47","2714088","co38959","norming","","","{""guess"":""wandelaars""}","","../img/tt/1191tt.jpg","",""
"null","../img/gs/1191gs.jpg","null","reveal","image-keyboard-response","339","1384955","0.0-6.0-4.47","2714088","co38959","norming","","","","","","",""
"null","../img/tt/1191tt.jpg","null","mooney2","image-keyboard-response","340","1386963","0.0-6.0-5.47","2714088","co38959","norming","","","","","","",""
"2427.070000000531","","","post_reveal_questions","survey-likert","341","1389392","0.0-6.0-6.47","2714088","co38959","norming","","","{""aha"":2}","[0]","../img/tt/1191tt.jpg","",""
"null","<div style=""font-size:60px;""> </div>","null","fixation","html-keyboard-response","342","1389597","0.0-6.0-0.48","2714088","co38959","norming","","","","","","",""
"null","../img/tt/1241tt.jpg","null","mooney1","image-keyboard-response","343","1392598","0.0-6.0-1.48","2714088","co38959","norming","","","","","","",""
"3783.0850000001956","","","post_mooney1_questions","survey-likert","344","1396384","0.0-6.0-2.48","2714088","co38959","norming","","","{""curiosity"":4,""confidence"":0}","[0,1]","../img/tt/1241tt.jpg","",""
"2494.2549999996554","","","recognition","survey-text","345","1398880","0.0-6.0-3.48","2714088","co38959","norming","","","{""guess"":""het strand""}","","../img/tt/1241tt.jpg","",""
"null","../img/gs/1241gs.jpg","null","reveal","image-keyboard-response","346","1400883","0.0-6.0-4.48","2714088","co38959","norming","","","","","","",""
"null","../img/tt/1241tt.jpg","null","mooney2","image-keyboard-response","347","1402885","0.0-6.0-5.48","2714088","co38959","norming","","","","","","",""
"2104.9699999992736","","","post_reveal_questions","survey-likert","348","1404985","0.0-6.0-6.48","2714088","co38959","norming","","","{""aha"":6}","[0]","../img/tt/1241tt.jpg","",""
"null","<div style=""font-size:60px;""> </div>","null","fixation","html-keyboard-response","349","1405190","0.0-6.0-0.49","2714088","co38959","norming","","","","","","",""
"null","../img/tt/1366tt.jpg","null","mooney1","image-keyboard-response","350","1408195","0.0-6.0-1.49","2714088","co38959","norming","","","","","","",""
"2996.269999999786","","","post_mooney1_questions","survey-likert","351","1411194","0.0-6.0-2.49","2714088","co38959","norming","","","{""curiosity"":6,""confidence"":0}","[0,1]","../img/tt/1366tt.jpg","",""
"1406.1649999993388","","","recognition","survey-text","352","1412602","0.0-6.0-3.49","2714088","co38959","norming","","","{""guess"":""wrap""}","","../img/tt/1366tt.jpg","",""
"null","../img/gs/1366gs.jpg","null","reveal","image-keyboard-response","353","1414607","0.0-6.0-4.49","2714088","co38959","norming","","","","","","",""
"null","../img/tt/1366tt.jpg","null","mooney2","image-keyboard-response","354","1416616","0.0-6.0-5.49","2714088","co38959","norming","","","","","","",""
"1078.690000000177","","","post_reveal_questions","survey-likert","355","1417698","0.0-6.0-6.49","2714088","co38959","norming","","","{""aha"":4}","[0]","../img/tt/1366tt.jpg","",""
"null","<div style=""font-size:60px;""> </div>","null","fixation","html-keyboard-response","356","1417904","0.0-6.0-0.50","2714088","co38959","norming","","","","","","",""
"null","../img/tt/1072tt.jpg","null","mooney1","image-keyboard-response","357","1420907","0.0-6.0-1.50","2714088","co38959","norming","","","","","","",""
"3282.2249999998603","","","post_mooney1_questions","survey-likert","358","1424194","0.0-6.0-2.50","2714088","co38959","norming","","","{""curiosity"":5,""confidence"":0}","[0,1]","../img/tt/1072tt.jpg","",""
"1558.1149999999907","","","recognition","survey-text","359","1425754","0.0-6.0-3.50","2714088","co38959","norming","","","{""guess"":""terras""}","","../img/tt/1072tt.jpg","",""
"null","../img/gs/1072gs.jpg","null","reveal","image-keyboard-response","360","1427755","0.0-6.0-4.50","2714088","co38959","norming","","","","","","",""
"null","../img/tt/1072tt.jpg","null","mooney2","image-keyboard-response","361","1429760","0.0-6.0-5.50","2714088","co38959","norming","","","","","","",""
"3616.1750000000466","","","post_reveal_questions","survey-likert","362","1433378","0.0-6.0-6.50","2714088","co38959","norming","","","{""aha"":4}","[0]","../img/tt/1072tt.jpg","",""
"null","<div style=""font-size:60px;""> </div>","null","fixation","html-keyboard-response","363","1433587","0.0-6.0-0.51","2714088","co38959","norming","","","","","","",""
"null","../img/tt/1235tt.jpg","null","mooney1","image-keyboard-response","364","1436594","0.0-6.0-1.51","2714088","co38959","norming","","","","","","",""
"2469.065000000177","","","post_mooney1_questions","survey-likert","365","1439066","0.0-6.0-2.51","2714088","co38959","norming","","","{""curiosity"":4,""confidence"":2}","[0,1]","../img/tt/1235tt.jpg","",""
"2526.1649999993388","","","recognition","survey-text","366","1441594","0.0-6.0-3.51","2714088","co38959","norming","","","{""guess"":""hooi""}","","../img/tt/1235tt.jpg","",""
"null","../img/gs/1235gs.jpg","null","reveal","image-keyboard-response","367","1443600","0.0-6.0-4.51","2714088","co38959","norming","","","","","","",""
"null","../img/tt/1235tt.jpg","null","mooney2","image-keyboard-response","368","1445607","0.0-6.0-5.51","2714088","co38959","norming","","","","","","",""
"3600.640000000596","","","post_reveal_questions","survey-likert","369","1449209","0.0-6.0-6.51","2714088","co38959","norming","","","{""aha"":4}","[0]","../img/tt/1235tt.jpg","",""
"null","<div style=""font-size:60px;""> </div>","null","fixation","html-keyboard-response","370","1449418","0.0-6.0-0.52","2714088","co38959","norming","","","","","","",""
"null","../img/tt/124tt.jpg","null","mooney1","image-keyboard-response","371","1452421","0.0-6.0-1.52","2714088","co38959","norming","","","","","","",""
"4633.485000000335","","","post_mooney1_questions","survey-likert","372","1457058","0.0-6.0-2.52","2714088","co38959","norming","","","{""curiosity"":3,""confidence"":6}","[0,1]","../img/tt/124tt.jpg","",""
"3094.234999999637","","","recognition","survey-text","373","1460154","0.0-6.0-3.52","2714088","co38959","norming","","","{""guess"":""gorilla""}","","../img/tt/124tt.jpg","",""
"null","../img/gs/124gs.jpg","null","reveal","image-keyboard-response","374","1462156","0.0-6.0-4.52","2714088","co38959","norming","","","","","","",""
"null","../img/tt/124tt.jpg","null","mooney2","image-keyboard-response","375","1464159","0.0-6.0-5.52","2714088","co38959","norming","","","","","","",""
"2623.7399999999907","","","post_reveal_questions","survey-likert","376","1466787","0.0-6.0-6.52","2714088","co38959","norming","","","{""aha"":3}","[0]","../img/tt/124tt.jpg","",""
"null","<div style=""font-size:60px;""> </div>","null","fixation","html-keyboard-response","377","1466989","0.0-6.0-0.53","2714088","co38959","norming","","","","","","",""
"null","../img/tt/1239tt.jpg","null","mooney1","image-keyboard-response","378","1469992","0.0-6.0-1.53","2714088","co38959","norming","","","","","","",""
"2631.4149999998044","","","post_mooney1_questions","survey-likert","379","1472627","0.0-6.0-2.53","2714088","co38959","norming","","","{""curiosity"":4,""confidence"":6}","[0,1]","../img/tt/1239tt.jpg","",""
"2134.339999999618","","","recognition","survey-text","380","1474763","0.0-6.0-3.53","2714088","co38959","norming","","","{""guess"":""hond""}","","../img/tt/1239tt.jpg","",""
"null","../img/gs/1239gs.jpg","null","reveal","image-keyboard-response","381","1476772","0.0-6.0-4.53","2714088","co38959","norming","","","","","","",""
"null","../img/tt/1239tt.jpg","null","mooney2","image-keyboard-response","382","1478783","0.0-6.0-5.53","2714088","co38959","norming","","","","","","",""
"1986.3100000002887","","","post_reveal_questions","survey-likert","383","1480771","0.0-6.0-6.53","2714088","co38959","norming","","","{""aha"":3}","[0]","../img/tt/1239tt.jpg","",""
"null","<div style=""font-size:60px;""> </div>","null","fixation","html-keyboard-response","384","1480982","0.0-6.0-0.54","2714088","co38959","norming","","","","","","",""
"null","../img/tt/1260tt.jpg","null","mooney1","image-keyboard-response","385","1483983","0.0-6.0-1.54","2714088","co38959","norming","","","","","","",""
"2489.114999999525","","","post_mooney1_questions","survey-likert","386","1486475","0.0-6.0-2.54","2714088","co38959","norming","","","{""curiosity"":3,""confidence"":2}","[0,1]","../img/tt/1260tt.jpg","",""
"1534.174999999581","","","recognition","survey-text","387","1488011","0.0-6.0-3.54","2714088","co38959","norming","","","{""guess"":""kat""}","","../img/tt/1260tt.jpg","",""
"null","../img/gs/1260gs.jpg","null","reveal","image-keyboard-response","388","1490019","0.0-6.0-4.54","2714088","co38959","norming","","","","","","",""
"null","../img/tt/1260tt.jpg","null","mooney2","image-keyboard-response","389","1492025","0.0-6.0-5.54","2714088","co38959","norming","","","","","","",""
"1079.619999999646","","","post_reveal_questions","survey-likert","390","1493107","0.0-6.0-6.54","2714088","co38959","norming","","","{""aha"":6}","[0]","../img/tt/1260tt.jpg","",""
"null","<div style=""font-size:60px;""> </div>","null","fixation","html-keyboard-response","391","1493310","0.0-6.0-0.55","2714088","co38959","norming","","","","","","",""
"null","../img/tt/436tt.jpg","null","mooney1","image-keyboard-response","392","1496316","0.0-6.0-1.55","2714088","co38959","norming","","","","","","",""
"3203.524999999907","","","post_mooney1_questions","survey-likert","393","1499523","0.0-6.0-2.55","2714088","co38959","norming","","","{""curiosity"":4,""confidence"":2}","[0,1]","../img/tt/436tt.jpg","",""
"2646.2949999996927","","","recognition","survey-text","394","1502171","0.0-6.0-3.55","2714088","co38959","norming","","","{""guess"":""krokodil""}","","../img/tt/436tt.jpg","",""
"null","../img/gs/436gs.jpg","null","reveal","image-keyboard-response","395","1504173","0.0-6.0-4.55","2714088","co38959","norming","","","","","","",""
"null","../img/tt/436tt.jpg","null","mooney2","image-keyboard-response","396","1506174","0.0-6.0-5.55","2714088","co38959","norming","","","","","","",""
"1634.3999999999069","","","post_reveal_questions","survey-likert","397","1507811","0.0-6.0-6.55","2714088","co38959","norming","","","{""aha"":4}","[0]","../img/tt/436tt.jpg","",""
"null","<div style=""font-size:60px;""> </div>","null","fixation","html-keyboard-response","398","1508014","0.0-6.0-0.56","2714088","co38959","norming","","","","","","",""
"null","../img/tt/1363tt.jpg","null","mooney1","image-keyboard-response","399","1511017","0.0-6.0-1.56","2714088","co38959","norming","","","","","","",""
"2719.469999999972","","","post_mooney1_questions","survey-likert","400","1513740","0.0-6.0-2.56","2714088","co38959","norming","","","{""curiosity"":3,""confidence"":3}","[0,1]","../img/tt/1363tt.jpg","",""
"1710.0149999996647","","","recognition","survey-text","401","1515451","0.0-6.0-3.56","2714088","co38959","norming","","","{""guess"":""olielamp""}","","../img/tt/1363tt.jpg","",""
"null","../img/gs/1363gs.jpg","null","reveal","image-keyboard-response","402","1517454","0.0-6.0-4.56","2714088","co38959","norming","","","","","","",""
"null","../img/tt/1363tt.jpg","null","mooney2","image-keyboard-response","403","1519460","0.0-6.0-5.56","2714088","co38959","norming","","","","","","",""
"1630.5250000003725","","","post_reveal_questions","survey-likert","404","1521091","0.0-6.0-6.56","2714088","co38959","norming","","","{""aha"":3}","[0]","../img/tt/1363tt.jpg","",""
"null","<div style=""font-size:60px;""> </div>","null","fixation","html-keyboard-response","405","1521301","0.0-6.0-0.57","2714088","co38959","norming","","","","","","",""
"null","../img/tt/1061tt.jpg","null","mooney1","image-keyboard-response","406","1524308","0.0-6.0-1.57","2714088","co38959","norming","","","","","","",""
"2931.9850000001024","","","post_mooney1_questions","survey-likert","407","1527250","0.0-6.0-2.57","2714088","co38959","norming","","","{""curiosity"":3,""confidence"":2}","[0,1]","../img/tt/1061tt.jpg","",""
"1598.2099999999627","","","recognition","survey-text","408","1528850","0.0-6.0-3.57","2714088","co38959","norming","","","{""guess"":""strand""}","","../img/tt/1061tt.jpg","",""
"null","../img/gs/1061gs.jpg","null","reveal","image-keyboard-response","409","1530856","0.0-6.0-4.57","2714088","co38959","norming","","","","","","",""
"null","../img/tt/1061tt.jpg","null","mooney2","image-keyboard-response","410","1532860","0.0-6.0-5.57","2714088","co38959","norming","","","","","","",""
"1635.7899999993388","","","post_reveal_questions","survey-likert","411","1534498","0.0-6.0-6.57","2714088","co38959","norming","","","{""aha"":3}","[0]","../img/tt/1061tt.jpg","",""
"null","<div style=""font-size:60px;""> </div>","null","fixation","html-keyboard-response","412","1534704","0.0-6.0-0.58","2714088","co38959","norming","","","","","","",""
"null","../img/tt/121tt.jpg","null","mooney1","image-keyboard-response","413","1537710","0.0-6.0-1.58","2714088","co38959","norming","","","","","","",""
"4249.389999999898","","","post_mooney1_questions","survey-likert","414","1541962","0.0-6.0-2.58","2714088","co38959","norming","","","{""curiosity"":3,""confidence"":0}","[0,1]","../img/tt/121tt.jpg","",""
"1606.1949999993667","","","recognition","survey-text","415","1543570","0.0-6.0-3.58","2714088","co38959","norming","","","{""guess"":""de zee""}","","../img/tt/121tt.jpg","",""
"null","../img/gs/121gs.jpg","null","reveal","image-keyboard-response","416","1545577","0.0-6.0-4.58","2714088","co38959","norming","","","","","","",""
"null","../img/tt/121tt.jpg","null","mooney2","image-keyboard-response","417","1547587","0.0-6.0-5.58","2714088","co38959","norming","","","","","","",""
"1701.5200000004843","","","post_reveal_questions","survey-likert","418","1549290","0.0-6.0-6.58","2714088","co38959","norming","","","{""aha"":3}","[0]","../img/tt/121tt.jpg","",""
"null","<div style=""font-size:60px;""> </div>","null","fixation","html-keyboard-response","419","1549500","0.0-6.0-0.59","2714088","co38959","norming","","","","","","",""
"null","../img/tt/307tt.jpg","null","mooney1","image-keyboard-response","420","1552509","0.0-6.0-1.59","2714088","co38959","norming","","","","","","",""
"4866.104999999981","","","post_mooney1_questions","survey-likert","421","1557378","0.0-6.0-2.59","2714088","co38959","norming","","","{""curiosity"":4,""confidence"":0}","[0,1]","../img/tt/307tt.jpg","",""
"6078.064999999711","","","recognition","survey-text","422","1563458","0.0-6.0-3.59","2714088","co38959","norming","","","{""guess"":""grass""}","","../img/tt/307tt.jpg","",""
"null","../img/gs/307gs.jpg","null","reveal","image-keyboard-response","423","1565464","0.0-6.0-4.59","2714088","co38959","norming","","","","","","",""
"null","../img/tt/307tt.jpg","null","mooney2","image-keyboard-response","424","1567466","0.0-6.0-5.59","2714088","co38959","norming","","","","","","",""
"1518.6100000001024","","","post_reveal_questions","survey-likert","425","1568986","0.0-6.0-6.59","2714088","co38959","norming","","","{""aha"":6}","[0]","../img/tt/307tt.jpg","",""
"null","<div style=""font-size:60px;""> </div>","null","fixation","html-keyboard-response","426","1569191","0.0-6.0-0.60","2714088","co38959","norming","","","","","","",""
"null","../img/tt/1243tt.jpg","null","mooney1","image-keyboard-response","427","1572201","0.0-6.0-1.60","2714088","co38959","norming","","","","","","",""
"3574.205000000773","","","post_mooney1_questions","survey-likert","428","1575778","0.0-6.0-2.60","2714088","co38959","norming","","","{""curiosity"":3,""confidence"":1}","[0,1]","../img/tt/1243tt.jpg","",""
"2285.954999999376","","","recognition","survey-text","429","1578066","0.0-6.0-3.60","2714088","co38959","norming","","","{""guess"":""kangaroo""}","","../img/tt/1243tt.jpg","",""
"null","../img/gs/1243gs.jpg","null","reveal","image-keyboard-response","430","1580067","0.0-6.0-4.60","2714088","co38959","norming","","","","","","",""
"null","../img/tt/1243tt.jpg","null","mooney2","image-keyboard-response","431","1582076","0.0-6.0-5.60","2714088","co38959","norming","","","","","","",""
"1707.6550000002608","","","post_reveal_questions","survey-likert","432","1583786","0.0-6.0-6.60","2714088","co38959","norming","","","{""aha"":4}","[0]","../img/tt/1243tt.jpg","",""
"null","<div style=""font-size:60px;""> </div>","null","fixation","html-keyboard-response","433","1583991","0.0-6.0-0.61","2714088","co38959","norming","","","","","","",""
"null","../img/tt/1004tt.jpg","null","mooney1","image-keyboard-response","434","1586996","0.0-6.0-1.61","2714088","co38959","norming","","","","","","",""
"4131.795000000391","","","post_mooney1_questions","survey-likert","435","1591131","0.0-6.0-2.61","2714088","co38959","norming","","","{""curiosity"":4,""confidence"":0}","[0,1]","../img/tt/1004tt.jpg","",""
"1350.0949999997392","","","recognition","survey-text","436","1592483","0.0-6.0-3.61","2714088","co38959","norming","","","{""guess"":""gras""}","","../img/tt/1004tt.jpg","",""
"null","../img/gs/1004gs.jpg","null","reveal","image-keyboard-response","437","1594493","0.0-6.0-4.61","2714088","co38959","norming","","","","","","",""
"null","../img/tt/1004tt.jpg","null","mooney2","image-keyboard-response","438","1596499","0.0-6.0-5.61","2714088","co38959","norming","","","","","","",""
"1709.4400000004098","","","post_reveal_questions","survey-likert","439","1598211","0.0-6.0-6.61","2714088","co38959","norming","","","{""aha"":4}","[0]","../img/tt/1004tt.jpg","",""
"null","<div style=""font-size:60px;""> </div>","null","fixation","html-keyboard-response","440","1598418","0.0-6.0-0.62","2714088","co38959","norming","","","","","","",""
"null","../img/tt/329tt.jpg","null","mooney1","image-keyboard-response","441","1601428","0.0-6.0-1.62","2714088","co38959","norming","","","","","","",""
"3123.864999999525","","","post_mooney1_questions","survey-likert","442","1604555","0.0-6.0-2.62","2714088","co38959","norming","","","{""curiosity"":3,""confidence"":1}","[0,1]","../img/tt/329tt.jpg","",""
"2150.33000000054","","","recognition","survey-text","443","1606707","0.0-6.0-3.62","2714088","co38959","norming","","","{""guess"":""nijlpaard""}","","../img/tt/329tt.jpg","",""
"null","../img/gs/329gs.jpg","null","reveal","image-keyboard-response","444","1608710","0.0-6.0-4.62","2714088","co38959","norming","","","","","","",""
"null","../img/tt/329tt.jpg","null","mooney2","image-keyboard-response","445","1610721","0.0-6.0-5.62","2714088","co38959","norming","","","","","","",""
"1934.959999999497","","","post_reveal_questions","survey-likert","446","1612659","0.0-6.0-6.62","2714088","co38959","norming","","","{""aha"":5}","[0]","../img/tt/329tt.jpg","",""
"null","<div style=""font-size:60px;""> </div>","null","fixation","html-keyboard-response","447","1612867","0.0-6.0-0.63","2714088","co38959","norming","","","","","","",""
"null","../img/tt/031tt.jpg","null","mooney1","image-keyboard-response","448","1615870","0.0-6.0-1.63","2714088","co38959","norming","","","","","","",""
"2761.999999999767","","","post_mooney1_questions","survey-likert","449","1618635","0.0-6.0-2.63","2714088","co38959","norming","","","{""curiosity"":6,""confidence"":6}","[0,1]","../img/tt/031tt.jpg","",""
"1861.985000000568","","","recognition","survey-text","450","1620499","0.0-6.0-3.63","2714088","co38959","norming","","","{""guess"":""beer""}","","../img/tt/031tt.jpg","",""
"null","../img/gs/031gs.jpg","null","reveal","image-keyboard-response","451","1622507","0.0-6.0-4.63","2714088","co38959","norming","","","","","","",""
"null","../img/tt/031tt.jpg","null","mooney2","image-keyboard-response","452","1624511","0.0-6.0-5.63","2714088","co38959","norming","","","","","","",""
"2193.7799999995623","","","post_reveal_questions","survey-likert","453","1626707","0.0-6.0-6.63","2714088","co38959","norming","","","{""aha"":0}","[0]","../img/tt/031tt.jpg","",""
"null","<div style=""font-size:60px;""> </div>","null","fixation","html-keyboard-response","454","1626909","0.0-6.0-0.64","2714088","co38959","norming","","","","","","",""
"null","../img/tt/438tt.jpg","null","mooney1","image-keyboard-response","455","1629913","0.0-6.0-1.64","2714088","co38959","norming","","","","","","",""
"4526.644999999786","","","post_mooney1_questions","survey-likert","456","1634443","0.0-6.0-2.64","2714088","co38959","norming","","","{""curiosity"":4,""confidence"":1}","[0,1]","../img/tt/438tt.jpg","",""
"1653.6349999995437","","","recognition","survey-text","457","1636099","0.0-6.0-3.64","2714088","co38959","norming","","","{""guess"":""vlinder""}","","../img/tt/438tt.jpg","",""
"null","../img/gs/438gs.jpg","null","reveal","image-keyboard-response","458","1638110","0.0-6.0-4.64","2714088","co38959","norming","","","","","","",""
"null","../img/tt/438tt.jpg","null","mooney2","image-keyboard-response","459","1640114","0.0-6.0-5.64","2714088","co38959","norming","","","","","","",""
"1750.7949999999255","","","post_reveal_questions","survey-likert","460","1641867","0.0-6.0-6.64","2714088","co38959","norming","","","{""aha"":4}","[0]","../img/tt/438tt.jpg","",""
"null","<div style=""font-size:60px;""> </div>","null","fixation","html-keyboard-response","461","1642078","0.0-6.0-0.65","2714088","co38959","norming","","","","","","",""
"null","../img/tt/1097tt.jpg","null","mooney1","image-keyboard-response","462","1645083","0.0-6.0-1.65","2714088","co38959","norming","","","","","","",""
"2628.980000000447","","","post_mooney1_questions","survey-likert","463","1647716","0.0-6.0-2.65","2714088","co38959","norming","","","{""curiosity"":4,""confidence"":1}","[0,1]","../img/tt/1097tt.jpg","",""
"3454.2000000001863","","","recognition","survey-text","464","1651171","0.0-6.0-3.65","2714088","co38959","norming","","","{""guess"":""grasmaaien""}","","../img/tt/1097tt.jpg","",""
"null","../img/gs/1097gs.jpg","null","reveal","image-keyboard-response","465","1653176","0.0-6.0-4.65","2714088","co38959","norming","","","","","","",""
"null","../img/tt/1097tt.jpg","null","mooney2","image-keyboard-response","466","1655186","0.0-6.0-5.65","2714088","co38959","norming","","","","","","",""
"1758.3100000002887","","","post_reveal_questions","survey-likert","467","1656947","0.0-6.0-6.65","2714088","co38959","norming","","","{""aha"":4}","[0]","../img/tt/1097tt.jpg","",""
"null","<div style=""font-size:60px;""> </div>","null","fixation","html-keyboard-response","468","1657152","0.0-6.0-0.66","2714088","co38959","norming","","","","","","",""
"null","../img/tt/1159tt.jpg","null","mooney1","image-keyboard-response","469","1660155","0.0-6.0-1.66","2714088","co38959","norming","","","","","","",""
"3541.3950000002515","","","post_mooney1_questions","survey-likert","470","1663700","0.0-6.0-2.66","2714088","co38959","norming","","","{""curiosity"":4,""confidence"":4}","[0,1]","../img/tt/1159tt.jpg","",""
"3262.399999999674","","","recognition","survey-text","471","1666964","0.0-6.0-3.66","2714088","co38959","norming","","","{""guess"":""skateboarden""}","","../img/tt/1159tt.jpg","",""
"null","../img/gs/1159gs.jpg","null","reveal","image-keyboard-response","472","1668966","0.0-6.0-4.66","2714088","co38959","norming","","","","","","",""
"null","../img/tt/1159tt.jpg","null","mooney2","image-keyboard-response","473","1670971","0.0-6.0-5.66","2714088","co38959","norming","","","","","","",""
"1861.2000000001863","","","post_reveal_questions","survey-likert","474","1672835","0.0-6.0-6.66","2714088","co38959","norming","","","{""aha"":3}","[0]","../img/tt/1159tt.jpg","",""
"null","<div style=""font-size:60px;""> </div>","null","fixation","html-keyboard-response","475","1673045","0.0-6.0-0.67","2714088","co38959","norming","","","","","","",""
"null","../img/tt/1006tt.jpg","null","mooney1","image-keyboard-response","476","1676048","0.0-6.0-1.67","2714088","co38959","norming","","","","","","",""
"2568.2849999994505","","","post_mooney1_questions","survey-likert","477","1678620","0.0-6.0-2.67","2714088","co38959","norming","","","{""curiosity"":4,""confidence"":1}","[0,1]","../img/tt/1006tt.jpg","",""
"1862.100000000326","","","recognition","survey-text","478","1680483","0.0-6.0-3.67","2714088","co38959","norming","","","{""guess"":""schaap""}","","../img/tt/1006tt.jpg","",""
"null","../img/gs/1006gs.jpg","null","reveal","image-keyboard-response","479","1682492","0.0-6.0-4.67","2714088","co38959","norming","","","","","","",""
"null","../img/tt/1006tt.jpg","null","mooney2","image-keyboard-response","480","1684502","0.0-6.0-5.67","2714088","co38959","norming","","","","","","",""
"1331.0300000002608","","","post_reveal_questions","survey-likert","481","1685835","0.0-6.0-6.67","2714088","co38959","norming","","","{""aha"":0}","[0]","../img/tt/1006tt.jpg","",""
"null","<div style=""font-size:60px;""> </div>","null","fixation","html-keyboard-response","482","1686039","0.0-6.0-0.68","2714088","co38959","norming","","","","","","",""
"null","../img/tt/112tt.jpg","null","mooney1","image-keyboard-response","483","1689044","0.0-6.0-1.68","2714088","co38959","norming","","","","","","",""
"4860.180000000633","","","post_mooney1_questions","survey-likert","484","1693908","0.0-6.0-2.68","2714088","co38959","norming","","","{""curiosity"":4,""confidence"":6}","[0,1]","../img/tt/112tt.jpg","",""
"3118.159999999916","","","recognition","survey-text","485","1697028","0.0-6.0-3.68","2714088","co38959","norming","","","{""guess"":""fluitje""}","","../img/tt/112tt.jpg","",""
"null","../img/gs/112gs.jpg","null","reveal","image-keyboard-response","486","1699033","0.0-6.0-4.68","2714088","co38959","norming","","","","","","",""
"null","../img/tt/112tt.jpg","null","mooney2","image-keyboard-response","487","1701037","0.0-6.0-5.68","2714088","co38959","norming","","","","","","",""
"1195.4050000004936","","","post_reveal_questions","survey-likert","488","1702235","0.0-6.0-6.68","2714088","co38959","norming","","","{""aha"":3}","[0]","../img/tt/112tt.jpg","",""
"null","<div style=""font-size:60px;""> </div>","null","fixation","html-keyboard-response","489","1702439","0.0-6.0-0.69","2714088","co38959","norming","","","","","","",""
"null","../img/tt/306tt.jpg","null","mooney1","image-keyboard-response","490","1705443","0.0-6.0-1.69","2714088","co38959","norming","","","","","","",""
"2789.279999999795","","","post_mooney1_questions","survey-likert","491","1708236","0.0-6.0-2.69","2714088","co38959","norming","","","{""curiosity"":2,""confidence"":2}","[0,1]","../img/tt/306tt.jpg","",""
"1526.1900000004098","","","recognition","survey-text","492","1709764","0.0-6.0-3.69","2714088","co38959","norming","","","{""guess"":""bord""}","","../img/tt/306tt.jpg","",""
"null","../img/gs/306gs.jpg","null","reveal","image-keyboard-response","493","1711767","0.0-6.0-4.69","2714088","co38959","norming","","","","","","",""
"null","../img/tt/306tt.jpg","null","mooney2","image-keyboard-response","494","1713769","0.0-6.0-5.69","2714088","co38959","norming","","","","","","",""
"1248.1350000007078","","","post_reveal_questions","survey-likert","495","1715020","0.0-6.0-6.69","2714088","co38959","norming","","","{""aha"":6}","[0]","../img/tt/306tt.jpg","",""
"null","<div style=""font-size:60px;""> </div>","null","fixation","html-keyboard-response","496","1715222","0.0-6.0-0.70","2714088","co38959","norming","","","","","","",""
"null","../img/tt/468tt.jpg","null","mooney1","image-keyboard-response","497","1718226","0.0-6.0-1.70","2714088","co38959","norming","","","","","","",""
"2830.9950000003446","","","post_mooney1_questions","survey-likert","498","1721060","0.0-6.0-2.70","2714088","co38959","norming","","","{""curiosity"":4,""confidence"":1}","[0,1]","../img/tt/468tt.jpg","",""
"1677.9599999999627","","","recognition","survey-text","499","1722740","0.0-6.0-3.70","2714088","co38959","norming","","","{""guess"":""hoed""}","","../img/tt/468tt.jpg","",""
"null","../img/gs/468gs.jpg","null","reveal","image-keyboard-response","500","1724741","0.0-6.0-4.70","2714088","co38959","norming","","","","","","",""
"null","../img/tt/468tt.jpg","null","mooney2","image-keyboard-response","501","1726750","0.0-6.0-5.70","2714088","co38959","norming","","","","","","",""
"2924.7450000003446","","","post_reveal_questions","survey-likert","502","1729677","0.0-6.0-6.70","2714088","co38959","norming","","","{""aha"":5}","[0]","../img/tt/468tt.jpg","",""
"null","<div style=""font-size:60px;""> </div>","null","fixation","html-keyboard-response","503","1729885","0.0-6.0-0.71","2714088","co38959","norming","","","","","","",""
"null","../img/tt/032tt.jpg","null","mooney1","image-keyboard-response","504","1732890","0.0-6.0-1.71","2714088","co38959","norming","","","","","","",""
"2911.6149999999907","","","post_mooney1_questions","survey-likert","505","1735804","0.0-6.0-2.71","2714088","co38959","norming","","","{""curiosity"":4,""confidence"":0}","[0,1]","../img/tt/032tt.jpg","",""
"2214.0599999993574","","","recognition","survey-text","506","1738020","0.0-6.0-3.71","2714088","co38959","norming","","","{""guess"":""varken""}","","../img/tt/032tt.jpg","",""
"null","../img/gs/032gs.jpg","null","reveal","image-keyboard-response","507","1740030","0.0-6.0-4.71","2714088","co38959","norming","","","","","","",""
"null","../img/tt/032tt.jpg","null","mooney2","image-keyboard-response","508","1742039","0.0-6.0-5.71","2714088","co38959","norming","","","","","","",""
"1706.100000000326","","","post_reveal_questions","survey-likert","509","1743748","0.0-6.0-6.71","2714088","co38959","norming","","","{""aha"":4}","[0]","../img/tt/032tt.jpg","",""
"null","<div style=""font-size:60px;""> </div>","null","fixation","html-keyboard-response","510","1743949","0.0-6.0-0.72","2714088","co38959","norming","","","","","","",""
"null","../img/tt/300tt.jpg","null","mooney1","image-keyboard-response","511","1746952","0.0-6.0-1.72","2714088","co38959","norming","","","","","","",""
"3304.3950000000186","","","post_mooney1_questions","survey-likert","512","1750260","0.0-6.0-2.72","2714088","co38959","norming","","","{""curiosity"":6,""confidence"":0}","[0,1]","../img/tt/300tt.jpg","",""
"4270.425000000745","","","recognition","survey-text","513","1754532","0.0-6.0-3.72","2714088","co38959","norming","","","{""guess"":""vallende vrouw""}","","../img/tt/300tt.jpg","",""
"null","../img/gs/300gs.jpg","null","reveal","image-keyboard-response","514","1756541","0.0-6.0-4.72","2714088","co38959","norming","","","","","","",""
"null","../img/tt/300tt.jpg","null","mooney2","image-keyboard-response","515","1758543","0.0-6.0-5.72","2714088","co38959","norming","","","","","","",""
"1912.8049999999348","","","post_reveal_questions","survey-likert","516","1760460","0.0-6.0-6.72","2714088","co38959","norming","","","{""aha"":6}","[0]","../img/tt/300tt.jpg","",""
"null","<div style=""font-size:60px;""> </div>","null","fixation","html-keyboard-response","517","1760662","0.0-6.0-0.73","2714088","co38959","norming","","","","","","",""
"null","../img/tt/1254tt.jpg","null","mooney1","image-keyboard-response","518","1763664","0.0-6.0-1.73","2714088","co38959","norming","","","","","","",""
"3177.0099999995437","","","post_mooney1_questions","survey-likert","519","1766844","0.0-6.0-2.73","2714088","co38959","norming","","","{""curiosity"":6,""confidence"":0}","[0,1]","../img/tt/1254tt.jpg","",""
"1830.0950000004377","","","recognition","survey-text","520","1768672","0.0-6.0-3.73","2714088","co38959","norming","","","{""guess"":""konijn""}","","../img/tt/1254tt.jpg","",""
"null","../img/gs/1254gs.jpg","null","reveal","image-keyboard-response","521","1770673","0.0-6.0-4.73","2714088","co38959","norming","","","","","","",""
"null","../img/tt/1254tt.jpg","null","mooney2","image-keyboard-response","522","1772678","0.0-6.0-5.73","2714088","co38959","norming","","","","","","",""
"2271.0050000005867","","","post_reveal_questions","survey-likert","523","1774952","0.0-6.0-6.73","2714088","co38959","norming","","","{""aha"":3}","[0]","../img/tt/1254tt.jpg","",""
"null","<div style=""font-size:60px;""> </div>","null","fixation","html-keyboard-response","524","1775153","0.0-6.0-0.74","2714088","co38959","norming","","","","","","",""
"null","../img/tt/1242tt.jpg","null","mooney1","image-keyboard-response","525","1778160","0.0-6.0-1.74","2714088","co38959","norming","","","","","","",""
"2484.5450000001583","","","post_mooney1_questions","survey-likert","526","1780648","0.0-6.0-2.74","2714088","co38959","norming","","","{""curiosity"":5,""confidence"":0}","[0,1]","../img/tt/1242tt.jpg","",""
"1622.4449999998324","","","recognition","survey-text","527","1782272","0.0-6.0-3.74","2714088","co38959","norming","","","{""guess"":""haas""}","","../img/tt/1242tt.jpg","",""
"null","../img/gs/1242gs.jpg","null","reveal","image-keyboard-response","528","1784275","0.0-6.0-4.74","2714088","co38959","norming","","","","","","",""
"null","../img/tt/1242tt.jpg","null","mooney2","image-keyboard-response","529","1786280","0.0-6.0-5.74","2714088","co38959","norming","","","","","","",""
"1620.5449999996927","","","post_reveal_questions","survey-likert","530","1787904","0.0-6.0-6.74","2714088","co38959","norming","","","{""aha"":3}","[0]","../img/tt/1242tt.jpg","",""
"null","<div style=""font-size:60px;""> </div>","null","fixation","html-keyboard-response","531","1788112","0.0-6.0-0.75","2714088","co38959","norming","","","","","","",""
"null","../img/tt/049tt.jpg","null","mooney1","image-keyboard-response","532","1791117","0.0-6.0-1.75","2714088","co38959","norming","","","","","","",""
"2999.9050000004936","","","post_mooney1_questions","survey-likert","533","1794120","0.0-6.0-2.75","2714088","co38959","norming","","","{""curiosity"":5,""confidence"":0}","[0,1]","../img/tt/049tt.jpg","",""
"2726.090000000084","","","recognition","survey-text","534","1796848","0.0-6.0-3.75","2714088","co38959","norming","","","{""guess"":""everzwijn""}","","../img/tt/049tt.jpg","",""
"null","../img/gs/049gs.jpg","null","reveal","image-keyboard-response","535","1798853","0.0-6.0-4.75","2714088","co38959","norming","","","","","","",""
"null","../img/tt/049tt.jpg","null","mooney2","image-keyboard-response","536","1800855","0.0-6.0-5.75","2714088","co38959","norming","","","","","","",""
"1245.9399999997113","","","post_reveal_questions","survey-likert","537","1802104","0.0-6.0-6.75","2714088","co38959","norming","","","{""aha"":0}","[0]","../img/tt/049tt.jpg","",""
"null","<div style=""font-size:60px;""> </div>","null","fixation","html-keyboard-response","538","1802309","0.0-6.0-0.76","2714088","co38959","norming","","","","","","",""
"null","../img/tt/1143tt.jpg","null","mooney1","image-keyboard-response","539","1805311","0.0-6.0-1.76","2714088","co38959","norming","","","","","","",""
"3333.730000000447","","","post_mooney1_questions","survey-likert","540","1808648","0.0-6.0-2.76","2714088","co38959","norming","","","{""curiosity"":4,""confidence"":1}","[0,1]","../img/tt/1143tt.jpg","",""
"2454.1650000000373","","","recognition","survey-text","541","1811104","0.0-6.0-3.76","2714088","co38959","norming","","","{""guess"":""stoelen""}","","../img/tt/1143tt.jpg","",""
"null","../img/gs/1143gs.jpg","null","reveal","image-keyboard-response","542","1813114","0.0-6.0-4.76","2714088","co38959","norming","","","","","","",""
"null","../img/tt/1143tt.jpg","null","mooney2","image-keyboard-response","543","1815121","0.0-6.0-5.76","2714088","co38959","norming","","","","","","",""
"2637.060000000056","","","post_reveal_questions","survey-likert","544","1817759","0.0-6.0-6.76","2714088","co38959","norming","","","{""aha"":4}","[0]","../img/tt/1143tt.jpg","",""
"null","<div style=""font-size:60px;""> </div>","null","fixation","html-keyboard-response","545","1817969","0.0-6.0-0.77","2714088","co38959","norming","","","","","","",""
"null","../img/tt/1126tt.jpg","null","mooney1","image-keyboard-response","546","1820972","0.0-6.0-1.77","2714088","co38959","norming","","","","","","",""
"2544.0049999996554","","","post_mooney1_questions","survey-likert","547","1823519","0.0-6.0-2.77","2714088","co38959","norming","","","{""curiosity"":6,""confidence"":0}","[0,1]","../img/tt/1126tt.jpg","",""
"3838.54499999946","","","recognition","survey-text","548","1827360","0.0-6.0-3.77","2714088","co38959","norming","","","{""guess"":""boomstam""}","","../img/tt/1126tt.jpg","",""
"null","../img/gs/1126gs.jpg","null","reveal","image-keyboard-response","549","1829373","0.0-6.0-4.77","2714088","co38959","norming","","","","","","",""
"null","../img/tt/1126tt.jpg","null","mooney2","image-keyboard-response","550","1831375","0.0-6.0-5.77","2714088","co38959","norming","","","","","","",""
