"rt","stimulus","key_press","test_part","trial_type","trial_index","time_elapsed","internal_node_id","totalTime","subject","experiment_name","button_pressed","success","responses","question_order","currentStim","old","correct"
"17787.62000001734","Welcome to the experiment. This is an online experiment so please don't close the tab/window until we say goodbye.  Press any key to begin.","32","instructions","html-keyboard-response","0","17812","0.0-0.0","3117136","co38059","norming","","","","","","",""
"10922.200000029989","<div style='word-wrap: break-word; width: 900px'><h3>Please consider this information carefully before deciding whether to participate in this research</h3><ul style='text-align: left; font-size: .8em;'><li><b>Purpose of the research</b>: To examine how people process images.</li><li><b>What you will do in this research</b>:  Stimuli (images) will be presented on the computer and you will be asked different questions about them.</li><li><b>Time required</b>: Participation will take between 45 and 60 minutes to complete.</li><li><b>Risks</b>:  There are no anticipated risks associated with participating in this study. The effects of participating should be comparable to those you would experience from viewing a computer monitor for 30 minutes and using a mouse or keyboard.</li><li><b>Benefits</b>:  This study provides no benefits to you individually except for the credit. The study provides important information about the nature of perception and learning.</li><li><b>Confidentiality</b>:  Your participation in this study will remain confidential. No personally identifiable information will be associated with your data. Your de-identified data may be shared with other researchers and used in future projects.</li><li><b>Participation and withdrawal</b>:  Your participation in this study is completely voluntary and you may refuse to participate or you may choose to withdraw at any time without penalty.</li><li><b>How to contact the researchers</b>: If you have questions or concerns about your participation or payment, or want to request a summary of research findings, please contact Sander Van de Cruys (KU Leuven), at sander.vandecruys@kuleuven.be.</li></ul><p>The nature and purpose of this research have been sufficiently explained and I agree to participate in this study.  I understand that I am free to withdraw at any time without incurring any penalty.</p><p>Please consent by clicking the button below to continue. Otherwise, please exit the study at this time.</p></div>","","instructions","html-button-response","1","28738","0.0-1.0","3117136","co38059","norming","0","","","","","",""
"","","","instructions","fullscreen","2","32411","0.0-2.0","3117136","co38059","norming","","true","","","","",""
"44342.70999999717","","","sona","survey-html-form","3","76759","0.0-3.0","3117136","co38059","norming","","","[{""name"":""sonaid"",""value"":""38059""},{""name"":""debrief"",""value"":""yes""},{""name"":""datajoin"",""value"":""yes""}]","","","",""
"77953.45500000985","<div style='word-wrap: break-word; width: 900px'><h3>Instructions</h3><p>This experiment will have 3 parts. In the first part you will see a series of distorted images like the one below on the left. As you can see in the righthand image, the distorted images are derived from actual photographs. In what follows, you will <strong>briefly</strong> be presented with <strong>only</strong> the distorted image.</p> <div style='float: left; margin-right: 20px;'><img src='../img/018tt.jpg' height='250' width='250'></img></div><div style='float: right; margin-left: 20px;'><img src='../img/018gs.jpg' height='250' width='250'></img></div><p>Subsequently you will be asked a few questions about the image: One question on how <strong>curious</strong> you are about the solution and one on how <strong>confident</strong> you are that you know the solution.</p>Next, we ask you to make a guess on what is in the image. Note that it is OK to name just the <strong>basic level category</strong>. For example when you see a parrot in the image, 'parrot' will obviously be a correct answer but also correct is 'bird'. However, 'animal' will <strong>not</strong> be counted as a correct response. For the example above, 'rose' would be correct or 'flower', but not 'plant'. When soccer players are depicted, 'soccer', 'football', 'soccer players' will be correct, but not 'humans', 'outdoors', or 'sports'. You do not need to describe the image in full, just name the main object in it <strong>in one or two words</strong>. All images depict objects from one of the following broad level categories: animals, inanimate objects, plants, sports, vehicles, and food. Recognizing means knowing <strong>more</strong> than these broad labels for a given image. But we always encourage you to <strong>make a guess</strong> if you can. Note that you are allowed to use <strong>Dutch and English</strong> in your answers, whatever comes easiest for you.</p><p>Press any key to continue.</p></div>","32","instructions","html-keyboard-response","4","154712","0.0-4.0","3117136","co38059","norming","","","","","","",""
"11149.05499998713","<div style='word-wrap: break-word; width: 900px'><h3>Instructions</h3> <p>Next, the solution image will be revealed to you and you'll be asked to indicate how strong your <strong>aha-experience</strong> was after seeing the solution. This describes the positive feeling of the 'click' you sometimes experience, when the pieces of the 'puzzle' fall together and you suddenly have 'insight' in the image.</p><img src='aha.jpg' height='188' width='250'></img><p>Note that there are no right or wrong answers. We are interested in what <strong>you</strong> see in the image and how <strong>you</strong> feel about it.</p><p>Press any key to start the experiment.</p></div>","32","instructions","html-keyboard-response","5","165862","0.0-5.0","3117136","co38059","norming","","","","","","",""
"null","<div style=""font-size:60px;""> </div>","null","fixation","html-keyboard-response","6","166073","0.0-6.0-0.0","3117136","co38059","norming","","","","","","",""
"null","../img/tt/040tt.jpg","null","mooney1","image-keyboard-response","7","169084","0.0-6.0-1.0","3117136","co38059","norming","","","","","","",""
"10891.884999989998","","","post_mooney1_questions","survey-likert","8","179981","0.0-6.0-2.0","3117136","co38059","norming","","","{""curiosity"":1,""confidence"":2}","[0,1]","../img/tt/040tt.jpg","",""
"10426.095000002533","","","recognition","survey-text","9","190411","0.0-6.0-3.0","3117136","co38059","norming","","","{""guess"":""""}","","../img/tt/040tt.jpg","",""
"null","../img/gs/040gs.jpg","null","reveal","image-keyboard-response","10","192417","0.0-6.0-4.0","3117136","co38059","norming","","","","","","",""
"null","../img/tt/040tt.jpg","null","mooney2","image-keyboard-response","11","194420","0.0-6.0-5.0","3117136","co38059","norming","","","","","","",""
"5353.69499999797","","","post_reveal_questions","survey-likert","12","199777","0.0-6.0-6.0","3117136","co38059","norming","","","{""aha"":3}","[0]","../img/tt/040tt.jpg","",""
"null","<div style=""font-size:60px;""> </div>","null","fixation","html-keyboard-response","13","199989","0.0-6.0-0.1","3117136","co38059","norming","","","","","","",""
"null","../img/tt/456tt.jpg","null","mooney1","image-keyboard-response","14","202991","0.0-6.0-1.1","3117136","co38059","norming","","","","","","",""
"9112.550000019837","","","post_mooney1_questions","survey-likert","15","212107","0.0-6.0-2.1","3117136","co38059","norming","","","{""curiosity"":4,""confidence"":1}","[0,1]","../img/tt/456tt.jpg","",""
"4117.594999959692","","","recognition","survey-text","16","216231","0.0-6.0-3.1","3117136","co38059","norming","","","{""guess"":""snake""}","","../img/tt/456tt.jpg","",""
"null","../img/gs/456gs.jpg","null","reveal","image-keyboard-response","17","218237","0.0-6.0-4.1","3117136","co38059","norming","","","","","","",""
"null","../img/tt/456tt.jpg","null","mooney2","image-keyboard-response","18","220241","0.0-6.0-5.1","3117136","co38059","norming","","","","","","",""
"5333.755000028759","","","post_reveal_questions","survey-likert","19","225578","0.0-6.0-6.1","3117136","co38059","norming","","","{""aha"":1}","[0]","../img/tt/456tt.jpg","",""
"null","<div style=""font-size:60px;""> </div>","null","fixation","html-keyboard-response","20","225788","0.0-6.0-0.2","3117136","co38059","norming","","","","","","",""
"null","../img/tt/1066tt.jpg","null","mooney1","image-keyboard-response","21","228802","0.0-6.0-1.2","3117136","co38059","norming","","","","","","",""
"8728.189999994356","","","post_mooney1_questions","survey-likert","22","237533","0.0-6.0-2.2","3117136","co38059","norming","","","{""curiosity"":5,""confidence"":6}","[0,1]","../img/tt/1066tt.jpg","",""
"3748.3700000448152","","","recognition","survey-text","23","241286","0.0-6.0-3.2","3117136","co38059","norming","","","{""guess"":""bus""}","","../img/tt/1066tt.jpg","",""
"null","../img/gs/1066gs.jpg","null","reveal","image-keyboard-response","24","243289","0.0-6.0-4.2","3117136","co38059","norming","","","","","","",""
"null","../img/tt/1066tt.jpg","null","mooney2","image-keyboard-response","25","245295","0.0-6.0-5.2","3117136","co38059","norming","","","","","","",""
"4814.509999996517","","","post_reveal_questions","survey-likert","26","250112","0.0-6.0-6.2","3117136","co38059","norming","","","{""aha"":1}","[0]","../img/tt/1066tt.jpg","",""
"null","<div style=""font-size:60px;""> </div>","null","fixation","html-keyboard-response","27","250315","0.0-6.0-0.3","3117136","co38059","norming","","","","","","",""
"null","../img/tt/1012tt.jpg","null","mooney1","image-keyboard-response","28","253331","0.0-6.0-1.3","3117136","co38059","norming","","","","","","",""
"8665.700000012293","","","post_mooney1_questions","survey-likert","29","262000","0.0-6.0-2.3","3117136","co38059","norming","","","{""curiosity"":4,""confidence"":5}","[0,1]","../img/tt/1012tt.jpg","",""
"4379.50500001898","","","recognition","survey-text","30","266381","0.0-6.0-3.3","3117136","co38059","norming","","","{""guess"":""neushoorn""}","","../img/tt/1012tt.jpg","",""
"null","../img/gs/1012gs.jpg","null","reveal","image-keyboard-response","31","268388","0.0-6.0-4.3","3117136","co38059","norming","","","","","","",""
"null","../img/tt/1012tt.jpg","null","mooney2","image-keyboard-response","32","270396","0.0-6.0-5.3","3117136","co38059","norming","","","","","","",""
"3671.329999982845","","","post_reveal_questions","survey-likert","33","274070","0.0-6.0-6.3","3117136","co38059","norming","","","{""aha"":6}","[0]","../img/tt/1012tt.jpg","",""
"null","<div style=""font-size:60px;""> </div>","null","fixation","html-keyboard-response","34","274286","0.0-6.0-0.4","3117136","co38059","norming","","","","","","",""
"null","../img/tt/1199tt.jpg","null","mooney1","image-keyboard-response","35","277292","0.0-6.0-1.4","3117136","co38059","norming","","","","","","",""
"10677.10500000976","","","post_mooney1_questions","survey-likert","36","287972","0.0-6.0-2.4","3117136","co38059","norming","","","{""curiosity"":3,""confidence"":5}","[0,1]","../img/tt/1199tt.jpg","",""
"6437.280000012834","","","recognition","survey-text","37","294414","0.0-6.0-3.4","3117136","co38059","norming","","","{""guess"":""bouwvakker""}","","../img/tt/1199tt.jpg","",""
"null","../img/gs/1199gs.jpg","null","reveal","image-keyboard-response","38","296425","0.0-6.0-4.4","3117136","co38059","norming","","","","","","",""
"null","../img/tt/1199tt.jpg","null","mooney2","image-keyboard-response","39","298429","0.0-6.0-5.4","3117136","co38059","norming","","","","","","",""
"3266.784999985248","","","post_reveal_questions","survey-likert","40","301699","0.0-6.0-6.4","3117136","co38059","norming","","","{""aha"":5}","[0]","../img/tt/1199tt.jpg","",""
"null","<div style=""font-size:60px;""> </div>","null","fixation","html-keyboard-response","41","301902","0.0-6.0-0.5","3117136","co38059","norming","","","","","","",""
"null","../img/tt/1190tt.jpg","null","mooney1","image-keyboard-response","42","304916","0.0-6.0-1.5","3117136","co38059","norming","","","","","","",""
"10638.254999998026","","","post_mooney1_questions","survey-likert","43","315557","0.0-6.0-2.5","3117136","co38059","norming","","","{""curiosity"":4,""confidence"":1}","[0,1]","../img/tt/1190tt.jpg","",""
"1611.3749999785796","","","recognition","survey-text","44","317173","0.0-6.0-3.5","3117136","co38059","norming","","","{""guess"":""""}","","../img/tt/1190tt.jpg","",""
"null","../img/gs/1190gs.jpg","null","reveal","image-keyboard-response","45","319180","0.0-6.0-4.5","3117136","co38059","norming","","","","","","",""
"null","../img/tt/1190tt.jpg","null","mooney2","image-keyboard-response","46","321196","0.0-6.0-5.5","3117136","co38059","norming","","","","","","",""
"2924.7899999609217","","","post_reveal_questions","survey-likert","47","324124","0.0-6.0-6.5","3117136","co38059","norming","","","{""aha"":2}","[0]","../img/tt/1190tt.jpg","",""
"null","<div style=""font-size:60px;""> </div>","null","fixation","html-keyboard-response","48","324337","0.0-6.0-0.6","3117136","co38059","norming","","","","","","",""
"null","../img/tt/008tt.jpg","null","mooney1","image-keyboard-response","49","327351","0.0-6.0-1.6","3117136","co38059","norming","","","","","","",""
"6270.520000020042","","","post_mooney1_questions","survey-likert","50","333625","0.0-6.0-2.6","3117136","co38059","norming","","","{""curiosity"":4,""confidence"":5}","[0,1]","../img/tt/008tt.jpg","",""
"2860.6349999899976","","","recognition","survey-text","51","336491","0.0-6.0-3.6","3117136","co38059","norming","","","{""guess"":""gun""}","","../img/tt/008tt.jpg","",""
"null","../img/gs/008gs.jpg","null","reveal","image-keyboard-response","52","338509","0.0-6.0-4.6","3117136","co38059","norming","","","","","","",""
"null","../img/tt/008tt.jpg","null","mooney2","image-keyboard-response","53","340514","0.0-6.0-5.6","3117136","co38059","norming","","","","","","",""
"3459.919999993872","","","post_reveal_questions","survey-likert","54","343977","0.0-6.0-6.6","3117136","co38059","norming","","","{""aha"":4}","[0]","../img/tt/008tt.jpg","",""
"null","<div style=""font-size:60px;""> </div>","null","fixation","html-keyboard-response","55","344187","0.0-6.0-0.7","3117136","co38059","norming","","","","","","",""
"null","../img/tt/111tt.jpg","null","mooney1","image-keyboard-response","56","347190","0.0-6.0-1.7","3117136","co38059","norming","","","","","","",""
"4465.559999982361","","","post_mooney1_questions","survey-likert","57","351658","0.0-6.0-2.7","3117136","co38059","norming","","","{""curiosity"":3,""confidence"":4}","[0,1]","../img/tt/111tt.jpg","",""
"1165.3600000427105","","","recognition","survey-text","58","352827","0.0-6.0-3.7","3117136","co38059","norming","","","{""guess"":""""}","","../img/tt/111tt.jpg","",""
"null","../img/gs/111gs.jpg","null","reveal","image-keyboard-response","59","354842","0.0-6.0-4.7","3117136","co38059","norming","","","","","","",""
"null","../img/tt/111tt.jpg","null","mooney2","image-keyboard-response","60","356854","0.0-6.0-5.7","3117136","co38059","norming","","","","","","",""
"2932.349999959115","","","post_reveal_questions","survey-likert","61","359789","0.0-6.0-6.7","3117136","co38059","norming","","","{""aha"":3}","[0]","../img/tt/111tt.jpg","",""
"null","<div style=""font-size:60px;""> </div>","null","fixation","html-keyboard-response","62","360002","0.0-6.0-0.8","3117136","co38059","norming","","","","","","",""
"null","../img/tt/1044tt.jpg","null","mooney1","image-keyboard-response","63","363007","0.0-6.0-1.8","3117136","co38059","norming","","","","","","",""
"6314.645000034943","","","post_mooney1_questions","survey-likert","64","369324","0.0-6.0-2.8","3117136","co38059","norming","","","{""curiosity"":4,""confidence"":2}","[0,1]","../img/tt/1044tt.jpg","",""
"3653.6599999526516","","","recognition","survey-text","65","372982","0.0-6.0-3.8","3117136","co38059","norming","","","{""guess"":""spider""}","","../img/tt/1044tt.jpg","",""
"null","../img/gs/1044gs.jpg","null","reveal","image-keyboard-response","66","374995","0.0-6.0-4.8","3117136","co38059","norming","","","","","","",""
"null","../img/tt/1044tt.jpg","null","mooney2","image-keyboard-response","67","376998","0.0-6.0-5.8","3117136","co38059","norming","","","","","","",""
"3583.604999992531","","","post_reveal_questions","survey-likert","68","380584","0.0-6.0-6.8","3117136","co38059","norming","","","{""aha"":4}","[0]","../img/tt/1044tt.jpg","",""
"null","<div style=""font-size:60px;""> </div>","null","fixation","html-keyboard-response","69","380793","0.0-6.0-0.9","3117136","co38059","norming","","","","","","",""
"null","../img/tt/507tt.jpg","null","mooney1","image-keyboard-response","70","383797","0.0-6.0-1.9","3117136","co38059","norming","","","","","","",""
"5029.074999969453","","","post_mooney1_questions","survey-likert","71","388829","0.0-6.0-2.9","3117136","co38059","norming","","","{""curiosity"":4,""confidence"":5}","[0,1]","../img/tt/507tt.jpg","",""
"3379.2399999802","","","recognition","survey-text","72","392212","0.0-6.0-3.9","3117136","co38059","norming","","","{""guess"":""danser""}","","../img/tt/507tt.jpg","",""
"null","../img/gs/507gs.jpg","null","reveal","image-keyboard-response","73","394216","0.0-6.0-4.9","3117136","co38059","norming","","","","","","",""
"null","../img/tt/507tt.jpg","null","mooney2","image-keyboard-response","74","396226","0.0-6.0-5.9","3117136","co38059","norming","","","","","","",""
"4117.920000047889","","","post_reveal_questions","survey-likert","75","400337","0.0-6.0-6.9","3117136","co38059","norming","","","{""aha"":4}","[0]","../img/tt/507tt.jpg","",""
"null","<div style=""font-size:60px;""> </div>","null","fixation","html-keyboard-response","76","400549","0.0-6.0-0.10","3117136","co38059","norming","","","","","","",""
"null","../img/tt/163tt.jpg","null","mooney1","image-keyboard-response","77","403575","0.0-6.0-1.10","3117136","co38059","norming","","","","","","",""
"8909.979999996722","","","post_mooney1_questions","survey-likert","78","412486","0.0-6.0-2.10","3117136","co38059","norming","","","{""curiosity"":4,""confidence"":6}","[0,1]","../img/tt/163tt.jpg","",""
"3650.595000013709","","","recognition","survey-text","79","416140","0.0-6.0-3.10","3117136","co38059","norming","","","{""guess"":""flower""}","","../img/tt/163tt.jpg","",""
"null","../img/gs/163gs.jpg","null","reveal","image-keyboard-response","80","418158","0.0-6.0-4.10","3117136","co38059","norming","","","","","","",""
"null","../img/tt/163tt.jpg","null","mooney2","image-keyboard-response","81","420160","0.0-6.0-5.10","3117136","co38059","norming","","","","","","",""
"4022.274999995716","","","post_reveal_questions","survey-likert","82","424184","0.0-6.0-6.10","3117136","co38059","norming","","","{""aha"":6}","[0]","../img/tt/163tt.jpg","",""
"null","<div style=""font-size:60px;""> </div>","null","fixation","html-keyboard-response","83","424396","0.0-6.0-0.11","3117136","co38059","norming","","","","","","",""
"null","../img/tt/436tt.jpg","null","mooney1","image-keyboard-response","84","427399","0.0-6.0-1.11","3117136","co38059","norming","","","","","","",""
"6947.71999999648","","","post_mooney1_questions","survey-likert","85","434350","0.0-6.0-2.11","3117136","co38059","norming","","","{""curiosity"":3,""confidence"":2}","[0,1]","../img/tt/436tt.jpg","",""
"5269.765000033658","","","recognition","survey-text","86","439623","0.0-6.0-3.11","3117136","co38059","norming","","","{""guess"":""bear""}","","../img/tt/436tt.jpg","",""
"null","../img/gs/436gs.jpg","null","reveal","image-keyboard-response","87","441625","0.0-6.0-4.11","3117136","co38059","norming","","","","","","",""
"null","../img/tt/436tt.jpg","null","mooney2","image-keyboard-response","88","443638","0.0-6.0-5.11","3117136","co38059","norming","","","","","","",""
"3430.3100000252016","","","post_reveal_questions","survey-likert","89","447070","0.0-6.0-6.11","3117136","co38059","norming","","","{""aha"":3}","[0]","../img/tt/436tt.jpg","",""
"null","<div style=""font-size:60px;""> </div>","null","fixation","html-keyboard-response","90","447284","0.0-6.0-0.12","3117136","co38059","norming","","","","","","",""
"null","../img/tt/1101tt.jpg","null","mooney1","image-keyboard-response","91","450290","0.0-6.0-1.12","3117136","co38059","norming","","","","","","",""
"4558.774999983143","","","post_mooney1_questions","survey-likert","92","454852","0.0-6.0-2.12","3117136","co38059","norming","","","{""curiosity"":3,""confidence"":3}","[0,1]","../img/tt/1101tt.jpg","",""
"6227.5099999969825","","","recognition","survey-text","93","461092","0.0-6.0-3.12","3117136","co38059","norming","","","{""guess"":""snowboarden""}","","../img/tt/1101tt.jpg","",""
"null","../img/gs/1101gs.jpg","null","reveal","image-keyboard-response","94","463093","0.0-6.0-4.12","3117136","co38059","norming","","","","","","",""
"null","../img/tt/1101tt.jpg","null","mooney2","image-keyboard-response","95","465098","0.0-6.0-5.12","3117136","co38059","norming","","","","","","",""
"4732.67500003567","","","post_reveal_questions","survey-likert","96","469833","0.0-6.0-6.12","3117136","co38059","norming","","","{""aha"":5}","[0]","../img/tt/1101tt.jpg","",""
"null","<div style=""font-size:60px;""> </div>","null","fixation","html-keyboard-response","97","470049","0.0-6.0-0.13","3117136","co38059","norming","","","","","","",""
"null","../img/tt/1078tt.jpg","null","mooney1","image-keyboard-response","98","473056","0.0-6.0-1.13","3117136","co38059","norming","","","","","","",""
"6703.779999981634","","","post_mooney1_questions","survey-likert","99","479762","0.0-6.0-2.13","3117136","co38059","norming","","","{""curiosity"":2,""confidence"":4}","[0,1]","../img/tt/1078tt.jpg","",""
"1248.2949999975972","","","recognition","survey-text","100","481015","0.0-6.0-3.13","3117136","co38059","norming","","","{""guess"":""""}","","../img/tt/1078tt.jpg","",""
"null","../img/gs/1078gs.jpg","null","reveal","image-keyboard-response","101","483024","0.0-6.0-4.13","3117136","co38059","norming","","","","","","",""
"null","../img/tt/1078tt.jpg","null","mooney2","image-keyboard-response","102","485026","0.0-6.0-5.13","3117136","co38059","norming","","","","","","",""
"3034.810000041034","","","post_reveal_questions","survey-likert","103","488063","0.0-6.0-6.13","3117136","co38059","norming","","","{""aha"":2}","[0]","../img/tt/1078tt.jpg","",""
"null","<div style=""font-size:60px;""> </div>","null","fixation","html-keyboard-response","104","488275","0.0-6.0-0.14","3117136","co38059","norming","","","","","","",""
"null","../img/tt/1268tt.jpg","null","mooney1","image-keyboard-response","105","491291","0.0-6.0-1.14","3117136","co38059","norming","","","","","","",""
"5107.130000018515","","","post_mooney1_questions","survey-likert","106","496401","0.0-6.0-2.14","3117136","co38059","norming","","","{""curiosity"":2,""confidence"":4}","[0,1]","../img/tt/1268tt.jpg","",""
"1911.4749999716878","","","recognition","survey-text","107","498317","0.0-6.0-3.14","3117136","co38059","norming","","","{""guess"":""""}","","../img/tt/1268tt.jpg","",""
"null","../img/gs/1268gs.jpg","null","reveal","image-keyboard-response","108","500320","0.0-6.0-4.14","3117136","co38059","norming","","","","","","",""
"null","../img/tt/1268tt.jpg","null","mooney2","image-keyboard-response","109","502325","0.0-6.0-5.14","3117136","co38059","norming","","","","","","",""
"2805.8949999976903","","","post_reveal_questions","survey-likert","110","505133","0.0-6.0-6.14","3117136","co38059","norming","","","{""aha"":3}","[0]","../img/tt/1268tt.jpg","",""
"null","<div style=""font-size:60px;""> </div>","null","fixation","html-keyboard-response","111","505345","0.0-6.0-0.15","3117136","co38059","norming","","","","","","",""
"null","../img/tt/076tt.jpg","null","mooney1","image-keyboard-response","112","508359","0.0-6.0-1.15","3117136","co38059","norming","","","","","","",""
"4804.154999961611","","","post_mooney1_questions","survey-likert","113","513165","0.0-6.0-2.15","3117136","co38059","norming","","","{""curiosity"":4,""confidence"":3}","[0,1]","../img/tt/076tt.jpg","",""
"9366.169999993872","","","recognition","survey-text","114","522535","0.0-6.0-3.15","3117136","co38059","norming","","","{""guess"":""rollerskating""}","","../img/tt/076tt.jpg","",""
"null","../img/gs/076gs.jpg","null","reveal","image-keyboard-response","115","524540","0.0-6.0-4.15","3117136","co38059","norming","","","","","","",""
"null","../img/tt/076tt.jpg","null","mooney2","image-keyboard-response","116","526545","0.0-6.0-5.15","3117136","co38059","norming","","","","","","",""
"3296.199999982491","","","post_reveal_questions","survey-likert","117","529844","0.0-6.0-6.15","3117136","co38059","norming","","","{""aha"":2}","[0]","../img/tt/076tt.jpg","",""
"null","<div style=""font-size:60px;""> </div>","null","fixation","html-keyboard-response","118","530046","0.0-6.0-0.16","3117136","co38059","norming","","","","","","",""
"null","../img/tt/270tt.jpg","null","mooney1","image-keyboard-response","119","533055","0.0-6.0-1.16","3117136","co38059","norming","","","","","","",""
"5693.160000024363","","","post_mooney1_questions","survey-likert","120","538751","0.0-6.0-2.16","3117136","co38059","norming","","","{""curiosity"":4,""confidence"":3}","[0,1]","../img/tt/270tt.jpg","",""
"3426.809999975376","","","recognition","survey-text","121","542181","0.0-6.0-3.16","3117136","co38059","norming","","","{""guess"":""konijn""}","","../img/tt/270tt.jpg","",""
"null","../img/gs/270gs.jpg","null","reveal","image-keyboard-response","122","544184","0.0-6.0-4.16","3117136","co38059","norming","","","","","","",""
"null","../img/tt/270tt.jpg","null","mooney2","image-keyboard-response","123","546194","0.0-6.0-5.16","3117136","co38059","norming","","","","","","",""
"3806.3799999654293","","","post_reveal_questions","survey-likert","124","550003","0.0-6.0-6.16","3117136","co38059","norming","","","{""aha"":3}","[0]","../img/tt/270tt.jpg","",""
"null","<div style=""font-size:60px;""> </div>","null","fixation","html-keyboard-response","125","550216","0.0-6.0-0.17","3117136","co38059","norming","","","","","","",""
"null","../img/tt/1366tt.jpg","null","mooney1","image-keyboard-response","126","553219","0.0-6.0-1.17","3117136","co38059","norming","","","","","","",""
"5336.100000014994","","","post_mooney1_questions","survey-likert","127","558558","0.0-6.0-2.17","3117136","co38059","norming","","","{""curiosity"":1,""confidence"":2}","[0,1]","../img/tt/1366tt.jpg","",""
"1155.144999967888","","","recognition","survey-text","128","559716","0.0-6.0-3.17","3117136","co38059","norming","","","{""guess"":""""}","","../img/tt/1366tt.jpg","",""
"null","../img/gs/1366gs.jpg","null","reveal","image-keyboard-response","129","561720","0.0-6.0-4.17","3117136","co38059","norming","","","","","","",""
"null","../img/tt/1366tt.jpg","null","mooney2","image-keyboard-response","130","563726","0.0-6.0-5.17","3117136","co38059","norming","","","","","","",""
"3120.0499999686144","","","post_reveal_questions","survey-likert","131","566847","0.0-6.0-6.17","3117136","co38059","norming","","","{""aha"":3}","[0]","../img/tt/1366tt.jpg","",""
"null","<div style=""font-size:60px;""> </div>","null","fixation","html-keyboard-response","132","567049","0.0-6.0-0.18","3117136","co38059","norming","","","","","","",""
"null","../img/tt/1043tt.jpg","null","mooney1","image-keyboard-response","133","570054","0.0-6.0-1.18","3117136","co38059","norming","","","","","","",""
"5460.7799999648705","","","post_mooney1_questions","survey-likert","134","575518","0.0-6.0-2.18","3117136","co38059","norming","","","{""curiosity"":3,""confidence"":4}","[0,1]","../img/tt/1043tt.jpg","",""
"3595.930000010412","","","recognition","survey-text","135","579118","0.0-6.0-3.18","3117136","co38059","norming","","","{""guess"":""car""}","","../img/tt/1043tt.jpg","",""
"null","../img/gs/1043gs.jpg","null","reveal","image-keyboard-response","136","581121","0.0-6.0-4.18","3117136","co38059","norming","","","","","","",""
"null","../img/tt/1043tt.jpg","null","mooney2","image-keyboard-response","137","583134","0.0-6.0-5.18","3117136","co38059","norming","","","","","","",""
"3868.6600000364706","","","post_reveal_questions","survey-likert","138","587006","0.0-6.0-6.18","3117136","co38059","norming","","","{""aha"":6}","[0]","../img/tt/1043tt.jpg","",""
"null","<div style=""font-size:60px;""> </div>","null","fixation","html-keyboard-response","139","587219","0.0-6.0-0.19","3117136","co38059","norming","","","","","","",""
"null","../img/tt/296tt.jpg","null","mooney1","image-keyboard-response","140","590231","0.0-6.0-1.19","3117136","co38059","norming","","","","","","",""
"5203.204999968875","","","post_mooney1_questions","survey-likert","141","595439","0.0-6.0-2.19","3117136","co38059","norming","","","{""curiosity"":1,""confidence"":1}","[0,1]","../img/tt/296tt.jpg","",""
"1543.6350000090897","","","recognition","survey-text","142","596987","0.0-6.0-3.19","3117136","co38059","norming","","","{""guess"":""""}","","../img/tt/296tt.jpg","",""
"null","../img/gs/296gs.jpg","null","reveal","image-keyboard-response","143","598995","0.0-6.0-4.19","3117136","co38059","norming","","","","","","",""
"null","../img/tt/296tt.jpg","null","mooney2","image-keyboard-response","144","601011","0.0-6.0-5.19","3117136","co38059","norming","","","","","","",""
"3258.299999986775","","","post_reveal_questions","survey-likert","145","604272","0.0-6.0-6.19","3117136","co38059","norming","","","{""aha"":3}","[0]","../img/tt/296tt.jpg","",""
"null","<div style=""font-size:60px;""> </div>","null","fixation","html-keyboard-response","146","604484","0.0-6.0-0.20","3117136","co38059","norming","","","","","","",""
"null","../img/tt/081tt.jpg","null","mooney1","image-keyboard-response","147","607512","0.0-6.0-1.20","3117136","co38059","norming","","","","","","",""
"4405.120000010356","","","post_mooney1_questions","survey-likert","148","611919","0.0-6.0-2.20","3117136","co38059","norming","","","{""curiosity"":1,""confidence"":2}","[0,1]","../img/tt/081tt.jpg","",""
"4355.76000000583","","","recognition","survey-text","149","616277","0.0-6.0-3.20","3117136","co38059","norming","","","{""guess"":""sprinkhaan""}","","../img/tt/081tt.jpg","",""
"null","../img/gs/081gs.jpg","null","reveal","image-keyboard-response","150","618282","0.0-6.0-4.20","3117136","co38059","norming","","","","","","",""
"null","../img/tt/081tt.jpg","null","mooney2","image-keyboard-response","151","620286","0.0-6.0-5.20","3117136","co38059","norming","","","","","","",""
"6185.8050000155345","","","post_reveal_questions","survey-likert","152","626474","0.0-6.0-6.20","3117136","co38059","norming","","","{""aha"":5}","[0]","../img/tt/081tt.jpg","",""
"null","<div style=""font-size:60px;""> </div>","null","fixation","html-keyboard-response","153","626688","0.0-6.0-0.21","3117136","co38059","norming","","","","","","",""
"null","../img/tt/307tt.jpg","null","mooney1","image-keyboard-response","154","629694","0.0-6.0-1.21","3117136","co38059","norming","","","","","","",""
"4604.525000031572","","","post_mooney1_questions","survey-likert","155","634302","0.0-6.0-2.21","3117136","co38059","norming","","","{""curiosity"":2,""confidence"":3}","[0,1]","../img/tt/307tt.jpg","",""
"4066.2950000260025","","","recognition","survey-text","156","638372","0.0-6.0-3.21","3117136","co38059","norming","","","{""guess"":""fish""}","","../img/tt/307tt.jpg","",""
"null","../img/gs/307gs.jpg","null","reveal","image-keyboard-response","157","640378","0.0-6.0-4.21","3117136","co38059","norming","","","","","","",""
"null","../img/tt/307tt.jpg","null","mooney2","image-keyboard-response","158","642394","0.0-6.0-5.21","3117136","co38059","norming","","","","","","",""
"3794.880000001285","","","post_reveal_questions","survey-likert","159","646192","0.0-6.0-6.21","3117136","co38059","norming","","","{""aha"":5}","[0]","../img/tt/307tt.jpg","",""
"null","<div style=""font-size:60px;""> </div>","null","fixation","html-keyboard-response","160","646404","0.0-6.0-0.22","3117136","co38059","norming","","","","","","",""
"null","../img/tt/1148tt.jpg","null","mooney1","image-keyboard-response","161","649408","0.0-6.0-1.22","3117136","co38059","norming","","","","","","",""
"4978.544999961741","","","post_mooney1_questions","survey-likert","162","654389","0.0-6.0-2.22","3117136","co38059","norming","","","{""curiosity"":3,""confidence"":2}","[0,1]","../img/tt/1148tt.jpg","",""
"3092.7150000352412","","","recognition","survey-text","163","657486","0.0-6.0-3.22","3117136","co38059","norming","","","{""guess"":""roeien""}","","../img/tt/1148tt.jpg","",""
"null","../img/gs/1148gs.jpg","null","reveal","image-keyboard-response","164","659496","0.0-6.0-4.22","3117136","co38059","norming","","","","","","",""
"null","../img/tt/1148tt.jpg","null","mooney2","image-keyboard-response","165","661498","0.0-6.0-5.22","3117136","co38059","norming","","","","","","",""
"4525.620000029448","","","post_reveal_questions","survey-likert","166","666026","0.0-6.0-6.22","3117136","co38059","norming","","","{""aha"":6}","[0]","../img/tt/1148tt.jpg","",""
"null","<div style=""font-size:60px;""> </div>","null","fixation","html-keyboard-response","167","666241","0.0-6.0-0.23","3117136","co38059","norming","","","","","","",""
"null","../img/tt/1122tt.jpg","null","mooney1","image-keyboard-response","168","669246","0.0-6.0-1.23","3117136","co38059","norming","","","","","","",""
"4825.9349999716505","","","post_mooney1_questions","survey-likert","169","674075","0.0-6.0-2.23","3117136","co38059","norming","","","{""curiosity"":2,""confidence"":2}","[0,1]","../img/tt/1122tt.jpg","",""
"3781.4150000340305","","","recognition","survey-text","170","677858","0.0-6.0-3.23","3117136","co38059","norming","","","{""guess"":""een haven""}","","../img/tt/1122tt.jpg","",""
"null","../img/gs/1122gs.jpg","null","reveal","image-keyboard-response","171","679873","0.0-6.0-4.23","3117136","co38059","norming","","","","","","",""
"null","../img/tt/1122tt.jpg","null","mooney2","image-keyboard-response","172","681884","0.0-6.0-5.23","3117136","co38059","norming","","","","","","",""
"3190.8800000092015","","","post_reveal_questions","survey-likert","173","685077","0.0-6.0-6.23","3117136","co38059","norming","","","{""aha"":1}","[0]","../img/tt/1122tt.jpg","",""
"null","<div style=""font-size:60px;""> </div>","null","fixation","html-keyboard-response","174","685291","0.0-6.0-0.24","3117136","co38059","norming","","","","","","",""
"null","../img/tt/1362tt.jpg","null","mooney1","image-keyboard-response","175","688294","0.0-6.0-1.24","3117136","co38059","norming","","","","","","",""
"6528.385000012349","","","post_mooney1_questions","survey-likert","176","694825","0.0-6.0-2.24","3117136","co38059","norming","","","{""curiosity"":2,""confidence"":2}","[0,1]","../img/tt/1362tt.jpg","",""
"4117.399999988265","","","recognition","survey-text","177","698947","0.0-6.0-3.24","3117136","co38059","norming","","","{""guess"":""kookpannen""}","","../img/tt/1362tt.jpg","",""
"null","../img/gs/1362gs.jpg","null","reveal","image-keyboard-response","178","700951","0.0-6.0-4.24","3117136","co38059","norming","","","","","","",""
"null","../img/tt/1362tt.jpg","null","mooney2","image-keyboard-response","179","702966","0.0-6.0-5.24","3117136","co38059","norming","","","","","","",""
"3177.720000036061","","","post_reveal_questions","survey-likert","180","706147","0.0-6.0-6.24","3117136","co38059","norming","","","{""aha"":2}","[0]","../img/tt/1362tt.jpg","",""
"null","<div style=""font-size:60px;""> </div>","null","fixation","html-keyboard-response","181","706351","0.0-6.0-0.25","3117136","co38059","norming","","","","","","",""
"null","../img/tt/1200tt.jpg","null","mooney1","image-keyboard-response","182","709354","0.0-6.0-1.25","3117136","co38059","norming","","","","","","",""
"4891.375000006519","","","post_mooney1_questions","survey-likert","183","714247","0.0-6.0-2.25","3117136","co38059","norming","","","{""curiosity"":2,""confidence"":1}","[0,1]","../img/tt/1200tt.jpg","",""
"2789.5750000025146","","","recognition","survey-text","184","717042","0.0-6.0-3.25","3117136","co38059","norming","","","{""guess"":""roeien""}","","../img/tt/1200tt.jpg","",""
"null","../img/gs/1200gs.jpg","null","reveal","image-keyboard-response","185","719045","0.0-6.0-4.25","3117136","co38059","norming","","","","","","",""
"null","../img/tt/1200tt.jpg","null","mooney2","image-keyboard-response","186","721058","0.0-6.0-5.25","3117136","co38059","norming","","","","","","",""
"4449.3299999739975","","","post_reveal_questions","survey-likert","187","725511","0.0-6.0-6.25","3117136","co38059","norming","","","{""aha"":2}","[0]","../img/tt/1200tt.jpg","",""
"null","<div style=""font-size:60px;""> </div>","null","fixation","html-keyboard-response","188","725729","0.0-6.0-0.26","3117136","co38059","norming","","","","","","",""
"null","../img/tt/418tt.jpg","null","mooney1","image-keyboard-response","189","728732","0.0-6.0-1.26","3117136","co38059","norming","","","","","","",""
"4381.930000032298","","","post_mooney1_questions","survey-likert","190","733118","0.0-6.0-2.26","3117136","co38059","norming","","","{""curiosity"":3,""confidence"":2}","[0,1]","../img/tt/418tt.jpg","",""
"3972.71499998169","","","recognition","survey-text","191","737094","0.0-6.0-3.26","3117136","co38059","norming","","","{""guess"":""fruit""}","","../img/tt/418tt.jpg","",""
"null","../img/gs/418gs.jpg","null","reveal","image-keyboard-response","192","739104","0.0-6.0-4.26","3117136","co38059","norming","","","","","","",""
"null","../img/tt/418tt.jpg","null","mooney2","image-keyboard-response","193","741106","0.0-6.0-5.26","3117136","co38059","norming","","","","","","",""
"3256.8800000008196","","","post_reveal_questions","survey-likert","194","744365","0.0-6.0-6.26","3117136","co38059","norming","","","{""aha"":2}","[0]","../img/tt/418tt.jpg","",""
"null","<div style=""font-size:60px;""> </div>","null","fixation","html-keyboard-response","195","744578","0.0-6.0-0.27","3117136","co38059","norming","","","","","","",""
"null","../img/tt/1276tt.jpg","null","mooney1","image-keyboard-response","196","747581","0.0-6.0-1.27","3117136","co38059","norming","","","","","","",""
"7164.549999986775","","","post_mooney1_questions","survey-likert","197","754749","0.0-6.0-2.27","3117136","co38059","norming","","","{""curiosity"":2,""confidence"":2}","[0,1]","../img/tt/1276tt.jpg","",""
"2959.980000043288","","","recognition","survey-text","198","757714","0.0-6.0-3.27","3117136","co38059","norming","","","{""guess"":""vogel""}","","../img/tt/1276tt.jpg","",""
"null","../img/gs/1276gs.jpg","null","reveal","image-keyboard-response","199","759725","0.0-6.0-4.27","3117136","co38059","norming","","","","","","",""
"null","../img/tt/1276tt.jpg","null","mooney2","image-keyboard-response","200","761726","0.0-6.0-5.27","3117136","co38059","norming","","","","","","",""
"3315.869999991264","","","post_reveal_questions","survey-likert","201","765045","0.0-6.0-6.27","3117136","co38059","norming","","","{""aha"":5}","[0]","../img/tt/1276tt.jpg","",""
"null","<div style=""font-size:60px;""> </div>","null","fixation","html-keyboard-response","202","765251","0.0-6.0-0.28","3117136","co38059","norming","","","","","","",""
"null","../img/tt/580tt.jpg","null","mooney1","image-keyboard-response","203","768254","0.0-6.0-1.28","3117136","co38059","norming","","","","","","",""
"7338.325000018813","","","post_mooney1_questions","survey-likert","204","775595","0.0-6.0-2.28","3117136","co38059","norming","","","{""curiosity"":6,""confidence"":0}","[0,1]","../img/tt/580tt.jpg","",""
"1165.4149999958463","","","recognition","survey-text","205","776765","0.0-6.0-3.28","3117136","co38059","norming","","","{""guess"":""""}","","../img/tt/580tt.jpg","",""
"null","../img/gs/580gs.jpg","null","reveal","image-keyboard-response","206","778770","0.0-6.0-4.28","3117136","co38059","norming","","","","","","",""
"null","../img/tt/580tt.jpg","null","mooney2","image-keyboard-response","207","780773","0.0-6.0-5.28","3117136","co38059","norming","","","","","","",""
"3118.1499999947846","","","post_reveal_questions","survey-likert","208","783894","0.0-6.0-6.28","3117136","co38059","norming","","","{""aha"":2}","[0]","../img/tt/580tt.jpg","",""
"null","<div style=""font-size:60px;""> </div>","null","fixation","html-keyboard-response","209","784110","0.0-6.0-0.29","3117136","co38059","norming","","","","","","",""
"null","../img/tt/1254tt.jpg","null","mooney1","image-keyboard-response","210","787119","0.0-6.0-1.29","3117136","co38059","norming","","","","","","",""
"5190.720000013243","","","post_mooney1_questions","survey-likert","211","792313","0.0-6.0-2.29","3117136","co38059","norming","","","{""curiosity"":5,""confidence"":2}","[0,1]","../img/tt/1254tt.jpg","",""
"2285.2899999707006","","","recognition","survey-text","212","794602","0.0-6.0-3.29","3117136","co38059","norming","","","{""guess"":""""}","","../img/tt/1254tt.jpg","",""
"null","../img/gs/1254gs.jpg","null","reveal","image-keyboard-response","213","796604","0.0-6.0-4.29","3117136","co38059","norming","","","","","","",""
"null","../img/tt/1254tt.jpg","null","mooney2","image-keyboard-response","214","798633","0.0-6.0-5.29","3117136","co38059","norming","","","","","","",""
"5596.284999977797","","","post_reveal_questions","survey-likert","215","804231","0.0-6.0-6.29","3117136","co38059","norming","","","{""aha"":2}","[0]","../img/tt/1254tt.jpg","",""
"null","<div style=""font-size:60px;""> </div>","null","fixation","html-keyboard-response","216","804443","0.0-6.0-0.30","3117136","co38059","norming","","","","","","",""
"null","../img/tt/010tt.jpg","null","mooney1","image-keyboard-response","217","807458","0.0-6.0-1.30","3117136","co38059","norming","","","","","","",""
"5620.890000020154","","","post_mooney1_questions","survey-likert","218","813082","0.0-6.0-2.30","3117136","co38059","norming","","","{""curiosity"":3,""confidence"":1}","[0,1]","../img/tt/010tt.jpg","",""
"3428.814999992028","","","recognition","survey-text","219","816514","0.0-6.0-3.30","3117136","co38059","norming","","","{""guess"":""kikker""}","","../img/tt/010tt.jpg","",""
"null","../img/gs/010gs.jpg","null","reveal","image-keyboard-response","220","818531","0.0-6.0-4.30","3117136","co38059","norming","","","","","","",""
"null","../img/tt/010tt.jpg","null","mooney2","image-keyboard-response","221","820548","0.0-6.0-5.30","3117136","co38059","norming","","","","","","",""
"3868.640000000596","","","post_reveal_questions","survey-likert","222","824417","0.0-6.0-6.30","3117136","co38059","norming","","","{""aha"":1}","[0]","../img/tt/010tt.jpg","",""
"null","<div style=""font-size:60px;""> </div>","null","fixation","html-keyboard-response","223","824631","0.0-6.0-0.31","3117136","co38059","norming","","","","","","",""
"null","../img/tt/534tt.jpg","null","mooney1","image-keyboard-response","224","827637","0.0-6.0-1.31","3117136","co38059","norming","","","","","","",""
"7005.5300000240095","","","post_mooney1_questions","survey-likert","225","834646","0.0-6.0-2.31","3117136","co38059","norming","","","{""curiosity"":4,""confidence"":4}","[0,1]","../img/tt/534tt.jpg","",""
"3964.4500000285916","","","recognition","survey-text","226","838614","0.0-6.0-3.31","3117136","co38059","norming","","","{""guess"":""cactus""}","","../img/tt/534tt.jpg","",""
"null","../img/gs/534gs.jpg","null","reveal","image-keyboard-response","227","840621","0.0-6.0-4.31","3117136","co38059","norming","","","","","","",""
"null","../img/tt/534tt.jpg","null","mooney2","image-keyboard-response","228","842631","0.0-6.0-5.31","3117136","co38059","norming","","","","","","",""
"3125.339999969583","","","post_reveal_questions","survey-likert","229","845759","0.0-6.0-6.31","3117136","co38059","norming","","","{""aha"":3}","[0]","../img/tt/534tt.jpg","",""
"null","<div style=""font-size:60px;""> </div>","null","fixation","html-keyboard-response","230","845974","0.0-6.0-0.32","3117136","co38059","norming","","","","","","",""
"null","../img/tt/1143tt.jpg","null","mooney1","image-keyboard-response","231","848979","0.0-6.0-1.32","3117136","co38059","norming","","","","","","",""
"6923.605000018142","","","post_mooney1_questions","survey-likert","232","855906","0.0-6.0-2.32","3117136","co38059","norming","","","{""curiosity"":4,""confidence"":1}","[0,1]","../img/tt/1143tt.jpg","",""
"8423.470000037923","","","recognition","survey-text","233","864333","0.0-6.0-3.32","3117136","co38059","norming","","","{""guess"":""fitnesstoestellen""}","","../img/tt/1143tt.jpg","",""
"null","../img/gs/1143gs.jpg","null","reveal","image-keyboard-response","234","866341","0.0-6.0-4.32","3117136","co38059","norming","","","","","","",""
"null","../img/tt/1143tt.jpg","null","mooney2","image-keyboard-response","235","868350","0.0-6.0-5.32","3117136","co38059","norming","","","","","","",""
"3100.6949999718927","","","post_reveal_questions","survey-likert","236","871453","0.0-6.0-6.32","3117136","co38059","norming","","","{""aha"":2}","[0]","../img/tt/1143tt.jpg","",""
"null","<div style=""font-size:60px;""> </div>","null","fixation","html-keyboard-response","237","871667","0.0-6.0-0.33","3117136","co38059","norming","","","","","","",""
"null","../img/tt/301tt.jpg","null","mooney1","image-keyboard-response","238","874685","0.0-6.0-1.33","3117136","co38059","norming","","","","","","",""
"4334.835000045132","","","post_mooney1_questions","survey-likert","239","879023","0.0-6.0-2.33","3117136","co38059","norming","","","{""curiosity"":3,""confidence"":3}","[0,1]","../img/tt/301tt.jpg","",""
"7139.680000022054","","","recognition","survey-text","240","886168","0.0-6.0-3.33","3117136","co38059","norming","","","{""guess"":""ringen""}","","../img/tt/301tt.jpg","",""
"null","../img/gs/301gs.jpg","null","reveal","image-keyboard-response","241","888184","0.0-6.0-4.33","3117136","co38059","norming","","","","","","",""
"null","../img/tt/301tt.jpg","null","mooney2","image-keyboard-response","242","890187","0.0-6.0-5.33","3117136","co38059","norming","","","","","","",""
"4043.999999994412","","","post_reveal_questions","survey-likert","243","894233","0.0-6.0-6.33","3117136","co38059","norming","","","{""aha"":6}","[0]","../img/tt/301tt.jpg","",""
"null","<div style=""font-size:60px;""> </div>","null","fixation","html-keyboard-response","244","894440","0.0-6.0-0.34","3117136","co38059","norming","","","","","","",""
"null","../img/tt/1278tt.jpg","null","mooney1","image-keyboard-response","245","897456","0.0-6.0-1.34","3117136","co38059","norming","","","","","","",""
"4796.680000028573","","","post_mooney1_questions","survey-likert","246","902256","0.0-6.0-2.34","3117136","co38059","norming","","","{""curiosity"":6,""confidence"":0}","[0,1]","../img/tt/1278tt.jpg","",""
"1266.269999963697","","","recognition","survey-text","247","903527","0.0-6.0-3.34","3117136","co38059","norming","","","{""guess"":""""}","","../img/tt/1278tt.jpg","",""
"null","../img/gs/1278gs.jpg","null","reveal","image-keyboard-response","248","905534","0.0-6.0-4.34","3117136","co38059","norming","","","","","","",""
"null","../img/tt/1278tt.jpg","null","mooney2","image-keyboard-response","249","907544","0.0-6.0-5.34","3117136","co38059","norming","","","","","","",""
"4119.205000053626","","","post_reveal_questions","survey-likert","250","911665","0.0-6.0-6.34","3117136","co38059","norming","","","{""aha"":3}","[0]","../img/tt/1278tt.jpg","",""
"null","<div style=""font-size:60px;""> </div>","null","fixation","html-keyboard-response","251","911870","0.0-6.0-0.35","3117136","co38059","norming","","","","","","",""
"null","../img/tt/549tt.jpg","null","mooney1","image-keyboard-response","252","914877","0.0-6.0-1.35","3117136","co38059","norming","","","","","","",""
"6337.284999957774","","","post_mooney1_questions","survey-likert","253","921217","0.0-6.0-2.35","3117136","co38059","norming","","","{""curiosity"":3,""confidence"":3}","[0,1]","../img/tt/549tt.jpg","",""
"935.5499999946915","","","recognition","survey-text","254","922157","0.0-6.0-3.35","3117136","co38059","norming","","","{""guess"":""""}","","../img/tt/549tt.jpg","",""
"null","../img/gs/549gs.jpg","null","reveal","image-keyboard-response","255","924162","0.0-6.0-4.35","3117136","co38059","norming","","","","","","",""
"null","../img/tt/549tt.jpg","null","mooney2","image-keyboard-response","256","926179","0.0-6.0-5.35","3117136","co38059","norming","","","","","","",""
"4278.200000000652","","","post_reveal_questions","survey-likert","257","930459","0.0-6.0-6.35","3117136","co38059","norming","","","{""aha"":3}","[0]","../img/tt/549tt.jpg","",""
"null","<div style=""font-size:60px;""> </div>","null","fixation","html-keyboard-response","258","930669","0.0-6.0-0.36","3117136","co38059","norming","","","","","","",""
"null","../img/tt/1250tt.jpg","null","mooney1","image-keyboard-response","259","933685","0.0-6.0-1.36","3117136","co38059","norming","","","","","","",""
"5949.965000036173","","","post_mooney1_questions","survey-likert","260","939638","0.0-6.0-2.36","3117136","co38059","norming","","","{""curiosity"":3,""confidence"":4}","[0,1]","../img/tt/1250tt.jpg","",""
"4881.974999967497","","","recognition","survey-text","261","944520","0.0-6.0-3.36","3117136","co38059","norming","","","{""guess"":""pinguin""}","","../img/tt/1250tt.jpg","",""
"null","../img/gs/1250gs.jpg","null","reveal","image-keyboard-response","262","946525","0.0-6.0-4.36","3117136","co38059","norming","","","","","","",""
"null","../img/tt/1250tt.jpg","null","mooney2","image-keyboard-response","263","948538","0.0-6.0-5.36","3117136","co38059","norming","","","","","","",""
"4282.744999974966","","","post_reveal_questions","survey-likert","264","952823","0.0-6.0-6.36","3117136","co38059","norming","","","{""aha"":2}","[0]","../img/tt/1250tt.jpg","",""
"null","<div style=""font-size:60px;""> </div>","null","fixation","html-keyboard-response","265","953034","0.0-6.0-0.37","3117136","co38059","norming","","","","","","",""
"null","../img/tt/1089tt.jpg","null","mooney1","image-keyboard-response","266","956044","0.0-6.0-1.37","3117136","co38059","norming","","","","","","",""
"4976.34500003187","","","post_mooney1_questions","survey-likert","267","961023","0.0-6.0-2.37","3117136","co38059","norming","","","{""curiosity"":1,""confidence"":1}","[0,1]","../img/tt/1089tt.jpg","",""
"1613.454999984242","","","recognition","survey-text","268","962641","0.0-6.0-3.37","3117136","co38059","norming","","","{""guess"":""""}","","../img/tt/1089tt.jpg","",""
"null","../img/gs/1089gs.jpg","null","reveal","image-keyboard-response","269","964647","0.0-6.0-4.37","3117136","co38059","norming","","","","","","",""
"null","../img/tt/1089tt.jpg","null","mooney2","image-keyboard-response","270","966654","0.0-6.0-5.37","3117136","co38059","norming","","","","","","",""
"2896.6399999917485","","","post_reveal_questions","survey-likert","271","969553","0.0-6.0-6.37","3117136","co38059","norming","","","{""aha"":2}","[0]","../img/tt/1089tt.jpg","",""
"null","<div style=""font-size:60px;""> </div>","null","fixation","html-keyboard-response","272","969766","0.0-6.0-0.38","3117136","co38059","norming","","","","","","",""
"null","../img/tt/189tt.jpg","null","mooney1","image-keyboard-response","273","972768","0.0-6.0-1.38","3117136","co38059","norming","","","","","","",""
"7616.860000009183","","","post_mooney1_questions","survey-likert","274","980389","0.0-6.0-2.38","3117136","co38059","norming","","","{""curiosity"":4,""confidence"":3}","[0,1]","../img/tt/189tt.jpg","",""
"5431.9350000005215","","","recognition","survey-text","275","985825","0.0-6.0-3.38","3117136","co38059","norming","","","{""guess"":""vlieg""}","","../img/tt/189tt.jpg","",""
"null","../img/gs/189gs.jpg","null","reveal","image-keyboard-response","276","987835","0.0-6.0-4.38","3117136","co38059","norming","","","","","","",""
"null","../img/tt/189tt.jpg","null","mooney2","image-keyboard-response","277","989850","0.0-6.0-5.38","3117136","co38059","norming","","","","","","",""
"3554.100000008475","","","post_reveal_questions","survey-likert","278","993406","0.0-6.0-6.38","3117136","co38059","norming","","","{""aha"":5}","[0]","../img/tt/189tt.jpg","",""
"null","<div style=""font-size:60px;""> </div>","null","fixation","html-keyboard-response","279","993622","0.0-6.0-0.39","3117136","co38059","norming","","","","","","",""
"null","../img/tt/1126tt.jpg","null","mooney1","image-keyboard-response","280","996627","0.0-6.0-1.39","3117136","co38059","norming","","","","","","",""
"7013.45000002766","","","post_mooney1_questions","survey-likert","281","1003643","0.0-6.0-2.39","3117136","co38059","norming","","","{""curiosity"":1,""confidence"":1}","[0,1]","../img/tt/1126tt.jpg","",""
"1658.7799999979325","","","recognition","survey-text","282","1005305","0.0-6.0-3.39","3117136","co38059","norming","","","{""guess"":""""}","","../img/tt/1126tt.jpg","",""
"null","../img/gs/1126gs.jpg","null","reveal","image-keyboard-response","283","1007315","0.0-6.0-4.39","3117136","co38059","norming","","","","","","",""
"null","../img/tt/1126tt.jpg","null","mooney2","image-keyboard-response","284","1009332","0.0-6.0-5.39","3117136","co38059","norming","","","","","","",""
"3922.019999998156","","","post_reveal_questions","survey-likert","285","1013256","0.0-6.0-6.39","3117136","co38059","norming","","","{""aha"":3}","[0]","../img/tt/1126tt.jpg","",""
"null","<div style=""font-size:60px;""> </div>","null","fixation","html-keyboard-response","286","1013467","0.0-6.0-0.40","3117136","co38059","norming","","","","","","",""
"null","../img/tt/1142tt.jpg","null","mooney1","image-keyboard-response","287","1016471","0.0-6.0-1.40","3117136","co38059","norming","","","","","","",""
"5285.299999988638","","","post_mooney1_questions","survey-likert","288","1021759","0.0-6.0-2.40","3117136","co38059","norming","","","{""curiosity"":3,""confidence"":3}","[0,1]","../img/tt/1142tt.jpg","",""
"7276.63500001654","","","recognition","survey-text","289","1029040","0.0-6.0-3.40","3117136","co38059","norming","","","{""guess"":""cheerleaden""}","","../img/tt/1142tt.jpg","",""
"null","../img/gs/1142gs.jpg","null","reveal","image-keyboard-response","290","1031048","0.0-6.0-4.40","3117136","co38059","norming","","","","","","",""
"null","../img/tt/1142tt.jpg","null","mooney2","image-keyboard-response","291","1033053","0.0-6.0-5.40","3117136","co38059","norming","","","","","","",""
"3167.925000016112","","","post_reveal_questions","survey-likert","292","1036224","0.0-6.0-6.40","3117136","co38059","norming","","","{""aha"":3}","[0]","../img/tt/1142tt.jpg","",""
"null","<div style=""font-size:60px;""> </div>","null","fixation","html-keyboard-response","293","1036435","0.0-6.0-0.41","3117136","co38059","norming","","","","","","",""
"null","../img/tt/105tt.jpg","null","mooney1","image-keyboard-response","294","1039439","0.0-6.0-1.41","3117136","co38059","norming","","","","","","",""
"23477.184999966994","","","post_mooney1_questions","survey-likert","295","1062918","0.0-6.0-2.41","3117136","co38059","norming","","","{""curiosity"":1,""confidence"":2}","[0,1]","../img/tt/105tt.jpg","",""
"1818.9750000019558","","","recognition","survey-text","296","1064740","0.0-6.0-3.41","3117136","co38059","norming","","","{""guess"":""""}","","../img/tt/105tt.jpg","",""
"null","../img/gs/105gs.jpg","null","reveal","image-keyboard-response","297","1066751","0.0-6.0-4.41","3117136","co38059","norming","","","","","","",""
"null","../img/tt/105tt.jpg","null","mooney2","image-keyboard-response","298","1068760","0.0-6.0-5.41","3117136","co38059","norming","","","","","","",""
"4886.790000018664","","","post_reveal_questions","survey-likert","299","1073649","0.0-6.0-6.41","3117136","co38059","norming","","","{""aha"":3}","[0]","../img/tt/105tt.jpg","",""
"null","<div style=""font-size:60px;""> </div>","null","fixation","html-keyboard-response","300","1073863","0.0-6.0-0.42","3117136","co38059","norming","","","","","","",""
"null","../img/tt/1191tt.jpg","null","mooney1","image-keyboard-response","301","1076867","0.0-6.0-1.42","3117136","co38059","norming","","","","","","",""
"5101.454999996349","","","post_mooney1_questions","survey-likert","302","1081971","0.0-6.0-2.42","3117136","co38059","norming","","","{""curiosity"":3,""confidence"":1}","[0,1]","../img/tt/1191tt.jpg","",""
"1594.3550000083633","","","recognition","survey-text","303","1083568","0.0-6.0-3.42","3117136","co38059","norming","","","{""guess"":""""}","","../img/tt/1191tt.jpg","",""
"null","../img/gs/1191gs.jpg","null","reveal","image-keyboard-response","304","1085576","0.0-6.0-4.42","3117136","co38059","norming","","","","","","",""
"null","../img/tt/1191tt.jpg","null","mooney2","image-keyboard-response","305","1087585","0.0-6.0-5.42","3117136","co38059","norming","","","","","","",""
"3309.895000013057","","","post_reveal_questions","survey-likert","306","1090897","0.0-6.0-6.42","3117136","co38059","norming","","","{""aha"":3}","[0]","../img/tt/1191tt.jpg","",""
"null","<div style=""font-size:60px;""> </div>","null","fixation","html-keyboard-response","307","1091111","0.0-6.0-0.43","3117136","co38059","norming","","","","","","",""
"null","../img/tt/108tt.jpg","null","mooney1","image-keyboard-response","308","1094121","0.0-6.0-1.43","3117136","co38059","norming","","","","","","",""
"7223.784999980126","","","post_mooney1_questions","survey-likert","309","1101348","0.0-6.0-2.43","3117136","co38059","norming","","","{""curiosity"":0,""confidence"":0}","[0,1]","../img/tt/108tt.jpg","",""
"1034.8149999626912","","","recognition","survey-text","310","1102388","0.0-6.0-3.43","3117136","co38059","norming","","","{""guess"":""""}","","../img/tt/108tt.jpg","",""
"null","../img/gs/108gs.jpg","null","reveal","image-keyboard-response","311","1104405","0.0-6.0-4.43","3117136","co38059","norming","","","","","","",""
"null","../img/tt/108tt.jpg","null","mooney2","image-keyboard-response","312","1106411","0.0-6.0-5.43","3117136","co38059","norming","","","","","","",""
"4954.339999996591","","","post_reveal_questions","survey-likert","313","1111368","0.0-6.0-6.43","3117136","co38059","norming","","","{""aha"":3}","[0]","../img/tt/108tt.jpg","",""
"null","<div style=""font-size:60px;""> </div>","null","fixation","html-keyboard-response","314","1111581","0.0-6.0-0.44","3117136","co38059","norming","","","","","","",""
"null","../img/tt/052tt.jpg","null","mooney1","image-keyboard-response","315","1114597","0.0-6.0-1.44","3117136","co38059","norming","","","","","","",""
"6816.055000002962","","","post_mooney1_questions","survey-likert","316","1121416","0.0-6.0-2.44","3117136","co38059","norming","","","{""curiosity"":1,""confidence"":1}","[0,1]","../img/tt/052tt.jpg","",""
"5632.069999992382","","","recognition","survey-text","317","1127050","0.0-6.0-3.44","3117136","co38059","norming","","","{""guess"":""ring""}","","../img/tt/052tt.jpg","",""
"null","../img/gs/052gs.jpg","null","reveal","image-keyboard-response","318","1129053","0.0-6.0-4.44","3117136","co38059","norming","","","","","","",""
"null","../img/tt/052tt.jpg","null","mooney2","image-keyboard-response","319","1131059","0.0-6.0-5.44","3117136","co38059","norming","","","","","","",""
"5467.940000002272","","","post_reveal_questions","survey-likert","320","1136530","0.0-6.0-6.44","3117136","co38059","norming","","","{""aha"":2}","[0]","../img/tt/052tt.jpg","",""
"null","<div style=""font-size:60px;""> </div>","null","fixation","html-keyboard-response","321","1136744","0.0-6.0-0.45","3117136","co38059","norming","","","","","","",""
"null","../img/tt/306tt.jpg","null","mooney1","image-keyboard-response","322","1139759","0.0-6.0-1.45","3117136","co38059","norming","","","","","","",""
"6016.1649999790825","","","post_mooney1_questions","survey-likert","323","1145778","0.0-6.0-2.45","3117136","co38059","norming","","","{""curiosity"":2,""confidence"":0}","[0,1]","../img/tt/306tt.jpg","",""
"2503.1249999883585","","","recognition","survey-text","324","1148284","0.0-6.0-3.45","3117136","co38059","norming","","","{""guess"":"" ""}","","../img/tt/306tt.jpg","",""
"null","../img/gs/306gs.jpg","null","reveal","image-keyboard-response","325","1150291","0.0-6.0-4.45","3117136","co38059","norming","","","","","","",""
"null","../img/tt/306tt.jpg","null","mooney2","image-keyboard-response","326","1152303","0.0-6.0-5.45","3117136","co38059","norming","","","","","","",""
"8943.70499998331","","","post_reveal_questions","survey-likert","327","1161249","0.0-6.0-6.45","3117136","co38059","norming","","","{""aha"":1}","[0]","../img/tt/306tt.jpg","",""
"null","<div style=""font-size:60px;""> </div>","null","fixation","html-keyboard-response","328","1161462","0.0-6.0-0.46","3117136","co38059","norming","","","","","","",""
"null","../img/tt/1175tt.jpg","null","mooney1","image-keyboard-response","329","1164477","0.0-6.0-1.46","3117136","co38059","norming","","","","","","",""
"10091.65000001667","","","post_mooney1_questions","survey-likert","330","1174571","0.0-6.0-2.46","3117136","co38059","norming","","","{""curiosity"":3,""confidence"":6}","[0,1]","../img/tt/1175tt.jpg","",""
"7892.819999950007","","","recognition","survey-text","331","1182468","0.0-6.0-3.46","3117136","co38059","norming","","","{""guess"":""ballet""}","","../img/tt/1175tt.jpg","",""
"null","../img/gs/1175gs.jpg","null","reveal","image-keyboard-response","332","1184478","0.0-6.0-4.46","3117136","co38059","norming","","","","","","",""
"null","../img/tt/1175tt.jpg","null","mooney2","image-keyboard-response","333","1186483","0.0-6.0-5.46","3117136","co38059","norming","","","","","","",""
"4368.5350000159815","","","post_reveal_questions","survey-likert","334","1190853","0.0-6.0-6.46","3117136","co38059","norming","","","{""aha"":2}","[0]","../img/tt/1175tt.jpg","",""
"null","<div style=""font-size:60px;""> </div>","null","fixation","html-keyboard-response","335","1191066","0.0-6.0-0.47","3117136","co38059","norming","","","","","","",""
"null","../img/tt/053tt.jpg","null","mooney1","image-keyboard-response","336","1194072","0.0-6.0-1.47","3117136","co38059","norming","","","","","","",""
"6366.719999990892","","","post_mooney1_questions","survey-likert","337","1200441","0.0-6.0-2.47","3117136","co38059","norming","","","{""curiosity"":1,""confidence"":0}","[0,1]","../img/tt/053tt.jpg","",""
"2391.2949999794364","","","recognition","survey-text","338","1202837","0.0-6.0-3.47","3117136","co38059","norming","","","{""guess"":""""}","","../img/tt/053tt.jpg","",""
"null","../img/gs/053gs.jpg","null","reveal","image-keyboard-response","339","1204850","0.0-6.0-4.47","3117136","co38059","norming","","","","","","",""
"null","../img/tt/053tt.jpg","null","mooney2","image-keyboard-response","340","1206861","0.0-6.0-5.47","3117136","co38059","norming","","","","","","",""
"4059.8750000353903","","","post_reveal_questions","survey-likert","341","1210923","0.0-6.0-6.47","3117136","co38059","norming","","","{""aha"":2}","[0]","../img/tt/053tt.jpg","",""
"null","<div style=""font-size:60px;""> </div>","null","fixation","html-keyboard-response","342","1211131","0.0-6.0-0.48","3117136","co38059","norming","","","","","","",""
"null","../img/tt/1107tt.jpg","null","mooney1","image-keyboard-response","343","1214138","0.0-6.0-1.48","3117136","co38059","norming","","","","","","",""
"5493.019999994431","","","post_mooney1_questions","survey-likert","344","1219634","0.0-6.0-2.48","3117136","co38059","norming","","","{""curiosity"":1,""confidence"":3}","[0,1]","../img/tt/1107tt.jpg","",""
"4101.740000012796","","","recognition","survey-text","345","1223740","0.0-6.0-3.48","3117136","co38059","norming","","","{""guess"":""kat""}","","../img/tt/1107tt.jpg","",""
"null","../img/gs/1107gs.jpg","null","reveal","image-keyboard-response","346","1225749","0.0-6.0-4.48","3117136","co38059","norming","","","","","","",""
"null","../img/tt/1107tt.jpg","null","mooney2","image-keyboard-response","347","1227754","0.0-6.0-5.48","3117136","co38059","norming","","","","","","",""
"4010.5949999997392","","","post_reveal_questions","survey-likert","348","1231767","0.0-6.0-6.48","3117136","co38059","norming","","","{""aha"":1}","[0]","../img/tt/1107tt.jpg","",""
"null","<div style=""font-size:60px;""> </div>","null","fixation","html-keyboard-response","349","1231970","0.0-6.0-0.49","3117136","co38059","norming","","","","","","",""
"null","../img/tt/1224tt.jpg","null","mooney1","image-keyboard-response","350","1234987","0.0-6.0-1.49","3117136","co38059","norming","","","","","","",""
"5097.669999988284","","","post_mooney1_questions","survey-likert","351","1240088","0.0-6.0-2.49","3117136","co38059","norming","","","{""curiosity"":2,""confidence"":2}","[0,1]","../img/tt/1224tt.jpg","",""
"1447.5749999983236","","","recognition","survey-text","352","1241540","0.0-6.0-3.49","3117136","co38059","norming","","","{""guess"":""""}","","../img/tt/1224tt.jpg","",""
"null","../img/gs/1224gs.jpg","null","reveal","image-keyboard-response","353","1243551","0.0-6.0-4.49","3117136","co38059","norming","","","","","","",""
"null","../img/tt/1224tt.jpg","null","mooney2","image-keyboard-response","354","1245556","0.0-6.0-5.49","3117136","co38059","norming","","","","","","",""
"5850.124999997206","","","post_reveal_questions","survey-likert","355","1251409","0.0-6.0-6.49","3117136","co38059","norming","","","{""aha"":5}","[0]","../img/tt/1224tt.jpg","",""
"null","<div style=""font-size:60px;""> </div>","null","fixation","html-keyboard-response","356","1251621","0.0-6.0-0.50","3117136","co38059","norming","","","","","","",""
"null","../img/tt/126tt.jpg","null","mooney1","image-keyboard-response","357","1254635","0.0-6.0-1.50","3117136","co38059","norming","","","","","","",""
"5285.23999999743","","","post_mooney1_questions","survey-likert","358","1259923","0.0-6.0-2.50","3117136","co38059","norming","","","{""curiosity"":3,""confidence"":6}","[0,1]","../img/tt/126tt.jpg","",""
"8714.075000025332","","","recognition","survey-text","359","1268641","0.0-6.0-3.50","3117136","co38059","norming","","","{""guess"":""koe""}","","../img/tt/126tt.jpg","",""
"null","../img/gs/126gs.jpg","null","reveal","image-keyboard-response","360","1270643","0.0-6.0-4.50","3117136","co38059","norming","","","","","","",""
"null","../img/tt/126tt.jpg","null","mooney2","image-keyboard-response","361","1272644","0.0-6.0-5.50","3117136","co38059","norming","","","","","","",""
"6424.760000023525","","","post_reveal_questions","survey-likert","362","1279071","0.0-6.0-6.50","3117136","co38059","norming","","","{""aha"":2}","[0]","../img/tt/126tt.jpg","",""
"null","<div style=""font-size:60px;""> </div>","null","fixation","html-keyboard-response","363","1279286","0.0-6.0-0.51","3117136","co38059","norming","","","","","","",""
"null","../img/tt/096tt.jpg","null","mooney1","image-keyboard-response","364","1282290","0.0-6.0-1.51","3117136","co38059","norming","","","","","","",""
"8163.6549999821","","","post_mooney1_questions","survey-likert","365","1290456","0.0-6.0-2.51","3117136","co38059","norming","","","{""curiosity"":3,""confidence"":1}","[0,1]","../img/tt/096tt.jpg","",""
"7102.804999973159","","","recognition","survey-text","366","1297563","0.0-6.0-3.51","3117136","co38059","norming","","","{""guess"":""naaimachine""}","","../img/tt/096tt.jpg","",""
"null","../img/gs/096gs.jpg","null","reveal","image-keyboard-response","367","1299570","0.0-6.0-4.51","3117136","co38059","norming","","","","","","",""
"null","../img/tt/096tt.jpg","null","mooney2","image-keyboard-response","368","1301584","0.0-6.0-5.51","3117136","co38059","norming","","","","","","",""
"6208.435000036843","","","post_reveal_questions","survey-likert","369","1307794","0.0-6.0-6.51","3117136","co38059","norming","","","{""aha"":3}","[0]","../img/tt/096tt.jpg","",""
"null","<div style=""font-size:60px;""> </div>","null","fixation","html-keyboard-response","370","1308007","0.0-6.0-0.52","3117136","co38059","norming","","","","","","",""
"null","../img/tt/036tt.jpg","null","mooney1","image-keyboard-response","371","1311021","0.0-6.0-1.52","3117136","co38059","norming","","","","","","",""
"17625.294999976177","","","post_mooney1_questions","survey-likert","372","1328649","0.0-6.0-2.52","3117136","co38059","norming","","","{""curiosity"":3,""confidence"":2}","[0,1]","../img/tt/036tt.jpg","",""
"1266.52499998454","","","recognition","survey-text","373","1329920","0.0-6.0-3.52","3117136","co38059","norming","","","{""guess"":""""}","","../img/tt/036tt.jpg","",""
"null","../img/gs/036gs.jpg","null","reveal","image-keyboard-response","374","1331930","0.0-6.0-4.52","3117136","co38059","norming","","","","","","",""
"null","../img/tt/036tt.jpg","null","mooney2","image-keyboard-response","375","1333932","0.0-6.0-5.52","3117136","co38059","norming","","","","","","",""
"3226.0649999952875","","","post_reveal_questions","survey-likert","376","1337161","0.0-6.0-6.52","3117136","co38059","norming","","","{""aha"":2}","[0]","../img/tt/036tt.jpg","",""
"null","<div style=""font-size:60px;""> </div>","null","fixation","html-keyboard-response","377","1337373","0.0-6.0-0.53","3117136","co38059","norming","","","","","","",""
"null","../img/tt/1307tt.jpg","null","mooney1","image-keyboard-response","378","1340386","0.0-6.0-1.53","3117136","co38059","norming","","","","","","",""
"8989.690000016708","","","post_mooney1_questions","survey-likert","379","1349378","0.0-6.0-2.53","3117136","co38059","norming","","","{""curiosity"":2,""confidence"":2}","[0,1]","../img/tt/1307tt.jpg","",""
"7284.349999972619","","","recognition","survey-text","380","1356667","0.0-6.0-3.53","3117136","co38059","norming","","","{""guess"":""standbeeld""}","","../img/tt/1307tt.jpg","",""
"null","../img/gs/1307gs.jpg","null","reveal","image-keyboard-response","381","1358674","0.0-6.0-4.53","3117136","co38059","norming","","","","","","",""
"null","../img/tt/1307tt.jpg","null","mooney2","image-keyboard-response","382","1360677","0.0-6.0-5.53","3117136","co38059","norming","","","","","","",""
"16949.324999994133","","","post_reveal_questions","survey-likert","383","1377615","0.0-6.0-6.53","3117136","co38059","norming","","","{""aha"":3}","[0]","../img/tt/1307tt.jpg","",""
"null","<div style=""font-size:60px;""> </div>","null","fixation","html-keyboard-response","384","1377829","0.0-6.0-0.54","3117136","co38059","norming","","","","","","",""
"null","../img/tt/318tt.jpg","null","mooney1","image-keyboard-response","385","1380837","0.0-6.0-1.54","3117136","co38059","norming","","","","","","",""
"5586.299999966286","","","post_mooney1_questions","survey-likert","386","1386426","0.0-6.0-2.54","3117136","co38059","norming","","","{""curiosity"":3,""confidence"":3}","[0,1]","../img/tt/318tt.jpg","",""
"3987.050000054296","","","recognition","survey-text","387","1390416","0.0-6.0-3.54","3117136","co38059","norming","","","{""guess"":""auto""}","","../img/tt/318tt.jpg","",""
"null","../img/gs/318gs.jpg","null","reveal","image-keyboard-response","388","1392427","0.0-6.0-4.54","3117136","co38059","norming","","","","","","",""
"null","../img/tt/318tt.jpg","null","mooney2","image-keyboard-response","389","1394443","0.0-6.0-5.54","3117136","co38059","norming","","","","","","",""
"2992.720000038389","","","post_reveal_questions","survey-likert","390","1397438","0.0-6.0-6.54","3117136","co38059","norming","","","{""aha"":3}","[0]","../img/tt/318tt.jpg","",""
"null","<div style=""font-size:60px;""> </div>","null","fixation","html-keyboard-response","391","1397643","0.0-6.0-0.55","3117136","co38059","norming","","","","","","",""
"null","../img/tt/135tt.jpg","null","mooney1","image-keyboard-response","392","1400645","0.0-6.0-1.55","3117136","co38059","norming","","","","","","",""
"5266.769999987446","","","post_mooney1_questions","survey-likert","393","1405915","0.0-6.0-2.55","3117136","co38059","norming","","","{""curiosity"":2,""confidence"":5}","[0,1]","../img/tt/135tt.jpg","",""
"3720.9850000217557","","","recognition","survey-text","394","1409638","0.0-6.0-3.55","3117136","co38059","norming","","","{""guess"":""wc""}","","../img/tt/135tt.jpg","",""
"null","../img/gs/135gs.jpg","null","reveal","image-keyboard-response","395","1411641","0.0-6.0-4.55","3117136","co38059","norming","","","","","","",""
"null","../img/tt/135tt.jpg","null","mooney2","image-keyboard-response","396","1413658","0.0-6.0-5.55","3117136","co38059","norming","","","","","","",""
"8845.284999988507","","","post_reveal_questions","survey-likert","397","1422506","0.0-6.0-6.55","3117136","co38059","norming","","","{""aha"":2}","[0]","../img/tt/135tt.jpg","",""
"null","<div style=""font-size:60px;""> </div>","null","fixation","html-keyboard-response","398","1422718","0.0-6.0-0.56","3117136","co38059","norming","","","","","","",""
"null","../img/tt/1097tt.jpg","null","mooney1","image-keyboard-response","399","1425729","0.0-6.0-1.56","3117136","co38059","norming","","","","","","",""
"5488.800000050105","","","post_mooney1_questions","survey-likert","400","1431221","0.0-6.0-2.56","3117136","co38059","norming","","","{""curiosity"":2,""confidence"":2}","[0,1]","../img/tt/1097tt.jpg","",""
"5076.805000018794","","","recognition","survey-text","401","1436302","0.0-6.0-3.56","3117136","co38059","norming","","","{""guess"":""surfen""}","","../img/tt/1097tt.jpg","",""
"null","../img/gs/1097gs.jpg","null","reveal","image-keyboard-response","402","1438321","0.0-6.0-4.56","3117136","co38059","norming","","","","","","",""
"null","../img/tt/1097tt.jpg","null","mooney2","image-keyboard-response","403","1440338","0.0-6.0-5.56","3117136","co38059","norming","","","","","","",""
"3178.5750000271946","","","post_reveal_questions","survey-likert","404","1443519","0.0-6.0-6.56","3117136","co38059","norming","","","{""aha"":2}","[0]","../img/tt/1097tt.jpg","",""
"null","<div style=""font-size:60px;""> </div>","null","fixation","html-keyboard-response","405","1443734","0.0-6.0-0.57","3117136","co38059","norming","","","","","","",""
"null","../img/tt/353tt.jpg","null","mooney1","image-keyboard-response","406","1446741","0.0-6.0-1.57","3117136","co38059","norming","","","","","","",""
"6477.190000005066","","","post_mooney1_questions","survey-likert","407","1453221","0.0-6.0-2.57","3117136","co38059","norming","","","{""curiosity"":2,""confidence"":5}","[0,1]","../img/tt/353tt.jpg","",""
"4363.914999994449","","","recognition","survey-text","408","1457588","0.0-6.0-3.57","3117136","co38059","norming","","","{""guess"":""pinguin""}","","../img/tt/353tt.jpg","",""
"null","../img/gs/353gs.jpg","null","reveal","image-keyboard-response","409","1459592","0.0-6.0-4.57","3117136","co38059","norming","","","","","","",""
"null","../img/tt/353tt.jpg","null","mooney2","image-keyboard-response","410","1461595","0.0-6.0-5.57","3117136","co38059","norming","","","","","","",""
"12410.815000010189","","","post_reveal_questions","survey-likert","411","1474009","0.0-6.0-6.57","3117136","co38059","norming","","","{""aha"":1}","[0]","../img/tt/353tt.jpg","",""
"null","<div style=""font-size:60px;""> </div>","null","fixation","html-keyboard-response","412","1474220","0.0-6.0-0.58","3117136","co38059","norming","","","","","","",""
"null","../img/tt/1275tt.jpg","null","mooney1","image-keyboard-response","413","1477233","0.0-6.0-1.58","3117136","co38059","norming","","","","","","",""
"4785.9300000127405","","","post_mooney1_questions","survey-likert","414","1482022","0.0-6.0-2.58","3117136","co38059","norming","","","{""curiosity"":2,""confidence"":2}","[0,1]","../img/tt/1275tt.jpg","",""
"8129.360000020824","","","recognition","survey-text","415","1490155","0.0-6.0-3.58","3117136","co38059","norming","","","{""guess"":""varken""}","","../img/tt/1275tt.jpg","",""
"null","../img/gs/1275gs.jpg","null","reveal","image-keyboard-response","416","1492166","0.0-6.0-4.58","3117136","co38059","norming","","","","","","",""
"null","../img/tt/1275tt.jpg","null","mooney2","image-keyboard-response","417","1494171","0.0-6.0-5.58","3117136","co38059","norming","","","","","","",""
"7328.909999981988","","","post_reveal_questions","survey-likert","418","1501500","0.0-6.0-6.58","3117136","co38059","norming","","","{""aha"":0}","[0]","../img/tt/1275tt.jpg","",""
"null","<div style=""font-size:60px;""> </div>","null","fixation","html-keyboard-response","419","1501715","0.0-6.0-0.59","3117136","co38059","norming","","","","","","",""
"null","../img/tt/1205tt.jpg","null","mooney1","image-keyboard-response","420","1504722","0.0-6.0-1.59","3117136","co38059","norming","","","","","","",""
"9232.810000015888","","","post_mooney1_questions","survey-likert","421","1513958","0.0-6.0-2.59","3117136","co38059","norming","","","{""curiosity"":0,""confidence"":0}","[0,1]","../img/tt/1205tt.jpg","",""
"1144.5549999480136","","","recognition","survey-text","422","1515107","0.0-6.0-3.59","3117136","co38059","norming","","","{""guess"":""""}","","../img/tt/1205tt.jpg","",""
"null","../img/gs/1205gs.jpg","null","reveal","image-keyboard-response","423","1517117","0.0-6.0-4.59","3117136","co38059","norming","","","","","","",""
"null","../img/tt/1205tt.jpg","null","mooney2","image-keyboard-response","424","1519134","0.0-6.0-5.59","3117136","co38059","norming","","","","","","",""
"21269.970000023022","","","post_reveal_questions","survey-likert","425","1540406","0.0-6.0-6.59","3117136","co38059","norming","","","{""aha"":1}","[0]","../img/tt/1205tt.jpg","",""
"null","<div style=""font-size:60px;""> </div>","null","fixation","html-keyboard-response","426","1540621","0.0-6.0-0.60","3117136","co38059","norming","","","","","","",""
"null","../img/tt/1118tt.jpg","null","mooney1","image-keyboard-response","427","1543625","0.0-6.0-1.60","3117136","co38059","norming","","","","","","",""
"6498.145000019576","","","post_mooney1_questions","survey-likert","428","1550127","0.0-6.0-2.60","3117136","co38059","norming","","","{""curiosity"":2,""confidence"":0}","[0,1]","../img/tt/1118tt.jpg","",""
"1026.750000019092","","","recognition","survey-text","429","1551157","0.0-6.0-3.60","3117136","co38059","norming","","","{""guess"":""""}","","../img/tt/1118tt.jpg","",""
"null","../img/gs/1118gs.jpg","null","reveal","image-keyboard-response","430","1553172","0.0-6.0-4.60","3117136","co38059","norming","","","","","","",""
"null","../img/tt/1118tt.jpg","null","mooney2","image-keyboard-response","431","1555176","0.0-6.0-5.60","3117136","co38059","norming","","","","","","",""
"5981.009999988601","","","post_reveal_questions","survey-likert","432","1561160","0.0-6.0-6.60","3117136","co38059","norming","","","{""aha"":0}","[0]","../img/tt/1118tt.jpg","",""
"null","<div style=""font-size:60px;""> </div>","null","fixation","html-keyboard-response","433","1561369","0.0-6.0-0.61","3117136","co38059","norming","","","","","","",""
"null","../img/tt/1171tt.jpg","null","mooney1","image-keyboard-response","434","1564383","0.0-6.0-1.61","3117136","co38059","norming","","","","","","",""
"7336.549999949057","","","post_mooney1_questions","survey-likert","435","1571723","0.0-6.0-2.61","3117136","co38059","norming","","","{""curiosity"":3,""confidence"":2}","[0,1]","../img/tt/1171tt.jpg","",""
"25823.04500002647","","","recognition","survey-text","436","1597550","0.0-6.0-3.61","3117136","co38059","norming","","","{""guess"":""beer""}","","../img/tt/1171tt.jpg","",""
"null","../img/gs/1171gs.jpg","null","reveal","image-keyboard-response","437","1599552","0.0-6.0-4.61","3117136","co38059","norming","","","","","","",""
"null","../img/tt/1171tt.jpg","null","mooney2","image-keyboard-response","438","1601555","0.0-6.0-5.61","3117136","co38059","norming","","","","","","",""
"4556.314999994356","","","post_reveal_questions","survey-likert","439","1606114","0.0-6.0-6.61","3117136","co38059","norming","","","{""aha"":2}","[0]","../img/tt/1171tt.jpg","",""
"null","<div style=""font-size:60px;""> </div>","null","fixation","html-keyboard-response","440","1606319","0.0-6.0-0.62","3117136","co38059","norming","","","","","","",""
"null","../img/tt/590tt.jpg","null","mooney1","image-keyboard-response","441","1609333","0.0-6.0-1.62","3117136","co38059","norming","","","","","","",""
"4555.140000011306","","","post_mooney1_questions","survey-likert","442","1613891","0.0-6.0-2.62","3117136","co38059","norming","","","{""curiosity"":0,""confidence"":0}","[0,1]","../img/tt/590tt.jpg","",""
"1282.454999978654","","","recognition","survey-text","443","1615175","0.0-6.0-3.62","3117136","co38059","norming","","","{""guess"":""""}","","../img/tt/590tt.jpg","",""
"null","../img/gs/590gs.jpg","null","reveal","image-keyboard-response","444","1617193","0.0-6.0-4.62","3117136","co38059","norming","","","","","","",""
"null","../img/tt/590tt.jpg","null","mooney2","image-keyboard-response","445","1619201","0.0-6.0-5.62","3117136","co38059","norming","","","","","","",""
"5157.779999950435","","","post_reveal_questions","survey-likert","446","1624360","0.0-6.0-6.62","3117136","co38059","norming","","","{""aha"":4}","[0]","../img/tt/590tt.jpg","",""
"null","<div style=""font-size:60px;""> </div>","null","fixation","html-keyboard-response","447","1624563","0.0-6.0-0.63","3117136","co38059","norming","","","","","","",""
"null","../img/tt/140tt.jpg","null","mooney1","image-keyboard-response","448","1627571","0.0-6.0-1.63","3117136","co38059","norming","","","","","","",""
"6491.425000014715","","","post_mooney1_questions","survey-likert","449","1634065","0.0-6.0-2.63","3117136","co38059","norming","","","{""curiosity"":1,""confidence"":6}","[0,1]","../img/tt/140tt.jpg","",""
"6205.070000025444","","","recognition","survey-text","450","1640275","0.0-6.0-3.63","3117136","co38059","norming","","","{""guess"":""vork""}","","../img/tt/140tt.jpg","",""
"null","../img/gs/140gs.jpg","null","reveal","image-keyboard-response","451","1642278","0.0-6.0-4.63","3117136","co38059","norming","","","","","","",""
"null","../img/tt/140tt.jpg","null","mooney2","image-keyboard-response","452","1644292","0.0-6.0-5.63","3117136","co38059","norming","","","","","","",""
"4103.430000017397","","","post_reveal_questions","survey-likert","453","1648398","0.0-6.0-6.63","3117136","co38059","norming","","","{""aha"":1}","[0]","../img/tt/140tt.jpg","",""
"null","<div style=""font-size:60px;""> </div>","null","fixation","html-keyboard-response","454","1648604","0.0-6.0-0.64","3117136","co38059","norming","","","","","","",""
"null","../img/tt/1159tt.jpg","null","mooney1","image-keyboard-response","455","1651607","0.0-6.0-1.64","3117136","co38059","norming","","","","","","",""
"4702.065000019502","","","post_mooney1_questions","survey-likert","456","1656313","0.0-6.0-2.64","3117136","co38059","norming","","","{""curiosity"":1,""confidence"":1}","[0,1]","../img/tt/1159tt.jpg","",""
"1079.6299999929033","","","recognition","survey-text","457","1657396","0.0-6.0-3.64","3117136","co38059","norming","","","{""guess"":""""}","","../img/tt/1159tt.jpg","",""
"null","../img/gs/1159gs.jpg","null","reveal","image-keyboard-response","458","1659401","0.0-6.0-4.64","3117136","co38059","norming","","","","","","",""
"null","../img/tt/1159tt.jpg","null","mooney2","image-keyboard-response","459","1661415","0.0-6.0-5.64","3117136","co38059","norming","","","","","","",""
"4045.944999961648","","","post_reveal_questions","survey-likert","460","1665464","0.0-6.0-6.64","3117136","co38059","norming","","","{""aha"":0}","[0]","../img/tt/1159tt.jpg","",""
"null","<div style=""font-size:60px;""> </div>","null","fixation","html-keyboard-response","461","1665679","0.0-6.0-0.65","3117136","co38059","norming","","","","","","",""
"null","../img/tt/1189tt.jpg","null","mooney1","image-keyboard-response","462","1668682","0.0-6.0-1.65","3117136","co38059","norming","","","","","","",""
"8874.679999949876","","","post_mooney1_questions","survey-likert","463","1677560","0.0-6.0-2.65","3117136","co38059","norming","","","{""curiosity"":0,""confidence"":0}","[0,1]","../img/tt/1189tt.jpg","",""
"5479.995000001509","","","recognition","survey-text","464","1683043","0.0-6.0-3.65","3117136","co38059","norming","","","{""guess"":""schroeven""}","","../img/tt/1189tt.jpg","",""
"null","../img/gs/1189gs.jpg","null","reveal","image-keyboard-response","465","1685051","0.0-6.0-4.65","3117136","co38059","norming","","","","","","",""
"null","../img/tt/1189tt.jpg","null","mooney2","image-keyboard-response","466","1687068","0.0-6.0-5.65","3117136","co38059","norming","","","","","","",""
"4158.400000014808","","","post_reveal_questions","survey-likert","467","1691229","0.0-6.0-6.65","3117136","co38059","norming","","","{""aha"":5}","[0]","../img/tt/1189tt.jpg","",""
"null","<div style=""font-size:60px;""> </div>","null","fixation","html-keyboard-response","468","1691442","0.0-6.0-0.66","3117136","co38059","norming","","","","","","",""
"null","../img/tt/013tt.jpg","null","mooney1","image-keyboard-response","469","1694459","0.0-6.0-1.66","3117136","co38059","norming","","","","","","",""
"6134.8650000290945","","","post_mooney1_questions","survey-likert","470","1700597","0.0-6.0-2.66","3117136","co38059","norming","","","{""curiosity"":0,""confidence"":0}","[0,1]","../img/tt/013tt.jpg","",""
"1039.6700000273995","","","recognition","survey-text","471","1701641","0.0-6.0-3.66","3117136","co38059","norming","","","{""guess"":""""}","","../img/tt/013tt.jpg","",""
"null","../img/gs/013gs.jpg","null","reveal","image-keyboard-response","472","1703650","0.0-6.0-4.66","3117136","co38059","norming","","","","","","",""
"null","../img/tt/013tt.jpg","null","mooney2","image-keyboard-response","473","1705661","0.0-6.0-5.66","3117136","co38059","norming","","","","","","",""
"7769.23999999417","","","post_reveal_questions","survey-likert","474","1713433","0.0-6.0-6.66","3117136","co38059","norming","","","{""aha"":1}","[0]","../img/tt/013tt.jpg","",""
"null","<div style=""font-size:60px;""> </div>","null","fixation","html-keyboard-response","475","1713644","0.0-6.0-0.67","3117136","co38059","norming","","","","","","",""
"null","../img/tt/1049tt.jpg","null","mooney1","image-keyboard-response","476","1716648","0.0-6.0-1.67","3117136","co38059","norming","","","","","","",""
"6767.274999991059","","","post_mooney1_questions","survey-likert","477","1723418","0.0-6.0-2.67","3117136","co38059","norming","","","{""curiosity"":1,""confidence"":2}","[0,1]","../img/tt/1049tt.jpg","",""
"4078.2100000069477","","","recognition","survey-text","478","1727501","0.0-6.0-3.67","3117136","co38059","norming","","","{""guess"":""geit""}","","../img/tt/1049tt.jpg","",""
"null","../img/gs/1049gs.jpg","null","reveal","image-keyboard-response","479","1729505","0.0-6.0-4.67","3117136","co38059","norming","","","","","","",""
"null","../img/tt/1049tt.jpg","null","mooney2","image-keyboard-response","480","1731508","0.0-6.0-5.67","3117136","co38059","norming","","","","","","",""
"6247.544999991078","","","post_reveal_questions","survey-likert","481","1737759","0.0-6.0-6.67","3117136","co38059","norming","","","{""aha"":1}","[0]","../img/tt/1049tt.jpg","",""
"null","<div style=""font-size:60px;""> </div>","null","fixation","html-keyboard-response","482","1737966","0.0-6.0-0.68","3117136","co38059","norming","","","","","","",""
"null","../img/tt/1309tt.jpg","null","mooney1","image-keyboard-response","483","1740976","0.0-6.0-1.68","3117136","co38059","norming","","","","","","",""
"15812.94999999227","","","post_mooney1_questions","survey-likert","484","1756791","0.0-6.0-2.68","3117136","co38059","norming","","","{""curiosity"":4,""confidence"":0}","[0,1]","../img/tt/1309tt.jpg","",""
"7187.514999997802","","","recognition","survey-text","485","1763982","0.0-6.0-3.68","3117136","co38059","norming","","","{""guess"":""auto""}","","../img/tt/1309tt.jpg","",""
"null","../img/gs/1309gs.jpg","null","reveal","image-keyboard-response","486","1765988","0.0-6.0-4.68","3117136","co38059","norming","","","","","","",""
"null","../img/tt/1309tt.jpg","null","mooney2","image-keyboard-response","487","1767991","0.0-6.0-5.68","3117136","co38059","norming","","","","","","",""
"11311.090000031982","","","post_reveal_questions","survey-likert","488","1779305","0.0-6.0-6.68","3117136","co38059","norming","","","{""aha"":1}","[0]","../img/tt/1309tt.jpg","",""
"null","<div style=""font-size:60px;""> </div>","null","fixation","html-keyboard-response","489","1779517","0.0-6.0-0.69","3117136","co38059","norming","","","","","","",""
"null","../img/tt/357tt.jpg","null","mooney1","image-keyboard-response","490","1782523","0.0-6.0-1.69","3117136","co38059","norming","","","","","","",""
"5738.554999988992","","","post_mooney1_questions","survey-likert","491","1788265","0.0-6.0-2.69","3117136","co38059","norming","","","{""curiosity"":4,""confidence"":0}","[0,1]","../img/tt/357tt.jpg","",""
"947.2149999928661","","","recognition","survey-text","492","1789215","0.0-6.0-3.69","3117136","co38059","norming","","","{""guess"":""""}","","../img/tt/357tt.jpg","",""
"null","../img/gs/357gs.jpg","null","reveal","image-keyboard-response","493","1791239","0.0-6.0-4.69","3117136","co38059","norming","","","","","","",""
"null","../img/tt/357tt.jpg","null","mooney2","image-keyboard-response","494","1793245","0.0-6.0-5.69","3117136","co38059","norming","","","","","","",""
"13429.72000001464","","","post_reveal_questions","survey-likert","495","1806677","0.0-6.0-6.69","3117136","co38059","norming","","","{""aha"":5}","[0]","../img/tt/357tt.jpg","",""
"null","<div style=""font-size:60px;""> </div>","null","fixation","html-keyboard-response","496","1806881","0.0-6.0-0.70","3117136","co38059","norming","","","","","","",""
"null","../img/tt/078tt.jpg","null","mooney1","image-keyboard-response","497","1809894","0.0-6.0-1.70","3117136","co38059","norming","","","","","","",""
"6793.390000006184","","","post_mooney1_questions","survey-likert","498","1816691","0.0-6.0-2.70","3117136","co38059","norming","","","{""curiosity"":4,""confidence"":0}","[0,1]","../img/tt/078tt.jpg","",""
"5673.550000006799","","","recognition","survey-text","499","1822368","0.0-6.0-3.70","3117136","co38059","norming","","","{""guess"":""""}","","../img/tt/078tt.jpg","",""
"null","../img/gs/078gs.jpg","null","reveal","image-keyboard-response","500","1824373","0.0-6.0-4.70","3117136","co38059","norming","","","","","","",""
"null","../img/tt/078tt.jpg","null","mooney2","image-keyboard-response","501","1826379","0.0-6.0-5.70","3117136","co38059","norming","","","","","","",""
"3341.6699999943376","","","post_reveal_questions","survey-likert","502","1829723","0.0-6.0-6.70","3117136","co38059","norming","","","{""aha"":1}","[0]","../img/tt/078tt.jpg","",""
"null","<div style=""font-size:60px;""> </div>","null","fixation","html-keyboard-response","503","1829938","0.0-6.0-0.71","3117136","co38059","norming","","","","","","",""
"null","../img/tt/477tt.jpg","null","mooney1","image-keyboard-response","504","1832940","0.0-6.0-1.71","3117136","co38059","norming","","","","","","",""
"5829.84999998007","","","post_mooney1_questions","survey-likert","505","1838773","0.0-6.0-2.71","3117136","co38059","norming","","","{""curiosity"":2,""confidence"":0}","[0,1]","../img/tt/477tt.jpg","",""
"3055.965000006836","","","recognition","survey-text","506","1841834","0.0-6.0-3.71","3117136","co38059","norming","","","{""guess"":""bed""}","","../img/tt/477tt.jpg","",""
"null","../img/gs/477gs.jpg","null","reveal","image-keyboard-response","507","1843837","0.0-6.0-4.71","3117136","co38059","norming","","","","","","",""
"null","../img/tt/477tt.jpg","null","mooney2","image-keyboard-response","508","1845840","0.0-6.0-5.71","3117136","co38059","norming","","","","","","",""
"4577.935000008438","","","post_reveal_questions","survey-likert","509","1850420","0.0-6.0-6.71","3117136","co38059","norming","","","{""aha"":4}","[0]","../img/tt/477tt.jpg","",""
"null","<div style=""font-size:60px;""> </div>","null","fixation","html-keyboard-response","510","1850633","0.0-6.0-0.72","3117136","co38059","norming","","","","","","",""
"null","../img/tt/497tt.jpg","null","mooney1","image-keyboard-response","511","1853649","0.0-6.0-1.72","3117136","co38059","norming","","","","","","",""
"17301.190000027418","","","post_mooney1_questions","survey-likert","512","1870953","0.0-6.0-2.72","3117136","co38059","norming","","","{""curiosity"":3,""confidence"":0}","[0,1]","../img/tt/497tt.jpg","",""
"1232.335000007879","","","recognition","survey-text","513","1872188","0.0-6.0-3.72","3117136","co38059","norming","","","{""guess"":""""}","","../img/tt/497tt.jpg","",""
"null","../img/gs/497gs.jpg","null","reveal","image-keyboard-response","514","1874202","0.0-6.0-4.72","3117136","co38059","norming","","","","","","",""
"null","../img/tt/497tt.jpg","null","mooney2","image-keyboard-response","515","1876217","0.0-6.0-5.72","3117136","co38059","norming","","","","","","",""
"5125.079999968875","","","post_reveal_questions","survey-likert","516","1881344","0.0-6.0-6.72","3117136","co38059","norming","","","{""aha"":2}","[0]","../img/tt/497tt.jpg","",""
"null","<div style=""font-size:60px;""> </div>","null","fixation","html-keyboard-response","517","1881551","0.0-6.0-0.73","3117136","co38059","norming","","","","","","",""
"null","../img/tt/412tt.jpg","null","mooney1","image-keyboard-response","518","1884556","0.0-6.0-1.73","3117136","co38059","norming","","","","","","",""
"4920.085000048857","","","post_mooney1_questions","survey-likert","519","1889479","0.0-6.0-2.73","3117136","co38059","norming","","","{""curiosity"":4,""confidence"":1}","[0,1]","../img/tt/412tt.jpg","",""
"5094.044999976177","","","recognition","survey-text","520","1894577","0.0-6.0-3.73","3117136","co38059","norming","","","{""guess"":""zeep""}","","../img/tt/412tt.jpg","",""
"null","../img/gs/412gs.jpg","null","reveal","image-keyboard-response","521","1896587","0.0-6.0-4.73","3117136","co38059","norming","","","","","","",""
"null","../img/tt/412tt.jpg","null","mooney2","image-keyboard-response","522","1898600","0.0-6.0-5.73","3117136","co38059","norming","","","","","","",""
"8808.09499998577","","","post_reveal_questions","survey-likert","523","1907411","0.0-6.0-6.73","3117136","co38059","norming","","","{""aha"":1}","[0]","../img/tt/412tt.jpg","",""
"null","<div style=""font-size:60px;""> </div>","null","fixation","html-keyboard-response","524","1907625","0.0-6.0-0.74","3117136","co38059","norming","","","","","","",""
"null","../img/tt/1242tt.jpg","null","mooney1","image-keyboard-response","525","1910629","0.0-6.0-1.74","3117136","co38059","norming","","","","","","",""
"5367.810000025202","","","post_mooney1_questions","survey-likert","526","1916001","0.0-6.0-2.74","3117136","co38059","norming","","","{""curiosity"":1,""confidence"":1}","[0,1]","../img/tt/1242tt.jpg","",""
"4178.849999967497","","","recognition","survey-text","527","1920184","0.0-6.0-3.74","3117136","co38059","norming","","","{""guess"":""vos""}","","../img/tt/1242tt.jpg","",""
"null","../img/gs/1242gs.jpg","null","reveal","image-keyboard-response","528","1922195","0.0-6.0-4.74","3117136","co38059","norming","","","","","","",""
"null","../img/tt/1242tt.jpg","null","mooney2","image-keyboard-response","529","1924200","0.0-6.0-5.74","3117136","co38059","norming","","","","","","",""
"7880.70500001777","","","post_reveal_questions","survey-likert","530","1932084","0.0-6.0-6.74","3117136","co38059","norming","","","{""aha"":1}","[0]","../img/tt/1242tt.jpg","",""
"null","<div style=""font-size:60px;""> </div>","null","fixation","html-keyboard-response","531","1932295","0.0-6.0-0.75","3117136","co38059","norming","","","","","","",""
"null","../img/tt/552tt.jpg","null","mooney1","image-keyboard-response","532","1935291","0.0-6.0-1.75","3117136","co38059","norming","","","","","","",""
"5477.24500001641","","","post_mooney1_questions","survey-likert","533","1940770","0.0-6.0-2.75","3117136","co38059","norming","","","{""curiosity"":5,""confidence"":3}","[0,1]","../img/tt/552tt.jpg","",""
"4393.160000036005","","","recognition","survey-text","534","1945167","0.0-6.0-3.75","3117136","co38059","norming","","","{""guess"":""vlinder""}","","../img/tt/552tt.jpg","",""
"null","../img/gs/552gs.jpg","null","reveal","image-keyboard-response","535","1947171","0.0-6.0-4.75","3117136","co38059","norming","","","","","","",""
"null","../img/tt/552tt.jpg","null","mooney2","image-keyboard-response","536","1949182","0.0-6.0-5.75","3117136","co38059","norming","","","","","","",""
"11832.445000007283","","","post_reveal_questions","survey-likert","537","1961017","0.0-6.0-6.75","3117136","co38059","norming","","","{""aha"":1}","[0]","../img/tt/552tt.jpg","",""
"null","<div style=""font-size:60px;""> </div>","null","fixation","html-keyboard-response","538","1961231","0.0-6.0-0.76","3117136","co38059","norming","","","","","","",""
"null","../img/tt/118tt.jpg","null","mooney1","image-keyboard-response","539","1964247","0.0-6.0-1.76","3117136","co38059","norming","","","","","","",""
"4786.734999972396","","","post_mooney1_questions","survey-likert","540","1969037","0.0-6.0-2.76","3117136","co38059","norming","","","{""curiosity"":4,""confidence"":1}","[0,1]","../img/tt/118tt.jpg","",""
"4295.459999993909","","","recognition","survey-text","541","1973336","0.0-6.0-3.76","3117136","co38059","norming","","","{""guess"":""trap""}","","../img/tt/118tt.jpg","",""
"null","../img/gs/118gs.jpg","null","reveal","image-keyboard-response","542","1975347","0.0-6.0-4.76","3117136","co38059","norming","","","","","","",""
"null","../img/tt/118tt.jpg","null","mooney2","image-keyboard-response","543","1977362","0.0-6.0-5.76","3117136","co38059","norming","","","","","","",""
"3825.704999966547","","","post_reveal_questions","survey-likert","544","1981190","0.0-6.0-6.76","3117136","co38059","norming","","","{""aha"":0}","[0]","../img/tt/118tt.jpg","",""
"null","<div style=""font-size:60px;""> </div>","null","fixation","html-keyboard-response","545","1981405","0.0-6.0-0.77","3117136","co38059","norming","","","","","","",""
"null","../img/tt/1283tt.jpg","null","mooney1","image-keyboard-response","546","1984424","0.0-6.0-1.77","3117136","co38059","norming","","","","","","",""
"22769.76499997545","","","post_mooney1_questions","survey-likert","547","2007195","0.0-6.0-2.77","3117136","co38059","norming","","","{""curiosity"":3,""confidence"":0}","[0,1]","../img/tt/1283tt.jpg","",""
"1786.5549999987707","","","recognition","survey-text","548","2008985","0.0-6.0-3.77","3117136","co38059","norming","","","{""guess"":""""}","","../img/tt/1283tt.jpg","",""
"null","../img/gs/1283gs.jpg","null","reveal","image-keyboard-response","549","2010994","0.0-6.0-4.77","3117136","co38059","norming","","","","","","",""
"null","../img/tt/1283tt.jpg","null","mooney2","image-keyboard-response","550","2013012","0.0-6.0-5.77","3117136","co38059","norming","","","","","","",""
"3360.1749999797903","","","post_reveal_questions","survey-likert","551","2016375","0.0-6.0-6.77","3117136","co38059","norming","","","{""aha"":0}","[0]","../img/tt/1283tt.jpg","",""
"null","<div style=""font-size:60px;""> </div>","null","fixation","html-keyboard-response","552","2016590","0.0-6.0-0.78","3117136","co38059","norming","","","","","","",""
