"rt","stimulus","key_press","test_part","trial_type","trial_index","time_elapsed","internal_node_id","totalTime","subject","experiment_name","button_pressed","success","responses","question_order","currentStim","old","correct"
"9670.734999999695","Welcome to the experiment. This is an online experiment so please don't close the tab/window until we say goodbye.  Press any key to begin.","32","instructions","html-keyboard-response","0","9684","0.0-0.0","3044294","co38077","norming","","","","","","",""
"18654.5100000003","<div style='word-wrap: break-word; width: 900px'><h3>Please consider this information carefully before deciding whether to participate in this research</h3><ul style='text-align: left; font-size: .8em;'><li><b>Purpose of the research</b>: To examine how people process images.</li><li><b>What you will do in this research</b>:  Stimuli (images) will be presented on the computer and you will be asked different questions about them.</li><li><b>Time required</b>: Participation will take between 45 and 60 minutes to complete.</li><li><b>Risks</b>:  There are no anticipated risks associated with participating in this study. The effects of participating should be comparable to those you would experience from viewing a computer monitor for 30 minutes and using a mouse or keyboard.</li><li><b>Benefits</b>:  This study provides no benefits to you individually except for the credit. The study provides important information about the nature of perception and learning.</li><li><b>Confidentiality</b>:  Your participation in this study will remain confidential. No personally identifiable information will be associated with your data. Your de-identified data may be shared with other researchers and used in future projects.</li><li><b>Participation and withdrawal</b>:  Your participation in this study is completely voluntary and you may refuse to participate or you may choose to withdraw at any time without penalty.</li><li><b>How to contact the researchers</b>: If you have questions or concerns about your participation or payment, or want to request a summary of research findings, please contact Sander Van de Cruys (KU Leuven), at sander.vandecruys@kuleuven.be.</li></ul><p>The nature and purpose of this research have been sufficiently explained and I agree to participate in this study.  I understand that I am free to withdraw at any time without incurring any penalty.</p><p>Please consent by clicking the button below to continue. Otherwise, please exit the study at this time.</p></div>","","instructions","html-button-response","1","28340","0.0-1.0","3044294","co38077","norming","0","","","","","",""
"","","","instructions","fullscreen","2","35041","0.0-2.0","3044294","co38077","norming","","true","","","","",""
"54879.455000000235","","","sona","survey-html-form","3","89915","0.0-3.0","3044294","co38077","norming","","","[{""name"":""sonaid"",""value"":""38077""},{""name"":""debrief"",""value"":""yes""},{""name"":""datajoin"",""value"":""yes""}]","","","",""
"104991.16499999946","<div style='word-wrap: break-word; width: 900px'><h3>Instructions</h3><p>This experiment will have 3 parts. In the first part you will see a series of distorted images like the one below on the left. As you can see in the righthand image, the distorted images are derived from actual photographs. In what follows, you will <strong>briefly</strong> be presented with <strong>only</strong> the distorted image.</p> <div style='float: left; margin-right: 20px;'><img src='../img/018tt.jpg' height='250' width='250'></img></div><div style='float: right; margin-left: 20px;'><img src='../img/018gs.jpg' height='250' width='250'></img></div><p>Subsequently you will be asked a few questions about the image: One question on how <strong>curious</strong> you are about the solution and one on how <strong>confident</strong> you are that you know the solution.</p>Next, we ask you to make a guess on what is in the image. Note that it is OK to name just the <strong>basic level category</strong>. For example when you see a parrot in the image, 'parrot' will obviously be a correct answer but also correct is 'bird'. However, 'animal' will <strong>not</strong> be counted as a correct response. For the example above, 'rose' would be correct or 'flower', but not 'plant'. When soccer players are depicted, 'soccer', 'football', 'soccer players' will be correct, but not 'humans', 'outdoors', or 'sports'. You do not need to describe the image in full, just name the main object in it <strong>in one or two words</strong>. All images depict objects from one of the following broad level categories: animals, inanimate objects, plants, sports, vehicles, and food. Recognizing means knowing <strong>more</strong> than these broad labels for a given image. But we always encourage you to <strong>make a guess</strong> if you can. Note that you are allowed to use <strong>Dutch and English</strong> in your answers, whatever comes easiest for you.</p><p>Press any key to continue.</p></div>","32","instructions","html-keyboard-response","4","194915","0.0-4.0","3044294","co38077","norming","","","","","","",""
"41678.015000001295","<div style='word-wrap: break-word; width: 900px'><h3>Instructions</h3> <p>Next, the solution image will be revealed to you and you'll be asked to indicate how strong your <strong>aha-experience</strong> was after seeing the solution. This describes the positive feeling of the 'click' you sometimes experience, when the pieces of the 'puzzle' fall together and you suddenly have 'insight' in the image.</p><img src='aha.jpg' height='188' width='250'></img><p>Note that there are no right or wrong answers. We are interested in what <strong>you</strong> see in the image and how <strong>you</strong> feel about it.</p><p>Press any key to start the experiment.</p></div>","32","instructions","html-keyboard-response","5","236595","0.0-5.0","3044294","co38077","norming","","","","","","",""
"null","<div style=""font-size:60px;""> </div>","null","fixation","html-keyboard-response","6","236798","0.0-6.0-0.0","3044294","co38077","norming","","","","","","",""
"null","../img/tt/1024tt.jpg","null","mooney1","image-keyboard-response","7","239804","0.0-6.0-1.0","3044294","co38077","norming","","","","","","",""
"16148.4099999998","","","post_mooney1_questions","survey-likert","8","255959","0.0-6.0-2.0","3044294","co38077","norming","","","{""curiosity"":4,""confidence"":0}","[0,1]","../img/tt/1024tt.jpg","",""
"8773.595000000554","","","recognition","survey-text","9","264735","0.0-6.0-3.0","3044294","co38077","norming","","","{""guess"":""""}","","../img/tt/1024tt.jpg","",""
"null","../img/gs/1024gs.jpg","null","reveal","image-keyboard-response","10","266737","0.0-6.0-4.0","3044294","co38077","norming","","","","","","",""
"null","../img/tt/1024tt.jpg","null","mooney2","image-keyboard-response","11","268742","0.0-6.0-5.0","3044294","co38077","norming","","","","","","",""
"6206.395000001066","","","post_reveal_questions","survey-likert","12","274951","0.0-6.0-6.0","3044294","co38077","norming","","","{""aha"":4}","[0]","../img/tt/1024tt.jpg","",""
"null","<div style=""font-size:60px;""> </div>","null","fixation","html-keyboard-response","13","275160","0.0-6.0-0.1","3044294","co38077","norming","","","","","","",""
"null","../img/tt/031tt.jpg","null","mooney1","image-keyboard-response","14","278163","0.0-6.0-1.1","3044294","co38077","norming","","","","","","",""
"12625.459999999264","","","post_mooney1_questions","survey-likert","15","290791","0.0-6.0-2.1","3044294","co38077","norming","","","{""curiosity"":5,""confidence"":1}","[0,1]","../img/tt/031tt.jpg","",""
"4478.390000000247","","","recognition","survey-text","16","295271","0.0-6.0-3.1","3044294","co38077","norming","","","{""guess"":""horse""}","","../img/tt/031tt.jpg","",""
"null","../img/gs/031gs.jpg","null","reveal","image-keyboard-response","17","297276","0.0-6.0-4.1","3044294","co38077","norming","","","","","","",""
"null","../img/tt/031tt.jpg","null","mooney2","image-keyboard-response","18","299288","0.0-6.0-5.1","3044294","co38077","norming","","","","","","",""
"4469.005000000878","","","post_reveal_questions","survey-likert","19","303759","0.0-6.0-6.1","3044294","co38077","norming","","","{""aha"":5}","[0]","../img/tt/031tt.jpg","",""
"null","<div style=""font-size:60px;""> </div>","null","fixation","html-keyboard-response","20","303965","0.0-6.0-0.2","3044294","co38077","norming","","","","","","",""
"null","../img/tt/096tt.jpg","null","mooney1","image-keyboard-response","21","306972","0.0-6.0-1.2","3044294","co38077","norming","","","","","","",""
"6680.285000000324","","","post_mooney1_questions","survey-likert","22","313655","0.0-6.0-2.2","3044294","co38077","norming","","","{""curiosity"":5,""confidence"":1}","[0,1]","../img/tt/096tt.jpg","",""
"3934.1500000009546","","","recognition","survey-text","23","317594","0.0-6.0-3.2","3044294","co38077","norming","","","{""guess"":""naaimachine""}","","../img/tt/096tt.jpg","",""
"null","../img/gs/096gs.jpg","null","reveal","image-keyboard-response","24","319596","0.0-6.0-4.2","3044294","co38077","norming","","","","","","",""
"null","../img/tt/096tt.jpg","null","mooney2","image-keyboard-response","25","321604","0.0-6.0-5.2","3044294","co38077","norming","","","","","","",""
"2009.17999999912","","","post_reveal_questions","survey-likert","26","323618","0.0-6.0-6.2","3044294","co38077","norming","","","{""aha"":5}","[0]","../img/tt/096tt.jpg","",""
"null","<div style=""font-size:60px;""> </div>","null","fixation","html-keyboard-response","27","323819","0.0-6.0-0.3","3044294","co38077","norming","","","","","","",""
"null","../img/tt/300tt.jpg","null","mooney1","image-keyboard-response","28","326822","0.0-6.0-1.3","3044294","co38077","norming","","","","","","",""
"13576.934999999125","","","post_mooney1_questions","survey-likert","29","340402","0.0-6.0-2.3","3044294","co38077","norming","","","{""curiosity"":2,""confidence"":4}","[0,1]","../img/tt/300tt.jpg","",""
"4438.199999998673","","","recognition","survey-text","30","344842","0.0-6.0-3.3","3044294","co38077","norming","","","{""guess"":""bedelaar""}","","../img/tt/300tt.jpg","",""
"null","../img/gs/300gs.jpg","null","reveal","image-keyboard-response","31","346843","0.0-6.0-4.3","3044294","co38077","norming","","","","","","",""
"null","../img/tt/300tt.jpg","null","mooney2","image-keyboard-response","32","348847","0.0-6.0-5.3","3044294","co38077","norming","","","","","","",""
"3905.0950000000885","","","post_reveal_questions","survey-likert","33","352754","0.0-6.0-6.3","3044294","co38077","norming","","","{""aha"":2}","[0]","../img/tt/300tt.jpg","",""
"null","<div style=""font-size:60px;""> </div>","null","fixation","html-keyboard-response","34","352955","0.0-6.0-0.4","3044294","co38077","norming","","","","","","",""
"null","../img/tt/301tt.jpg","null","mooney1","image-keyboard-response","35","355963","0.0-6.0-1.4","3044294","co38077","norming","","","","","","",""
"7140.464999998629","","","post_mooney1_questions","survey-likert","36","363106","0.0-6.0-2.4","3044294","co38077","norming","","","{""curiosity"":4,""confidence"":1}","[0,1]","../img/tt/301tt.jpg","",""
"1398.0800000008312","","","recognition","survey-text","37","364506","0.0-6.0-3.4","3044294","co38077","norming","","","{""guess"":""raam""}","","../img/tt/301tt.jpg","",""
"null","../img/gs/301gs.jpg","null","reveal","image-keyboard-response","38","366511","0.0-6.0-4.4","3044294","co38077","norming","","","","","","",""
"null","../img/tt/301tt.jpg","null","mooney2","image-keyboard-response","39","368517","0.0-6.0-5.4","3044294","co38077","norming","","","","","","",""
"2715.210000000254","","","post_reveal_questions","survey-likert","40","371234","0.0-6.0-6.4","3044294","co38077","norming","","","{""aha"":4}","[0]","../img/tt/301tt.jpg","",""
"null","<div style=""font-size:60px;""> </div>","null","fixation","html-keyboard-response","41","371435","0.0-6.0-0.5","3044294","co38077","norming","","","","","","",""
"null","../img/tt/1186tt.jpg","null","mooney1","image-keyboard-response","42","374437","0.0-6.0-1.5","3044294","co38077","norming","","","","","","",""
"8521.860000000743","","","post_mooney1_questions","survey-likert","43","382965","0.0-6.0-2.5","3044294","co38077","norming","","","{""curiosity"":4,""confidence"":1}","[0,1]","../img/tt/1186tt.jpg","",""
"2830.0550000004005","","","recognition","survey-text","44","385796","0.0-6.0-3.5","3044294","co38077","norming","","","{""guess"":""kind""}","","../img/tt/1186tt.jpg","",""
"null","../img/gs/1186gs.jpg","null","reveal","image-keyboard-response","45","387797","0.0-6.0-4.5","3044294","co38077","norming","","","","","","",""
"null","../img/tt/1186tt.jpg","null","mooney2","image-keyboard-response","46","389806","0.0-6.0-5.5","3044294","co38077","norming","","","","","","",""
"2668.7649999985006","","","post_reveal_questions","survey-likert","47","392476","0.0-6.0-6.5","3044294","co38077","norming","","","{""aha"":4}","[0]","../img/tt/1186tt.jpg","",""
"null","<div style=""font-size:60px;""> </div>","null","fixation","html-keyboard-response","48","392678","0.0-6.0-0.6","3044294","co38077","norming","","","","","","",""
"null","../img/tt/222tt.jpg","null","mooney1","image-keyboard-response","49","395687","0.0-6.0-1.6","3044294","co38077","norming","","","","","","",""
"4596.2549999985495","","","post_mooney1_questions","survey-likert","50","400285","0.0-6.0-2.6","3044294","co38077","norming","","","{""curiosity"":4,""confidence"":1}","[0,1]","../img/tt/222tt.jpg","",""
"4190.10499999969","","","recognition","survey-text","51","404476","0.0-6.0-3.6","3044294","co38077","norming","","","{""guess"":""eten""}","","../img/tt/222tt.jpg","",""
"null","../img/gs/222gs.jpg","null","reveal","image-keyboard-response","52","406480","0.0-6.0-4.6","3044294","co38077","norming","","","","","","",""
"null","../img/tt/222tt.jpg","null","mooney2","image-keyboard-response","53","408487","0.0-6.0-5.6","3044294","co38077","norming","","","","","","",""
"3379.1750000000466","","","post_reveal_questions","survey-likert","54","411869","0.0-6.0-6.6","3044294","co38077","norming","","","{""aha"":5}","[0]","../img/tt/222tt.jpg","",""
"null","<div style=""font-size:60px;""> </div>","null","fixation","html-keyboard-response","55","412075","0.0-6.0-0.7","3044294","co38077","norming","","","","","","",""
"null","../img/tt/1189tt.jpg","null","mooney1","image-keyboard-response","56","415083","0.0-6.0-1.7","3044294","co38077","norming","","","","","","",""
"6126.9750000010245","","","post_mooney1_questions","survey-likert","57","421213","0.0-6.0-2.7","3044294","co38077","norming","","","{""curiosity"":5,""confidence"":1}","[0,1]","../img/tt/1189tt.jpg","",""
"1630.1599999988102","","","recognition","survey-text","58","422845","0.0-6.0-3.7","3044294","co38077","norming","","","{""guess"":""eend""}","","../img/tt/1189tt.jpg","",""
"null","../img/gs/1189gs.jpg","null","reveal","image-keyboard-response","59","424850","0.0-6.0-4.7","3044294","co38077","norming","","","","","","",""
"null","../img/tt/1189tt.jpg","null","mooney2","image-keyboard-response","60","426853","0.0-6.0-5.7","3044294","co38077","norming","","","","","","",""
"3069.3350000001374","","","post_reveal_questions","survey-likert","61","429925","0.0-6.0-6.7","3044294","co38077","norming","","","{""aha"":5}","[0]","../img/tt/1189tt.jpg","",""
"null","<div style=""font-size:60px;""> </div>","null","fixation","html-keyboard-response","62","430126","0.0-6.0-0.8","3044294","co38077","norming","","","","","","",""
"null","../img/tt/1228tt.jpg","null","mooney1","image-keyboard-response","63","433138","0.0-6.0-1.8","3044294","co38077","norming","","","","","","",""
"7400.014999999257","","","post_mooney1_questions","survey-likert","64","440538","0.0-6.0-2.8","3044294","co38077","norming","","","{""curiosity"":4,""confidence"":1}","[0,1]","../img/tt/1228tt.jpg","",""
"1933.9700000000303","","","recognition","survey-text","65","442474","0.0-6.0-3.8","3044294","co38077","norming","","","{""guess"":""vogel""}","","../img/tt/1228tt.jpg","",""
"null","../img/gs/1228gs.jpg","null","reveal","image-keyboard-response","66","444475","0.0-6.0-4.8","3044294","co38077","norming","","","","","","",""
"null","../img/tt/1228tt.jpg","null","mooney2","image-keyboard-response","67","446486","0.0-6.0-5.8","3044294","co38077","norming","","","","","","",""
"2545.8149999994785","","","post_reveal_questions","survey-likert","68","449034","0.0-6.0-6.8","3044294","co38077","norming","","","{""aha"":4}","[0]","../img/tt/1228tt.jpg","",""
"null","<div style=""font-size:60px;""> </div>","null","fixation","html-keyboard-response","69","449236","0.0-6.0-0.9","3044294","co38077","norming","","","","","","",""
"null","../img/tt/1143tt.jpg","null","mooney1","image-keyboard-response","70","452242","0.0-6.0-1.9","3044294","co38077","norming","","","","","","",""
"6270.055000000866","","","post_mooney1_questions","survey-likert","71","458514","0.0-6.0-2.9","3044294","co38077","norming","","","{""curiosity"":6,""confidence"":0}","[0,1]","../img/tt/1143tt.jpg","",""
"4046.135000000533","","","recognition","survey-text","72","462562","0.0-6.0-3.9","3044294","co38077","norming","","","{""guess"":""""}","","../img/tt/1143tt.jpg","",""
"null","../img/gs/1143gs.jpg","null","reveal","image-keyboard-response","73","464566","0.0-6.0-4.9","3044294","co38077","norming","","","","","","",""
"null","../img/tt/1143tt.jpg","null","mooney2","image-keyboard-response","74","466567","0.0-6.0-5.9","3044294","co38077","norming","","","","","","",""
"7808.714999999211","","","post_reveal_questions","survey-likert","75","474378","0.0-6.0-6.9","3044294","co38077","norming","","","{""aha"":5}","[0]","../img/tt/1143tt.jpg","",""
"null","<div style=""font-size:60px;""> </div>","null","fixation","html-keyboard-response","76","474580","0.0-6.0-0.10","3044294","co38077","norming","","","","","","",""
"null","../img/tt/436tt.jpg","null","mooney1","image-keyboard-response","77","477588","0.0-6.0-1.10","3044294","co38077","norming","","","","","","",""
"11699.710000000778","","","post_mooney1_questions","survey-likert","78","489290","0.0-6.0-2.10","3044294","co38077","norming","","","{""curiosity"":5,""confidence"":1}","[0,1]","../img/tt/436tt.jpg","",""
"1678.7050000003073","","","recognition","survey-text","79","490970","0.0-6.0-3.10","3044294","co38077","norming","","","{""guess"":""water""}","","../img/tt/436tt.jpg","",""
"null","../img/gs/436gs.jpg","null","reveal","image-keyboard-response","80","492975","0.0-6.0-4.10","3044294","co38077","norming","","","","","","",""
"null","../img/tt/436tt.jpg","null","mooney2","image-keyboard-response","81","494979","0.0-6.0-5.10","3044294","co38077","norming","","","","","","",""
"3595.9299999995274","","","post_reveal_questions","survey-likert","82","498578","0.0-6.0-6.10","3044294","co38077","norming","","","{""aha"":5}","[0]","../img/tt/436tt.jpg","",""
"null","<div style=""font-size:60px;""> </div>","null","fixation","html-keyboard-response","83","498779","0.0-6.0-0.11","3044294","co38077","norming","","","","","","",""
"null","../img/tt/1070tt.jpg","null","mooney1","image-keyboard-response","84","501791","0.0-6.0-1.11","3044294","co38077","norming","","","","","","",""
"7177.465000000666","","","post_mooney1_questions","survey-likert","85","508969","0.0-6.0-2.11","3044294","co38077","norming","","","{""curiosity"":5,""confidence"":0}","[0,1]","../img/tt/1070tt.jpg","",""
"9126.114999999118","","","recognition","survey-text","86","518097","0.0-6.0-3.11","3044294","co38077","norming","","","{""guess"":""dier""}","","../img/tt/1070tt.jpg","",""
"null","../img/gs/1070gs.jpg","null","reveal","image-keyboard-response","87","520099","0.0-6.0-4.11","3044294","co38077","norming","","","","","","",""
"null","../img/tt/1070tt.jpg","null","mooney2","image-keyboard-response","88","522109","0.0-6.0-5.11","3044294","co38077","norming","","","","","","",""
"2601.4849999992875","","","post_reveal_questions","survey-likert","89","524713","0.0-6.0-6.11","3044294","co38077","norming","","","{""aha"":5}","[0]","../img/tt/1070tt.jpg","",""
"null","<div style=""font-size:60px;""> </div>","null","fixation","html-keyboard-response","90","524914","0.0-6.0-0.12","3044294","co38077","norming","","","","","","",""
"null","../img/tt/140tt.jpg","null","mooney1","image-keyboard-response","91","527925","0.0-6.0-1.12","3044294","co38077","norming","","","","","","",""
"5601.390000001644","","","post_mooney1_questions","survey-likert","92","533529","0.0-6.0-2.12","3044294","co38077","norming","","","{""curiosity"":2,""confidence"":5}","[0,1]","../img/tt/140tt.jpg","",""
"1430.3349999991478","","","recognition","survey-text","93","534961","0.0-6.0-3.12","3044294","co38077","norming","","","{""guess"":""vork""}","","../img/tt/140tt.jpg","",""
"null","../img/gs/140gs.jpg","null","reveal","image-keyboard-response","94","536963","0.0-6.0-4.12","3044294","co38077","norming","","","","","","",""
"null","../img/tt/140tt.jpg","null","mooney2","image-keyboard-response","95","538971","0.0-6.0-5.12","3044294","co38077","norming","","","","","","",""
"2972.6150000005728","","","post_reveal_questions","survey-likert","96","541945","0.0-6.0-6.12","3044294","co38077","norming","","","{""aha"":1}","[0]","../img/tt/140tt.jpg","",""
"null","<div style=""font-size:60px;""> </div>","null","fixation","html-keyboard-response","97","542148","0.0-6.0-0.13","3044294","co38077","norming","","","","","","",""
"null","../img/tt/1241tt.jpg","null","mooney1","image-keyboard-response","98","545156","0.0-6.0-1.13","3044294","co38077","norming","","","","","","",""
"3267.345000000205","","","post_mooney1_questions","survey-likert","99","548425","0.0-6.0-2.13","3044294","co38077","norming","","","{""curiosity"":5,""confidence"":1}","[0,1]","../img/tt/1241tt.jpg","",""
"8630.279999999446","","","recognition","survey-text","100","557057","0.0-6.0-3.13","3044294","co38077","norming","","","{""guess"":""mensen""}","","../img/tt/1241tt.jpg","",""
"null","../img/gs/1241gs.jpg","null","reveal","image-keyboard-response","101","559059","0.0-6.0-4.13","3044294","co38077","norming","","","","","","",""
"null","../img/tt/1241tt.jpg","null","mooney2","image-keyboard-response","102","561070","0.0-6.0-5.13","3044294","co38077","norming","","","","","","",""
"2392.480000000447","","","post_reveal_questions","survey-likert","103","563465","0.0-6.0-6.13","3044294","co38077","norming","","","{""aha"":6}","[0]","../img/tt/1241tt.jpg","",""
"null","<div style=""font-size:60px;""> </div>","null","fixation","html-keyboard-response","104","563667","0.0-6.0-0.14","3044294","co38077","norming","","","","","","",""
"null","../img/tt/534tt.jpg","null","mooney1","image-keyboard-response","105","566676","0.0-6.0-1.14","3044294","co38077","norming","","","","","","",""
"4675.950000000768","","","post_mooney1_questions","survey-likert","106","571353","0.0-6.0-2.14","3044294","co38077","norming","","","{""curiosity"":5,""confidence"":1}","[0,1]","../img/tt/534tt.jpg","",""
"1845.9349999993574","","","recognition","survey-text","107","573201","0.0-6.0-3.14","3044294","co38077","norming","","","{""guess"":""boom""}","","../img/tt/534tt.jpg","",""
"null","../img/gs/534gs.jpg","null","reveal","image-keyboard-response","108","575203","0.0-6.0-4.14","3044294","co38077","norming","","","","","","",""
"null","../img/tt/534tt.jpg","null","mooney2","image-keyboard-response","109","577211","0.0-6.0-5.14","3044294","co38077","norming","","","","","","",""
"2915.3450000012526","","","post_reveal_questions","survey-likert","110","580129","0.0-6.0-6.14","3044294","co38077","norming","","","{""aha"":5}","[0]","../img/tt/534tt.jpg","",""
"null","<div style=""font-size:60px;""> </div>","null","fixation","html-keyboard-response","111","580330","0.0-6.0-0.15","3044294","co38077","norming","","","","","","",""
"null","../img/tt/084tt.jpg","null","mooney1","image-keyboard-response","112","583339","0.0-6.0-1.15","3044294","co38077","norming","","","","","","",""
"6675.380000000587","","","post_mooney1_questions","survey-likert","113","590017","0.0-6.0-2.15","3044294","co38077","norming","","","{""curiosity"":5,""confidence"":2}","[0,1]","../img/tt/084tt.jpg","",""
"990.8599999998696","","","recognition","survey-text","114","591009","0.0-6.0-3.15","3044294","co38077","norming","","","{""guess"":""eend""}","","../img/tt/084tt.jpg","",""
"null","../img/gs/084gs.jpg","null","reveal","image-keyboard-response","115","593015","0.0-6.0-4.15","3044294","co38077","norming","","","","","","",""
"null","../img/tt/084tt.jpg","null","mooney2","image-keyboard-response","116","595024","0.0-6.0-5.15","3044294","co38077","norming","","","","","","",""
"3239.1699999988778","","","post_reveal_questions","survey-likert","117","598265","0.0-6.0-6.15","3044294","co38077","norming","","","{""aha"":2}","[0]","../img/tt/084tt.jpg","",""
"null","<div style=""font-size:60px;""> </div>","null","fixation","html-keyboard-response","118","598466","0.0-6.0-0.16","3044294","co38077","norming","","","","","","",""
"null","../img/tt/552tt.jpg","null","mooney1","image-keyboard-response","119","601472","0.0-6.0-1.16","3044294","co38077","norming","","","","","","",""
"5542.425000001444","","","post_mooney1_questions","survey-likert","120","607017","0.0-6.0-2.16","3044294","co38077","norming","","","{""curiosity"":5,""confidence"":0}","[0,1]","../img/tt/552tt.jpg","",""
"1334.1700000001583","","","recognition","survey-text","121","608353","0.0-6.0-3.16","3044294","co38077","norming","","","{""guess"":""baby""}","","../img/tt/552tt.jpg","",""
"null","../img/gs/552gs.jpg","null","reveal","image-keyboard-response","122","610356","0.0-6.0-4.16","3044294","co38077","norming","","","","","","",""
"null","../img/tt/552tt.jpg","null","mooney2","image-keyboard-response","123","612361","0.0-6.0-5.16","3044294","co38077","norming","","","","","","",""
"2821.2249999996275","","","post_reveal_questions","survey-likert","124","615184","0.0-6.0-6.16","3044294","co38077","norming","","","{""aha"":5}","[0]","../img/tt/552tt.jpg","",""
"null","<div style=""font-size:60px;""> </div>","null","fixation","html-keyboard-response","125","615386","0.0-6.0-0.17","3044294","co38077","norming","","","","","","",""
"null","../img/tt/1156tt.jpg","null","mooney1","image-keyboard-response","126","618397","0.0-6.0-1.17","3044294","co38077","norming","","","","","","",""
"11201.73000000068","","","post_mooney1_questions","survey-likert","127","629592","0.0-6.0-2.17","3044294","co38077","norming","","","{""curiosity"":4,""confidence"":2}","[0,1]","../img/tt/1156tt.jpg","",""
"9598.094999999274","","","recognition","survey-text","128","639192","0.0-6.0-3.17","3044294","co38077","norming","","","{""guess"":""vrouw zonnen""}","","../img/tt/1156tt.jpg","",""
"null","../img/gs/1156gs.jpg","null","reveal","image-keyboard-response","129","641195","0.0-6.0-4.17","3044294","co38077","norming","","","","","","",""
"null","../img/tt/1156tt.jpg","null","mooney2","image-keyboard-response","130","643204","0.0-6.0-5.17","3044294","co38077","norming","","","","","","",""
"3379.1600000004983","","","post_reveal_questions","survey-likert","131","646584","0.0-6.0-6.17","3044294","co38077","norming","","","{""aha"":1}","[0]","../img/tt/1156tt.jpg","",""
"null","<div style=""font-size:60px;""> </div>","null","fixation","html-keyboard-response","132","646785","0.0-6.0-0.18","3044294","co38077","norming","","","","","","",""
"null","../img/tt/1234tt.jpg","null","mooney1","image-keyboard-response","133","649796","0.0-6.0-1.18","3044294","co38077","norming","","","","","","",""
"2771.2749999992084","","","post_mooney1_questions","survey-likert","134","652568","0.0-6.0-2.18","3044294","co38077","norming","","","{""curiosity"":4,""confidence"":2}","[0,1]","../img/tt/1234tt.jpg","",""
"1086.065000001341","","","recognition","survey-text","135","653656","0.0-6.0-3.18","3044294","co38077","norming","","","{""guess"":""eend""}","","../img/tt/1234tt.jpg","",""
"null","../img/gs/1234gs.jpg","null","reveal","image-keyboard-response","136","655657","0.0-6.0-4.18","3044294","co38077","norming","","","","","","",""
"null","../img/tt/1234tt.jpg","null","mooney2","image-keyboard-response","137","657660","0.0-6.0-5.18","3044294","co38077","norming","","","","","","",""
"3066.445000000298","","","post_reveal_questions","survey-likert","138","660728","0.0-6.0-6.18","3044294","co38077","norming","","","{""aha"":1}","[0]","../img/tt/1234tt.jpg","",""
"null","<div style=""font-size:60px;""> </div>","null","fixation","html-keyboard-response","139","660930","0.0-6.0-0.19","3044294","co38077","norming","","","","","","",""
"null","../img/tt/412tt.jpg","null","mooney1","image-keyboard-response","140","663934","0.0-6.0-1.19","3044294","co38077","norming","","","","","","",""
"2359.6200000011595","","","post_mooney1_questions","survey-likert","141","666296","0.0-6.0-2.19","3044294","co38077","norming","","","{""curiosity"":4,""confidence"":2}","[0,1]","../img/tt/412tt.jpg","",""
"1294.4200000001583","","","recognition","survey-text","142","667592","0.0-6.0-3.19","3044294","co38077","norming","","","{""guess"":""kraan""}","","../img/tt/412tt.jpg","",""
"null","../img/gs/412gs.jpg","null","reveal","image-keyboard-response","143","669593","0.0-6.0-4.19","3044294","co38077","norming","","","","","","",""
"null","../img/tt/412tt.jpg","null","mooney2","image-keyboard-response","144","671598","0.0-6.0-5.19","3044294","co38077","norming","","","","","","",""
"2632.185000000405","","","post_reveal_questions","survey-likert","145","674232","0.0-6.0-6.19","3044294","co38077","norming","","","{""aha"":5}","[0]","../img/tt/412tt.jpg","",""
"null","<div style=""font-size:60px;""> </div>","null","fixation","html-keyboard-response","146","674433","0.0-6.0-0.20","3044294","co38077","norming","","","","","","",""
"null","../img/tt/1236tt.jpg","null","mooney1","image-keyboard-response","147","677442","0.0-6.0-1.20","3044294","co38077","norming","","","","","","",""
"24507.60000000079","","","post_mooney1_questions","survey-likert","148","701959","0.0-6.0-2.20","3044294","co38077","norming","","","{""curiosity"":6,""confidence"":0}","[0,1]","../img/tt/1236tt.jpg","",""
"3125.9650000011316","","","recognition","survey-text","149","705087","0.0-6.0-3.20","3044294","co38077","norming","","","{""guess"":""vrouw""}","","../img/tt/1236tt.jpg","",""
"null","../img/gs/1236gs.jpg","null","reveal","image-keyboard-response","150","707095","0.0-6.0-4.20","3044294","co38077","norming","","","","","","",""
"null","../img/tt/1236tt.jpg","null","mooney2","image-keyboard-response","151","709096","0.0-6.0-5.20","3044294","co38077","norming","","","","","","",""
"2604.584999999148","","","post_reveal_questions","survey-likert","152","711702","0.0-6.0-6.20","3044294","co38077","norming","","","{""aha"":4}","[0]","../img/tt/1236tt.jpg","",""
"null","<div style=""font-size:60px;""> </div>","null","fixation","html-keyboard-response","153","711907","0.0-6.0-0.21","3044294","co38077","norming","","","","","","",""
"null","../img/tt/1061tt.jpg","null","mooney1","image-keyboard-response","154","714914","0.0-6.0-1.21","3044294","co38077","norming","","","","","","",""
"5736.659999998752","","","post_mooney1_questions","survey-likert","155","720655","0.0-6.0-2.21","3044294","co38077","norming","","","{""curiosity"":5,""confidence"":1}","[0,1]","../img/tt/1061tt.jpg","",""
"2286.1799999992363","","","recognition","survey-text","156","722942","0.0-6.0-3.21","3044294","co38077","norming","","","{""guess"":""spelend kind""}","","../img/tt/1061tt.jpg","",""
"null","../img/gs/1061gs.jpg","null","reveal","image-keyboard-response","157","724944","0.0-6.0-4.21","3044294","co38077","norming","","","","","","",""
"null","../img/tt/1061tt.jpg","null","mooney2","image-keyboard-response","158","726945","0.0-6.0-5.21","3044294","co38077","norming","","","","","","",""
"2586.769999999902","","","post_reveal_questions","survey-likert","159","729534","0.0-6.0-6.21","3044294","co38077","norming","","","{""aha"":2}","[0]","../img/tt/1061tt.jpg","",""
"null","<div style=""font-size:60px;""> </div>","null","fixation","html-keyboard-response","160","729737","0.0-6.0-0.22","3044294","co38077","norming","","","","","","",""
"null","../img/tt/1243tt.jpg","null","mooney1","image-keyboard-response","161","732746","0.0-6.0-1.22","3044294","co38077","norming","","","","","","",""
"3913.9750000013737","","","post_mooney1_questions","survey-likert","162","736663","0.0-6.0-2.22","3044294","co38077","norming","","","{""curiosity"":4,""confidence"":1}","[0,1]","../img/tt/1243tt.jpg","",""
"1574.0850000001956","","","recognition","survey-text","163","738238","0.0-6.0-3.22","3044294","co38077","norming","","","{""guess"":""aap""}","","../img/tt/1243tt.jpg","",""
"null","../img/gs/1243gs.jpg","null","reveal","image-keyboard-response","164","740248","0.0-6.0-4.22","3044294","co38077","norming","","","","","","",""
"null","../img/tt/1243tt.jpg","null","mooney2","image-keyboard-response","165","742256","0.0-6.0-5.22","3044294","co38077","norming","","","","","","",""
"1748.190000000177","","","post_reveal_questions","survey-likert","166","744007","0.0-6.0-6.22","3044294","co38077","norming","","","{""aha"":4}","[0]","../img/tt/1243tt.jpg","",""
"null","<div style=""font-size:60px;""> </div>","null","fixation","html-keyboard-response","167","744215","0.0-6.0-0.23","3044294","co38077","norming","","","","","","",""
"null","../img/tt/194tt.jpg","null","mooney1","image-keyboard-response","168","747225","0.0-6.0-1.23","3044294","co38077","norming","","","","","","",""
"4027.1899999988964","","","post_mooney1_questions","survey-likert","169","751255","0.0-6.0-2.23","3044294","co38077","norming","","","{""curiosity"":4,""confidence"":2}","[0,1]","../img/tt/194tt.jpg","",""
"4086.1349999995437","","","recognition","survey-text","170","755342","0.0-6.0-3.23","3044294","co38077","norming","","","{""guess"":""vrouw bankje""}","","../img/tt/194tt.jpg","",""
"null","../img/gs/194gs.jpg","null","reveal","image-keyboard-response","171","757344","0.0-6.0-4.23","3044294","co38077","norming","","","","","","",""
"null","../img/tt/194tt.jpg","null","mooney2","image-keyboard-response","172","759346","0.0-6.0-5.23","3044294","co38077","norming","","","","","","",""
"2538.169999999809","","","post_reveal_questions","survey-likert","173","761889","0.0-6.0-6.23","3044294","co38077","norming","","","{""aha"":2}","[0]","../img/tt/194tt.jpg","",""
"null","<div style=""font-size:60px;""> </div>","null","fixation","html-keyboard-response","174","762091","0.0-6.0-0.24","3044294","co38077","norming","","","","","","",""
"null","../img/tt/1363tt.jpg","null","mooney1","image-keyboard-response","175","765097","0.0-6.0-1.24","3044294","co38077","norming","","","","","","",""
"10692.914999999572","","","post_mooney1_questions","survey-likert","176","775792","0.0-6.0-2.24","3044294","co38077","norming","","","{""curiosity"":5,""confidence"":1}","[0,1]","../img/tt/1363tt.jpg","",""
"2558.434999999008","","","recognition","survey-text","177","778353","0.0-6.0-3.24","3044294","co38077","norming","","","{""guess"":""kom""}","","../img/tt/1363tt.jpg","",""
"null","../img/gs/1363gs.jpg","null","reveal","image-keyboard-response","178","780354","0.0-6.0-4.24","3044294","co38077","norming","","","","","","",""
"null","../img/tt/1363tt.jpg","null","mooney2","image-keyboard-response","179","782355","0.0-6.0-5.24","3044294","co38077","norming","","","","","","",""
"5875.6599999998","","","post_reveal_questions","survey-likert","180","788233","0.0-6.0-6.24","3044294","co38077","norming","","","{""aha"":2}","[0]","../img/tt/1363tt.jpg","",""
"null","<div style=""font-size:60px;""> </div>","null","fixation","html-keyboard-response","181","788437","0.0-6.0-0.25","3044294","co38077","norming","","","","","","",""
"null","../img/tt/1086tt.jpg","null","mooney1","image-keyboard-response","182","791438","0.0-6.0-1.25","3044294","co38077","norming","","","","","","",""
"7425.515000000829","","","post_mooney1_questions","survey-likert","183","798865","0.0-6.0-2.25","3044294","co38077","norming","","","{""curiosity"":5,""confidence"":1}","[0,1]","../img/tt/1086tt.jpg","",""
"1486.2699999994365","","","recognition","survey-text","184","800353","0.0-6.0-3.25","3044294","co38077","norming","","","{""guess"":""wasbeer""}","","../img/tt/1086tt.jpg","",""
"null","../img/gs/1086gs.jpg","null","reveal","image-keyboard-response","185","802357","0.0-6.0-4.25","3044294","co38077","norming","","","","","","",""
"null","../img/tt/1086tt.jpg","null","mooney2","image-keyboard-response","186","804363","0.0-6.0-5.25","3044294","co38077","norming","","","","","","",""
"2682.955000000191","","","post_reveal_questions","survey-likert","187","807048","0.0-6.0-6.25","3044294","co38077","norming","","","{""aha"":5}","[0]","../img/tt/1086tt.jpg","",""
"null","<div style=""font-size:60px;""> </div>","null","fixation","html-keyboard-response","188","807250","0.0-6.0-0.26","3044294","co38077","norming","","","","","","",""
"null","../img/tt/603tt.jpg","null","mooney1","image-keyboard-response","189","810260","0.0-6.0-1.26","3044294","co38077","norming","","","","","","",""
"4465.369999999879","","","post_mooney1_questions","survey-likert","190","814729","0.0-6.0-2.26","3044294","co38077","norming","","","{""curiosity"":5,""confidence"":2}","[0,1]","../img/tt/603tt.jpg","",""
"1077.8250000003027","","","recognition","survey-text","191","815808","0.0-6.0-3.26","3044294","co38077","norming","","","{""guess"":""kat""}","","../img/tt/603tt.jpg","",""
"null","../img/gs/603gs.jpg","null","reveal","image-keyboard-response","192","817811","0.0-6.0-4.26","3044294","co38077","norming","","","","","","",""
"null","../img/tt/603tt.jpg","null","mooney2","image-keyboard-response","193","819820","0.0-6.0-5.26","3044294","co38077","norming","","","","","","",""
"2171.6849999993574","","","post_reveal_questions","survey-likert","194","821991","0.0-6.0-6.26","3044294","co38077","norming","","","{""aha"":5}","[0]","../img/tt/603tt.jpg","",""
"null","<div style=""font-size:60px;""> </div>","null","fixation","html-keyboard-response","195","822192","0.0-6.0-0.27","3044294","co38077","norming","","","","","","",""
"null","../img/tt/315tt.jpg","null","mooney1","image-keyboard-response","196","825196","0.0-6.0-1.27","3044294","co38077","norming","","","","","","",""
"4313.120000000694","","","post_mooney1_questions","survey-likert","197","829512","0.0-6.0-2.27","3044294","co38077","norming","","","{""curiosity"":4,""confidence"":3}","[0,1]","../img/tt/315tt.jpg","",""
"1413.9949999989476","","","recognition","survey-text","198","830928","0.0-6.0-3.27","3044294","co38077","norming","","","{""guess"":""kat""}","","../img/tt/315tt.jpg","",""
"null","../img/gs/315gs.jpg","null","reveal","image-keyboard-response","199","832930","0.0-6.0-4.27","3044294","co38077","norming","","","","","","",""
"null","../img/tt/315tt.jpg","null","mooney2","image-keyboard-response","200","834932","0.0-6.0-5.27","3044294","co38077","norming","","","","","","",""
"4297.414999999106","","","post_reveal_questions","survey-likert","201","839232","0.0-6.0-6.27","3044294","co38077","norming","","","{""aha"":1}","[0]","../img/tt/315tt.jpg","",""
"null","<div style=""font-size:60px;""> </div>","null","fixation","html-keyboard-response","202","839433","0.0-6.0-0.28","3044294","co38077","norming","","","","","","",""
"null","../img/tt/044tt.jpg","null","mooney1","image-keyboard-response","203","842442","0.0-6.0-1.28","3044294","co38077","norming","","","","","","",""
"6979.384999998729","","","post_mooney1_questions","survey-likert","204","849424","0.0-6.0-2.28","3044294","co38077","norming","","","{""curiosity"":4,""confidence"":1}","[0,1]","../img/tt/044tt.jpg","",""
"2190.344999999157","","","recognition","survey-text","205","851616","0.0-6.0-3.28","3044294","co38077","norming","","","{""guess"":""bureau""}","","../img/tt/044tt.jpg","",""
"null","../img/gs/044gs.jpg","null","reveal","image-keyboard-response","206","853625","0.0-6.0-4.28","3044294","co38077","norming","","","","","","",""
"null","../img/tt/044tt.jpg","null","mooney2","image-keyboard-response","207","855631","0.0-6.0-5.28","3044294","co38077","norming","","","","","","",""
"2038.0999999998603","","","post_reveal_questions","survey-likert","208","857671","0.0-6.0-6.28","3044294","co38077","norming","","","{""aha"":6}","[0]","../img/tt/044tt.jpg","",""
"null","<div style=""font-size:60px;""> </div>","null","fixation","html-keyboard-response","209","857873","0.0-6.0-0.29","3044294","co38077","norming","","","","","","",""
"null","../img/tt/1053tt.jpg","null","mooney1","image-keyboard-response","210","860879","0.0-6.0-1.29","3044294","co38077","norming","","","","","","",""
"6031.48499999952","","","post_mooney1_questions","survey-likert","211","866912","0.0-6.0-2.29","3044294","co38077","norming","","","{""curiosity"":5,""confidence"":2}","[0,1]","../img/tt/1053tt.jpg","",""
"6446.065000000177","","","recognition","survey-text","212","873359","0.0-6.0-3.29","3044294","co38077","norming","","","{""guess"":""neushoorn""}","","../img/tt/1053tt.jpg","",""
"null","../img/gs/1053gs.jpg","null","reveal","image-keyboard-response","213","875366","0.0-6.0-4.29","3044294","co38077","norming","","","","","","",""
"null","../img/tt/1053tt.jpg","null","mooney2","image-keyboard-response","214","877368","0.0-6.0-5.29","3044294","co38077","norming","","","","","","",""
"3453.5749999994878","","","post_reveal_questions","survey-likert","215","880824","0.0-6.0-6.29","3044294","co38077","norming","","","{""aha"":1}","[0]","../img/tt/1053tt.jpg","",""
"null","<div style=""font-size:60px;""> </div>","null","fixation","html-keyboard-response","216","881025","0.0-6.0-0.30","3044294","co38077","norming","","","","","","",""
"null","../img/tt/468tt.jpg","null","mooney1","image-keyboard-response","217","884028","0.0-6.0-1.30","3044294","co38077","norming","","","","","","",""
"5977.139999999083","","","post_mooney1_questions","survey-likert","218","890009","0.0-6.0-2.30","3044294","co38077","norming","","","{""curiosity"":5,""confidence"":1}","[0,1]","../img/tt/468tt.jpg","",""
"1270.0099999983795","","","recognition","survey-text","219","891281","0.0-6.0-3.30","3044294","co38077","norming","","","{""guess"":""hoed""}","","../img/tt/468tt.jpg","",""
"null","../img/gs/468gs.jpg","null","reveal","image-keyboard-response","220","893283","0.0-6.0-4.30","3044294","co38077","norming","","","","","","",""
"null","../img/tt/468tt.jpg","null","mooney2","image-keyboard-response","221","895291","0.0-6.0-5.30","3044294","co38077","norming","","","","","","",""
"1724.4449999998324","","","post_reveal_questions","survey-likert","222","897017","0.0-6.0-6.30","3044294","co38077","norming","","","{""aha"":6}","[0]","../img/tt/468tt.jpg","",""
"null","<div style=""font-size:60px;""> </div>","null","fixation","html-keyboard-response","223","897218","0.0-6.0-0.31","3044294","co38077","norming","","","","","","",""
"null","../img/tt/118tt.jpg","null","mooney1","image-keyboard-response","224","900219","0.0-6.0-1.31","3044294","co38077","norming","","","","","","",""
"6396.239999999991","","","post_mooney1_questions","survey-likert","225","906617","0.0-6.0-2.31","3044294","co38077","norming","","","{""curiosity"":5,""confidence"":1}","[0,1]","../img/tt/118tt.jpg","",""
"1461.6949999999488","","","recognition","survey-text","226","908080","0.0-6.0-3.31","3044294","co38077","norming","","","{""guess"":""stoel""}","","../img/tt/118tt.jpg","",""
"null","../img/gs/118gs.jpg","null","reveal","image-keyboard-response","227","910089","0.0-6.0-4.31","3044294","co38077","norming","","","","","","",""
"null","../img/tt/118tt.jpg","null","mooney2","image-keyboard-response","228","912090","0.0-6.0-5.31","3044294","co38077","norming","","","","","","",""
"2302.004999999539","","","post_reveal_questions","survey-likert","229","914393","0.0-6.0-6.31","3044294","co38077","norming","","","{""aha"":1}","[0]","../img/tt/118tt.jpg","",""
"null","<div style=""font-size:60px;""> </div>","null","fixation","html-keyboard-response","230","914594","0.0-6.0-0.32","3044294","co38077","norming","","","","","","",""
"null","../img/tt/007tt.jpg","null","mooney1","image-keyboard-response","231","917602","0.0-6.0-1.32","3044294","co38077","norming","","","","","","",""
"3101.5999999998603","","","post_mooney1_questions","survey-likert","232","920705","0.0-6.0-2.32","3044294","co38077","norming","","","{""curiosity"":5,""confidence"":1}","[0,1]","../img/tt/007tt.jpg","",""
"1822.304999999702","","","recognition","survey-text","233","922529","0.0-6.0-3.32","3044294","co38077","norming","","","{""guess"":""aap""}","","../img/tt/007tt.jpg","",""
"null","../img/gs/007gs.jpg","null","reveal","image-keyboard-response","234","924533","0.0-6.0-4.32","3044294","co38077","norming","","","","","","",""
"null","../img/tt/007tt.jpg","null","mooney2","image-keyboard-response","235","926536","0.0-6.0-5.32","3044294","co38077","norming","","","","","","",""
"2895.015000000014","","","post_reveal_questions","survey-likert","236","929433","0.0-6.0-6.32","3044294","co38077","norming","","","{""aha"":5}","[0]","../img/tt/007tt.jpg","",""
"null","<div style=""font-size:60px;""> </div>","null","fixation","html-keyboard-response","237","929634","0.0-6.0-0.33","3044294","co38077","norming","","","","","","",""
"null","../img/tt/481tt.jpg","null","mooney1","image-keyboard-response","238","932636","0.0-6.0-1.33","3044294","co38077","norming","","","","","","",""
"6737.9700000000885","","","post_mooney1_questions","survey-likert","239","939377","0.0-6.0-2.33","3044294","co38077","norming","","","{""curiosity"":2,""confidence"":5}","[0,1]","../img/tt/481tt.jpg","",""
"1389.9399999991292","","","recognition","survey-text","240","940769","0.0-6.0-3.33","3044294","co38077","norming","","","{""guess"":""hond""}","","../img/tt/481tt.jpg","",""
"null","../img/gs/481gs.jpg","null","reveal","image-keyboard-response","241","942777","0.0-6.0-4.33","3044294","co38077","norming","","","","","","",""
"null","../img/tt/481tt.jpg","null","mooney2","image-keyboard-response","242","944784","0.0-6.0-5.33","3044294","co38077","norming","","","","","","",""
"2367.315000001341","","","post_reveal_questions","survey-likert","243","947153","0.0-6.0-6.33","3044294","co38077","norming","","","{""aha"":5}","[0]","../img/tt/481tt.jpg","",""
"null","<div style=""font-size:60px;""> </div>","null","fixation","html-keyboard-response","244","947355","0.0-6.0-0.34","3044294","co38077","norming","","","","","","",""
"null","../img/tt/435tt.jpg","null","mooney1","image-keyboard-response","245","950357","0.0-6.0-1.34","3044294","co38077","norming","","","","","","",""
"5137.919999999227","","","post_mooney1_questions","survey-likert","246","955497","0.0-6.0-2.34","3044294","co38077","norming","","","{""curiosity"":5,""confidence"":0}","[0,1]","../img/tt/435tt.jpg","",""
"853.9999999993015","","","recognition","survey-text","247","956353","0.0-6.0-3.34","3044294","co38077","norming","","","{""guess"":""""}","","../img/tt/435tt.jpg","",""
"null","../img/gs/435gs.jpg","null","reveal","image-keyboard-response","248","958356","0.0-6.0-4.34","3044294","co38077","norming","","","","","","",""
"null","../img/tt/435tt.jpg","null","mooney2","image-keyboard-response","249","960367","0.0-6.0-5.34","3044294","co38077","norming","","","","","","",""
"4544.004999999772","","","post_reveal_questions","survey-likert","250","964913","0.0-6.0-6.34","3044294","co38077","norming","","","{""aha"":6}","[0]","../img/tt/435tt.jpg","",""
"null","<div style=""font-size:60px;""> </div>","null","fixation","html-keyboard-response","251","965114","0.0-6.0-0.35","3044294","co38077","norming","","","","","","",""
"null","../img/tt/049tt.jpg","null","mooney1","image-keyboard-response","252","968117","0.0-6.0-1.35","3044294","co38077","norming","","","","","","",""
"4352.820000000065","","","post_mooney1_questions","survey-likert","253","972473","0.0-6.0-2.35","3044294","co38077","norming","","","{""curiosity"":4,""confidence"":1}","[0,1]","../img/tt/049tt.jpg","",""
"1526.309999999241","","","recognition","survey-text","254","974001","0.0-6.0-3.35","3044294","co38077","norming","","","{""guess"":""muis""}","","../img/tt/049tt.jpg","",""
"null","../img/gs/049gs.jpg","null","reveal","image-keyboard-response","255","976002","0.0-6.0-4.35","3044294","co38077","norming","","","","","","",""
"null","../img/tt/049tt.jpg","null","mooney2","image-keyboard-response","256","978003","0.0-6.0-5.35","3044294","co38077","norming","","","","","","",""
"2933.1700000002747","","","post_reveal_questions","survey-likert","257","980937","0.0-6.0-6.35","3044294","co38077","norming","","","{""aha"":5}","[0]","../img/tt/049tt.jpg","",""
"null","<div style=""font-size:60px;""> </div>","null","fixation","html-keyboard-response","258","981144","0.0-6.0-0.36","3044294","co38077","norming","","","","","","",""
"null","../img/tt/1283tt.jpg","null","mooney1","image-keyboard-response","259","984148","0.0-6.0-1.36","3044294","co38077","norming","","","","","","",""
"7330.185000000638","","","post_mooney1_questions","survey-likert","260","991481","0.0-6.0-2.36","3044294","co38077","norming","","","{""curiosity"":4,""confidence"":2}","[0,1]","../img/tt/1283tt.jpg","",""
"14326.075000000768","","","recognition","survey-text","261","1005809","0.0-6.0-3.36","3044294","co38077","norming","","","{""guess"":""kat""}","","../img/tt/1283tt.jpg","",""
"null","../img/gs/1283gs.jpg","null","reveal","image-keyboard-response","262","1007817","0.0-6.0-4.36","3044294","co38077","norming","","","","","","",""
"null","../img/tt/1283tt.jpg","null","mooney2","image-keyboard-response","263","1009818","0.0-6.0-5.36","3044294","co38077","norming","","","","","","",""
"3605.6950000001816","","","post_reveal_questions","survey-likert","264","1013425","0.0-6.0-6.36","3044294","co38077","norming","","","{""aha"":2}","[0]","../img/tt/1283tt.jpg","",""
"null","<div style=""font-size:60px;""> </div>","null","fixation","html-keyboard-response","265","1013628","0.0-6.0-0.37","3044294","co38077","norming","","","","","","",""
"null","../img/tt/163tt.jpg","null","mooney1","image-keyboard-response","266","1016631","0.0-6.0-1.37","3044294","co38077","norming","","","","","","",""
"3206.7900000001537","","","post_mooney1_questions","survey-likert","267","1019841","0.0-6.0-2.37","3044294","co38077","norming","","","{""curiosity"":3,""confidence"":3}","[0,1]","../img/tt/163tt.jpg","",""
"1630.1399999993155","","","recognition","survey-text","268","1021473","0.0-6.0-3.37","3044294","co38077","norming","","","{""guess"":""kikker""}","","../img/tt/163tt.jpg","",""
"null","../img/gs/163gs.jpg","null","reveal","image-keyboard-response","269","1023479","0.0-6.0-4.37","3044294","co38077","norming","","","","","","",""
"null","../img/tt/163tt.jpg","null","mooney2","image-keyboard-response","270","1025482","0.0-6.0-5.37","3044294","co38077","norming","","","","","","",""
"2099.7850000002654","","","post_reveal_questions","survey-likert","271","1027585","0.0-6.0-6.37","3044294","co38077","norming","","","{""aha"":1}","[0]","../img/tt/163tt.jpg","",""
"null","<div style=""font-size:60px;""> </div>","null","fixation","html-keyboard-response","272","1027786","0.0-6.0-0.38","3044294","co38077","norming","","","","","","",""
"null","../img/tt/111tt.jpg","null","mooney1","image-keyboard-response","273","1030788","0.0-6.0-1.38","3044294","co38077","norming","","","","","","",""
"4401.9449999995995","","","post_mooney1_questions","survey-likert","274","1035193","0.0-6.0-2.38","3044294","co38077","norming","","","{""curiosity"":0,""confidence"":6}","[0,1]","../img/tt/111tt.jpg","",""
"9078.335000000196","","","recognition","survey-text","275","1044273","0.0-6.0-3.38","3044294","co38077","norming","","","{""guess"":""douchekop""}","","../img/tt/111tt.jpg","",""
"null","../img/gs/111gs.jpg","null","reveal","image-keyboard-response","276","1046274","0.0-6.0-4.38","3044294","co38077","norming","","","","","","",""
"null","../img/tt/111tt.jpg","null","mooney2","image-keyboard-response","277","1048278","0.0-6.0-5.38","3044294","co38077","norming","","","","","","",""
"1424.8499999993946","","","post_reveal_questions","survey-likert","278","1049704","0.0-6.0-6.38","3044294","co38077","norming","","","{""aha"":0}","[0]","../img/tt/111tt.jpg","",""
"null","<div style=""font-size:60px;""> </div>","null","fixation","html-keyboard-response","279","1049906","0.0-6.0-0.39","3044294","co38077","norming","","","","","","",""
"null","../img/tt/1205tt.jpg","null","mooney1","image-keyboard-response","280","1052915","0.0-6.0-1.39","3044294","co38077","norming","","","","","","",""
"3762.775000001071","","","post_mooney1_questions","survey-likert","281","1056681","0.0-6.0-2.39","3044294","co38077","norming","","","{""curiosity"":6,""confidence"":0}","[0,1]","../img/tt/1205tt.jpg","",""
"1029.3650000002235","","","recognition","survey-text","282","1057712","0.0-6.0-3.39","3044294","co38077","norming","","","{""guess"":""""}","","../img/tt/1205tt.jpg","",""
"null","../img/gs/1205gs.jpg","null","reveal","image-keyboard-response","283","1059716","0.0-6.0-4.39","3044294","co38077","norming","","","","","","",""
"null","../img/tt/1205tt.jpg","null","mooney2","image-keyboard-response","284","1061725","0.0-6.0-5.39","3044294","co38077","norming","","","","","","",""
"3371.1900000018068","","","post_reveal_questions","survey-likert","285","1065097","0.0-6.0-6.39","3044294","co38077","norming","","","{""aha"":6}","[0]","../img/tt/1205tt.jpg","",""
"null","<div style=""font-size:60px;""> </div>","null","fixation","html-keyboard-response","286","1065298","0.0-6.0-0.40","3044294","co38077","norming","","","","","","",""
"null","../img/tt/1242tt.jpg","null","mooney1","image-keyboard-response","287","1068302","0.0-6.0-1.40","3044294","co38077","norming","","","","","","",""
"4935.584999999264","","","post_mooney1_questions","survey-likert","288","1073241","0.0-6.0-2.40","3044294","co38077","norming","","","{""curiosity"":1,""confidence"":5}","[0,1]","../img/tt/1242tt.jpg","",""
"1430.1200000008103","","","recognition","survey-text","289","1074673","0.0-6.0-3.40","3044294","co38077","norming","","","{""guess"":""hond""}","","../img/tt/1242tt.jpg","",""
"null","../img/gs/1242gs.jpg","null","reveal","image-keyboard-response","290","1076676","0.0-6.0-4.40","3044294","co38077","norming","","","","","","",""
"null","../img/tt/1242tt.jpg","null","mooney2","image-keyboard-response","291","1078685","0.0-6.0-5.40","3044294","co38077","norming","","","","","","",""
"4337.835000000196","","","post_reveal_questions","survey-likert","292","1083025","0.0-6.0-6.40","3044294","co38077","norming","","","{""aha"":1}","[0]","../img/tt/1242tt.jpg","",""
"null","<div style=""font-size:60px;""> </div>","null","fixation","html-keyboard-response","293","1083226","0.0-6.0-0.41","3044294","co38077","norming","","","","","","",""
"null","../img/tt/599tt.jpg","null","mooney1","image-keyboard-response","294","1086234","0.0-6.0-1.41","3044294","co38077","norming","","","","","","",""
"3516.149999999674","","","post_mooney1_questions","survey-likert","295","1089753","0.0-6.0-2.41","3044294","co38077","norming","","","{""curiosity"":4,""confidence"":2}","[0,1]","../img/tt/599tt.jpg","",""
"2934.150000001071","","","recognition","survey-text","296","1092689","0.0-6.0-3.41","3044294","co38077","norming","","","{""guess"":""uil""}","","../img/tt/599tt.jpg","",""
"null","../img/gs/599gs.jpg","null","reveal","image-keyboard-response","297","1094690","0.0-6.0-4.41","3044294","co38077","norming","","","","","","",""
"null","../img/tt/599tt.jpg","null","mooney2","image-keyboard-response","298","1096694","0.0-6.0-5.41","3044294","co38077","norming","","","","","","",""
"2344.255000000121","","","post_reveal_questions","survey-likert","299","1099041","0.0-6.0-6.41","3044294","co38077","norming","","","{""aha"":1}","[0]","../img/tt/599tt.jpg","",""
"null","<div style=""font-size:60px;""> </div>","null","fixation","html-keyboard-response","300","1099242","0.0-6.0-0.42","3044294","co38077","norming","","","","","","",""
"null","../img/tt/013tt.jpg","null","mooney1","image-keyboard-response","301","1102249","0.0-6.0-1.42","3044294","co38077","norming","","","","","","",""
"6349.394999999087","","","post_mooney1_questions","survey-likert","302","1108601","0.0-6.0-2.42","3044294","co38077","norming","","","{""curiosity"":6,""confidence"":1}","[0,1]","../img/tt/013tt.jpg","",""
"1782.159999998752","","","recognition","survey-text","303","1110385","0.0-6.0-3.42","3044294","co38077","norming","","","{""guess"":""vrouw""}","","../img/tt/013tt.jpg","",""
"null","../img/gs/013gs.jpg","null","reveal","image-keyboard-response","304","1112388","0.0-6.0-4.42","3044294","co38077","norming","","","","","","",""
"null","../img/tt/013tt.jpg","null","mooney2","image-keyboard-response","305","1114398","0.0-6.0-5.42","3044294","co38077","norming","","","","","","",""
"2902.4100000006147","","","post_reveal_questions","survey-likert","306","1117305","0.0-6.0-6.42","3044294","co38077","norming","","","{""aha"":5}","[0]","../img/tt/013tt.jpg","",""
"null","<div style=""font-size:60px;""> </div>","null","fixation","html-keyboard-response","307","1117507","0.0-6.0-0.43","3044294","co38077","norming","","","","","","",""
"null","../img/tt/098tt.jpg","null","mooney1","image-keyboard-response","308","1120513","0.0-6.0-1.43","3044294","co38077","norming","","","","","","",""
"9924.75","","","post_mooney1_questions","survey-likert","309","1130434","0.0-6.0-2.43","3044294","co38077","norming","","","{""curiosity"":5,""confidence"":1}","[0,1]","../img/tt/098tt.jpg","",""
"1366.245000001043","","","recognition","survey-text","310","1131802","0.0-6.0-3.43","3044294","co38077","norming","","","{""guess"":""eten""}","","../img/tt/098tt.jpg","",""
"null","../img/gs/098gs.jpg","null","reveal","image-keyboard-response","311","1133807","0.0-6.0-4.43","3044294","co38077","norming","","","","","","",""
"null","../img/tt/098tt.jpg","null","mooney2","image-keyboard-response","312","1135813","0.0-6.0-5.43","3044294","co38077","norming","","","","","","",""
"2268.2949999996927","","","post_reveal_questions","survey-likert","313","1138082","0.0-6.0-6.43","3044294","co38077","norming","","","{""aha"":6}","[0]","../img/tt/098tt.jpg","",""
"null","<div style=""font-size:60px;""> </div>","null","fixation","html-keyboard-response","314","1138283","0.0-6.0-0.44","3044294","co38077","norming","","","","","","",""
"null","../img/tt/1063tt.jpg","null","mooney1","image-keyboard-response","315","1141293","0.0-6.0-1.44","3044294","co38077","norming","","","","","","",""
"5170.635000000242","","","post_mooney1_questions","survey-likert","316","1146466","0.0-6.0-2.44","3044294","co38077","norming","","","{""curiosity"":6,""confidence"":1}","[0,1]","../img/tt/1063tt.jpg","",""
"2197.9900000004563","","","recognition","survey-text","317","1148666","0.0-6.0-3.44","3044294","co38077","norming","","","{""guess"":""hond""}","","../img/tt/1063tt.jpg","",""
"null","../img/gs/1063gs.jpg","null","reveal","image-keyboard-response","318","1150669","0.0-6.0-4.44","3044294","co38077","norming","","","","","","",""
"null","../img/tt/1063tt.jpg","null","mooney2","image-keyboard-response","319","1152672","0.0-6.0-5.44","3044294","co38077","norming","","","","","","",""
"3575.35499999905","","","post_reveal_questions","survey-likert","320","1156250","0.0-6.0-6.44","3044294","co38077","norming","","","{""aha"":6}","[0]","../img/tt/1063tt.jpg","",""
"null","<div style=""font-size:60px;""> </div>","null","fixation","html-keyboard-response","321","1156452","0.0-6.0-0.45","3044294","co38077","norming","","","","","","",""
"null","../img/tt/598tt.jpg","null","mooney1","image-keyboard-response","322","1159455","0.0-6.0-1.45","3044294","co38077","norming","","","","","","",""
"3712.215000001481","","","post_mooney1_questions","survey-likert","323","1163170","0.0-6.0-2.45","3044294","co38077","norming","","","{""curiosity"":6,""confidence"":0}","[0,1]","../img/tt/598tt.jpg","",""
"2614.4199999999255","","","recognition","survey-text","324","1165786","0.0-6.0-3.45","3044294","co38077","norming","","","{""guess"":""paard""}","","../img/tt/598tt.jpg","",""
"null","../img/gs/598gs.jpg","null","reveal","image-keyboard-response","325","1167796","0.0-6.0-4.45","3044294","co38077","norming","","","","","","",""
"null","../img/tt/598tt.jpg","null","mooney2","image-keyboard-response","326","1169805","0.0-6.0-5.45","3044294","co38077","norming","","","","","","",""
"2540.2849999992177","","","post_reveal_questions","survey-likert","327","1172346","0.0-6.0-6.45","3044294","co38077","norming","","","{""aha"":6}","[0]","../img/tt/598tt.jpg","",""
"null","<div style=""font-size:60px;""> </div>","null","fixation","html-keyboard-response","328","1172548","0.0-6.0-0.46","3044294","co38077","norming","","","","","","",""
"null","../img/tt/1078tt.jpg","null","mooney1","image-keyboard-response","329","1175551","0.0-6.0-1.46","3044294","co38077","norming","","","","","","",""
"4984.554999999236","","","post_mooney1_questions","survey-likert","330","1180538","0.0-6.0-2.46","3044294","co38077","norming","","","{""curiosity"":1,""confidence"":5}","[0,1]","../img/tt/1078tt.jpg","",""
"3805.945000000065","","","recognition","survey-text","331","1184346","0.0-6.0-3.46","3044294","co38077","norming","","","{""guess"":""skatboarden""}","","../img/tt/1078tt.jpg","",""
"null","../img/gs/1078gs.jpg","null","reveal","image-keyboard-response","332","1186348","0.0-6.0-4.46","3044294","co38077","norming","","","","","","",""
"null","../img/tt/1078tt.jpg","null","mooney2","image-keyboard-response","333","1188350","0.0-6.0-5.46","3044294","co38077","norming","","","","","","",""
"1800.9599999987986","","","post_reveal_questions","survey-likert","334","1190160","0.0-6.0-6.46","3044294","co38077","norming","","","{""aha"":0}","[0]","../img/tt/1078tt.jpg","",""
"null","<div style=""font-size:60px;""> </div>","null","fixation","html-keyboard-response","335","1190362","0.0-6.0-0.47","3044294","co38077","norming","","","","","","",""
"null","../img/tt/1217tt.jpg","null","mooney1","image-keyboard-response","336","1193363","0.0-6.0-1.47","3044294","co38077","norming","","","","","","",""
"5145.640000000829","","","post_mooney1_questions","survey-likert","337","1198512","0.0-6.0-2.47","3044294","co38077","norming","","","{""curiosity"":2,""confidence"":4}","[0,1]","../img/tt/1217tt.jpg","",""
"3309.7149999993853","","","recognition","survey-text","338","1201824","0.0-6.0-3.47","3044294","co38077","norming","","","{""guess"":""voetballers""}","","../img/tt/1217tt.jpg","",""
"null","../img/gs/1217gs.jpg","null","reveal","image-keyboard-response","339","1203825","0.0-6.0-4.47","3044294","co38077","norming","","","","","","",""
"null","../img/tt/1217tt.jpg","null","mooney2","image-keyboard-response","340","1205826","0.0-6.0-5.47","3044294","co38077","norming","","","","","","",""
"4868.824999999721","","","post_reveal_questions","survey-likert","341","1210696","0.0-6.0-6.47","3044294","co38077","norming","","","{""aha"":1}","[0]","../img/tt/1217tt.jpg","",""
"null","<div style=""font-size:60px;""> </div>","null","fixation","html-keyboard-response","342","1210898","0.0-6.0-0.48","3044294","co38077","norming","","","","","","",""
"null","../img/tt/1173tt.jpg","null","mooney1","image-keyboard-response","343","1213903","0.0-6.0-1.48","3044294","co38077","norming","","","","","","",""
"5766.240000000922","","","post_mooney1_questions","survey-likert","344","1219672","0.0-6.0-2.48","3044294","co38077","norming","","","{""curiosity"":5,""confidence"":4}","[0,1]","../img/tt/1173tt.jpg","",""
"3349.829999999143","","","recognition","survey-text","345","1223024","0.0-6.0-3.48","3044294","co38077","norming","","","{""guess"":""kinderen sporten""}","","../img/tt/1173tt.jpg","",""
"null","../img/gs/1173gs.jpg","null","reveal","image-keyboard-response","346","1225028","0.0-6.0-4.48","3044294","co38077","norming","","","","","","",""
"null","../img/tt/1173tt.jpg","null","mooney2","image-keyboard-response","347","1227031","0.0-6.0-5.48","3044294","co38077","norming","","","","","","",""
"3663.5800000003073","","","post_reveal_questions","survey-likert","348","1230696","0.0-6.0-6.48","3044294","co38077","norming","","","{""aha"":2}","[0]","../img/tt/1173tt.jpg","",""
"null","<div style=""font-size:60px;""> </div>","null","fixation","html-keyboard-response","349","1230904","0.0-6.0-0.49","3044294","co38077","norming","","","","","","",""
"null","../img/tt/010tt.jpg","null","mooney1","image-keyboard-response","350","1233907","0.0-6.0-1.49","3044294","co38077","norming","","","","","","",""
"8545.574999998324","","","post_mooney1_questions","survey-likert","351","1242456","0.0-6.0-2.49","3044294","co38077","norming","","","{""curiosity"":4,""confidence"":1}","[0,1]","../img/tt/010tt.jpg","",""
"1430.0349999994505","","","recognition","survey-text","352","1243888","0.0-6.0-3.49","3044294","co38077","norming","","","{""guess"":""vies""}","","../img/tt/010tt.jpg","",""
"null","../img/gs/010gs.jpg","null","reveal","image-keyboard-response","353","1245890","0.0-6.0-4.49","3044294","co38077","norming","","","","","","",""
"null","../img/tt/010tt.jpg","null","mooney2","image-keyboard-response","354","1247900","0.0-6.0-5.49","3044294","co38077","norming","","","","","","",""
"3929.024999999441","","","post_reveal_questions","survey-likert","355","1251829","0.0-6.0-6.49","3044294","co38077","norming","","","{""aha"":5}","[0]","../img/tt/010tt.jpg","",""
"null","<div style=""font-size:60px;""> </div>","null","fixation","html-keyboard-response","356","1252033","0.0-6.0-0.50","3044294","co38077","norming","","","","","","",""
"null","../img/tt/1055tt.jpg","null","mooney1","image-keyboard-response","357","1255039","0.0-6.0-1.50","3044294","co38077","norming","","","","","","",""
"4530.499999999069","","","post_mooney1_questions","survey-likert","358","1259573","0.0-6.0-2.50","3044294","co38077","norming","","","{""curiosity"":5,""confidence"":1}","[0,1]","../img/tt/1055tt.jpg","",""
"1973.8049999994691","","","recognition","survey-text","359","1261548","0.0-6.0-3.50","3044294","co38077","norming","","","{""guess"":""zwemmer""}","","../img/tt/1055tt.jpg","",""
"null","../img/gs/1055gs.jpg","null","reveal","image-keyboard-response","360","1263551","0.0-6.0-4.50","3044294","co38077","norming","","","","","","",""
"null","../img/tt/1055tt.jpg","null","mooney2","image-keyboard-response","361","1265554","0.0-6.0-5.50","3044294","co38077","norming","","","","","","",""
"2664.575000000652","","","post_reveal_questions","survey-likert","362","1268221","0.0-6.0-6.50","3044294","co38077","norming","","","{""aha"":4}","[0]","../img/tt/1055tt.jpg","",""
"null","<div style=""font-size:60px;""> </div>","null","fixation","html-keyboard-response","363","1268422","0.0-6.0-0.51","3044294","co38077","norming","","","","","","",""
"null","../img/tt/1275tt.jpg","null","mooney1","image-keyboard-response","364","1271426","0.0-6.0-1.51","3044294","co38077","norming","","","","","","",""
"3727.7599999997765","","","post_mooney1_questions","survey-likert","365","1275157","0.0-6.0-2.51","3044294","co38077","norming","","","{""curiosity"":4,""confidence"":3}","[0,1]","../img/tt/1275tt.jpg","",""
"1590.5600000005215","","","recognition","survey-text","366","1276749","0.0-6.0-3.51","3044294","co38077","norming","","","{""guess"":""vos""}","","../img/tt/1275tt.jpg","",""
"null","../img/gs/1275gs.jpg","null","reveal","image-keyboard-response","367","1278757","0.0-6.0-4.51","3044294","co38077","norming","","","","","","",""
"null","../img/tt/1275tt.jpg","null","mooney2","image-keyboard-response","368","1280764","0.0-6.0-5.51","3044294","co38077","norming","","","","","","",""
"4781.829999999842","","","post_reveal_questions","survey-likert","369","1285549","0.0-6.0-6.51","3044294","co38077","norming","","","{""aha"":4}","[0]","../img/tt/1275tt.jpg","",""
"null","<div style=""font-size:60px;""> </div>","null","fixation","html-keyboard-response","370","1285751","0.0-6.0-0.52","3044294","co38077","norming","","","","","","",""
"null","../img/tt/497tt.jpg","null","mooney1","image-keyboard-response","371","1288758","0.0-6.0-1.52","3044294","co38077","norming","","","","","","",""
"4043.370000001276","","","post_mooney1_questions","survey-likert","372","1292805","0.0-6.0-2.52","3044294","co38077","norming","","","{""curiosity"":2,""confidence"":5}","[0,1]","../img/tt/497tt.jpg","",""
"2645.9300000006333","","","recognition","survey-text","373","1295453","0.0-6.0-3.52","3044294","co38077","norming","","","{""guess"":""keukenvuur""}","","../img/tt/497tt.jpg","",""
"null","../img/gs/497gs.jpg","null","reveal","image-keyboard-response","374","1297456","0.0-6.0-4.52","3044294","co38077","norming","","","","","","",""
"null","../img/tt/497tt.jpg","null","mooney2","image-keyboard-response","375","1299458","0.0-6.0-5.52","3044294","co38077","norming","","","","","","",""
"1400.5600000000559","","","post_reveal_questions","survey-likert","376","1300861","0.0-6.0-6.52","3044294","co38077","norming","","","{""aha"":1}","[0]","../img/tt/497tt.jpg","",""
"null","<div style=""font-size:60px;""> </div>","null","fixation","html-keyboard-response","377","1301062","0.0-6.0-0.53","3044294","co38077","norming","","","","","","",""
"null","../img/tt/517tt.jpg","null","mooney1","image-keyboard-response","378","1304065","0.0-6.0-1.53","3044294","co38077","norming","","","","","","",""
"4513.2599999997765","","","post_mooney1_questions","survey-likert","379","1308581","0.0-6.0-2.53","3044294","co38077","norming","","","{""curiosity"":4,""confidence"":1}","[0,1]","../img/tt/517tt.jpg","",""
"1414.0249999999069","","","recognition","survey-text","380","1309997","0.0-6.0-3.53","3044294","co38077","norming","","","{""guess"":""hond""}","","../img/tt/517tt.jpg","",""
"null","../img/gs/517gs.jpg","null","reveal","image-keyboard-response","381","1312013","0.0-6.0-4.53","3044294","co38077","norming","","","","","","",""
"null","../img/tt/517tt.jpg","null","mooney2","image-keyboard-response","382","1314022","0.0-6.0-5.53","3044294","co38077","norming","","","","","","",""
"2614.300000000978","","","post_reveal_questions","survey-likert","383","1316641","0.0-6.0-6.53","3044294","co38077","norming","","","{""aha"":3}","[0]","../img/tt/517tt.jpg","",""
"null","<div style=""font-size:60px;""> </div>","null","fixation","html-keyboard-response","384","1316843","0.0-6.0-0.54","3044294","co38077","norming","","","","","","",""
"null","../img/tt/1040tt.jpg","null","mooney1","image-keyboard-response","385","1319853","0.0-6.0-1.54","3044294","co38077","norming","","","","","","",""
"4473.715000000084","","","post_mooney1_questions","survey-likert","386","1324329","0.0-6.0-2.54","3044294","co38077","norming","","","{""curiosity"":5,""confidence"":3}","[0,1]","../img/tt/1040tt.jpg","",""
"2718.0850000004284","","","recognition","survey-text","387","1327049","0.0-6.0-3.54","3044294","co38077","norming","","","{""guess"":""krokodil""}","","../img/tt/1040tt.jpg","",""
"null","../img/gs/1040gs.jpg","null","reveal","image-keyboard-response","388","1329050","0.0-6.0-4.54","3044294","co38077","norming","","","","","","",""
"null","../img/tt/1040tt.jpg","null","mooney2","image-keyboard-response","389","1331052","0.0-6.0-5.54","3044294","co38077","norming","","","","","","",""
"2362.100000000326","","","post_reveal_questions","survey-likert","390","1333417","0.0-6.0-6.54","3044294","co38077","norming","","","{""aha"":6}","[0]","../img/tt/1040tt.jpg","",""
"null","<div style=""font-size:60px;""> </div>","null","fixation","html-keyboard-response","391","1333618","0.0-6.0-0.55","3044294","co38077","norming","","","","","","",""
"null","../img/tt/1097tt.jpg","null","mooney1","image-keyboard-response","392","1336627","0.0-6.0-1.55","3044294","co38077","norming","","","","","","",""
"7170.065000000177","","","post_mooney1_questions","survey-likert","393","1343801","0.0-6.0-2.55","3044294","co38077","norming","","","{""curiosity"":5,""confidence"":1}","[0,1]","../img/tt/1097tt.jpg","",""
"2030.2800000009593","","","recognition","survey-text","394","1345833","0.0-6.0-3.55","3044294","co38077","norming","","","{""guess"":""wandelaar""}","","../img/tt/1097tt.jpg","",""
"null","../img/gs/1097gs.jpg","null","reveal","image-keyboard-response","395","1347841","0.0-6.0-4.55","3044294","co38077","norming","","","","","","",""
"null","../img/tt/1097tt.jpg","null","mooney2","image-keyboard-response","396","1349843","0.0-6.0-5.55","3044294","co38077","norming","","","","","","",""
"3476.199999999255","","","post_reveal_questions","survey-likert","397","1353321","0.0-6.0-6.55","3044294","co38077","norming","","","{""aha"":4}","[0]","../img/tt/1097tt.jpg","",""
"null","<div style=""font-size:60px;""> </div>","null","fixation","html-keyboard-response","398","1353523","0.0-6.0-0.56","3044294","co38077","norming","","","","","","",""
"null","../img/tt/1250tt.jpg","null","mooney1","image-keyboard-response","399","1356533","0.0-6.0-1.56","3044294","co38077","norming","","","","","","",""
"6865.219999999739","","","post_mooney1_questions","survey-likert","400","1363401","0.0-6.0-2.56","3044294","co38077","norming","","","{""curiosity"":5,""confidence"":0}","[0,1]","../img/tt/1250tt.jpg","",""
"958.1450000004843","","","recognition","survey-text","401","1364361","0.0-6.0-3.56","3044294","co38077","norming","","","{""guess"":""eend""}","","../img/tt/1250tt.jpg","",""
"null","../img/gs/1250gs.jpg","null","reveal","image-keyboard-response","402","1366362","0.0-6.0-4.56","3044294","co38077","norming","","","","","","",""
"null","../img/tt/1250tt.jpg","null","mooney2","image-keyboard-response","403","1368373","0.0-6.0-5.56","3044294","co38077","norming","","","","","","",""
"8969.119999999879","","","post_reveal_questions","survey-likert","404","1377346","0.0-6.0-6.56","3044294","co38077","norming","","","{""aha"":6}","[0]","../img/tt/1250tt.jpg","",""
"null","<div style=""font-size:60px;""> </div>","null","fixation","html-keyboard-response","405","1377548","0.0-6.0-0.57","3044294","co38077","norming","","","","","","",""
"null","../img/tt/008tt.jpg","null","mooney1","image-keyboard-response","406","1380559","0.0-6.0-1.57","3044294","co38077","norming","","","","","","",""
"8263.429999999236","","","post_mooney1_questions","survey-likert","407","1388826","0.0-6.0-2.57","3044294","co38077","norming","","","{""curiosity"":5,""confidence"":1}","[0,1]","../img/tt/008tt.jpg","",""
"1822.0749999983236","","","recognition","survey-text","408","1390649","0.0-6.0-3.57","3044294","co38077","norming","","","{""guess"":""geweer""}","","../img/tt/008tt.jpg","",""
"null","../img/gs/008gs.jpg","null","reveal","image-keyboard-response","409","1392659","0.0-6.0-4.57","3044294","co38077","norming","","","","","","",""
"null","../img/tt/008tt.jpg","null","mooney2","image-keyboard-response","410","1394662","0.0-6.0-5.57","3044294","co38077","norming","","","","","","",""
"6656.769999999553","","","post_reveal_questions","survey-likert","411","1401321","0.0-6.0-6.57","3044294","co38077","norming","","","{""aha"":5}","[0]","../img/tt/008tt.jpg","",""
"null","<div style=""font-size:60px;""> </div>","null","fixation","html-keyboard-response","412","1401530","0.0-6.0-0.58","3044294","co38077","norming","","","","","","",""
"null","../img/tt/080tt.jpg","null","mooney1","image-keyboard-response","413","1404534","0.0-6.0-1.58","3044294","co38077","norming","","","","","","",""
"6464.804999999702","","","post_mooney1_questions","survey-likert","414","1411002","0.0-6.0-2.58","3044294","co38077","norming","","","{""curiosity"":5,""confidence"":1}","[0,1]","../img/tt/080tt.jpg","",""
"1678.039999998873","","","recognition","survey-text","415","1412681","0.0-6.0-3.58","3044294","co38077","norming","","","{""guess"":""lamp""}","","../img/tt/080tt.jpg","",""
"null","../img/gs/080gs.jpg","null","reveal","image-keyboard-response","416","1414687","0.0-6.0-4.58","3044294","co38077","norming","","","","","","",""
"null","../img/tt/080tt.jpg","null","mooney2","image-keyboard-response","417","1416697","0.0-6.0-5.58","3044294","co38077","norming","","","","","","",""
"2837.5300000007264","","","post_reveal_questions","survey-likert","418","1419537","0.0-6.0-6.58","3044294","co38077","norming","","","{""aha"":3}","[0]","../img/tt/080tt.jpg","",""
"null","<div style=""font-size:60px;""> </div>","null","fixation","html-keyboard-response","419","1419746","0.0-6.0-0.59","3044294","co38077","norming","","","","","","",""
"null","../img/tt/1202tt.jpg","null","mooney1","image-keyboard-response","420","1422752","0.0-6.0-1.59","3044294","co38077","norming","","","","","","",""
"3566.5750000008848","","","post_mooney1_questions","survey-likert","421","1426322","0.0-6.0-2.59","3044294","co38077","norming","","","{""curiosity"":5,""confidence"":1}","[0,1]","../img/tt/1202tt.jpg","",""
"6790.100000000093","","","recognition","survey-text","422","1433113","0.0-6.0-3.59","3044294","co38077","norming","","","{""guess"":""""}","","../img/tt/1202tt.jpg","",""
"null","../img/gs/1202gs.jpg","null","reveal","image-keyboard-response","423","1435122","0.0-6.0-4.59","3044294","co38077","norming","","","","","","",""
"null","../img/tt/1202tt.jpg","null","mooney2","image-keyboard-response","424","1437125","0.0-6.0-5.59","3044294","co38077","norming","","","","","","",""
"1721.6349999997765","","","post_reveal_questions","survey-likert","425","1438849","0.0-6.0-6.59","3044294","co38077","norming","","","{""aha"":6}","[0]","../img/tt/1202tt.jpg","",""
"null","<div style=""font-size:60px;""> </div>","null","fixation","html-keyboard-response","426","1439050","0.0-6.0-0.60","3044294","co38077","norming","","","","","","",""
"null","../img/tt/1126tt.jpg","null","mooney1","image-keyboard-response","427","1442052","0.0-6.0-1.60","3044294","co38077","norming","","","","","","",""
"3865.3749999993015","","","post_mooney1_questions","survey-likert","428","1445921","0.0-6.0-2.60","3044294","co38077","norming","","","{""curiosity"":4,""confidence"":2}","[0,1]","../img/tt/1126tt.jpg","",""
"2454.4199999999255","","","recognition","survey-text","429","1448377","0.0-6.0-3.60","3044294","co38077","norming","","","{""guess"":""eekhoorn""}","","../img/tt/1126tt.jpg","",""
"null","../img/gs/1126gs.jpg","null","reveal","image-keyboard-response","430","1450380","0.0-6.0-4.60","3044294","co38077","norming","","","","","","",""
"null","../img/tt/1126tt.jpg","null","mooney2","image-keyboard-response","431","1452383","0.0-6.0-5.60","3044294","co38077","norming","","","","","","",""
"2135.5150000001304","","","post_reveal_questions","survey-likert","432","1454521","0.0-6.0-6.60","3044294","co38077","norming","","","{""aha"":6}","[0]","../img/tt/1126tt.jpg","",""
"null","<div style=""font-size:60px;""> </div>","null","fixation","html-keyboard-response","433","1454728","0.0-6.0-0.61","3044294","co38077","norming","","","","","","",""
"null","../img/tt/082tt.jpg","null","mooney1","image-keyboard-response","434","1457739","0.0-6.0-1.61","3044294","co38077","norming","","","","","","",""
"4108.33999999892","","","post_mooney1_questions","survey-likert","435","1461849","0.0-6.0-2.61","3044294","co38077","norming","","","{""curiosity"":5,""confidence"":1}","[0,1]","../img/tt/082tt.jpg","",""
"1598.155000001425","","","recognition","survey-text","436","1463449","0.0-6.0-3.61","3044294","co38077","norming","","","{""guess"":""paard""}","","../img/tt/082tt.jpg","",""
"null","../img/gs/082gs.jpg","null","reveal","image-keyboard-response","437","1465451","0.0-6.0-4.61","3044294","co38077","norming","","","","","","",""
"null","../img/tt/082tt.jpg","null","mooney2","image-keyboard-response","438","1467453","0.0-6.0-5.61","3044294","co38077","norming","","","","","","",""
"2840.635000000475","","","post_reveal_questions","survey-likert","439","1470297","0.0-6.0-6.61","3044294","co38077","norming","","","{""aha"":5}","[0]","../img/tt/082tt.jpg","",""
"null","<div style=""font-size:60px;""> </div>","null","fixation","html-keyboard-response","440","1470498","0.0-6.0-0.62","3044294","co38077","norming","","","","","","",""
"null","../img/tt/1046tt.jpg","null","mooney1","image-keyboard-response","441","1473507","0.0-6.0-1.62","3044294","co38077","norming","","","","","","",""
"3436.7550000005867","","","post_mooney1_questions","survey-likert","442","1476945","0.0-6.0-2.62","3044294","co38077","norming","","","{""curiosity"":5,""confidence"":1}","[0,1]","../img/tt/1046tt.jpg","",""
"3525.989999998361","","","recognition","survey-text","443","1480472","0.0-6.0-3.62","3044294","co38077","norming","","","{""guess"":""etenschaal""}","","../img/tt/1046tt.jpg","",""
"null","../img/gs/1046gs.jpg","null","reveal","image-keyboard-response","444","1482478","0.0-6.0-4.62","3044294","co38077","norming","","","","","","",""
"null","../img/tt/1046tt.jpg","null","mooney2","image-keyboard-response","445","1484480","0.0-6.0-5.62","3044294","co38077","norming","","","","","","",""
"4292.975000000326","","","post_reveal_questions","survey-likert","446","1488776","0.0-6.0-6.62","3044294","co38077","norming","","","{""aha"":2}","[0]","../img/tt/1046tt.jpg","",""
"null","<div style=""font-size:60px;""> </div>","null","fixation","html-keyboard-response","447","1488977","0.0-6.0-0.63","3044294","co38077","norming","","","","","","",""
"null","../img/tt/085tt.jpg","null","mooney1","image-keyboard-response","448","1491980","0.0-6.0-1.63","3044294","co38077","norming","","","","","","",""
"4200.174999999814","","","post_mooney1_questions","survey-likert","449","1496188","0.0-6.0-2.63","3044294","co38077","norming","","","{""curiosity"":4,""confidence"":2}","[0,1]","../img/tt/085tt.jpg","",""
"1630.0900000005495","","","recognition","survey-text","450","1497820","0.0-6.0-3.63","3044294","co38077","norming","","","{""guess"":""hond""}","","../img/tt/085tt.jpg","",""
"null","../img/gs/085gs.jpg","null","reveal","image-keyboard-response","451","1499828","0.0-6.0-4.63","3044294","co38077","norming","","","","","","",""
"null","../img/tt/085tt.jpg","null","mooney2","image-keyboard-response","452","1501839","0.0-6.0-5.63","3044294","co38077","norming","","","","","","",""
"2827.865000001155","","","post_reveal_questions","survey-likert","453","1504668","0.0-6.0-6.63","3044294","co38077","norming","","","{""aha"":5}","[0]","../img/tt/085tt.jpg","",""
"null","<div style=""font-size:60px;""> </div>","null","fixation","html-keyboard-response","454","1504869","0.0-6.0-0.64","3044294","co38077","norming","","","","","","",""
"null","../img/tt/060tt.jpg","null","mooney1","image-keyboard-response","455","1507876","0.0-6.0-1.64","3044294","co38077","norming","","","","","","",""
"5461.744999998715","","","post_mooney1_questions","survey-likert","456","1513340","0.0-6.0-2.64","3044294","co38077","norming","","","{""curiosity"":4,""confidence"":2}","[0,1]","../img/tt/060tt.jpg","",""
"1438.245000001276","","","recognition","survey-text","457","1514780","0.0-6.0-3.64","3044294","co38077","norming","","","{""guess"":""kever""}","","../img/tt/060tt.jpg","",""
"null","../img/gs/060gs.jpg","null","reveal","image-keyboard-response","458","1516782","0.0-6.0-4.64","3044294","co38077","norming","","","","","","",""
"null","../img/tt/060tt.jpg","null","mooney2","image-keyboard-response","459","1518785","0.0-6.0-5.64","3044294","co38077","norming","","","","","","",""
"2007.7899999995716","","","post_reveal_questions","survey-likert","460","1520796","0.0-6.0-6.64","3044294","co38077","norming","","","{""aha"":5}","[0]","../img/tt/060tt.jpg","",""
"null","<div style=""font-size:60px;""> </div>","null","fixation","html-keyboard-response","461","1520996","0.0-6.0-0.65","3044294","co38077","norming","","","","","","",""
"null","../img/tt/1130tt.jpg","null","mooney1","image-keyboard-response","462","1524001","0.0-6.0-1.65","3044294","co38077","norming","","","","","","",""
"5128.179999999702","","","post_mooney1_questions","survey-likert","463","1529132","0.0-6.0-2.65","3044294","co38077","norming","","","{""curiosity"":1,""confidence"":5}","[0,1]","../img/tt/1130tt.jpg","",""
"1949.710000000894","","","recognition","survey-text","464","1531083","0.0-6.0-3.65","3044294","co38077","norming","","","{""guess"":""fietser""}","","../img/tt/1130tt.jpg","",""
"null","../img/gs/1130gs.jpg","null","reveal","image-keyboard-response","465","1533087","0.0-6.0-4.65","3044294","co38077","norming","","","","","","",""
"null","../img/tt/1130tt.jpg","null","mooney2","image-keyboard-response","466","1535090","0.0-6.0-5.65","3044294","co38077","norming","","","","","","",""
"3223.195000000531","","","post_reveal_questions","survey-likert","467","1538315","0.0-6.0-6.65","3044294","co38077","norming","","","{""aha"":1}","[0]","../img/tt/1130tt.jpg","",""
"null","<div style=""font-size:60px;""> </div>","null","fixation","html-keyboard-response","468","1538517","0.0-6.0-0.66","3044294","co38077","norming","","","","","","",""
"null","../img/tt/1127tt.jpg","null","mooney1","image-keyboard-response","469","1541526","0.0-6.0-1.66","3044294","co38077","norming","","","","","","",""
"6954.950000001118","","","post_mooney1_questions","survey-likert","470","1548484","0.0-6.0-2.66","3044294","co38077","norming","","","{""curiosity"":3,""confidence"":3}","[0,1]","../img/tt/1127tt.jpg","",""
"5654.354999998817","","","recognition","survey-text","471","1554139","0.0-6.0-3.66","3044294","co38077","norming","","","{""guess"":""gevechtsport""}","","../img/tt/1127tt.jpg","",""
"null","../img/gs/1127gs.jpg","null","reveal","image-keyboard-response","472","1556142","0.0-6.0-4.66","3044294","co38077","norming","","","","","","",""
"null","../img/tt/1127tt.jpg","null","mooney2","image-keyboard-response","473","1558148","0.0-6.0-5.66","3044294","co38077","norming","","","","","","",""
"7587.974999998463","","","post_reveal_questions","survey-likert","474","1565738","0.0-6.0-6.66","3044294","co38077","norming","","","{""aha"":1}","[0]","../img/tt/1127tt.jpg","",""
"null","<div style=""font-size:60px;""> </div>","null","fixation","html-keyboard-response","475","1565939","0.0-6.0-0.67","3044294","co38077","norming","","","","","","",""
"null","../img/tt/296tt.jpg","null","mooney1","image-keyboard-response","476","1568951","0.0-6.0-1.67","3044294","co38077","norming","","","","","","",""
"3472.3000000012107","","","post_mooney1_questions","survey-likert","477","1572427","0.0-6.0-2.67","3044294","co38077","norming","","","{""curiosity"":4,""confidence"":1}","[0,1]","../img/tt/296tt.jpg","",""
"1118.0350000013132","","","recognition","survey-text","478","1573547","0.0-6.0-3.67","3044294","co38077","norming","","","{""guess"":""zetel""}","","../img/tt/296tt.jpg","",""
"null","../img/gs/296gs.jpg","null","reveal","image-keyboard-response","479","1575548","0.0-6.0-4.67","3044294","co38077","norming","","","","","","",""
"null","../img/tt/296tt.jpg","null","mooney2","image-keyboard-response","480","1577561","0.0-6.0-5.67","3044294","co38077","norming","","","","","","",""
"2967.5200000000186","","","post_reveal_questions","survey-likert","481","1580531","0.0-6.0-6.67","3044294","co38077","norming","","","{""aha"":4}","[0]","../img/tt/296tt.jpg","",""
"null","<div style=""font-size:60px;""> </div>","null","fixation","html-keyboard-response","482","1580732","0.0-6.0-0.68","3044294","co38077","norming","","","","","","",""
"null","../img/tt/1148tt.jpg","null","mooney1","image-keyboard-response","483","1583739","0.0-6.0-1.68","3044294","co38077","norming","","","","","","",""
"4311.314999999013","","","post_mooney1_questions","survey-likert","484","1588051","0.0-6.0-2.68","3044294","co38077","norming","","","{""curiosity"":3,""confidence"":3}","[0,1]","../img/tt/1148tt.jpg","",""
"3173.984999999404","","","recognition","survey-text","485","1591227","0.0-6.0-3.68","3044294","co38077","norming","","","{""guess"":""auto's""}","","../img/tt/1148tt.jpg","",""
"null","../img/gs/1148gs.jpg","null","reveal","image-keyboard-response","486","1593228","0.0-6.0-4.68","3044294","co38077","norming","","","","","","",""
"null","../img/tt/1148tt.jpg","null","mooney2","image-keyboard-response","487","1595236","0.0-6.0-5.68","3044294","co38077","norming","","","","","","",""
"1636.4849999991711","","","post_reveal_questions","survey-likert","488","1596875","0.0-6.0-6.68","3044294","co38077","norming","","","{""aha"":6}","[0]","../img/tt/1148tt.jpg","",""
"null","<div style=""font-size:60px;""> </div>","null","fixation","html-keyboard-response","489","1597076","0.0-6.0-0.69","3044294","co38077","norming","","","","","","",""
"null","../img/tt/1262tt.jpg","null","mooney1","image-keyboard-response","490","1600078","0.0-6.0-1.69","3044294","co38077","norming","","","","","","",""
"4800.665000000736","","","post_mooney1_questions","survey-likert","491","1604882","0.0-6.0-2.69","3044294","co38077","norming","","","{""curiosity"":5,""confidence"":1}","[0,1]","../img/tt/1262tt.jpg","",""
"1526.4900000002235","","","recognition","survey-text","492","1606411","0.0-6.0-3.69","3044294","co38077","norming","","","{""guess"":""vogel""}","","../img/tt/1262tt.jpg","",""
"null","../img/gs/1262gs.jpg","null","reveal","image-keyboard-response","493","1608414","0.0-6.0-4.69","3044294","co38077","norming","","","","","","",""
"null","../img/tt/1262tt.jpg","null","mooney2","image-keyboard-response","494","1610424","0.0-6.0-5.69","3044294","co38077","norming","","","","","","",""
"2785.6649999993388","","","post_reveal_questions","survey-likert","495","1613211","0.0-6.0-6.69","3044294","co38077","norming","","","{""aha"":5}","[0]","../img/tt/1262tt.jpg","",""
"null","<div style=""font-size:60px;""> </div>","null","fixation","html-keyboard-response","496","1613413","0.0-6.0-0.70","3044294","co38077","norming","","","","","","",""
"null","../img/tt/1276tt.jpg","null","mooney1","image-keyboard-response","497","1616422","0.0-6.0-1.70","3044294","co38077","norming","","","","","","",""
"6415.7349999987055","","","post_mooney1_questions","survey-likert","498","1622839","0.0-6.0-2.70","3044294","co38077","norming","","","{""curiosity"":5,""confidence"":1}","[0,1]","../img/tt/1276tt.jpg","",""
"4341.645000000484","","","recognition","survey-text","499","1627182","0.0-6.0-3.70","3044294","co38077","norming","","","{""guess"":""bever""}","","../img/tt/1276tt.jpg","",""
"null","../img/gs/1276gs.jpg","null","reveal","image-keyboard-response","500","1629183","0.0-6.0-4.70","3044294","co38077","norming","","","","","","",""
"null","../img/tt/1276tt.jpg","null","mooney2","image-keyboard-response","501","1631190","0.0-6.0-5.70","3044294","co38077","norming","","","","","","",""
"1693.2400000004563","","","post_reveal_questions","survey-likert","502","1632886","0.0-6.0-6.70","3044294","co38077","norming","","","{""aha"":5}","[0]","../img/tt/1276tt.jpg","",""
"null","<div style=""font-size:60px;""> </div>","null","fixation","html-keyboard-response","503","1633087","0.0-6.0-0.71","3044294","co38077","norming","","","","","","",""
"null","../img/tt/036tt.jpg","null","mooney1","image-keyboard-response","504","1636091","0.0-6.0-1.71","3044294","co38077","norming","","","","","","",""
"4896.279999999097","","","post_mooney1_questions","survey-likert","505","1640991","0.0-6.0-2.71","3044294","co38077","norming","","","{""curiosity"":5,""confidence"":0}","[0,1]","../img/tt/036tt.jpg","",""
"3102.06000000122","","","recognition","survey-text","506","1644094","0.0-6.0-3.71","3044294","co38077","norming","","","{""guess"":""spinnenweb""}","","../img/tt/036tt.jpg","",""
"null","../img/gs/036gs.jpg","null","reveal","image-keyboard-response","507","1646095","0.0-6.0-4.71","3044294","co38077","norming","","","","","","",""
"null","../img/tt/036tt.jpg","null","mooney2","image-keyboard-response","508","1648099","0.0-6.0-5.71","3044294","co38077","norming","","","","","","",""
"3760.785000000382","","","post_reveal_questions","survey-likert","509","1651862","0.0-6.0-6.71","3044294","co38077","norming","","","{""aha"":4}","[0]","../img/tt/036tt.jpg","",""
"null","<div style=""font-size:60px;""> </div>","null","fixation","html-keyboard-response","510","1652063","0.0-6.0-0.72","3044294","co38077","norming","","","","","","",""
"null","../img/tt/522tt.jpg","null","mooney1","image-keyboard-response","511","1655067","0.0-6.0-1.72","3044294","co38077","norming","","","","","","",""
"3496.470000000205","","","post_mooney1_questions","survey-likert","512","1658567","0.0-6.0-2.72","3044294","co38077","norming","","","{""curiosity"":0,""confidence"":6}","[0,1]","../img/tt/522tt.jpg","",""
"1205.7400000011548","","","recognition","survey-text","513","1659774","0.0-6.0-3.72","3044294","co38077","norming","","","{""guess"":""kat""}","","../img/tt/522tt.jpg","",""
"null","../img/gs/522gs.jpg","null","reveal","image-keyboard-response","514","1661785","0.0-6.0-4.72","3044294","co38077","norming","","","","","","",""
"null","../img/tt/522tt.jpg","null","mooney2","image-keyboard-response","515","1663787","0.0-6.0-5.72","3044294","co38077","norming","","","","","","",""
"1298.995000001043","","","post_reveal_questions","survey-likert","516","1665086","0.0-6.0-6.72","3044294","co38077","norming","","","{""aha"":0}","[0]","../img/tt/522tt.jpg","",""
"null","<div style=""font-size:60px;""> </div>","null","fixation","html-keyboard-response","517","1665288","0.0-6.0-0.73","3044294","co38077","norming","","","","","","",""
"null","../img/tt/1084tt.jpg","null","mooney1","image-keyboard-response","518","1668297","0.0-6.0-1.73","3044294","co38077","norming","","","","","","",""
"3604.015000000829","","","post_mooney1_questions","survey-likert","519","1671903","0.0-6.0-2.73","3044294","co38077","norming","","","{""curiosity"":5,""confidence"":2}","[0,1]","../img/tt/1084tt.jpg","",""
"1069.7700000000186","","","recognition","survey-text","520","1672974","0.0-6.0-3.73","3044294","co38077","norming","","","{""guess"":""kat""}","","../img/tt/1084tt.jpg","",""
"null","../img/gs/1084gs.jpg","null","reveal","image-keyboard-response","521","1674979","0.0-6.0-4.73","3044294","co38077","norming","","","","","","",""
"null","../img/tt/1084tt.jpg","null","mooney2","image-keyboard-response","522","1676987","0.0-6.0-5.73","3044294","co38077","norming","","","","","","",""
"3120.6750000000466","","","post_reveal_questions","survey-likert","523","1680110","0.0-6.0-6.73","3044294","co38077","norming","","","{""aha"":4}","[0]","../img/tt/1084tt.jpg","",""
"null","<div style=""font-size:60px;""> </div>","null","fixation","html-keyboard-response","524","1680312","0.0-6.0-0.74","3044294","co38077","norming","","","","","","",""
"null","../img/tt/1362tt.jpg","null","mooney1","image-keyboard-response","525","1683318","0.0-6.0-1.74","3044294","co38077","norming","","","","","","",""
"2940.504999998724","","","post_mooney1_questions","survey-likert","526","1686262","0.0-6.0-2.74","3044294","co38077","norming","","","{""curiosity"":5,""confidence"":2}","[0,1]","../img/tt/1362tt.jpg","",""
"1750.2800000002608","","","recognition","survey-text","527","1688014","0.0-6.0-3.74","3044294","co38077","norming","","","{""guess"":""aanrecht""}","","../img/tt/1362tt.jpg","",""
"null","../img/gs/1362gs.jpg","null","reveal","image-keyboard-response","528","1690016","0.0-6.0-4.74","3044294","co38077","norming","","","","","","",""
"null","../img/tt/1362tt.jpg","null","mooney2","image-keyboard-response","529","1692026","0.0-6.0-5.74","3044294","co38077","norming","","","","","","",""
"4209.855000000913","","","post_reveal_questions","survey-likert","530","1696238","0.0-6.0-6.74","3044294","co38077","norming","","","{""aha"":1}","[0]","../img/tt/1362tt.jpg","",""
"null","<div style=""font-size:60px;""> </div>","null","fixation","html-keyboard-response","531","1696439","0.0-6.0-0.75","3044294","co38077","norming","","","","","","",""
"null","../img/tt/1159tt.jpg","null","mooney1","image-keyboard-response","532","1699444","0.0-6.0-1.75","3044294","co38077","norming","","","","","","",""
"3702.840000000084","","","post_mooney1_questions","survey-likert","533","1703151","0.0-6.0-2.75","3044294","co38077","norming","","","{""curiosity"":2,""confidence"":4}","[0,1]","../img/tt/1159tt.jpg","",""
"2925.8349999999627","","","recognition","survey-text","534","1706078","0.0-6.0-3.75","3044294","co38077","norming","","","{""guess"":""skatboarden""}","","../img/tt/1159tt.jpg","",""
"null","../img/gs/1159gs.jpg","null","reveal","image-keyboard-response","535","1708084","0.0-6.0-4.75","3044294","co38077","norming","","","","","","",""
"null","../img/tt/1159tt.jpg","null","mooney2","image-keyboard-response","536","1710091","0.0-6.0-5.75","3044294","co38077","norming","","","","","","",""
"1968.069999998901","","","post_reveal_questions","survey-likert","537","1712062","0.0-6.0-6.75","3044294","co38077","norming","","","{""aha"":1}","[0]","../img/tt/1159tt.jpg","",""
"null","<div style=""font-size:60px;""> </div>","null","fixation","html-keyboard-response","538","1712264","0.0-6.0-0.76","3044294","co38077","norming","","","","","","",""
"null","../img/tt/079tt.jpg","null","mooney1","image-keyboard-response","539","1715267","0.0-6.0-1.76","3044294","co38077","norming","","","","","","",""
"5760.210000000196","","","post_mooney1_questions","survey-likert","540","1721030","0.0-6.0-2.76","3044294","co38077","norming","","","{""curiosity"":2,""confidence"":3}","[0,1]","../img/tt/079tt.jpg","",""
"1254.1049999999814","","","recognition","survey-text","541","1722286","0.0-6.0-3.76","3044294","co38077","norming","","","{""guess"":""beer""}","","../img/tt/079tt.jpg","",""
"null","../img/gs/079gs.jpg","null","reveal","image-keyboard-response","542","1724291","0.0-6.0-4.76","3044294","co38077","norming","","","","","","",""
"null","../img/tt/079tt.jpg","null","mooney2","image-keyboard-response","543","1726294","0.0-6.0-5.76","3044294","co38077","norming","","","","","","",""
"2509.454999999609","","","post_reveal_questions","survey-likert","544","1728806","0.0-6.0-6.76","3044294","co38077","norming","","","{""aha"":1}","[0]","../img/tt/079tt.jpg","",""
"null","<div style=""font-size:60px;""> </div>","null","fixation","html-keyboard-response","545","1729007","0.0-6.0-0.77","3044294","co38077","norming","","","","","","",""
"null","../img/tt/1309tt.jpg","null","mooney1","image-keyboard-response","546","1732012","0.0-6.0-1.77","3044294","co38077","norming","","","","","","",""
"3319.0150000010617","","","post_mooney1_questions","survey-likert","547","1735334","0.0-6.0-2.77","3044294","co38077","norming","","","{""curiosity"":3,""confidence"":2}","[0,1]","../img/tt/1309tt.jpg","",""
"2197.640000000363","","","recognition","survey-text","548","1737531","0.0-6.0-3.77","3044294","co38077","norming","","","{""guess"":""auto""}","","../img/tt/1309tt.jpg","",""
"null","../img/gs/1309gs.jpg","null","reveal","image-keyboard-response","549","1739542","0.0-6.0-4.77","3044294","co38077","norming","","","","","","",""
"null","../img/tt/1309tt.jpg","null","mooney2","image-keyboard-response","550","1741551","0.0-6.0-5.77","3044294","co38077","norming","","","","","","",""
"6521.979999999516","","","post_reveal_questions","survey-likert","551","1748076","0.0-6.0-6.77","3044294","co38077","norming","","","{""aha"":0}","[0]","../img/tt/1309tt.jpg","",""
