"rt","stimulus","key_press","test_part","trial_type","trial_index","time_elapsed","internal_node_id","totalTime","subject","experiment_name","button_pressed","success","responses","question_order","currentStim","old","correct"
"5481.424999998126","Welcome to the experiment. This is an online experiment so please don't close the tab/window until we say goodbye.  Press any key to begin.","32","instructions","html-keyboard-response","0","5496","0.0-0.0","2686081","co38164","norming","","","","","","",""
"32896.59499999834","<div style='word-wrap: break-word; width: 900px'><h3>Please consider this information carefully before deciding whether to participate in this research</h3><ul style='text-align: left; font-size: .8em;'><li><b>Purpose of the research</b>: To examine how people process images.</li><li><b>What you will do in this research</b>:  Stimuli (images) will be presented on the computer and you will be asked different questions about them.</li><li><b>Time required</b>: Participation will take between 45 and 60 minutes to complete.</li><li><b>Risks</b>:  There are no anticipated risks associated with participating in this study. The effects of participating should be comparable to those you would experience from viewing a computer monitor for 30 minutes and using a mouse or keyboard.</li><li><b>Benefits</b>:  This study provides no benefits to you individually except for the credit. The study provides important information about the nature of perception and learning.</li><li><b>Confidentiality</b>:  Your participation in this study will remain confidential. No personally identifiable information will be associated with your data. Your de-identified data may be shared with other researchers and used in future projects.</li><li><b>Participation and withdrawal</b>:  Your participation in this study is completely voluntary and you may refuse to participate or you may choose to withdraw at any time without penalty.</li><li><b>How to contact the researchers</b>: If you have questions or concerns about your participation or payment, or want to request a summary of research findings, please contact Sander Van de Cruys (KU Leuven), at sander.vandecruys@kuleuven.be.</li></ul><p>The nature and purpose of this research have been sufficiently explained and I agree to participate in this study.  I understand that I am free to withdraw at any time without incurring any penalty.</p><p>Please consent by clicking the button below to continue. Otherwise, please exit the study at this time.</p></div>","","instructions","html-button-response","1","38391","0.0-1.0","2686081","co38164","norming","0","","","","","",""
"","","","instructions","fullscreen","2","45087","0.0-2.0","2686081","co38164","norming","","true","","","","",""
"24556.469999999536","","","sona","survey-html-form","3","69650","0.0-3.0","2686081","co38164","norming","","","[{""name"":""sonaid"",""value"":""38164""},{""name"":""debrief"",""value"":""no""},{""name"":""datajoin"",""value"":""yes""}]","","","",""
"61035.139999999956","<div style='word-wrap: break-word; width: 900px'><h3>Instructions</h3><p>This experiment will have 3 parts. In the first part you will see a series of distorted images like the one below on the left. As you can see in the righthand image, the distorted images are derived from actual photographs. In what follows, you will <strong>briefly</strong> be presented with <strong>only</strong> the distorted image.</p> <div style='float: left; margin-right: 20px;'><img src='../img/018tt.jpg' height='250' width='250'></img></div><div style='float: right; margin-left: 20px;'><img src='../img/018gs.jpg' height='250' width='250'></img></div><p>Subsequently you will be asked a few questions about the image: One question on how <strong>curious</strong> you are about the solution and one on how <strong>confident</strong> you are that you know the solution.</p>Next, we ask you to make a guess on what is in the image. Note that it is OK to name just the <strong>basic level category</strong>. For example when you see a parrot in the image, 'parrot' will obviously be a correct answer but also correct is 'bird'. However, 'animal' will <strong>not</strong> be counted as a correct response. For the example above, 'rose' would be correct or 'flower', but not 'plant'. When soccer players are depicted, 'soccer', 'football', 'soccer players' will be correct, but not 'humans', 'outdoors', or 'sports'. You do not need to describe the image in full, just name the main object in it <strong>in one or two words</strong>. All images depict objects from one of the following broad level categories: animals, inanimate objects, plants, sports, vehicles, and food. Recognizing means knowing <strong>more</strong> than these broad labels for a given image. But we always encourage you to <strong>make a guess</strong> if you can. Note that you are allowed to use <strong>Dutch and English</strong> in your answers, whatever comes easiest for you.</p><p>Press any key to continue.</p></div>","32","instructions","html-keyboard-response","4","130686","0.0-4.0","2686081","co38164","norming","","","","","","",""
"113070.62500000029","<div style='word-wrap: break-word; width: 900px'><h3>Instructions</h3> <p>Next, the solution image will be revealed to you and you'll be asked to indicate how strong your <strong>aha-experience</strong> was after seeing the solution. This describes the positive feeling of the 'click' you sometimes experience, when the pieces of the 'puzzle' fall together and you suddenly have 'insight' in the image.</p><img src='aha.jpg' height='188' width='250'></img><p>Note that there are no right or wrong answers. We are interested in what <strong>you</strong> see in the image and how <strong>you</strong> feel about it.</p><p>Press any key to start the experiment.</p></div>","32","instructions","html-keyboard-response","5","243761","0.0-5.0","2686081","co38164","norming","","","","","","",""
"null","<div style=""font-size:60px;""> </div>","null","fixation","html-keyboard-response","6","243965","0.0-6.0-0.0","2686081","co38164","norming","","","","","","",""
"null","../img/tt/1024tt.jpg","null","mooney1","image-keyboard-response","7","246975","0.0-6.0-1.0","2686081","co38164","norming","","","","","","",""
"9245.500000000902","","","post_mooney1_questions","survey-likert","8","256224","0.0-6.0-2.0","2686081","co38164","norming","","","{""curiosity"":5,""confidence"":0}","[0,1]","../img/tt/1024tt.jpg","",""
"5277.534999997442","","","recognition","survey-text","9","261504","0.0-6.0-3.0","2686081","co38164","norming","","","{""guess"":""""}","","../img/tt/1024tt.jpg","",""
"null","../img/gs/1024gs.jpg","null","reveal","image-keyboard-response","10","263510","0.0-6.0-4.0","2686081","co38164","norming","","","","","","",""
"null","../img/tt/1024tt.jpg","null","mooney2","image-keyboard-response","11","265519","0.0-6.0-5.0","2686081","co38164","norming","","","","","","",""
"4294.610000000801","","","post_reveal_questions","survey-likert","12","269816","0.0-6.0-6.0","2686081","co38164","norming","","","{""aha"":3}","[0]","../img/tt/1024tt.jpg","",""
"null","<div style=""font-size:60px;""> </div>","null","fixation","html-keyboard-response","13","270017","0.0-6.0-0.1","2686081","co38164","norming","","","","","","",""
"null","../img/tt/1116tt.jpg","null","mooney1","image-keyboard-response","14","273028","0.0-6.0-1.1","2686081","co38164","norming","","","","","","",""
"7034.005000001343","","","post_mooney1_questions","survey-likert","15","280064","0.0-6.0-2.1","2686081","co38164","norming","","","{""curiosity"":4,""confidence"":2}","[0,1]","../img/tt/1116tt.jpg","",""
"3942.250000000058","","","recognition","survey-text","16","284008","0.0-6.0-3.1","2686081","co38164","norming","","","{""guess"":""cars""}","","../img/tt/1116tt.jpg","",""
"null","../img/gs/1116gs.jpg","null","reveal","image-keyboard-response","17","286014","0.0-6.0-4.1","2686081","co38164","norming","","","","","","",""
"null","../img/tt/1116tt.jpg","null","mooney2","image-keyboard-response","18","288016","0.0-6.0-5.1","2686081","co38164","norming","","","","","","",""
"4086.169999998645","","","post_reveal_questions","survey-likert","19","292104","0.0-6.0-6.1","2686081","co38164","norming","","","{""aha"":1}","[0]","../img/tt/1116tt.jpg","",""
"null","<div style=""font-size:60px;""> </div>","null","fixation","html-keyboard-response","20","292306","0.0-6.0-0.2","2686081","co38164","norming","","","","","","",""
"null","../img/tt/319tt.jpg","null","mooney1","image-keyboard-response","21","295314","0.0-6.0-1.2","2686081","co38164","norming","","","","","","",""
"4243.81500000169","","","post_mooney1_questions","survey-likert","22","299560","0.0-6.0-2.2","2686081","co38164","norming","","","{""curiosity"":4,""confidence"":3}","[0,1]","../img/tt/319tt.jpg","",""
"3830.0750000016997","","","recognition","survey-text","23","303392","0.0-6.0-3.2","2686081","co38164","norming","","","{""guess"":""horse""}","","../img/tt/319tt.jpg","",""
"null","../img/gs/319gs.jpg","null","reveal","image-keyboard-response","24","305411","0.0-6.0-4.2","2686081","co38164","norming","","","","","","",""
"null","../img/tt/319tt.jpg","null","mooney2","image-keyboard-response","25","307418","0.0-6.0-5.2","2686081","co38164","norming","","","","","","",""
"2909.9050000004936","","","post_reveal_questions","survey-likert","26","310330","0.0-6.0-6.2","2686081","co38164","norming","","","{""aha"":4}","[0]","../img/tt/319tt.jpg","",""
"null","<div style=""font-size:60px;""> </div>","null","fixation","html-keyboard-response","27","310533","0.0-6.0-0.3","2686081","co38164","norming","","","","","","",""
"null","../img/tt/020tt.jpg","null","mooney1","image-keyboard-response","28","313538","0.0-6.0-1.3","2686081","co38164","norming","","","","","","",""
"7133.030000000843","","","post_mooney1_questions","survey-likert","29","320674","0.0-6.0-2.3","2686081","co38164","norming","","","{""curiosity"":4,""confidence"":3}","[0,1]","../img/tt/020tt.jpg","",""
"2790.2649999996647","","","recognition","survey-text","30","323466","0.0-6.0-3.3","2686081","co38164","norming","","","{""guess"":""man""}","","../img/tt/020tt.jpg","",""
"null","../img/gs/020gs.jpg","null","reveal","image-keyboard-response","31","325469","0.0-6.0-4.3","2686081","co38164","norming","","","","","","",""
"null","../img/tt/020tt.jpg","null","mooney2","image-keyboard-response","32","327473","0.0-6.0-5.3","2686081","co38164","norming","","","","","","",""
"3567.0249999966472","","","post_reveal_questions","survey-likert","33","331042","0.0-6.0-6.3","2686081","co38164","norming","","","{""aha"":1}","[0]","../img/tt/020tt.jpg","",""
"null","<div style=""font-size:60px;""> </div>","null","fixation","html-keyboard-response","34","331244","0.0-6.0-0.4","2686081","co38164","norming","","","","","","",""
"null","../img/tt/590tt.jpg","null","mooney1","image-keyboard-response","35","334252","0.0-6.0-1.4","2686081","co38164","norming","","","","","","",""
"4244.430000002438","","","post_mooney1_questions","survey-likert","36","338498","0.0-6.0-2.4","2686081","co38164","norming","","","{""curiosity"":5,""confidence"":1}","[0,1]","../img/tt/590tt.jpg","",""
"2389.839999999793","","","recognition","survey-text","37","340890","0.0-6.0-3.4","2686081","co38164","norming","","","{""guess"":""plane""}","","../img/tt/590tt.jpg","",""
"null","../img/gs/590gs.jpg","null","reveal","image-keyboard-response","38","342898","0.0-6.0-4.4","2686081","co38164","norming","","","","","","",""
"null","../img/tt/590tt.jpg","null","mooney2","image-keyboard-response","39","344912","0.0-6.0-5.4","2686081","co38164","norming","","","","","","",""
"4015.5999999988126","","","post_reveal_questions","survey-likert","40","348930","0.0-6.0-6.4","2686081","co38164","norming","","","{""aha"":4}","[0]","../img/tt/590tt.jpg","",""
"null","<div style=""font-size:60px;""> </div>","null","fixation","html-keyboard-response","41","349138","0.0-6.0-0.5","2686081","co38164","norming","","","","","","",""
"null","../img/tt/436tt.jpg","null","mooney1","image-keyboard-response","42","352147","0.0-6.0-1.5","2686081","co38164","norming","","","","","","",""
"4644.879999999888","","","post_mooney1_questions","survey-likert","43","356794","0.0-6.0-2.5","2686081","co38164","norming","","","{""curiosity"":5,""confidence"":3}","[0,1]","../img/tt/436tt.jpg","",""
"2718.1450000025216","","","recognition","survey-text","44","359514","0.0-6.0-3.5","2686081","co38164","norming","","","{""guess"":""insect""}","","../img/tt/436tt.jpg","",""
"null","../img/gs/436gs.jpg","null","reveal","image-keyboard-response","45","361523","0.0-6.0-4.5","2686081","co38164","norming","","","","","","",""
"null","../img/tt/436tt.jpg","null","mooney2","image-keyboard-response","46","363524","0.0-6.0-5.5","2686081","co38164","norming","","","","","","",""
"3619.1900000012247","","","post_reveal_questions","survey-likert","47","367148","0.0-6.0-6.5","2686081","co38164","norming","","","{""aha"":4}","[0]","../img/tt/436tt.jpg","",""
"null","<div style=""font-size:60px;""> </div>","null","fixation","html-keyboard-response","48","367349","0.0-6.0-0.6","2686081","co38164","norming","","","","","","",""
"null","../img/tt/1227tt.jpg","null","mooney1","image-keyboard-response","49","370355","0.0-6.0-1.6","2686081","co38164","norming","","","","","","",""
"5030.535000001721","","","post_mooney1_questions","survey-likert","50","375388","0.0-6.0-2.6","2686081","co38164","norming","","","{""curiosity"":5,""confidence"":1}","[0,1]","../img/tt/1227tt.jpg","",""
"2430.130000000645","","","recognition","survey-text","51","377820","0.0-6.0-3.6","2686081","co38164","norming","","","{""guess"":""grass""}","","../img/tt/1227tt.jpg","",""
"null","../img/gs/1227gs.jpg","null","reveal","image-keyboard-response","52","379826","0.0-6.0-4.6","2686081","co38164","norming","","","","","","",""
"null","../img/tt/1227tt.jpg","null","mooney2","image-keyboard-response","53","381828","0.0-6.0-5.6","2686081","co38164","norming","","","","","","",""
"3430.3450000006706","","","post_reveal_questions","survey-likert","54","385260","0.0-6.0-6.6","2686081","co38164","norming","","","{""aha"":4}","[0]","../img/tt/1227tt.jpg","",""
"null","<div style=""font-size:60px;""> </div>","null","fixation","html-keyboard-response","55","385467","0.0-6.0-0.7","2686081","co38164","norming","","","","","","",""
"null","../img/tt/082tt.jpg","null","mooney1","image-keyboard-response","56","388470","0.0-6.0-1.7","2686081","co38164","norming","","","","","","",""
"4275.245000000752","","","post_mooney1_questions","survey-likert","57","392748","0.0-6.0-2.7","2686081","co38164","norming","","","{""curiosity"":5,""confidence"":4}","[0,1]","../img/tt/082tt.jpg","",""
"2078.174999998708","","","recognition","survey-text","58","394828","0.0-6.0-3.7","2686081","co38164","norming","","","{""guess"":""bird""}","","../img/tt/082tt.jpg","",""
"null","../img/gs/082gs.jpg","null","reveal","image-keyboard-response","59","396836","0.0-6.0-4.7","2686081","co38164","norming","","","","","","",""
"null","../img/tt/082tt.jpg","null","mooney2","image-keyboard-response","60","398838","0.0-6.0-5.7","2686081","co38164","norming","","","","","","",""
"4539.564999999129","","","post_reveal_questions","survey-likert","61","403380","0.0-6.0-6.7","2686081","co38164","norming","","","{""aha"":4}","[0]","../img/tt/082tt.jpg","",""
"null","<div style=""font-size:60px;""> </div>","null","fixation","html-keyboard-response","62","403584","0.0-6.0-0.8","2686081","co38164","norming","","","","","","",""
"null","../img/tt/1006tt.jpg","null","mooney1","image-keyboard-response","63","406595","0.0-6.0-1.8","2686081","co38164","norming","","","","","","",""
"4048.3800000001793","","","post_mooney1_questions","survey-likert","64","410644","0.0-6.0-2.8","2686081","co38164","norming","","","{""curiosity"":5,""confidence"":2}","[0,1]","../img/tt/1006tt.jpg","",""
"2774.375000000815","","","recognition","survey-text","65","413420","0.0-6.0-3.8","2686081","co38164","norming","","","{""guess"":""cow""}","","../img/tt/1006tt.jpg","",""
"null","../img/gs/1006gs.jpg","null","reveal","image-keyboard-response","66","415428","0.0-6.0-4.8","2686081","co38164","norming","","","","","","",""
"null","../img/tt/1006tt.jpg","null","mooney2","image-keyboard-response","67","417435","0.0-6.0-5.8","2686081","co38164","norming","","","","","","",""
"2166.815000000526","","","post_reveal_questions","survey-likert","68","419604","0.0-6.0-6.8","2686081","co38164","norming","","","{""aha"":5}","[0]","../img/tt/1006tt.jpg","",""
"null","<div style=""font-size:60px;""> </div>","null","fixation","html-keyboard-response","69","419812","0.0-6.0-0.9","2686081","co38164","norming","","","","","","",""
"null","../img/tt/1002tt.jpg","null","mooney1","image-keyboard-response","70","422821","0.0-6.0-1.9","2686081","co38164","norming","","","","","","",""
"4701.8800000005285","","","post_mooney1_questions","survey-likert","71","427520","0.0-6.0-2.9","2686081","co38164","norming","","","{""curiosity"":5,""confidence"":4}","[0,1]","../img/tt/1002tt.jpg","",""
"3622.4050000018906","","","recognition","survey-text","72","431144","0.0-6.0-3.9","2686081","co38164","norming","","","{""guess"":""olifant""}","","../img/tt/1002tt.jpg","",""
"null","../img/gs/1002gs.jpg","null","reveal","image-keyboard-response","73","433151","0.0-6.0-4.9","2686081","co38164","norming","","","","","","",""
"null","../img/tt/1002tt.jpg","null","mooney2","image-keyboard-response","74","435153","0.0-6.0-5.9","2686081","co38164","norming","","","","","","",""
"2612.1899999998277","","","post_reveal_questions","survey-likert","75","437768","0.0-6.0-6.9","2686081","co38164","norming","","","{""aha"":2}","[0]","../img/tt/1002tt.jpg","",""
"null","<div style=""font-size:60px;""> </div>","null","fixation","html-keyboard-response","76","437970","0.0-6.0-0.10","2686081","co38164","norming","","","","","","",""
"null","../img/tt/1243tt.jpg","null","mooney1","image-keyboard-response","77","440982","0.0-6.0-1.10","2686081","co38164","norming","","","","","","",""
"6207.454999999725","","","post_mooney1_questions","survey-likert","78","447192","0.0-6.0-2.10","2686081","co38164","norming","","","{""curiosity"":4,""confidence"":3}","[0,1]","../img/tt/1243tt.jpg","",""
"2126.2799999967683","","","recognition","survey-text","79","449320","0.0-6.0-3.10","2686081","co38164","norming","","","{""guess"":""aap""}","","../img/tt/1243tt.jpg","",""
"null","../img/gs/1243gs.jpg","null","reveal","image-keyboard-response","80","451326","0.0-6.0-4.10","2686081","co38164","norming","","","","","","",""
"null","../img/tt/1243tt.jpg","null","mooney2","image-keyboard-response","81","453329","0.0-6.0-5.10","2686081","co38164","norming","","","","","","",""
"1820.7350000011502","","","post_reveal_questions","survey-likert","82","455152","0.0-6.0-6.10","2686081","co38164","norming","","","{""aha"":5}","[0]","../img/tt/1243tt.jpg","",""
"null","<div style=""font-size:60px;""> </div>","null","fixation","html-keyboard-response","83","455353","0.0-6.0-0.11","2686081","co38164","norming","","","","","","",""
"null","../img/tt/442tt.jpg","null","mooney1","image-keyboard-response","84","458355","0.0-6.0-1.11","2686081","co38164","norming","","","","","","",""
"3385.9100000008475","","","post_mooney1_questions","survey-likert","85","461744","0.0-6.0-2.11","2686081","co38164","norming","","","{""curiosity"":6,""confidence"":1}","[0,1]","../img/tt/442tt.jpg","",""
"902.0149999996647","","","recognition","survey-text","86","462647","0.0-6.0-3.11","2686081","co38164","norming","","","{""guess"":""""}","","../img/tt/442tt.jpg","",""
"null","../img/gs/442gs.jpg","null","reveal","image-keyboard-response","87","464649","0.0-6.0-4.11","2686081","co38164","norming","","","","","","",""
"null","../img/tt/442tt.jpg","null","mooney2","image-keyboard-response","88","466660","0.0-6.0-5.11","2686081","co38164","norming","","","","","","",""
"2618.7749999989755","","","post_reveal_questions","survey-likert","89","469279","0.0-6.0-6.11","2686081","co38164","norming","","","{""aha"":5}","[0]","../img/tt/442tt.jpg","",""
"null","<div style=""font-size:60px;""> </div>","null","fixation","html-keyboard-response","90","469488","0.0-6.0-0.12","2686081","co38164","norming","","","","","","",""
"null","../img/tt/522tt.jpg","null","mooney1","image-keyboard-response","91","472489","0.0-6.0-1.12","2686081","co38164","norming","","","","","","",""
"6588.009999999485","","","post_mooney1_questions","survey-likert","92","479080","0.0-6.0-2.12","2686081","co38164","norming","","","{""curiosity"":4,""confidence"":2}","[0,1]","../img/tt/522tt.jpg","",""
"2510.0399999973597","","","recognition","survey-text","93","481591","0.0-6.0-3.12","2686081","co38164","norming","","","{""guess"":""man""}","","../img/tt/522tt.jpg","",""
"null","../img/gs/522gs.jpg","null","reveal","image-keyboard-response","94","483599","0.0-6.0-4.12","2686081","co38164","norming","","","","","","",""
"null","../img/tt/522tt.jpg","null","mooney2","image-keyboard-response","95","485601","0.0-6.0-5.12","2686081","co38164","norming","","","","","","",""
"2084.150000002468","","","post_reveal_questions","survey-likert","96","487695","0.0-6.0-6.12","2686081","co38164","norming","","","{""aha"":6}","[0]","../img/tt/522tt.jpg","",""
"null","<div style=""font-size:60px;""> </div>","null","fixation","html-keyboard-response","97","487897","0.0-6.0-0.13","2686081","co38164","norming","","","","","","",""
"null","../img/tt/013tt.jpg","null","mooney1","image-keyboard-response","98","490901","0.0-6.0-1.13","2686081","co38164","norming","","","","","","",""
"9287.44000000006","","","post_mooney1_questions","survey-likert","99","500191","0.0-6.0-2.13","2686081","co38164","norming","","","{""curiosity"":5,""confidence"":1}","[0,1]","../img/tt/013tt.jpg","",""
"3454.075000001467","","","recognition","survey-text","100","503647","0.0-6.0-3.13","2686081","co38164","norming","","","{""guess"":""house""}","","../img/tt/013tt.jpg","",""
"null","../img/gs/013gs.jpg","null","reveal","image-keyboard-response","101","505653","0.0-6.0-4.13","2686081","co38164","norming","","","","","","",""
"null","../img/tt/013tt.jpg","null","mooney2","image-keyboard-response","102","507656","0.0-6.0-5.13","2686081","co38164","norming","","","","","","",""
"2229.185000000114","","","post_reveal_questions","survey-likert","103","509887","0.0-6.0-6.13","2686081","co38164","norming","","","{""aha"":6}","[0]","../img/tt/013tt.jpg","",""
"null","<div style=""font-size:60px;""> </div>","null","fixation","html-keyboard-response","104","510092","0.0-6.0-0.14","2686081","co38164","norming","","","","","","",""
"null","../img/tt/189tt.jpg","null","mooney1","image-keyboard-response","105","513096","0.0-6.0-1.14","2686081","co38164","norming","","","","","","",""
"9588.07499999972","","","post_mooney1_questions","survey-likert","106","522687","0.0-6.0-2.14","2686081","co38164","norming","","","{""curiosity"":5,""confidence"":0}","[0,1]","../img/tt/189tt.jpg","",""
"933.9599999984493","","","recognition","survey-text","107","523623","0.0-6.0-3.14","2686081","co38164","norming","","","{""guess"":""""}","","../img/tt/189tt.jpg","",""
"null","../img/gs/189gs.jpg","null","reveal","image-keyboard-response","108","525634","0.0-6.0-4.14","2686081","co38164","norming","","","","","","",""
"null","../img/tt/189tt.jpg","null","mooney2","image-keyboard-response","109","527644","0.0-6.0-5.14","2686081","co38164","norming","","","","","","",""
"2208.330000001355","","","post_reveal_questions","survey-likert","110","529855","0.0-6.0-6.14","2686081","co38164","norming","","","{""aha"":5}","[0]","../img/tt/189tt.jpg","",""
"null","<div style=""font-size:60px;""> </div>","null","fixation","html-keyboard-response","111","530056","0.0-6.0-0.15","2686081","co38164","norming","","","","","","",""
"null","../img/tt/1127tt.jpg","null","mooney1","image-keyboard-response","112","533067","0.0-6.0-1.15","2686081","co38164","norming","","","","","","",""
"5713.53999999701","","","post_mooney1_questions","survey-likert","113","538783","0.0-6.0-2.15","2686081","co38164","norming","","","{""curiosity"":5,""confidence"":1}","[0,1]","../img/tt/1127tt.jpg","",""
"5998.149999999441","","","recognition","survey-text","114","544783","0.0-6.0-3.15","2686081","co38164","norming","","","{""guess"":""living room""}","","../img/tt/1127tt.jpg","",""
"null","../img/gs/1127gs.jpg","null","reveal","image-keyboard-response","115","546786","0.0-6.0-4.15","2686081","co38164","norming","","","","","","",""
"null","../img/tt/1127tt.jpg","null","mooney2","image-keyboard-response","116","548789","0.0-6.0-5.15","2686081","co38164","norming","","","","","","",""
"2633.8950000025798","","","post_reveal_questions","survey-likert","117","551425","0.0-6.0-6.15","2686081","co38164","norming","","","{""aha"":2}","[0]","../img/tt/1127tt.jpg","",""
"null","<div style=""font-size:60px;""> </div>","null","fixation","html-keyboard-response","118","551628","0.0-6.0-0.16","2686081","co38164","norming","","","","","","",""
"null","../img/tt/1122tt.jpg","null","mooney1","image-keyboard-response","119","554636","0.0-6.0-1.16","2686081","co38164","norming","","","","","","",""
"3996.1600000024773","","","post_mooney1_questions","survey-likert","120","558633","0.0-6.0-2.16","2686081","co38164","norming","","","{""curiosity"":4,""confidence"":4}","[0,1]","../img/tt/1122tt.jpg","",""
"2421.859999998589","","","recognition","survey-text","121","561057","0.0-6.0-3.16","2686081","co38164","norming","","","{""guess"":""boot""}","","../img/tt/1122tt.jpg","",""
"null","../img/gs/1122gs.jpg","null","reveal","image-keyboard-response","122","563061","0.0-6.0-4.16","2686081","co38164","norming","","","","","","",""
"null","../img/tt/1122tt.jpg","null","mooney2","image-keyboard-response","123","565063","0.0-6.0-5.16","2686081","co38164","norming","","","","","","",""
"1831.7700000006007","","","post_reveal_questions","survey-likert","124","566897","0.0-6.0-6.16","2686081","co38164","norming","","","{""aha"":2}","[0]","../img/tt/1122tt.jpg","",""
"null","<div style=""font-size:60px;""> </div>","null","fixation","html-keyboard-response","125","567099","0.0-6.0-0.17","2686081","co38164","norming","","","","","","",""
"null","../img/tt/1055tt.jpg","null","mooney1","image-keyboard-response","126","570108","0.0-6.0-1.17","2686081","co38164","norming","","","","","","",""
"4811.304999999236","","","post_mooney1_questions","survey-likert","127","574921","0.0-6.0-2.17","2686081","co38164","norming","","","{""curiosity"":5,""confidence"":2}","[0,1]","../img/tt/1055tt.jpg","",""
"2678.0800000014715","","","recognition","survey-text","128","577601","0.0-6.0-3.17","2686081","co38164","norming","","","{""guess"":""schoen""}","","../img/tt/1055tt.jpg","",""
"null","../img/gs/1055gs.jpg","null","reveal","image-keyboard-response","129","579611","0.0-6.0-4.17","2686081","co38164","norming","","","","","","",""
"null","../img/tt/1055tt.jpg","null","mooney2","image-keyboard-response","130","581613","0.0-6.0-5.17","2686081","co38164","norming","","","","","","",""
"1858.039999999106","","","post_reveal_questions","survey-likert","131","583473","0.0-6.0-6.17","2686081","co38164","norming","","","{""aha"":4}","[0]","../img/tt/1055tt.jpg","",""
"null","<div style=""font-size:60px;""> </div>","null","fixation","html-keyboard-response","132","583675","0.0-6.0-0.18","2686081","co38164","norming","","","","","","",""
"null","../img/tt/435tt.jpg","null","mooney1","image-keyboard-response","133","586685","0.0-6.0-1.18","2686081","co38164","norming","","","","","","",""
"5171.354999998584","","","post_mooney1_questions","survey-likert","134","591857","0.0-6.0-2.18","2686081","co38164","norming","","","{""curiosity"":5,""confidence"":0}","[0,1]","../img/tt/435tt.jpg","",""
"677.7750000001397","","","recognition","survey-text","135","592537","0.0-6.0-3.18","2686081","co38164","norming","","","{""guess"":""""}","","../img/tt/435tt.jpg","",""
"null","../img/gs/435gs.jpg","null","reveal","image-keyboard-response","136","594540","0.0-6.0-4.18","2686081","co38164","norming","","","","","","",""
"null","../img/tt/435tt.jpg","null","mooney2","image-keyboard-response","137","596548","0.0-6.0-5.18","2686081","co38164","norming","","","","","","",""
"2996.084999998915","","","post_reveal_questions","survey-likert","138","599545","0.0-6.0-6.18","2686081","co38164","norming","","","{""aha"":4}","[0]","../img/tt/435tt.jpg","",""
"null","<div style=""font-size:60px;""> </div>","null","fixation","html-keyboard-response","139","599750","0.0-6.0-0.19","2686081","co38164","norming","","","","","","",""
"null","../img/tt/063tt.jpg","null","mooney1","image-keyboard-response","140","602753","0.0-6.0-1.19","2686081","co38164","norming","","","","","","",""
"3901.1849999987753","","","post_mooney1_questions","survey-likert","141","606657","0.0-6.0-2.19","2686081","co38164","norming","","","{""curiosity"":4,""confidence"":5}","[0,1]","../img/tt/063tt.jpg","",""
"3630.389999998384","","","recognition","survey-text","142","610290","0.0-6.0-3.19","2686081","co38164","norming","","","{""guess"":""accordeon""}","","../img/tt/063tt.jpg","",""
"null","../img/gs/063gs.jpg","null","reveal","image-keyboard-response","143","612295","0.0-6.0-4.19","2686081","co38164","norming","","","","","","",""
"null","../img/tt/063tt.jpg","null","mooney2","image-keyboard-response","144","614297","0.0-6.0-5.19","2686081","co38164","norming","","","","","","",""
"2911.355000000214","","","post_reveal_questions","survey-likert","145","617210","0.0-6.0-6.19","2686081","co38164","norming","","","{""aha"":1}","[0]","../img/tt/063tt.jpg","",""
"null","<div style=""font-size:60px;""> </div>","null","fixation","html-keyboard-response","146","617418","0.0-6.0-0.20","2686081","co38164","norming","","","","","","",""
"null","../img/tt/412tt.jpg","null","mooney1","image-keyboard-response","147","620428","0.0-6.0-1.20","2686081","co38164","norming","","","","","","",""
"3813.074999998207","","","post_mooney1_questions","survey-likert","148","624243","0.0-6.0-2.20","2686081","co38164","norming","","","{""curiosity"":4,""confidence"":2}","[0,1]","../img/tt/412tt.jpg","",""
"3950.3599999989383","","","recognition","survey-text","149","628194","0.0-6.0-3.20","2686081","co38164","norming","","","{""guess"":""bottle""}","","../img/tt/412tt.jpg","",""
"null","../img/gs/412gs.jpg","null","reveal","image-keyboard-response","150","630196","0.0-6.0-4.20","2686081","co38164","norming","","","","","","",""
"null","../img/tt/412tt.jpg","null","mooney2","image-keyboard-response","151","632198","0.0-6.0-5.20","2686081","co38164","norming","","","","","","",""
"2297.964999997872","","","post_reveal_questions","survey-likert","152","634498","0.0-6.0-6.20","2686081","co38164","norming","","","{""aha"":1}","[0]","../img/tt/412tt.jpg","",""
"null","<div style=""font-size:60px;""> </div>","null","fixation","html-keyboard-response","153","634699","0.0-6.0-0.21","2686081","co38164","norming","","","","","","",""
"null","../img/tt/1063tt.jpg","null","mooney1","image-keyboard-response","154","637702","0.0-6.0-1.21","2686081","co38164","norming","","","","","","",""
"3675.2550000018673","","","post_mooney1_questions","survey-likert","155","641378","0.0-6.0-2.21","2686081","co38164","norming","","","{""curiosity"":4,""confidence"":4}","[0,1]","../img/tt/1063tt.jpg","",""
"3102.360000000801","","","recognition","survey-text","156","644482","0.0-6.0-3.21","2686081","co38164","norming","","","{""guess"":""paard""}","","../img/tt/1063tt.jpg","",""
"null","../img/gs/1063gs.jpg","null","reveal","image-keyboard-response","157","646489","0.0-6.0-4.21","2686081","co38164","norming","","","","","","",""
"null","../img/tt/1063tt.jpg","null","mooney2","image-keyboard-response","158","648498","0.0-6.0-5.21","2686081","co38164","norming","","","","","","",""
"2302.175000000745","","","post_reveal_questions","survey-likert","159","650802","0.0-6.0-6.21","2686081","co38164","norming","","","{""aha"":2}","[0]","../img/tt/1063tt.jpg","",""
"null","<div style=""font-size:60px;""> </div>","null","fixation","html-keyboard-response","160","651008","0.0-6.0-0.22","2686081","co38164","norming","","","","","","",""
"null","../img/tt/1046tt.jpg","null","mooney1","image-keyboard-response","161","654013","0.0-6.0-1.22","2686081","co38164","norming","","","","","","",""
"3939.045000002836","","","post_mooney1_questions","survey-likert","162","657955","0.0-6.0-2.22","2686081","co38164","norming","","","{""curiosity"":4,""confidence"":1}","[0,1]","../img/tt/1046tt.jpg","",""
"3166.189999999944","","","recognition","survey-text","163","661122","0.0-6.0-3.22","2686081","co38164","norming","","","{""guess"":""painting""}","","../img/tt/1046tt.jpg","",""
"null","../img/gs/1046gs.jpg","null","reveal","image-keyboard-response","164","663129","0.0-6.0-4.22","2686081","co38164","norming","","","","","","",""
"null","../img/tt/1046tt.jpg","null","mooney2","image-keyboard-response","165","665130","0.0-6.0-5.22","2686081","co38164","norming","","","","","","",""
"2717.6749999998137","","","post_reveal_questions","survey-likert","166","667845","0.0-6.0-6.22","2686081","co38164","norming","","","{""aha"":1}","[0]","../img/tt/1046tt.jpg","",""
"null","<div style=""font-size:60px;""> </div>","null","fixation","html-keyboard-response","167","668046","0.0-6.0-0.23","2686081","co38164","norming","","","","","","",""
"null","../img/tt/1033tt.jpg","null","mooney1","image-keyboard-response","168","671050","0.0-6.0-1.23","2686081","co38164","norming","","","","","","",""
"5712.275000001653","","","post_mooney1_questions","survey-likert","169","676765","0.0-6.0-2.23","2686081","co38164","norming","","","{""curiosity"":5,""confidence"":2}","[0,1]","../img/tt/1033tt.jpg","",""
"5181.9550000000745","","","recognition","survey-text","170","681948","0.0-6.0-3.23","2686081","co38164","norming","","","{""guess"":""hoed met veer""}","","../img/tt/1033tt.jpg","",""
"null","../img/gs/1033gs.jpg","null","reveal","image-keyboard-response","171","683957","0.0-6.0-4.23","2686081","co38164","norming","","","","","","",""
"null","../img/tt/1033tt.jpg","null","mooney2","image-keyboard-response","172","685960","0.0-6.0-5.23","2686081","co38164","norming","","","","","","",""
"3234.0050000021","","","post_reveal_questions","survey-likert","173","689197","0.0-6.0-6.23","2686081","co38164","norming","","","{""aha"":4}","[0]","../img/tt/1033tt.jpg","",""
"null","<div style=""font-size:60px;""> </div>","null","fixation","html-keyboard-response","174","689398","0.0-6.0-0.24","2686081","co38164","norming","","","","","","",""
"null","../img/tt/1199tt.jpg","null","mooney1","image-keyboard-response","175","692408","0.0-6.0-1.24","2686081","co38164","norming","","","","","","",""
"4690.174999999697","","","post_mooney1_questions","survey-likert","176","697101","0.0-6.0-2.24","2686081","co38164","norming","","","{""curiosity"":5,""confidence"":3}","[0,1]","../img/tt/1199tt.jpg","",""
"3694.08999999729","","","recognition","survey-text","177","700797","0.0-6.0-3.24","2686081","co38164","norming","","","{""guess"":""piano""}","","../img/tt/1199tt.jpg","",""
"null","../img/gs/1199gs.jpg","null","reveal","image-keyboard-response","178","702806","0.0-6.0-4.24","2686081","co38164","norming","","","","","","",""
"null","../img/tt/1199tt.jpg","null","mooney2","image-keyboard-response","179","704817","0.0-6.0-5.24","2686081","co38164","norming","","","","","","",""
"2986.0350000016624","","","post_reveal_questions","survey-likert","180","707805","0.0-6.0-6.24","2686081","co38164","norming","","","{""aha"":2}","[0]","../img/tt/1199tt.jpg","",""
"null","<div style=""font-size:60px;""> </div>","null","fixation","html-keyboard-response","181","708007","0.0-6.0-0.25","2686081","co38164","norming","","","","","","",""
"null","../img/tt/598tt.jpg","null","mooney1","image-keyboard-response","182","711010","0.0-6.0-1.25","2686081","co38164","norming","","","","","","",""
"6822.3850000031525","","","post_mooney1_questions","survey-likert","183","717837","0.0-6.0-2.25","2686081","co38164","norming","","","{""curiosity"":5,""confidence"":1}","[0,1]","../img/tt/598tt.jpg","",""
"4318.155000000843","","","recognition","survey-text","184","722157","0.0-6.0-3.25","2686081","co38164","norming","","","{""guess"":""wrestling""}","","../img/tt/598tt.jpg","",""
"null","../img/gs/598gs.jpg","null","reveal","image-keyboard-response","185","724166","0.0-6.0-4.25","2686081","co38164","norming","","","","","","",""
"null","../img/tt/598tt.jpg","null","mooney2","image-keyboard-response","186","726169","0.0-6.0-5.25","2686081","co38164","norming","","","","","","",""
"2489.5099999994272","","","post_reveal_questions","survey-likert","187","728662","0.0-6.0-6.25","2686081","co38164","norming","","","{""aha"":5}","[0]","../img/tt/598tt.jpg","",""
"null","<div style=""font-size:60px;""> </div>","null","fixation","html-keyboard-response","188","728863","0.0-6.0-0.26","2686081","co38164","norming","","","","","","",""
"null","../img/tt/1202tt.jpg","null","mooney1","image-keyboard-response","189","731868","0.0-6.0-1.26","2686081","co38164","norming","","","","","","",""
"4718.344999997527","","","post_mooney1_questions","survey-likert","190","736590","0.0-6.0-2.26","2686081","co38164","norming","","","{""curiosity"":5,""confidence"":0}","[0,1]","../img/tt/1202tt.jpg","",""
"918.2999999974854","","","recognition","survey-text","191","737510","0.0-6.0-3.26","2686081","co38164","norming","","","{""guess"":""""}","","../img/tt/1202tt.jpg","",""
"null","../img/gs/1202gs.jpg","null","reveal","image-keyboard-response","192","739513","0.0-6.0-4.26","2686081","co38164","norming","","","","","","",""
"null","../img/tt/1202tt.jpg","null","mooney2","image-keyboard-response","193","741522","0.0-6.0-5.26","2686081","co38164","norming","","","","","","",""
"3697.094999999623","","","post_reveal_questions","survey-likert","194","745221","0.0-6.0-6.26","2686081","co38164","norming","","","{""aha"":2}","[0]","../img/tt/1202tt.jpg","",""
"null","<div style=""font-size:60px;""> </div>","null","fixation","html-keyboard-response","195","745423","0.0-6.0-0.27","2686081","co38164","norming","","","","","","",""
"null","../img/tt/524tt.jpg","null","mooney1","image-keyboard-response","196","748427","0.0-6.0-1.27","2686081","co38164","norming","","","","","","",""
"7592.169999999809","","","post_mooney1_questions","survey-likert","197","756022","0.0-6.0-2.27","2686081","co38164","norming","","","{""curiosity"":4,""confidence"":2}","[0,1]","../img/tt/524tt.jpg","",""
"3990.09500000102","","","recognition","survey-text","198","760014","0.0-6.0-3.27","2686081","co38164","norming","","","{""guess"":""animal""}","","../img/tt/524tt.jpg","",""
"null","../img/gs/524gs.jpg","null","reveal","image-keyboard-response","199","762021","0.0-6.0-4.27","2686081","co38164","norming","","","","","","",""
"null","../img/tt/524tt.jpg","null","mooney2","image-keyboard-response","200","764023","0.0-6.0-5.27","2686081","co38164","norming","","","","","","",""
"2684.9000000001397","","","post_reveal_questions","survey-likert","201","766710","0.0-6.0-6.27","2686081","co38164","norming","","","{""aha"":4}","[0]","../img/tt/524tt.jpg","",""
"null","<div style=""font-size:60px;""> </div>","null","fixation","html-keyboard-response","202","766911","0.0-6.0-0.28","2686081","co38164","norming","","","","","","",""
"null","../img/tt/1239tt.jpg","null","mooney1","image-keyboard-response","203","769915","0.0-6.0-1.28","2686081","co38164","norming","","","","","","",""
"5207.78000000061","","","post_mooney1_questions","survey-likert","204","775126","0.0-6.0-2.28","2686081","co38164","norming","","","{""curiosity"":4,""confidence"":5}","[0,1]","../img/tt/1239tt.jpg","",""
"2230.234999999171","","","recognition","survey-text","205","777358","0.0-6.0-3.28","2686081","co38164","norming","","","{""guess"":""dog""}","","../img/tt/1239tt.jpg","",""
"null","../img/gs/1239gs.jpg","null","reveal","image-keyboard-response","206","779365","0.0-6.0-4.28","2686081","co38164","norming","","","","","","",""
"null","../img/tt/1239tt.jpg","null","mooney2","image-keyboard-response","207","781367","0.0-6.0-5.28","2686081","co38164","norming","","","","","","",""
"3396.9600000018254","","","post_reveal_questions","survey-likert","208","784766","0.0-6.0-6.28","2686081","co38164","norming","","","{""aha"":6}","[0]","../img/tt/1239tt.jpg","",""
"null","<div style=""font-size:60px;""> </div>","null","fixation","html-keyboard-response","209","784972","0.0-6.0-0.29","2686081","co38164","norming","","","","","","",""
"null","../img/tt/1181tt.jpg","null","mooney1","image-keyboard-response","210","787987","0.0-6.0-1.29","2686081","co38164","norming","","","","","","",""
"5537.270000000717","","","post_mooney1_questions","survey-likert","211","793527","0.0-6.0-2.29","2686081","co38164","norming","","","{""curiosity"":4,""confidence"":3}","[0,1]","../img/tt/1181tt.jpg","",""
"3774.0950000006706","","","recognition","survey-text","212","797303","0.0-6.0-3.29","2686081","co38164","norming","","","{""guess"":""two men""}","","../img/tt/1181tt.jpg","",""
"null","../img/gs/1181gs.jpg","null","reveal","image-keyboard-response","213","799310","0.0-6.0-4.29","2686081","co38164","norming","","","","","","",""
"null","../img/tt/1181tt.jpg","null","mooney2","image-keyboard-response","214","801313","0.0-6.0-5.29","2686081","co38164","norming","","","","","","",""
"2555.624999997206","","","post_reveal_questions","survey-likert","215","803871","0.0-6.0-6.29","2686081","co38164","norming","","","{""aha"":4}","[0]","../img/tt/1181tt.jpg","",""
"null","<div style=""font-size:60px;""> </div>","null","fixation","html-keyboard-response","216","804072","0.0-6.0-0.30","2686081","co38164","norming","","","","","","",""
"null","../img/tt/1171tt.jpg","null","mooney1","image-keyboard-response","217","807077","0.0-6.0-1.30","2686081","co38164","norming","","","","","","",""
"4974.760000000941","","","post_mooney1_questions","survey-likert","218","812055","0.0-6.0-2.30","2686081","co38164","norming","","","{""curiosity"":5,""confidence"":0}","[0,1]","../img/tt/1171tt.jpg","",""
"718.2699999975739","","","recognition","survey-text","219","812775","0.0-6.0-3.30","2686081","co38164","norming","","","{""guess"":""""}","","../img/tt/1171tt.jpg","",""
"null","../img/gs/1171gs.jpg","null","reveal","image-keyboard-response","220","814783","0.0-6.0-4.30","2686081","co38164","norming","","","","","","",""
"null","../img/tt/1171tt.jpg","null","mooney2","image-keyboard-response","221","816794","0.0-6.0-5.30","2686081","co38164","norming","","","","","","",""
"4266.359999997774","","","post_reveal_questions","survey-likert","222","821063","0.0-6.0-6.30","2686081","co38164","norming","","","{""aha"":2}","[0]","../img/tt/1171tt.jpg","",""
"null","<div style=""font-size:60px;""> </div>","null","fixation","html-keyboard-response","223","821264","0.0-6.0-0.31","2686081","co38164","norming","","","","","","",""
"null","../img/tt/517tt.jpg","null","mooney1","image-keyboard-response","224","824269","0.0-6.0-1.31","2686081","co38164","norming","","","","","","",""
"5399.219999999274","","","post_mooney1_questions","survey-likert","225","829671","0.0-6.0-2.31","2686081","co38164","norming","","","{""curiosity"":5,""confidence"":3}","[0,1]","../img/tt/517tt.jpg","",""
"6605.950000001001","","","recognition","survey-text","226","836279","0.0-6.0-3.31","2686081","co38164","norming","","","{""guess"":""raccoon""}","","../img/tt/517tt.jpg","",""
"null","../img/gs/517gs.jpg","null","reveal","image-keyboard-response","227","838283","0.0-6.0-4.31","2686081","co38164","norming","","","","","","",""
"null","../img/tt/517tt.jpg","null","mooney2","image-keyboard-response","228","840291","0.0-6.0-5.31","2686081","co38164","norming","","","","","","",""
"2169.4950000019744","","","post_reveal_questions","survey-likert","229","842463","0.0-6.0-6.31","2686081","co38164","norming","","","{""aha"":5}","[0]","../img/tt/517tt.jpg","",""
"null","<div style=""font-size:60px;""> </div>","null","fixation","html-keyboard-response","230","842664","0.0-6.0-0.32","2686081","co38164","norming","","","","","","",""
"null","../img/tt/1205tt.jpg","null","mooney1","image-keyboard-response","231","845668","0.0-6.0-1.32","2686081","co38164","norming","","","","","","",""
"3745.885000000242","","","post_mooney1_questions","survey-likert","232","849414","0.0-6.0-2.32","2686081","co38164","norming","","","{""curiosity"":5,""confidence"":1}","[0,1]","../img/tt/1205tt.jpg","",""
"3022.049999999581","","","recognition","survey-text","233","852438","0.0-6.0-3.32","2686081","co38164","norming","","","{""guess"":""stage""}","","../img/tt/1205tt.jpg","",""
"null","../img/gs/1205gs.jpg","null","reveal","image-keyboard-response","234","854448","0.0-6.0-4.32","2686081","co38164","norming","","","","","","",""
"null","../img/tt/1205tt.jpg","null","mooney2","image-keyboard-response","235","856456","0.0-6.0-5.32","2686081","co38164","norming","","","","","","",""
"2803.4850000003353","","","post_reveal_questions","survey-likert","236","859262","0.0-6.0-6.32","2686081","co38164","norming","","","{""aha"":4}","[0]","../img/tt/1205tt.jpg","",""
"null","<div style=""font-size:60px;""> </div>","null","fixation","html-keyboard-response","237","859463","0.0-6.0-0.33","2686081","co38164","norming","","","","","","",""
"null","../img/tt/108tt.jpg","null","mooney1","image-keyboard-response","238","862472","0.0-6.0-1.33","2686081","co38164","norming","","","","","","",""
"5419.174999999115","","","post_mooney1_questions","survey-likert","239","867894","0.0-6.0-2.33","2686081","co38164","norming","","","{""curiosity"":5,""confidence"":2}","[0,1]","../img/tt/108tt.jpg","",""
"2190.3449999990407","","","recognition","survey-text","240","870086","0.0-6.0-3.33","2686081","co38164","norming","","","{""guess"":""pig""}","","../img/tt/108tt.jpg","",""
"null","../img/gs/108gs.jpg","null","reveal","image-keyboard-response","241","872088","0.0-6.0-4.33","2686081","co38164","norming","","","","","","",""
"null","../img/tt/108tt.jpg","null","mooney2","image-keyboard-response","242","874091","0.0-6.0-5.33","2686081","co38164","norming","","","","","","",""
"2760.5949999997392","","","post_reveal_questions","survey-likert","243","876854","0.0-6.0-6.33","2686081","co38164","norming","","","{""aha"":2}","[0]","../img/tt/108tt.jpg","",""
"null","<div style=""font-size:60px;""> </div>","null","fixation","html-keyboard-response","244","877055","0.0-6.0-0.34","2686081","co38164","norming","","","","","","",""
"null","../img/tt/329tt.jpg","null","mooney1","image-keyboard-response","245","880059","0.0-6.0-1.34","2686081","co38164","norming","","","","","","",""
"6352.664999998524","","","post_mooney1_questions","survey-likert","246","886414","0.0-6.0-2.34","2686081","co38164","norming","","","{""curiosity"":4,""confidence"":0}","[0,1]","../img/tt/329tt.jpg","",""
"1150.069999999716","","","recognition","survey-text","247","887566","0.0-6.0-3.34","2686081","co38164","norming","","","{""guess"":""""}","","../img/tt/329tt.jpg","",""
"null","../img/gs/329gs.jpg","null","reveal","image-keyboard-response","248","889574","0.0-6.0-4.34","2686081","co38164","norming","","","","","","",""
"null","../img/tt/329tt.jpg","null","mooney2","image-keyboard-response","249","891584","0.0-6.0-5.34","2686081","co38164","norming","","","","","","",""
"2947.389999997453","","","post_reveal_questions","survey-likert","250","894534","0.0-6.0-6.34","2686081","co38164","norming","","","{""aha"":3}","[0]","../img/tt/329tt.jpg","",""
"null","<div style=""font-size:60px;""> </div>","null","fixation","html-keyboard-response","251","894735","0.0-6.0-0.35","2686081","co38164","norming","","","","","","",""
"null","../img/tt/318tt.jpg","null","mooney1","image-keyboard-response","252","897747","0.0-6.0-1.35","2686081","co38164","norming","","","","","","",""
"6568.569999999367","","","post_mooney1_questions","survey-likert","253","904318","0.0-6.0-2.35","2686081","co38164","norming","","","{""curiosity"":4,""confidence"":3}","[0,1]","../img/tt/318tt.jpg","",""
"5989.180000000517","","","recognition","survey-text","254","910305","0.0-6.0-3.35","2686081","co38164","norming","","","{""guess"":""wheel of a car""}","","../img/tt/318tt.jpg","",""
"null","../img/gs/318gs.jpg","null","reveal","image-keyboard-response","255","912315","0.0-6.0-4.35","2686081","co38164","norming","","","","","","",""
"null","../img/tt/318tt.jpg","null","mooney2","image-keyboard-response","256","914320","0.0-6.0-5.35","2686081","co38164","norming","","","","","","",""
"2279.395000001299","","","post_reveal_questions","survey-likert","257","916600","0.0-6.0-6.35","2686081","co38164","norming","","","{""aha"":4}","[0]","../img/tt/318tt.jpg","",""
"null","<div style=""font-size:60px;""> </div>","null","fixation","html-keyboard-response","258","916802","0.0-6.0-0.36","2686081","co38164","norming","","","","","","",""
"null","../img/tt/064tt.jpg","null","mooney1","image-keyboard-response","259","919805","0.0-6.0-1.36","2686081","co38164","norming","","","","","","",""
"5434.075000001118","","","post_mooney1_questions","survey-likert","260","925241","0.0-6.0-2.36","2686081","co38164","norming","","","{""curiosity"":4,""confidence"":3}","[0,1]","../img/tt/064tt.jpg","",""
"5094.280000001192","","","recognition","survey-text","261","930337","0.0-6.0-3.36","2686081","co38164","norming","","","{""guess"":""feather""}","","../img/tt/064tt.jpg","",""
"null","../img/gs/064gs.jpg","null","reveal","image-keyboard-response","262","932342","0.0-6.0-4.36","2686081","co38164","norming","","","","","","",""
"null","../img/tt/064tt.jpg","null","mooney2","image-keyboard-response","263","934348","0.0-6.0-5.36","2686081","co38164","norming","","","","","","",""
"3674.06000000122","","","post_reveal_questions","survey-likert","264","938025","0.0-6.0-6.36","2686081","co38164","norming","","","{""aha"":4}","[0]","../img/tt/064tt.jpg","",""
"null","<div style=""font-size:60px;""> </div>","null","fixation","html-keyboard-response","265","938226","0.0-6.0-0.37","2686081","co38164","norming","","","","","","",""
"null","../img/tt/1275tt.jpg","null","mooney1","image-keyboard-response","266","941237","0.0-6.0-1.37","2686081","co38164","norming","","","","","","",""
"4152.624999998836","","","post_mooney1_questions","survey-likert","267","945393","0.0-6.0-2.37","2686081","co38164","norming","","","{""curiosity"":4,""confidence"":4}","[0,1]","../img/tt/1275tt.jpg","",""
"2878.225000000326","","","recognition","survey-text","268","948273","0.0-6.0-3.37","2686081","co38164","norming","","","{""guess"":""pig""}","","../img/tt/1275tt.jpg","",""
"null","../img/gs/1275gs.jpg","null","reveal","image-keyboard-response","269","950280","0.0-6.0-4.37","2686081","co38164","norming","","","","","","",""
"null","../img/tt/1275tt.jpg","null","mooney2","image-keyboard-response","270","952282","0.0-6.0-5.37","2686081","co38164","norming","","","","","","",""
"2460.8399999997346","","","post_reveal_questions","survey-likert","271","954745","0.0-6.0-6.37","2686081","co38164","norming","","","{""aha"":5}","[0]","../img/tt/1275tt.jpg","",""
"null","<div style=""font-size:60px;""> </div>","null","fixation","html-keyboard-response","272","954946","0.0-6.0-0.38","2686081","co38164","norming","","","","","","",""
"null","../img/tt/1224tt.jpg","null","mooney1","image-keyboard-response","273","957954","0.0-6.0-1.38","2686081","co38164","norming","","","","","","",""
"3563.6999999987893","","","post_mooney1_questions","survey-likert","274","961521","0.0-6.0-2.38","2686081","co38164","norming","","","{""curiosity"":4,""confidence"":3}","[0,1]","../img/tt/1224tt.jpg","",""
"2494.409999999334","","","recognition","survey-text","275","964017","0.0-6.0-3.38","2686081","co38164","norming","","","{""guess"":""fitness""}","","../img/tt/1224tt.jpg","",""
"null","../img/gs/1224gs.jpg","null","reveal","image-keyboard-response","276","966018","0.0-6.0-4.38","2686081","co38164","norming","","","","","","",""
"null","../img/tt/1224tt.jpg","null","mooney2","image-keyboard-response","277","968028","0.0-6.0-5.38","2686081","co38164","norming","","","","","","",""
"3546.7700000008335","","","post_reveal_questions","survey-likert","278","971579","0.0-6.0-6.38","2686081","co38164","norming","","","{""aha"":2}","[0]","../img/tt/1224tt.jpg","",""
"null","<div style=""font-size:60px;""> </div>","null","fixation","html-keyboard-response","279","971785","0.0-6.0-0.39","2686081","co38164","norming","","","","","","",""
"null","../img/tt/1366tt.jpg","null","mooney1","image-keyboard-response","280","974788","0.0-6.0-1.39","2686081","co38164","norming","","","","","","",""
"5660.475000000559","","","post_mooney1_questions","survey-likert","281","980452","0.0-6.0-2.39","2686081","co38164","norming","","","{""curiosity"":5,""confidence"":1}","[0,1]","../img/tt/1366tt.jpg","",""
"2509.874999999767","","","recognition","survey-text","282","982963","0.0-6.0-3.39","2686081","co38164","norming","","","{""guess"":""wave""}","","../img/tt/1366tt.jpg","",""
"null","../img/gs/1366gs.jpg","null","reveal","image-keyboard-response","283","984973","0.0-6.0-4.39","2686081","co38164","norming","","","","","","",""
"null","../img/tt/1366tt.jpg","null","mooney2","image-keyboard-response","284","986983","0.0-6.0-5.39","2686081","co38164","norming","","","","","","",""
"5130.734999998822","","","post_reveal_questions","survey-likert","285","992116","0.0-6.0-6.39","2686081","co38164","norming","","","{""aha"":1}","[0]","../img/tt/1366tt.jpg","",""
"null","<div style=""font-size:60px;""> </div>","null","fixation","html-keyboard-response","286","992317","0.0-6.0-0.40","2686081","co38164","norming","","","","","","",""
"null","../img/tt/1049tt.jpg","null","mooney1","image-keyboard-response","287","995320","0.0-6.0-1.40","2686081","co38164","norming","","","","","","",""
"5072.410000000615","","","post_mooney1_questions","survey-likert","288","1000395","0.0-6.0-2.40","2686081","co38164","norming","","","{""curiosity"":5,""confidence"":0}","[0,1]","../img/tt/1049tt.jpg","",""
"1229.9850000017323","","","recognition","survey-text","289","1001627","0.0-6.0-3.40","2686081","co38164","norming","","","{""guess"":""""}","","../img/tt/1049tt.jpg","",""
"null","../img/gs/1049gs.jpg","null","reveal","image-keyboard-response","290","1003630","0.0-6.0-4.40","2686081","co38164","norming","","","","","","",""
"null","../img/tt/1049tt.jpg","null","mooney2","image-keyboard-response","291","1005633","0.0-6.0-5.40","2686081","co38164","norming","","","","","","",""
"2911.8999999992084","","","post_reveal_questions","survey-likert","292","1008547","0.0-6.0-6.40","2686081","co38164","norming","","","{""aha"":2}","[0]","../img/tt/1049tt.jpg","",""
"null","<div style=""font-size:60px;""> </div>","null","fixation","html-keyboard-response","293","1008755","0.0-6.0-0.41","2686081","co38164","norming","","","","","","",""
"null","../img/tt/1078tt.jpg","null","mooney1","image-keyboard-response","294","1011766","0.0-6.0-1.41","2686081","co38164","norming","","","","","","",""
"5866.404999997118","","","post_mooney1_questions","survey-likert","295","1017635","0.0-6.0-2.41","2686081","co38164","norming","","","{""curiosity"":5,""confidence"":2}","[0,1]","../img/tt/1078tt.jpg","",""
"3565.8650000005728","","","recognition","survey-text","296","1021203","0.0-6.0-3.41","2686081","co38164","norming","","","{""guess"":""dancer""}","","../img/tt/1078tt.jpg","",""
"null","../img/gs/1078gs.jpg","null","reveal","image-keyboard-response","297","1023211","0.0-6.0-4.41","2686081","co38164","norming","","","","","","",""
"null","../img/tt/1078tt.jpg","null","mooney2","image-keyboard-response","298","1025214","0.0-6.0-5.41","2686081","co38164","norming","","","","","","",""
"3315.3899999996647","","","post_reveal_questions","survey-likert","299","1028531","0.0-6.0-6.41","2686081","co38164","norming","","","{""aha"":4}","[0]","../img/tt/1078tt.jpg","",""
"null","<div style=""font-size:60px;""> </div>","null","fixation","html-keyboard-response","300","1028736","0.0-6.0-0.42","2686081","co38164","norming","","","","","","",""
"null","../img/tt/1004tt.jpg","null","mooney1","image-keyboard-response","301","1031754","0.0-6.0-1.42","2686081","co38164","norming","","","","","","",""
"5254.92999999912","","","post_mooney1_questions","survey-likert","302","1037011","0.0-6.0-2.42","2686081","co38164","norming","","","{""curiosity"":5,""confidence"":1}","[0,1]","../img/tt/1004tt.jpg","",""
"4086.1199999999953","","","recognition","survey-text","303","1041099","0.0-6.0-3.42","2686081","co38164","norming","","","{""guess"":""animal""}","","../img/tt/1004tt.jpg","",""
"null","../img/gs/1004gs.jpg","null","reveal","image-keyboard-response","304","1043105","0.0-6.0-4.42","2686081","co38164","norming","","","","","","",""
"null","../img/tt/1004tt.jpg","null","mooney2","image-keyboard-response","305","1045107","0.0-6.0-5.42","2686081","co38164","norming","","","","","","",""
"2715.500000001979","","","post_reveal_questions","survey-likert","306","1047827","0.0-6.0-6.42","2686081","co38164","norming","","","{""aha"":4}","[0]","../img/tt/1004tt.jpg","",""
"null","<div style=""font-size:60px;""> </div>","null","fixation","html-keyboard-response","307","1048029","0.0-6.0-0.43","2686081","co38164","norming","","","","","","",""
"null","../img/tt/1200tt.jpg","null","mooney1","image-keyboard-response","308","1051035","0.0-6.0-1.43","2686081","co38164","norming","","","","","","",""
"4341.144999998622","","","post_mooney1_questions","survey-likert","309","1055379","0.0-6.0-2.43","2686081","co38164","norming","","","{""curiosity"":4,""confidence"":5}","[0,1]","../img/tt/1200tt.jpg","",""
"3157.8550000013784","","","recognition","survey-text","310","1058539","0.0-6.0-3.43","2686081","co38164","norming","","","{""guess"":""rowing""}","","../img/tt/1200tt.jpg","",""
"null","../img/gs/1200gs.jpg","null","reveal","image-keyboard-response","311","1060541","0.0-6.0-4.43","2686081","co38164","norming","","","","","","",""
"null","../img/tt/1200tt.jpg","null","mooney2","image-keyboard-response","312","1062547","0.0-6.0-5.43","2686081","co38164","norming","","","","","","",""
"1964.9050000007264","","","post_reveal_questions","survey-likert","313","1064515","0.0-6.0-6.43","2686081","co38164","norming","","","{""aha"":5}","[0]","../img/tt/1200tt.jpg","",""
"null","<div style=""font-size:60px;""> </div>","null","fixation","html-keyboard-response","314","1064718","0.0-6.0-0.44","2686081","co38164","norming","","","","","","",""
"null","../img/tt/1307tt.jpg","null","mooney1","image-keyboard-response","315","1067726","0.0-6.0-1.44","2686081","co38164","norming","","","","","","",""
"3723.159999997588","","","post_mooney1_questions","survey-likert","316","1071451","0.0-6.0-2.44","2686081","co38164","norming","","","{""curiosity"":5,""confidence"":2}","[0,1]","../img/tt/1307tt.jpg","",""
"3438.064999998547","","","recognition","survey-text","317","1074891","0.0-6.0-3.44","2686081","co38164","norming","","","{""guess"":""clock""}","","../img/tt/1307tt.jpg","",""
"null","../img/gs/1307gs.jpg","null","reveal","image-keyboard-response","318","1076893","0.0-6.0-4.44","2686081","co38164","norming","","","","","","",""
"null","../img/tt/1307tt.jpg","null","mooney2","image-keyboard-response","319","1078897","0.0-6.0-5.44","2686081","co38164","norming","","","","","","",""
"2719.2849999992177","","","post_reveal_questions","survey-likert","320","1081619","0.0-6.0-6.44","2686081","co38164","norming","","","{""aha"":2}","[0]","../img/tt/1307tt.jpg","",""
"null","<div style=""font-size:60px;""> </div>","null","fixation","html-keyboard-response","321","1081822","0.0-6.0-0.45","2686081","co38164","norming","","","","","","",""
"null","../img/tt/040tt.jpg","null","mooney1","image-keyboard-response","322","1084833","0.0-6.0-1.45","2686081","co38164","norming","","","","","","",""
"3599.3799999998882","","","post_mooney1_questions","survey-likert","323","1088435","0.0-6.0-2.45","2686081","co38164","norming","","","{""curiosity"":5,""confidence"":0}","[0,1]","../img/tt/040tt.jpg","",""
"846.0049999994226","","","recognition","survey-text","324","1089283","0.0-6.0-3.45","2686081","co38164","norming","","","{""guess"":""""}","","../img/tt/040tt.jpg","",""
"null","../img/gs/040gs.jpg","null","reveal","image-keyboard-response","325","1091287","0.0-6.0-4.45","2686081","co38164","norming","","","","","","",""
"null","../img/tt/040tt.jpg","null","mooney2","image-keyboard-response","326","1093291","0.0-6.0-5.45","2686081","co38164","norming","","","","","","",""
"1974.954999997979","","","post_reveal_questions","survey-likert","327","1095268","0.0-6.0-6.45","2686081","co38164","norming","","","{""aha"":2}","[0]","../img/tt/040tt.jpg","",""
"null","<div style=""font-size:60px;""> </div>","null","fixation","html-keyboard-response","328","1095476","0.0-6.0-0.46","2686081","co38164","norming","","","","","","",""
"null","../img/tt/1254tt.jpg","null","mooney1","image-keyboard-response","329","1098487","0.0-6.0-1.46","2686081","co38164","norming","","","","","","",""
"3794.1549999995623","","","post_mooney1_questions","survey-likert","330","1102284","0.0-6.0-2.46","2686081","co38164","norming","","","{""curiosity"":5,""confidence"":2}","[0,1]","../img/tt/1254tt.jpg","",""
"3630.0650000011083","","","recognition","survey-text","331","1105916","0.0-6.0-3.46","2686081","co38164","norming","","","{""guess"":""rabbit""}","","../img/tt/1254tt.jpg","",""
"null","../img/gs/1254gs.jpg","null","reveal","image-keyboard-response","332","1107924","0.0-6.0-4.46","2686081","co38164","norming","","","","","","",""
"null","../img/tt/1254tt.jpg","null","mooney2","image-keyboard-response","333","1109925","0.0-6.0-5.46","2686081","co38164","norming","","","","","","",""
"1996.5699999993667","","","post_reveal_questions","survey-likert","334","1111924","0.0-6.0-6.46","2686081","co38164","norming","","","{""aha"":5}","[0]","../img/tt/1254tt.jpg","",""
"null","<div style=""font-size:60px;""> </div>","null","fixation","html-keyboard-response","335","1112129","0.0-6.0-0.47","2686081","co38164","norming","","","","","","",""
"null","../img/tt/1309tt.jpg","null","mooney1","image-keyboard-response","336","1115140","0.0-6.0-1.47","2686081","co38164","norming","","","","","","",""
"4278.040000000969","","","post_mooney1_questions","survey-likert","337","1119420","0.0-6.0-2.47","2686081","co38164","norming","","","{""curiosity"":5,""confidence"":2}","[0,1]","../img/tt/1309tt.jpg","",""
"2365.6549999976996","","","recognition","survey-text","338","1121788","0.0-6.0-3.47","2686081","co38164","norming","","","{""guess"":""car""}","","../img/tt/1309tt.jpg","",""
"null","../img/gs/1309gs.jpg","null","reveal","image-keyboard-response","339","1123792","0.0-6.0-4.47","2686081","co38164","norming","","","","","","",""
"null","../img/tt/1309tt.jpg","null","mooney2","image-keyboard-response","340","1125795","0.0-6.0-5.47","2686081","co38164","norming","","","","","","",""
"2126.615000001155","","","post_reveal_questions","survey-likert","341","1127924","0.0-6.0-6.47","2686081","co38164","norming","","","{""aha"":4}","[0]","../img/tt/1309tt.jpg","",""
"null","<div style=""font-size:60px;""> </div>","null","fixation","html-keyboard-response","342","1128125","0.0-6.0-0.48","2686081","co38164","norming","","","","","","",""
"null","../img/tt/1173tt.jpg","null","mooney1","image-keyboard-response","343","1131133","0.0-6.0-1.48","2686081","co38164","norming","","","","","","",""
"4236.399999998044","","","post_mooney1_questions","survey-likert","344","1135372","0.0-6.0-2.48","2686081","co38164","norming","","","{""curiosity"":4,""confidence"":4}","[0,1]","../img/tt/1173tt.jpg","",""
"4110.065000000875","","","recognition","survey-text","345","1139484","0.0-6.0-3.48","2686081","co38164","norming","","","{""guess"":""hockey""}","","../img/tt/1173tt.jpg","",""
"null","../img/gs/1173gs.jpg","null","reveal","image-keyboard-response","346","1141486","0.0-6.0-4.48","2686081","co38164","norming","","","","","","",""
"null","../img/tt/1173tt.jpg","null","mooney2","image-keyboard-response","347","1143488","0.0-6.0-5.48","2686081","co38164","norming","","","","","","",""
"2809.6750000005122","","","post_reveal_questions","survey-likert","348","1146300","0.0-6.0-6.48","2686081","co38164","norming","","","{""aha"":5}","[0]","../img/tt/1173tt.jpg","",""
"null","<div style=""font-size:60px;""> </div>","null","fixation","html-keyboard-response","349","1146502","0.0-6.0-0.49","2686081","co38164","norming","","","","","","",""
"null","../img/tt/1234tt.jpg","null","mooney1","image-keyboard-response","350","1149504","0.0-6.0-1.49","2686081","co38164","norming","","","","","","",""
"3896.8449999992736","","","post_mooney1_questions","survey-likert","351","1153398","0.0-6.0-2.49","2686081","co38164","norming","","","{""curiosity"":4,""confidence"":3}","[0,1]","../img/tt/1234tt.jpg","",""
"2526.205000001937","","","recognition","survey-text","352","1155925","0.0-6.0-3.49","2686081","co38164","norming","","","{""guess"":""duck""}","","../img/tt/1234tt.jpg","",""
"null","../img/gs/1234gs.jpg","null","reveal","image-keyboard-response","353","1157930","0.0-6.0-4.49","2686081","co38164","norming","","","","","","",""
"null","../img/tt/1234tt.jpg","null","mooney2","image-keyboard-response","354","1159932","0.0-6.0-5.49","2686081","co38164","norming","","","","","","",""
"2015.605000000447","","","post_reveal_questions","survey-likert","355","1161949","0.0-6.0-6.49","2686081","co38164","norming","","","{""aha"":5}","[0]","../img/tt/1234tt.jpg","",""
"null","<div style=""font-size:60px;""> </div>","null","fixation","html-keyboard-response","356","1162151","0.0-6.0-0.50","2686081","co38164","norming","","","","","","",""
"null","../img/tt/270tt.jpg","null","mooney1","image-keyboard-response","357","1165159","0.0-6.0-1.50","2686081","co38164","norming","","","","","","",""
"4067.289999999106","","","post_mooney1_questions","survey-likert","358","1169230","0.0-6.0-2.50","2686081","co38164","norming","","","{""curiosity"":5,""confidence"":4}","[0,1]","../img/tt/270tt.jpg","",""
"2453.765000001993","","","recognition","survey-text","359","1171685","0.0-6.0-3.50","2686081","co38164","norming","","","{""guess"":""deer""}","","../img/tt/270tt.jpg","",""
"null","../img/gs/270gs.jpg","null","reveal","image-keyboard-response","360","1173694","0.0-6.0-4.50","2686081","co38164","norming","","","","","","",""
"null","../img/tt/270tt.jpg","null","mooney2","image-keyboard-response","361","1175704","0.0-6.0-5.50","2686081","co38164","norming","","","","","","",""
"2459.9400000006426","","","post_reveal_questions","survey-likert","362","1178165","0.0-6.0-6.50","2686081","co38164","norming","","","{""aha"":4}","[0]","../img/tt/270tt.jpg","",""
"null","<div style=""font-size:60px;""> </div>","null","fixation","html-keyboard-response","363","1178367","0.0-6.0-0.51","2686081","co38164","norming","","","","","","",""
"null","../img/tt/1268tt.jpg","null","mooney1","image-keyboard-response","364","1181375","0.0-6.0-1.51","2686081","co38164","norming","","","","","","",""
"4971.219999999274","","","post_mooney1_questions","survey-likert","365","1186350","0.0-6.0-2.51","2686081","co38164","norming","","","{""curiosity"":5,""confidence"":1}","[0,1]","../img/tt/1268tt.jpg","",""
"2742.0149999998976","","","recognition","survey-text","366","1189093","0.0-6.0-3.51","2686081","co38164","norming","","","{""guess"":""cat""}","","../img/tt/1268tt.jpg","",""
"null","../img/gs/1268gs.jpg","null","reveal","image-keyboard-response","367","1191096","0.0-6.0-4.51","2686081","co38164","norming","","","","","","",""
"null","../img/tt/1268tt.jpg","null","mooney2","image-keyboard-response","368","1193104","0.0-6.0-5.51","2686081","co38164","norming","","","","","","",""
"3179.1000000012573","","","post_reveal_questions","survey-likert","369","1196286","0.0-6.0-6.51","2686081","co38164","norming","","","{""aha"":4}","[0]","../img/tt/1268tt.jpg","",""
"null","<div style=""font-size:60px;""> </div>","null","fixation","html-keyboard-response","370","1196487","0.0-6.0-0.52","2686081","co38164","norming","","","","","","",""
"null","../img/tt/358tt.jpg","null","mooney1","image-keyboard-response","371","1199497","0.0-6.0-1.52","2686081","co38164","norming","","","","","","",""
"5480.120000000345","","","post_mooney1_questions","survey-likert","372","1204981","0.0-6.0-2.52","2686081","co38164","norming","","","{""curiosity"":5,""confidence"":1}","[0,1]","../img/tt/358tt.jpg","",""
"2718.220000002533","","","recognition","survey-text","373","1207701","0.0-6.0-3.52","2686081","co38164","norming","","","{""guess"":""haan""}","","../img/tt/358tt.jpg","",""
"null","../img/gs/358gs.jpg","null","reveal","image-keyboard-response","374","1209703","0.0-6.0-4.52","2686081","co38164","norming","","","","","","",""
"null","../img/tt/358tt.jpg","null","mooney2","image-keyboard-response","375","1211706","0.0-6.0-5.52","2686081","co38164","norming","","","","","","",""
"1688.5049999982584","","","post_reveal_questions","survey-likert","376","1213406","0.0-6.0-6.52","2686081","co38164","norming","","","{""aha"":2}","[0]","../img/tt/358tt.jpg","",""
"null","<div style=""font-size:60px;""> </div>","null","fixation","html-keyboard-response","377","1213607","0.0-6.0-0.53","2686081","co38164","norming","","","","","","",""
"null","../img/tt/456tt.jpg","null","mooney1","image-keyboard-response","378","1216614","0.0-6.0-1.53","2686081","co38164","norming","","","","","","",""
"4774.685000000289","","","post_mooney1_questions","survey-likert","379","1221390","0.0-6.0-2.53","2686081","co38164","norming","","","{""curiosity"":5,""confidence"":1}","[0,1]","../img/tt/456tt.jpg","",""
"2797.770000001183","","","recognition","survey-text","380","1224190","0.0-6.0-3.53","2686081","co38164","norming","","","{""guess"":""iguana""}","","../img/tt/456tt.jpg","",""
"null","../img/gs/456gs.jpg","null","reveal","image-keyboard-response","381","1226198","0.0-6.0-4.53","2686081","co38164","norming","","","","","","",""
"null","../img/tt/456tt.jpg","null","mooney2","image-keyboard-response","382","1228207","0.0-6.0-5.53","2686081","co38164","norming","","","","","","",""
"4037.225000000093","","","post_reveal_questions","survey-likert","383","1232246","0.0-6.0-6.53","2686081","co38164","norming","","","{""aha"":2}","[0]","../img/tt/456tt.jpg","",""
"null","<div style=""font-size:60px;""> </div>","null","fixation","html-keyboard-response","384","1232456","0.0-6.0-0.54","2686081","co38164","norming","","","","","","",""
"null","../img/tt/1101tt.jpg","null","mooney1","image-keyboard-response","385","1235465","0.0-6.0-1.54","2686081","co38164","norming","","","","","","",""
"5537.964999999618","","","post_mooney1_questions","survey-likert","386","1241006","0.0-6.0-2.54","2686081","co38164","norming","","","{""curiosity"":4,""confidence"":4}","[0,1]","../img/tt/1101tt.jpg","",""
"2510.115000001155","","","recognition","survey-text","387","1243518","0.0-6.0-3.54","2686081","co38164","norming","","","{""guess"":""soccer""}","","../img/tt/1101tt.jpg","",""
"null","../img/gs/1101gs.jpg","null","reveal","image-keyboard-response","388","1245524","0.0-6.0-4.54","2686081","co38164","norming","","","","","","",""
"null","../img/tt/1101tt.jpg","null","mooney2","image-keyboard-response","389","1247526","0.0-6.0-5.54","2686081","co38164","norming","","","","","","",""
"4188.75499999919","","","post_reveal_questions","survey-likert","390","1251718","0.0-6.0-6.54","2686081","co38164","norming","","","{""aha"":5}","[0]","../img/tt/1101tt.jpg","",""
"null","<div style=""font-size:60px;""> </div>","null","fixation","html-keyboard-response","391","1251919","0.0-6.0-0.55","2686081","co38164","norming","","","","","","",""
"null","../img/tt/307tt.jpg","null","mooney1","image-keyboard-response","392","1254922","0.0-6.0-1.55","2686081","co38164","norming","","","","","","",""
"5394.069999998435","","","post_mooney1_questions","survey-likert","393","1260318","0.0-6.0-2.55","2686081","co38164","norming","","","{""curiosity"":5,""confidence"":0}","[0,1]","../img/tt/307tt.jpg","",""
"869.9300000008661","","","recognition","survey-text","394","1261189","0.0-6.0-3.55","2686081","co38164","norming","","","{""guess"":""""}","","../img/tt/307tt.jpg","",""
"null","../img/gs/307gs.jpg","null","reveal","image-keyboard-response","395","1263196","0.0-6.0-4.55","2686081","co38164","norming","","","","","","",""
"null","../img/tt/307tt.jpg","null","mooney2","image-keyboard-response","396","1265207","0.0-6.0-5.55","2686081","co38164","norming","","","","","","",""
"2148.515000000829","","","post_reveal_questions","survey-likert","397","1267358","0.0-6.0-6.55","2686081","co38164","norming","","","{""aha"":2}","[0]","../img/tt/307tt.jpg","",""
"null","<div style=""font-size:60px;""> </div>","null","fixation","html-keyboard-response","398","1267559","0.0-6.0-0.56","2686081","co38164","norming","","","","","","",""
"null","../img/tt/1191tt.jpg","null","mooney1","image-keyboard-response","399","1270566","0.0-6.0-1.56","2686081","co38164","norming","","","","","","",""
"6724.83999999892","","","post_mooney1_questions","survey-likert","400","1277291","0.0-6.0-2.56","2686081","co38164","norming","","","{""curiosity"":5,""confidence"":2}","[0,1]","../img/tt/1191tt.jpg","",""
"3086.035000000149","","","recognition","survey-text","401","1280379","0.0-6.0-3.56","2686081","co38164","norming","","","{""guess"":""camels""}","","../img/tt/1191tt.jpg","",""
"null","../img/gs/1191gs.jpg","null","reveal","image-keyboard-response","402","1282382","0.0-6.0-4.56","2686081","co38164","norming","","","","","","",""
"null","../img/tt/1191tt.jpg","null","mooney2","image-keyboard-response","403","1284384","0.0-6.0-5.56","2686081","co38164","norming","","","","","","",""
"3752.8500000007916","","","post_reveal_questions","survey-likert","404","1288139","0.0-6.0-6.56","2686081","co38164","norming","","","{""aha"":2}","[0]","../img/tt/1191tt.jpg","",""
"null","<div style=""font-size:60px;""> </div>","null","fixation","html-keyboard-response","405","1288349","0.0-6.0-0.57","2686081","co38164","norming","","","","","","",""
"null","../img/tt/1190tt.jpg","null","mooney1","image-keyboard-response","406","1291359","0.0-6.0-1.57","2686081","co38164","norming","","","","","","",""
"3959.694999997504","","","post_mooney1_questions","survey-likert","407","1295323","0.0-6.0-2.57","2686081","co38164","norming","","","{""curiosity"":5,""confidence"":0}","[0,1]","../img/tt/1190tt.jpg","",""
"877.9200000024866","","","recognition","survey-text","408","1296203","0.0-6.0-3.57","2686081","co38164","norming","","","{""guess"":""""}","","../img/tt/1190tt.jpg","",""
"null","../img/gs/1190gs.jpg","null","reveal","image-keyboard-response","409","1298208","0.0-6.0-4.57","2686081","co38164","norming","","","","","","",""
"null","../img/tt/1190tt.jpg","null","mooney2","image-keyboard-response","410","1300219","0.0-6.0-5.57","2686081","co38164","norming","","","","","","",""
"2661.889999999432","","","post_reveal_questions","survey-likert","411","1302883","0.0-6.0-6.57","2686081","co38164","norming","","","{""aha"":1}","[0]","../img/tt/1190tt.jpg","",""
"null","<div style=""font-size:60px;""> </div>","null","fixation","html-keyboard-response","412","1303085","0.0-6.0-0.58","2686081","co38164","norming","","","","","","",""
"null","../img/tt/1118tt.jpg","null","mooney1","image-keyboard-response","413","1306091","0.0-6.0-1.58","2686081","co38164","norming","","","","","","",""
"4365.160000001313","","","post_mooney1_questions","survey-likert","414","1310459","0.0-6.0-2.58","2686081","co38164","norming","","","{""curiosity"":5,""confidence"":2}","[0,1]","../img/tt/1118tt.jpg","",""
"2734.119999997318","","","recognition","survey-text","415","1313195","0.0-6.0-3.58","2686081","co38164","norming","","","{""guess"":""boat""}","","../img/tt/1118tt.jpg","",""
"null","../img/gs/1118gs.jpg","null","reveal","image-keyboard-response","416","1315196","0.0-6.0-4.58","2686081","co38164","norming","","","","","","",""
"null","../img/tt/1118tt.jpg","null","mooney2","image-keyboard-response","417","1317198","0.0-6.0-5.58","2686081","co38164","norming","","","","","","",""
"3193.7649999998976","","","post_reveal_questions","survey-likert","418","1320395","0.0-6.0-6.58","2686081","co38164","norming","","","{""aha"":2}","[0]","../img/tt/1118tt.jpg","",""
"null","<div style=""font-size:60px;""> </div>","null","fixation","html-keyboard-response","419","1320596","0.0-6.0-0.59","2686081","co38164","norming","","","","","","",""
"null","../img/tt/123tt.jpg","null","mooney1","image-keyboard-response","420","1323608","0.0-6.0-1.59","2686081","co38164","norming","","","","","","",""
"5015.409999999916","","","post_mooney1_questions","survey-likert","421","1328627","0.0-6.0-2.59","2686081","co38164","norming","","","{""curiosity"":4,""confidence"":1}","[0,1]","../img/tt/123tt.jpg","",""
"3798.0300000016578","","","recognition","survey-text","422","1332427","0.0-6.0-3.59","2686081","co38164","norming","","","{""guess"":""briefcase""}","","../img/tt/123tt.jpg","",""
"null","../img/gs/123gs.jpg","null","reveal","image-keyboard-response","423","1334434","0.0-6.0-4.59","2686081","co38164","norming","","","","","","",""
"null","../img/tt/123tt.jpg","null","mooney2","image-keyboard-response","424","1336449","0.0-6.0-5.59","2686081","co38164","norming","","","","","","",""
"2539.815000000177","","","post_reveal_questions","survey-likert","425","1338991","0.0-6.0-6.59","2686081","co38164","norming","","","{""aha"":4}","[0]","../img/tt/123tt.jpg","",""
"null","<div style=""font-size:60px;""> </div>","null","fixation","html-keyboard-response","426","1339193","0.0-6.0-0.60","2686081","co38164","norming","","","","","","",""
"null","../img/tt/1130tt.jpg","null","mooney1","image-keyboard-response","427","1342200","0.0-6.0-1.60","2686081","co38164","norming","","","","","","",""
"7108.014999998035","","","post_mooney1_questions","survey-likert","428","1349311","0.0-6.0-2.60","2686081","co38164","norming","","","{""curiosity"":5,""confidence"":2}","[0,1]","../img/tt/1130tt.jpg","",""
"5950.0000000006985","","","recognition","survey-text","429","1355263","0.0-6.0-3.60","2686081","co38164","norming","","","{""guess"":""soccerplayer""}","","../img/tt/1130tt.jpg","",""
"null","../img/gs/1130gs.jpg","null","reveal","image-keyboard-response","430","1357270","0.0-6.0-4.60","2686081","co38164","norming","","","","","","",""
"null","../img/tt/1130tt.jpg","null","mooney2","image-keyboard-response","431","1359277","0.0-6.0-5.60","2686081","co38164","norming","","","","","","",""
"3095.209999999497","","","post_reveal_questions","survey-likert","432","1362375","0.0-6.0-6.60","2686081","co38164","norming","","","{""aha"":4}","[0]","../img/tt/1130tt.jpg","",""
"null","<div style=""font-size:60px;""> </div>","null","fixation","html-keyboard-response","433","1362577","0.0-6.0-0.61","2686081","co38164","norming","","","","","","",""
"null","../img/tt/1012tt.jpg","null","mooney1","image-keyboard-response","434","1365584","0.0-6.0-1.61","2686081","co38164","norming","","","","","","",""
"3412.3799999980256","","","post_mooney1_questions","survey-likert","435","1368999","0.0-6.0-2.61","2686081","co38164","norming","","","{""curiosity"":5,""confidence"":4}","[0,1]","../img/tt/1012tt.jpg","",""
"3254.349999999162","","","recognition","survey-text","436","1372255","0.0-6.0-3.61","2686081","co38164","norming","","","{""guess"":""horse""}","","../img/tt/1012tt.jpg","",""
"null","../img/gs/1012gs.jpg","null","reveal","image-keyboard-response","437","1374259","0.0-6.0-4.61","2686081","co38164","norming","","","","","","",""
"null","../img/tt/1012tt.jpg","null","mooney2","image-keyboard-response","438","1376261","0.0-6.0-5.61","2686081","co38164","norming","","","","","","",""
"1678.319999998901","","","post_reveal_questions","survey-likert","439","1377943","0.0-6.0-6.61","2686081","co38164","norming","","","{""aha"":5}","[0]","../img/tt/1012tt.jpg","",""
"null","<div style=""font-size:60px;""> </div>","null","fixation","html-keyboard-response","440","1378145","0.0-6.0-0.62","2686081","co38164","norming","","","","","","",""
"null","../img/tt/135tt.jpg","null","mooney1","image-keyboard-response","441","1381155","0.0-6.0-1.62","2686081","co38164","norming","","","","","","",""
"3026.740000001155","","","post_mooney1_questions","survey-likert","442","1384183","0.0-6.0-2.62","2686081","co38164","norming","","","{""curiosity"":4,""confidence"":4}","[0,1]","../img/tt/135tt.jpg","",""
"2870.020000002114","","","recognition","survey-text","443","1387055","0.0-6.0-3.62","2686081","co38164","norming","","","{""guess"":""toilet""}","","../img/tt/135tt.jpg","",""
"null","../img/gs/135gs.jpg","null","reveal","image-keyboard-response","444","1389057","0.0-6.0-4.62","2686081","co38164","norming","","","","","","",""
"null","../img/tt/135tt.jpg","null","mooney2","image-keyboard-response","445","1391059","0.0-6.0-5.62","2686081","co38164","norming","","","","","","",""
"2761.5399999995716","","","post_reveal_questions","survey-likert","446","1393823","0.0-6.0-6.62","2686081","co38164","norming","","","{""aha"":4}","[0]","../img/tt/135tt.jpg","",""
"null","<div style=""font-size:60px;""> </div>","null","fixation","html-keyboard-response","447","1394026","0.0-6.0-0.63","2686081","co38164","norming","","","","","","",""
"null","../img/tt/1353tt.jpg","null","mooney1","image-keyboard-response","448","1397035","0.0-6.0-1.63","2686081","co38164","norming","","","","","","",""
"3881.2450000003446","","","post_mooney1_questions","survey-likert","449","1400920","0.0-6.0-2.63","2686081","co38164","norming","","","{""curiosity"":5,""confidence"":1}","[0,1]","../img/tt/1353tt.jpg","",""
"2085.93999999715","","","recognition","survey-text","450","1403008","0.0-6.0-3.63","2686081","co38164","norming","","","{""guess"":""tuba""}","","../img/tt/1353tt.jpg","",""
"null","../img/gs/1353gs.jpg","null","reveal","image-keyboard-response","451","1405017","0.0-6.0-4.63","2686081","co38164","norming","","","","","","",""
"null","../img/tt/1353tt.jpg","null","mooney2","image-keyboard-response","452","1407019","0.0-6.0-5.63","2686081","co38164","norming","","","","","","",""
"1666.1700000003912","","","post_reveal_questions","survey-likert","453","1408688","0.0-6.0-6.63","2686081","co38164","norming","","","{""aha"":1}","[0]","../img/tt/1353tt.jpg","",""
"null","<div style=""font-size:60px;""> </div>","null","fixation","html-keyboard-response","454","1408889","0.0-6.0-0.64","2686081","co38164","norming","","","","","","",""
"null","../img/tt/1066tt.jpg","null","mooney1","image-keyboard-response","455","1411900","0.0-6.0-1.64","2686081","co38164","norming","","","","","","",""
"3904.4149999972433","","","post_mooney1_questions","survey-likert","456","1415808","0.0-6.0-2.64","2686081","co38164","norming","","","{""curiosity"":4,""confidence"":2}","[0,1]","../img/tt/1066tt.jpg","",""
"2638.43999999878","","","recognition","survey-text","457","1418448","0.0-6.0-3.64","2686081","co38164","norming","","","{""guess"":""bus""}","","../img/tt/1066tt.jpg","",""
"null","../img/gs/1066gs.jpg","null","reveal","image-keyboard-response","458","1420456","0.0-6.0-4.64","2686081","co38164","norming","","","","","","",""
"null","../img/tt/1066tt.jpg","null","mooney2","image-keyboard-response","459","1422468","0.0-6.0-5.64","2686081","co38164","norming","","","","","","",""
"2353.4949999994133","","","post_reveal_questions","survey-likert","460","1424824","0.0-6.0-6.64","2686081","co38164","norming","","","{""aha"":4}","[0]","../img/tt/1066tt.jpg","",""
"null","<div style=""font-size:60px;""> </div>","null","fixation","html-keyboard-response","461","1425025","0.0-6.0-0.65","2686081","co38164","norming","","","","","","",""
"null","../img/tt/584tt.jpg","null","mooney1","image-keyboard-response","462","1428028","0.0-6.0-1.65","2686081","co38164","norming","","","","","","",""
"10655.92999999714","","","post_mooney1_questions","survey-likert","463","1438688","0.0-6.0-2.65","2686081","co38164","norming","","","{""curiosity"":5,""confidence"":0}","[0,1]","../img/tt/584tt.jpg","",""
"821.9150000002701","","","recognition","survey-text","464","1439511","0.0-6.0-3.65","2686081","co38164","norming","","","{""guess"":""""}","","../img/tt/584tt.jpg","",""
"null","../img/gs/584gs.jpg","null","reveal","image-keyboard-response","465","1441520","0.0-6.0-4.65","2686081","co38164","norming","","","","","","",""
"null","../img/tt/584tt.jpg","null","mooney2","image-keyboard-response","466","1443531","0.0-6.0-5.65","2686081","co38164","norming","","","","","","",""
"3337.93499999959","","","post_reveal_questions","survey-likert","467","1446872","0.0-6.0-6.65","2686081","co38164","norming","","","{""aha"":1}","[0]","../img/tt/584tt.jpg","",""
"null","<div style=""font-size:60px;""> </div>","null","fixation","html-keyboard-response","468","1447077","0.0-6.0-0.66","2686081","co38164","norming","","","","","","",""
"null","../img/tt/406tt.jpg","null","mooney1","image-keyboard-response","469","1450084","0.0-6.0-1.66","2686081","co38164","norming","","","","","","",""
"5958.790000000736","","","post_mooney1_questions","survey-likert","470","1456048","0.0-6.0-2.66","2686081","co38164","norming","","","{""curiosity"":5,""confidence"":0}","[0,1]","../img/tt/406tt.jpg","",""
"909.9999999997672","","","recognition","survey-text","471","1456959","0.0-6.0-3.66","2686081","co38164","norming","","","{""guess"":""""}","","../img/tt/406tt.jpg","",""
"null","../img/gs/406gs.jpg","null","reveal","image-keyboard-response","472","1458969","0.0-6.0-4.66","2686081","co38164","norming","","","","","","",""
"null","../img/tt/406tt.jpg","null","mooney2","image-keyboard-response","473","1460975","0.0-6.0-5.66","2686081","co38164","norming","","","","","","",""
"3086.4250000014435","","","post_reveal_questions","survey-likert","474","1464064","0.0-6.0-6.66","2686081","co38164","norming","","","{""aha"":1}","[0]","../img/tt/406tt.jpg","",""
"null","<div style=""font-size:60px;""> </div>","null","fixation","html-keyboard-response","475","1464265","0.0-6.0-0.67","2686081","co38164","norming","","","","","","",""
"null","../img/tt/080tt.jpg","null","mooney1","image-keyboard-response","476","1467275","0.0-6.0-1.67","2686081","co38164","norming","","","","","","",""
"4881.849999997998","","","post_mooney1_questions","survey-likert","477","1472161","0.0-6.0-2.67","2686081","co38164","norming","","","{""curiosity"":5,""confidence"":1}","[0,1]","../img/tt/080tt.jpg","",""
"2318.14500000095","","","recognition","survey-text","478","1474480","0.0-6.0-3.67","2686081","co38164","norming","","","{""guess"":""grass""}","","../img/tt/080tt.jpg","",""
"null","../img/gs/080gs.jpg","null","reveal","image-keyboard-response","479","1476488","0.0-6.0-4.67","2686081","co38164","norming","","","","","","",""
"null","../img/tt/080tt.jpg","null","mooney2","image-keyboard-response","480","1478499","0.0-6.0-5.67","2686081","co38164","norming","","","","","","",""
"3123.0849999992643","","","post_reveal_questions","survey-likert","481","1481624","0.0-6.0-6.67","2686081","co38164","norming","","","{""aha"":4}","[0]","../img/tt/080tt.jpg","",""
"null","<div style=""font-size:60px;""> </div>","null","fixation","html-keyboard-response","482","1481826","0.0-6.0-0.68","2686081","co38164","norming","","","","","","",""
"null","../img/tt/468tt.jpg","null","mooney1","image-keyboard-response","483","1484836","0.0-6.0-1.68","2686081","co38164","norming","","","","","","",""
"5233.20500000054","","","post_mooney1_questions","survey-likert","484","1490072","0.0-6.0-2.68","2686081","co38164","norming","","","{""curiosity"":5,""confidence"":1}","[0,1]","../img/tt/468tt.jpg","",""
"3029.829999999609","","","recognition","survey-text","485","1493104","0.0-6.0-3.68","2686081","co38164","norming","","","{""guess"":""violin""}","","../img/tt/468tt.jpg","",""
"null","../img/gs/468gs.jpg","null","reveal","image-keyboard-response","486","1495109","0.0-6.0-4.68","2686081","co38164","norming","","","","","","",""
"null","../img/tt/468tt.jpg","null","mooney2","image-keyboard-response","487","1497112","0.0-6.0-5.68","2686081","co38164","norming","","","","","","",""
"1861.4099999978207","","","post_reveal_questions","survey-likert","488","1498976","0.0-6.0-6.68","2686081","co38164","norming","","","{""aha"":4}","[0]","../img/tt/468tt.jpg","",""
"null","<div style=""font-size:60px;""> </div>","null","fixation","html-keyboard-response","489","1499178","0.0-6.0-0.69","2686081","co38164","norming","","","","","","",""
"null","../img/tt/1123tt.jpg","null","mooney1","image-keyboard-response","490","1502187","0.0-6.0-1.69","2686081","co38164","norming","","","","","","",""
"4595.9700000023","","","post_mooney1_questions","survey-likert","491","1506784","0.0-6.0-2.69","2686081","co38164","norming","","","{""curiosity"":5,""confidence"":4}","[0,1]","../img/tt/1123tt.jpg","",""
"3310.320000000531","","","recognition","survey-text","492","1510096","0.0-6.0-3.69","2686081","co38164","norming","","","{""guess"":""basketball""}","","../img/tt/1123tt.jpg","",""
"null","../img/gs/1123gs.jpg","null","reveal","image-keyboard-response","493","1512107","0.0-6.0-4.69","2686081","co38164","norming","","","","","","",""
"null","../img/tt/1123tt.jpg","null","mooney2","image-keyboard-response","494","1514110","0.0-6.0-5.69","2686081","co38164","norming","","","","","","",""
"3383.9350000016857","","","post_reveal_questions","survey-likert","495","1517497","0.0-6.0-6.69","2686081","co38164","norming","","","{""aha"":2}","[0]","../img/tt/1123tt.jpg","",""
"null","<div style=""font-size:60px;""> </div>","null","fixation","html-keyboard-response","496","1517698","0.0-6.0-0.70","2686081","co38164","norming","","","","","","",""
"null","../img/tt/007tt.jpg","null","mooney1","image-keyboard-response","497","1520707","0.0-6.0-1.70","2686081","co38164","norming","","","","","","",""
"4988.590000000782","","","post_mooney1_questions","survey-likert","498","1525697","0.0-6.0-2.70","2686081","co38164","norming","","","{""curiosity"":5,""confidence"":1}","[0,1]","../img/tt/007tt.jpg","",""
"3661.7550000008196","","","recognition","survey-text","499","1529361","0.0-6.0-3.70","2686081","co38164","norming","","","{""guess"":""mushroom""}","","../img/tt/007tt.jpg","",""
"null","../img/gs/007gs.jpg","null","reveal","image-keyboard-response","500","1531368","0.0-6.0-4.70","2686081","co38164","norming","","","","","","",""
"null","../img/tt/007tt.jpg","null","mooney2","image-keyboard-response","501","1533379","0.0-6.0-5.70","2686081","co38164","norming","","","","","","",""
"2811.5550000001676","","","post_reveal_questions","survey-likert","502","1536193","0.0-6.0-6.70","2686081","co38164","norming","","","{""aha"":2}","[0]","../img/tt/007tt.jpg","",""
"null","<div style=""font-size:60px;""> </div>","null","fixation","html-keyboard-response","503","1536394","0.0-6.0-0.71","2686081","co38164","norming","","","","","","",""
"null","../img/tt/315tt.jpg","null","mooney1","image-keyboard-response","504","1539404","0.0-6.0-1.71","2686081","co38164","norming","","","","","","",""
"4419.14000000176","","","post_mooney1_questions","survey-likert","505","1543825","0.0-6.0-2.71","2686081","co38164","norming","","","{""curiosity"":5,""confidence"":1}","[0,1]","../img/tt/315tt.jpg","",""
"2093.899999999907","","","recognition","survey-text","506","1545921","0.0-6.0-3.71","2686081","co38164","norming","","","{""guess"":""bird""}","","../img/tt/315tt.jpg","",""
"null","../img/gs/315gs.jpg","null","reveal","image-keyboard-response","507","1547922","0.0-6.0-4.71","2686081","co38164","norming","","","","","","",""
"null","../img/tt/315tt.jpg","null","mooney2","image-keyboard-response","508","1549924","0.0-6.0-5.71","2686081","co38164","norming","","","","","","",""
"1585.905000000028","","","post_reveal_questions","survey-likert","509","1551513","0.0-6.0-6.71","2686081","co38164","norming","","","{""aha"":1}","[0]","../img/tt/315tt.jpg","",""
"null","<div style=""font-size:60px;""> </div>","null","fixation","html-keyboard-response","510","1551714","0.0-6.0-0.72","2686081","co38164","norming","","","","","","",""
"null","../img/tt/1272tt.jpg","null","mooney1","image-keyboard-response","511","1554719","0.0-6.0-1.72","2686081","co38164","norming","","","","","","",""
"4176.165000000736","","","post_mooney1_questions","survey-likert","512","1558897","0.0-6.0-2.72","2686081","co38164","norming","","","{""curiosity"":5,""confidence"":1}","[0,1]","../img/tt/1272tt.jpg","",""
"2125.98000000068","","","recognition","survey-text","513","1561025","0.0-6.0-3.72","2686081","co38164","norming","","","{""guess"":""bird""}","","../img/tt/1272tt.jpg","",""
"null","../img/gs/1272gs.jpg","null","reveal","image-keyboard-response","514","1563030","0.0-6.0-4.72","2686081","co38164","norming","","","","","","",""
"null","../img/tt/1272tt.jpg","null","mooney2","image-keyboard-response","515","1565032","0.0-6.0-5.72","2686081","co38164","norming","","","","","","",""
"2814.3550000023097","","","post_reveal_questions","survey-likert","516","1567849","0.0-6.0-6.72","2686081","co38164","norming","","","{""aha"":1}","[0]","../img/tt/1272tt.jpg","",""
"null","<div style=""font-size:60px;""> </div>","null","fixation","html-keyboard-response","517","1568050","0.0-6.0-0.73","2686081","co38164","norming","","","","","","",""
"null","../img/tt/306tt.jpg","null","mooney1","image-keyboard-response","518","1571057","0.0-6.0-1.73","2686081","co38164","norming","","","","","","",""
"6868.854999996955","","","post_mooney1_questions","survey-likert","519","1577929","0.0-6.0-2.73","2686081","co38164","norming","","","{""curiosity"":4,""confidence"":4}","[0,1]","../img/tt/306tt.jpg","",""
"2037.9150000009686","","","recognition","survey-text","520","1579969","0.0-6.0-3.73","2686081","co38164","norming","","","{""guess"":""frog""}","","../img/tt/306tt.jpg","",""
"null","../img/gs/306gs.jpg","null","reveal","image-keyboard-response","521","1581976","0.0-6.0-4.73","2686081","co38164","norming","","","","","","",""
"null","../img/tt/306tt.jpg","null","mooney2","image-keyboard-response","522","1583979","0.0-6.0-5.73","2686081","co38164","norming","","","","","","",""
"1891.7149999979883","","","post_reveal_questions","survey-likert","523","1585873","0.0-6.0-6.73","2686081","co38164","norming","","","{""aha"":5}","[0]","../img/tt/306tt.jpg","",""
"null","<div style=""font-size:60px;""> </div>","null","fixation","html-keyboard-response","524","1586075","0.0-6.0-0.74","2686081","co38164","norming","","","","","","",""
"null","../img/tt/094tt.jpg","null","mooney1","image-keyboard-response","525","1589080","0.0-6.0-1.74","2686081","co38164","norming","","","","","","",""
"5389.715000001248","","","post_mooney1_questions","survey-likert","526","1594473","0.0-6.0-2.74","2686081","co38164","norming","","","{""curiosity"":5,""confidence"":1}","[0,1]","../img/tt/094tt.jpg","",""
"2438.0349999992177","","","recognition","survey-text","527","1596913","0.0-6.0-3.74","2686081","co38164","norming","","","{""guess"":""tiger""}","","../img/tt/094tt.jpg","",""
"null","../img/gs/094gs.jpg","null","reveal","image-keyboard-response","528","1598919","0.0-6.0-4.74","2686081","co38164","norming","","","","","","",""
"null","../img/tt/094tt.jpg","null","mooney2","image-keyboard-response","529","1600922","0.0-6.0-5.74","2686081","co38164","norming","","","","","","",""
"2395.8700000003446","","","post_reveal_questions","survey-likert","530","1603321","0.0-6.0-6.74","2686081","co38164","norming","","","{""aha"":2}","[0]","../img/tt/094tt.jpg","",""
"null","<div style=""font-size:60px;""> </div>","null","fixation","html-keyboard-response","531","1603523","0.0-6.0-0.75","2686081","co38164","norming","","","","","","",""
"null","../img/tt/1148tt.jpg","null","mooney1","image-keyboard-response","532","1606528","0.0-6.0-1.75","2686081","co38164","norming","","","","","","",""
"4573.4300000004005","","","post_mooney1_questions","survey-likert","533","1611105","0.0-6.0-2.75","2686081","co38164","norming","","","{""curiosity"":5,""confidence"":2}","[0,1]","../img/tt/1148tt.jpg","",""
"4814.005000000121","","","recognition","survey-text","534","1615921","0.0-6.0-3.75","2686081","co38164","norming","","","{""guess"":""people in a boat""}","","../img/tt/1148tt.jpg","",""
"null","../img/gs/1148gs.jpg","null","reveal","image-keyboard-response","535","1617929","0.0-6.0-4.75","2686081","co38164","norming","","","","","","",""
"null","../img/tt/1148tt.jpg","null","mooney2","image-keyboard-response","536","1619937","0.0-6.0-5.75","2686081","co38164","norming","","","","","","",""
"2997.3299999984447","","","post_reveal_questions","survey-likert","537","1622937","0.0-6.0-6.75","2686081","co38164","norming","","","{""aha"":4}","[0]","../img/tt/1148tt.jpg","",""
"null","<div style=""font-size:60px;""> </div>","null","fixation","html-keyboard-response","538","1623139","0.0-6.0-0.76","2686081","co38164","norming","","","","","","",""
"null","../img/tt/194tt.jpg","null","mooney1","image-keyboard-response","539","1626142","0.0-6.0-1.76","2686081","co38164","norming","","","","","","",""
"3799.4350000007544","","","post_mooney1_questions","survey-likert","540","1629945","0.0-6.0-2.76","2686081","co38164","norming","","","{""curiosity"":5,""confidence"":2}","[0,1]","../img/tt/194tt.jpg","",""
"1942.1800000017975","","","recognition","survey-text","541","1631889","0.0-6.0-3.76","2686081","co38164","norming","","","{""guess"":""girl""}","","../img/tt/194tt.jpg","",""
"null","../img/gs/194gs.jpg","null","reveal","image-keyboard-response","542","1633900","0.0-6.0-4.76","2686081","co38164","norming","","","","","","",""
"null","../img/tt/194tt.jpg","null","mooney2","image-keyboard-response","543","1635903","0.0-6.0-5.76","2686081","co38164","norming","","","","","","",""
"2694.939999997383","","","post_reveal_questions","survey-likert","544","1638601","0.0-6.0-6.76","2686081","co38164","norming","","","{""aha"":4}","[0]","../img/tt/194tt.jpg","",""
"null","<div style=""font-size:60px;""> </div>","null","fixation","html-keyboard-response","545","1638802","0.0-6.0-0.77","2686081","co38164","norming","","","","","","",""
"null","../img/tt/091tt.jpg","null","mooney1","image-keyboard-response","546","1641808","0.0-6.0-1.77","2686081","co38164","norming","","","","","","",""
"4381.9900000016205","","","post_mooney1_questions","survey-likert","547","1646193","0.0-6.0-2.77","2686081","co38164","norming","","","{""curiosity"":5,""confidence"":1}","[0,1]","../img/tt/091tt.jpg","",""
"3005.93500000122","","","recognition","survey-text","548","1649200","0.0-6.0-3.77","2686081","co38164","norming","","","{""guess"":""iguana""}","","../img/tt/091tt.jpg","",""
"null","../img/gs/091gs.jpg","null","reveal","image-keyboard-response","549","1651211","0.0-6.0-4.77","2686081","co38164","norming","","","","","","",""
"null","../img/tt/091tt.jpg","null","mooney2","image-keyboard-response","550","1653213","0.0-6.0-5.77","2686081","co38164","norming","","","","","","",""
"1496.5899999989197","","","post_reveal_questions","survey-likert","551","1654712","0.0-6.0-6.77","2686081","co38164","norming","","","{""aha"":4}","[0]","../img/tt/091tt.jpg","",""
"null","<div style=""font-size:60px;""> </div>","null","fixation","html-keyboard-response","552","1654914","0.0-6.0-0.78","2686081","co38164","norming","","","","","","",""
