"rt","stimulus","key_press","test_part","trial_type","trial_index","time_elapsed","internal_node_id","totalTime","subject","experiment_name","button_pressed","success","responses","question_order","currentStim","old","correct"
"7999.815000000013","Welcome to the experiment. This is an online experiment so please don't close the tab/window until we say goodbye.  Press any key to begin.","13","instructions","html-keyboard-response","0","8014","0.0-0.0","2880512","co38143","norming","","","","","","",""
"91102.41500000001","<div style='word-wrap: break-word; width: 900px'><h3>Please consider this information carefully before deciding whether to participate in this research</h3><ul style='text-align: left; font-size: .8em;'><li><b>Purpose of the research</b>: To examine how people process images.</li><li><b>What you will do in this research</b>:  Stimuli (images) will be presented on the computer and you will be asked different questions about them.</li><li><b>Time required</b>: Participation will take between 45 and 60 minutes to complete.</li><li><b>Risks</b>:  There are no anticipated risks associated with participating in this study. The effects of participating should be comparable to those you would experience from viewing a computer monitor for 30 minutes and using a mouse or keyboard.</li><li><b>Benefits</b>:  This study provides no benefits to you individually except for the credit. The study provides important information about the nature of perception and learning.</li><li><b>Confidentiality</b>:  Your participation in this study will remain confidential. No personally identifiable information will be associated with your data. Your de-identified data may be shared with other researchers and used in future projects.</li><li><b>Participation and withdrawal</b>:  Your participation in this study is completely voluntary and you may refuse to participate or you may choose to withdraw at any time without penalty.</li><li><b>How to contact the researchers</b>: If you have questions or concerns about your participation or payment, or want to request a summary of research findings, please contact Sander Van de Cruys (KU Leuven), at sander.vandecruys@kuleuven.be.</li></ul><p>The nature and purpose of this research have been sufficiently explained and I agree to participate in this study.  I understand that I am free to withdraw at any time without incurring any penalty.</p><p>Please consent by clicking the button below to continue. Otherwise, please exit the study at this time.</p></div>","","instructions","html-button-response","1","99117","0.0-1.0","2880512","co38143","norming","0","","","","","",""
"","","","instructions","fullscreen","2","102925","0.0-2.0","2880512","co38143","norming","","true","","","","",""
"73382.53000000001","","","sona","survey-html-form","3","176321","0.0-3.0","2880512","co38143","norming","","","[{""name"":""sonaid"",""value"":""38143""},{""name"":""debrief"",""value"":""no""},{""name"":""datajoin"",""value"":""yes""}]","","","",""
"87267.18","<div style='word-wrap: break-word; width: 900px'><h3>Instructions</h3><p>This experiment will have 3 parts. In the first part you will see a series of distorted images like the one below on the left. As you can see in the righthand image, the distorted images are derived from actual photographs. In what follows, you will <strong>briefly</strong> be presented with <strong>only</strong> the distorted image.</p> <div style='float: left; margin-right: 20px;'><img src='../img/018tt.jpg' height='250' width='250'></img></div><div style='float: right; margin-left: 20px;'><img src='../img/018gs.jpg' height='250' width='250'></img></div><p>Subsequently you will be asked a few questions about the image: One question on how <strong>curious</strong> you are about the solution and one on how <strong>confident</strong> you are that you know the solution.</p>Next, we ask you to make a guess on what is in the image. Note that it is OK to name just the <strong>basic level category</strong>. For example when you see a parrot in the image, 'parrot' will obviously be a correct answer but also correct is 'bird'. However, 'animal' will <strong>not</strong> be counted as a correct response. For the example above, 'rose' would be correct or 'flower', but not 'plant'. When soccer players are depicted, 'soccer', 'football', 'soccer players' will be correct, but not 'humans', 'outdoors', or 'sports'. You do not need to describe the image in full, just name the main object in it <strong>in one or two words</strong>. All images depict objects from one of the following broad level categories: animals, inanimate objects, plants, sports, vehicles, and food. Recognizing means knowing <strong>more</strong> than these broad labels for a given image. But we always encourage you to <strong>make a guess</strong> if you can. Note that you are allowed to use <strong>Dutch and English</strong> in your answers, whatever comes easiest for you.</p><p>Press any key to continue.</p></div>","13","instructions","html-keyboard-response","4","263633","0.0-4.0","2880512","co38143","norming","","","","","","",""
"72350.91499999998","<div style='word-wrap: break-word; width: 900px'><h3>Instructions</h3> <p>Next, the solution image will be revealed to you and you'll be asked to indicate how strong your <strong>aha-experience</strong> was after seeing the solution. This describes the positive feeling of the 'click' you sometimes experience, when the pieces of the 'puzzle' fall together and you suddenly have 'insight' in the image.</p><img src='aha.jpg' height='188' width='250'></img><p>Note that there are no right or wrong answers. We are interested in what <strong>you</strong> see in the image and how <strong>you</strong> feel about it.</p><p>Press any key to start the experiment.</p></div>","13","instructions","html-keyboard-response","5","336048","0.0-5.0","2880512","co38143","norming","","","","","","",""
"null","<div style=""font-size:60px;""> </div>","null","fixation","html-keyboard-response","6","336255","0.0-6.0-0.0","2880512","co38143","norming","","","","","","",""
"null","../img/tt/1173tt.jpg","null","mooney1","image-keyboard-response","7","339267","0.0-6.0-1.0","2880512","co38143","norming","","","","","","",""
"7762.965000000026","","","post_mooney1_questions","survey-likert","8","347032","0.0-6.0-2.0","2880512","co38143","norming","","","{""curiosity"":4,""confidence"":4}","[0,1]","../img/tt/1173tt.jpg","",""
"9365.539999999979","","","recognition","survey-text","9","356400","0.0-6.0-3.0","2880512","co38143","norming","","","{""guess"":""voetbal""}","","../img/tt/1173tt.jpg","",""
"null","../img/gs/1173gs.jpg","null","reveal","image-keyboard-response","10","358402","0.0-6.0-4.0","2880512","co38143","norming","","","","","","",""
"null","../img/tt/1173tt.jpg","null","mooney2","image-keyboard-response","11","360413","0.0-6.0-5.0","2880512","co38143","norming","","","","","","",""
"4657.460000000021","","","post_reveal_questions","survey-likert","12","365072","0.0-6.0-6.0","2880512","co38143","norming","","","{""aha"":0}","[0]","../img/tt/1173tt.jpg","",""
"null","<div style=""font-size:60px;""> </div>","null","fixation","html-keyboard-response","13","365275","0.0-6.0-0.1","2880512","co38143","norming","","","","","","",""
"null","../img/tt/1189tt.jpg","null","mooney1","image-keyboard-response","14","368283","0.0-6.0-1.1","2880512","co38143","norming","","","","","","",""
"10370.554999999993","","","post_mooney1_questions","survey-likert","15","378656","0.0-6.0-2.1","2880512","co38143","norming","","","{""curiosity"":5,""confidence"":0}","[0,1]","../img/tt/1189tt.jpg","",""
"1118.1250000001164","","","recognition","survey-text","16","379775","0.0-6.0-3.1","2880512","co38143","norming","","","{""guess"":""""}","","../img/tt/1189tt.jpg","",""
"null","../img/gs/1189gs.jpg","null","reveal","image-keyboard-response","17","381784","0.0-6.0-4.1","2880512","co38143","norming","","","","","","",""
"null","../img/tt/1189tt.jpg","null","mooney2","image-keyboard-response","18","383788","0.0-6.0-5.1","2880512","co38143","norming","","","","","","",""
"3418.020000000077","","","post_reveal_questions","survey-likert","19","387208","0.0-6.0-6.1","2880512","co38143","norming","","","{""aha"":1}","[0]","../img/tt/1189tt.jpg","",""
"null","<div style=""font-size:60px;""> </div>","null","fixation","html-keyboard-response","20","387418","0.0-6.0-0.2","2880512","co38143","norming","","","","","","",""
"null","../img/tt/082tt.jpg","null","mooney1","image-keyboard-response","21","390422","0.0-6.0-1.2","2880512","co38143","norming","","","","","","",""
"8496.129999999946","","","post_mooney1_questions","survey-likert","22","398967","0.0-6.0-2.2","2880512","co38143","norming","","","{""curiosity"":4,""confidence"":1}","[0,1]","../img/tt/082tt.jpg","",""
"2838.5250000000233","","","recognition","survey-text","23","401807","0.0-6.0-3.2","2880512","co38143","norming","","","{""guess"":""cowboy""}","","../img/tt/082tt.jpg","",""
"null","../img/gs/082gs.jpg","null","reveal","image-keyboard-response","24","403814","0.0-6.0-4.2","2880512","co38143","norming","","","","","","",""
"null","../img/tt/082tt.jpg","null","mooney2","image-keyboard-response","25","405825","0.0-6.0-5.2","2880512","co38143","norming","","","","","","",""
"6795.34500000003","","","post_reveal_questions","survey-likert","26","412623","0.0-6.0-6.2","2880512","co38143","norming","","","{""aha"":0}","[0]","../img/tt/082tt.jpg","",""
"null","<div style=""font-size:60px;""> </div>","null","fixation","html-keyboard-response","27","412826","0.0-6.0-0.3","2880512","co38143","norming","","","","","","",""
"null","../img/tt/567tt.jpg","null","mooney1","image-keyboard-response","28","415833","0.0-6.0-1.3","2880512","co38143","norming","","","","","","",""
"5923.405000000028","","","post_mooney1_questions","survey-likert","29","421759","0.0-6.0-2.3","2880512","co38143","norming","","","{""curiosity"":5,""confidence"":0}","[0,1]","../img/tt/567tt.jpg","",""
"686.2300000000396","","","recognition","survey-text","30","422447","0.0-6.0-3.3","2880512","co38143","norming","","","{""guess"":""""}","","../img/tt/567tt.jpg","",""
"null","../img/gs/567gs.jpg","null","reveal","image-keyboard-response","31","424455","0.0-6.0-4.3","2880512","co38143","norming","","","","","","",""
"null","../img/tt/567tt.jpg","null","mooney2","image-keyboard-response","32","426457","0.0-6.0-5.3","2880512","co38143","norming","","","","","","",""
"3260.244999999937","","","post_reveal_questions","survey-likert","33","429719","0.0-6.0-6.3","2880512","co38143","norming","","","{""aha"":2}","[0]","../img/tt/567tt.jpg","",""
"null","<div style=""font-size:60px;""> </div>","null","fixation","html-keyboard-response","34","429923","0.0-6.0-0.4","2880512","co38143","norming","","","","","","",""
"null","../img/tt/1089tt.jpg","null","mooney1","image-keyboard-response","35","432933","0.0-6.0-1.4","2880512","co38143","norming","","","","","","",""
"6303.879999999888","","","post_mooney1_questions","survey-likert","36","439239","0.0-6.0-2.4","2880512","co38143","norming","","","{""curiosity"":5,""confidence"":0}","[0,1]","../img/tt/1089tt.jpg","",""
"710.0050000000629","","","recognition","survey-text","37","439951","0.0-6.0-3.4","2880512","co38143","norming","","","{""guess"":""""}","","../img/tt/1089tt.jpg","",""
"null","../img/gs/1089gs.jpg","null","reveal","image-keyboard-response","38","441958","0.0-6.0-4.4","2880512","co38143","norming","","","","","","",""
"null","../img/tt/1089tt.jpg","null","mooney2","image-keyboard-response","39","443961","0.0-6.0-5.4","2880512","co38143","norming","","","","","","",""
"3781.304999999993","","","post_reveal_questions","survey-likert","40","447743","0.0-6.0-6.4","2880512","co38143","norming","","","{""aha"":4}","[0]","../img/tt/1089tt.jpg","",""
"null","<div style=""font-size:60px;""> </div>","null","fixation","html-keyboard-response","41","447945","0.0-6.0-0.5","2880512","co38143","norming","","","","","","",""
"null","../img/tt/1190tt.jpg","null","mooney1","image-keyboard-response","42","450955","0.0-6.0-1.5","2880512","co38143","norming","","","","","","",""
"5888.964999999967","","","post_mooney1_questions","survey-likert","43","456847","0.0-6.0-2.5","2880512","co38143","norming","","","{""curiosity"":4,""confidence"":3}","[0,1]","../img/tt/1190tt.jpg","",""
"2478.2000000000116","","","recognition","survey-text","44","459381","0.0-6.0-3.5","2880512","co38143","norming","","","{""guess"":""soldaat""}","","../img/tt/1190tt.jpg","",""
"null","../img/gs/1190gs.jpg","null","reveal","image-keyboard-response","45","461389","0.0-6.0-4.5","2880512","co38143","norming","","","","","","",""
"null","../img/tt/1190tt.jpg","null","mooney2","image-keyboard-response","46","463397","0.0-6.0-5.5","2880512","co38143","norming","","","","","","",""
"2869.905000000028","","","post_reveal_questions","survey-likert","47","466269","0.0-6.0-6.5","2880512","co38143","norming","","","{""aha"":2}","[0]","../img/tt/1190tt.jpg","",""
"null","<div style=""font-size:60px;""> </div>","null","fixation","html-keyboard-response","48","466473","0.0-6.0-0.6","2880512","co38143","norming","","","","","","",""
"null","../img/tt/1040tt.jpg","null","mooney1","image-keyboard-response","49","469484","0.0-6.0-1.6","2880512","co38143","norming","","","","","","",""
"12861.710000000021","","","post_mooney1_questions","survey-likert","50","482349","0.0-6.0-2.6","2880512","co38143","norming","","","{""curiosity"":4,""confidence"":1}","[0,1]","../img/tt/1040tt.jpg","",""
"965.8000000000466","","","recognition","survey-text","51","483316","0.0-6.0-3.6","2880512","co38143","norming","","","{""guess"":""""}","","../img/tt/1040tt.jpg","",""
"null","../img/gs/1040gs.jpg","null","reveal","image-keyboard-response","52","485327","0.0-6.0-4.6","2880512","co38143","norming","","","","","","",""
"null","../img/tt/1040tt.jpg","null","mooney2","image-keyboard-response","53","487329","0.0-6.0-5.6","2880512","co38143","norming","","","","","","",""
"3017.814999999886","","","post_reveal_questions","survey-likert","54","490348","0.0-6.0-6.6","2880512","co38143","norming","","","{""aha"":1}","[0]","../img/tt/1040tt.jpg","",""
"null","<div style=""font-size:60px;""> </div>","null","fixation","html-keyboard-response","55","490550","0.0-6.0-0.7","2880512","co38143","norming","","","","","","",""
"null","../img/tt/121tt.jpg","null","mooney1","image-keyboard-response","56","493554","0.0-6.0-1.7","2880512","co38143","norming","","","","","","",""
"7751.960000000021","","","post_mooney1_questions","survey-likert","57","501309","0.0-6.0-2.7","2880512","co38143","norming","","","{""curiosity"":2,""confidence"":5}","[0,1]","../img/tt/121tt.jpg","",""
"3110.344999999914","","","recognition","survey-text","58","504421","0.0-6.0-3.7","2880512","co38143","norming","","","{""guess"":""kangoeroe""}","","../img/tt/121tt.jpg","",""
"null","../img/gs/121gs.jpg","null","reveal","image-keyboard-response","59","506429","0.0-6.0-4.7","2880512","co38143","norming","","","","","","",""
"null","../img/tt/121tt.jpg","null","mooney2","image-keyboard-response","60","508440","0.0-6.0-5.7","2880512","co38143","norming","","","","","","",""
"3187.4850000000442","","","post_reveal_questions","survey-likert","61","511629","0.0-6.0-6.7","2880512","co38143","norming","","","{""aha"":4}","[0]","../img/tt/121tt.jpg","",""
"null","<div style=""font-size:60px;""> </div>","null","fixation","html-keyboard-response","62","511834","0.0-6.0-0.8","2880512","co38143","norming","","","","","","",""
"null","../img/tt/1146tt.jpg","null","mooney1","image-keyboard-response","63","514841","0.0-6.0-1.8","2880512","co38143","norming","","","","","","",""
"6258.074999999895","","","post_mooney1_questions","survey-likert","64","521146","0.0-6.0-2.8","2880512","co38143","norming","","","{""curiosity"":4,""confidence"":2}","[0,1]","../img/tt/1146tt.jpg","",""
"2230.125","","","recognition","survey-text","65","523377","0.0-6.0-3.8","2880512","co38143","norming","","","{""guess"":""carwash""}","","../img/tt/1146tt.jpg","",""
"null","../img/gs/1146gs.jpg","null","reveal","image-keyboard-response","66","525381","0.0-6.0-4.8","2880512","co38143","norming","","","","","","",""
"null","../img/tt/1146tt.jpg","null","mooney2","image-keyboard-response","67","527392","0.0-6.0-5.8","2880512","co38143","norming","","","","","","",""
"3231.4349999999395","","","post_reveal_questions","survey-likert","68","530625","0.0-6.0-6.8","2880512","co38143","norming","","","{""aha"":2}","[0]","../img/tt/1146tt.jpg","",""
"null","<div style=""font-size:60px;""> </div>","null","fixation","html-keyboard-response","69","530830","0.0-6.0-0.9","2880512","co38143","norming","","","","","","",""
"null","../img/tt/008tt.jpg","null","mooney1","image-keyboard-response","70","533841","0.0-6.0-1.9","2880512","co38143","norming","","","","","","",""
"5446.359999999986","","","post_mooney1_questions","survey-likert","71","539289","0.0-6.0-2.9","2880512","co38143","norming","","","{""curiosity"":5,""confidence"":0}","[0,1]","../img/tt/008tt.jpg","",""
"861.7449999998789","","","recognition","survey-text","72","540153","0.0-6.0-3.9","2880512","co38143","norming","","","{""guess"":""""}","","../img/tt/008tt.jpg","",""
"null","../img/gs/008gs.jpg","null","reveal","image-keyboard-response","73","542155","0.0-6.0-4.9","2880512","co38143","norming","","","","","","",""
"null","../img/tt/008tt.jpg","null","mooney2","image-keyboard-response","74","544160","0.0-6.0-5.9","2880512","co38143","norming","","","","","","",""
"3743.194999999949","","","post_reveal_questions","survey-likert","75","547905","0.0-6.0-6.9","2880512","co38143","norming","","","{""aha"":4}","[0]","../img/tt/008tt.jpg","",""
"null","<div style=""font-size:60px;""> </div>","null","fixation","html-keyboard-response","76","548113","0.0-6.0-0.10","2880512","co38143","norming","","","","","","",""
"null","../img/tt/098tt.jpg","null","mooney1","image-keyboard-response","77","551125","0.0-6.0-1.10","2880512","co38143","norming","","","","","","",""
"5337.339999999967","","","post_mooney1_questions","survey-likert","78","556465","0.0-6.0-2.10","2880512","co38143","norming","","","{""curiosity"":5,""confidence"":1}","[0,1]","../img/tt/098tt.jpg","",""
"1822.3249999999534","","","recognition","survey-text","79","558289","0.0-6.0-3.10","2880512","co38143","norming","","","{""guess"":""kat""}","","../img/tt/098tt.jpg","",""
"null","../img/gs/098gs.jpg","null","reveal","image-keyboard-response","80","560298","0.0-6.0-4.10","2880512","co38143","norming","","","","","","",""
"null","../img/tt/098tt.jpg","null","mooney2","image-keyboard-response","81","562308","0.0-6.0-5.10","2880512","co38143","norming","","","","","","",""
"3275.7050000000745","","","post_reveal_questions","survey-likert","82","565585","0.0-6.0-6.10","2880512","co38143","norming","","","{""aha"":2}","[0]","../img/tt/098tt.jpg","",""
"null","<div style=""font-size:60px;""> </div>","null","fixation","html-keyboard-response","83","565795","0.0-6.0-0.11","2880512","co38143","norming","","","","","","",""
"null","../img/tt/1024tt.jpg","null","mooney1","image-keyboard-response","84","568806","0.0-6.0-1.11","2880512","co38143","norming","","","","","","",""
"4666.254999999888","","","post_mooney1_questions","survey-likert","85","573473","0.0-6.0-2.11","2880512","co38143","norming","","","{""curiosity"":5,""confidence"":1}","[0,1]","../img/tt/1024tt.jpg","",""
"2638.1450000000186","","","recognition","survey-text","86","576113","0.0-6.0-3.11","2880512","co38143","norming","","","{""guess"":""tennis""}","","../img/tt/1024tt.jpg","",""
"null","../img/gs/1024gs.jpg","null","reveal","image-keyboard-response","87","578121","0.0-6.0-4.11","2880512","co38143","norming","","","","","","",""
"null","../img/tt/1024tt.jpg","null","mooney2","image-keyboard-response","88","580129","0.0-6.0-5.11","2880512","co38143","norming","","","","","","",""
"3860.3150000000605","","","post_reveal_questions","survey-likert","89","583992","0.0-6.0-6.11","2880512","co38143","norming","","","{""aha"":4}","[0]","../img/tt/1024tt.jpg","",""
"null","<div style=""font-size:60px;""> </div>","null","fixation","html-keyboard-response","90","584193","0.0-6.0-0.12","2880512","co38143","norming","","","","","","",""
"null","../img/tt/1217tt.jpg","null","mooney1","image-keyboard-response","91","587196","0.0-6.0-1.12","2880512","co38143","norming","","","","","","",""
"5953.270000000019","","","post_mooney1_questions","survey-likert","92","593152","0.0-6.0-2.12","2880512","co38143","norming","","","{""curiosity"":4,""confidence"":0}","[0,1]","../img/tt/1217tt.jpg","",""
"1118.0899999999674","","","recognition","survey-text","93","594272","0.0-6.0-3.12","2880512","co38143","norming","","","{""guess"":""""}","","../img/tt/1217tt.jpg","",""
"null","../img/gs/1217gs.jpg","null","reveal","image-keyboard-response","94","596280","0.0-6.0-4.12","2880512","co38143","norming","","","","","","",""
"null","../img/tt/1217tt.jpg","null","mooney2","image-keyboard-response","95","598288","0.0-6.0-5.12","2880512","co38143","norming","","","","","","",""
"2645.8950000000186","","","post_reveal_questions","survey-likert","96","600936","0.0-6.0-6.12","2880512","co38143","norming","","","{""aha"":3}","[0]","../img/tt/1217tt.jpg","",""
"null","<div style=""font-size:60px;""> </div>","null","fixation","html-keyboard-response","97","601141","0.0-6.0-0.13","2880512","co38143","norming","","","","","","",""
"null","../img/tt/084tt.jpg","null","mooney1","image-keyboard-response","98","604151","0.0-6.0-1.13","2880512","co38143","norming","","","","","","",""
"5198.160000000033","","","post_mooney1_questions","survey-likert","99","609352","0.0-6.0-2.13","2880512","co38143","norming","","","{""curiosity"":4,""confidence"":4}","[0,1]","../img/tt/084tt.jpg","",""
"1742.134999999893","","","recognition","survey-text","100","611096","0.0-6.0-3.13","2880512","co38143","norming","","","{""guess"":""vogel""}","","../img/tt/084tt.jpg","",""
"null","../img/gs/084gs.jpg","null","reveal","image-keyboard-response","101","613101","0.0-6.0-4.13","2880512","co38143","norming","","","","","","",""
"null","../img/tt/084tt.jpg","null","mooney2","image-keyboard-response","102","615111","0.0-6.0-5.13","2880512","co38143","norming","","","","","","",""
"2814.844999999972","","","post_reveal_questions","survey-likert","103","617928","0.0-6.0-6.13","2880512","co38143","norming","","","{""aha"":4}","[0]","../img/tt/084tt.jpg","",""
"null","<div style=""font-size:60px;""> </div>","null","fixation","html-keyboard-response","104","618133","0.0-6.0-0.14","2880512","co38143","norming","","","","","","",""
"null","../img/tt/1224tt.jpg","null","mooney1","image-keyboard-response","105","621136","0.0-6.0-1.14","2880512","co38143","norming","","","","","","",""
"4484.949999999953","","","post_mooney1_questions","survey-likert","106","625624","0.0-6.0-2.14","2880512","co38143","norming","","","{""curiosity"":4,""confidence"":2}","[0,1]","../img/tt/1224tt.jpg","",""
"2542.140000000014","","","recognition","survey-text","107","628168","0.0-6.0-3.14","2880512","co38143","norming","","","{""guess"":""kassa""}","","../img/tt/1224tt.jpg","",""
"null","../img/gs/1224gs.jpg","null","reveal","image-keyboard-response","108","630174","0.0-6.0-4.14","2880512","co38143","norming","","","","","","",""
"null","../img/tt/1224tt.jpg","null","mooney2","image-keyboard-response","109","632185","0.0-6.0-5.14","2880512","co38143","norming","","","","","","",""
"3293.0449999999255","","","post_reveal_questions","survey-likert","110","635479","0.0-6.0-6.14","2880512","co38143","norming","","","{""aha"":2}","[0]","../img/tt/1224tt.jpg","",""
"null","<div style=""font-size:60px;""> </div>","null","fixation","html-keyboard-response","111","635681","0.0-6.0-0.15","2880512","co38143","norming","","","","","","",""
"null","../img/tt/1250tt.jpg","null","mooney1","image-keyboard-response","112","638685","0.0-6.0-1.15","2880512","co38143","norming","","","","","","",""
"6608.039999999921","","","post_mooney1_questions","survey-likert","113","645291","0.0-6.0-2.15","2880512","co38143","norming","","","{""curiosity"":4,""confidence"":1}","[0,1]","../img/tt/1250tt.jpg","",""
"1653.9749999999767","","","recognition","survey-text","114","646947","0.0-6.0-3.15","2880512","co38143","norming","","","{""guess"":""otter""}","","../img/tt/1250tt.jpg","",""
"null","../img/gs/1250gs.jpg","null","reveal","image-keyboard-response","115","648953","0.0-6.0-4.15","2880512","co38143","norming","","","","","","",""
"null","../img/tt/1250tt.jpg","null","mooney2","image-keyboard-response","116","650962","0.0-6.0-5.15","2880512","co38143","norming","","","","","","",""
"9335.170000000042","","","post_reveal_questions","survey-likert","117","660299","0.0-6.0-6.15","2880512","co38143","norming","","","{""aha"":2}","[0]","../img/tt/1250tt.jpg","",""
"null","<div style=""font-size:60px;""> </div>","null","fixation","html-keyboard-response","118","660500","0.0-6.0-0.16","2880512","co38143","norming","","","","","","",""
"null","../img/tt/603tt.jpg","null","mooney1","image-keyboard-response","119","663505","0.0-6.0-1.16","2880512","co38143","norming","","","","","","",""
"8494.829999999958","","","post_mooney1_questions","survey-likert","120","672003","0.0-6.0-2.16","2880512","co38143","norming","","","{""curiosity"":5,""confidence"":1}","[0,1]","../img/tt/603tt.jpg","",""
"1694.2050000000745","","","recognition","survey-text","121","673699","0.0-6.0-3.16","2880512","co38143","norming","","","{""guess"":""heks""}","","../img/tt/603tt.jpg","",""
"null","../img/gs/603gs.jpg","null","reveal","image-keyboard-response","122","675700","0.0-6.0-4.16","2880512","co38143","norming","","","","","","",""
"null","../img/tt/603tt.jpg","null","mooney2","image-keyboard-response","123","677702","0.0-6.0-5.16","2880512","co38143","norming","","","","","","",""
"3274.810000000056","","","post_reveal_questions","survey-likert","124","680979","0.0-6.0-6.16","2880512","co38143","norming","","","{""aha"":4}","[0]","../img/tt/603tt.jpg","",""
"null","<div style=""font-size:60px;""> </div>","null","fixation","html-keyboard-response","125","681188","0.0-6.0-0.17","2880512","co38143","norming","","","","","","",""
"null","../img/tt/357tt.jpg","null","mooney1","image-keyboard-response","126","684199","0.0-6.0-1.17","2880512","co38143","norming","","","","","","",""
"4897.240000000107","","","post_mooney1_questions","survey-likert","127","689099","0.0-6.0-2.17","2880512","co38143","norming","","","{""curiosity"":4,""confidence"":4}","[0,1]","../img/tt/357tt.jpg","",""
"1222.1699999999255","","","recognition","survey-text","128","690323","0.0-6.0-3.17","2880512","co38143","norming","","","{""guess"":""egel""}","","../img/tt/357tt.jpg","",""
"null","../img/gs/357gs.jpg","null","reveal","image-keyboard-response","129","692324","0.0-6.0-4.17","2880512","co38143","norming","","","","","","",""
"null","../img/tt/357tt.jpg","null","mooney2","image-keyboard-response","130","694326","0.0-6.0-5.17","2880512","co38143","norming","","","","","","",""
"2378.8150000000605","","","post_reveal_questions","survey-likert","131","696707","0.0-6.0-6.17","2880512","co38143","norming","","","{""aha"":4}","[0]","../img/tt/357tt.jpg","",""
"null","<div style=""font-size:60px;""> </div>","null","fixation","html-keyboard-response","132","696908","0.0-6.0-0.18","2880512","co38143","norming","","","","","","",""
"null","../img/tt/019tt.jpg","null","mooney1","image-keyboard-response","133","699918","0.0-6.0-1.18","2880512","co38143","norming","","","","","","",""
"4378.030000000028","","","post_mooney1_questions","survey-likert","134","704303","0.0-6.0-2.18","2880512","co38143","norming","","","{""curiosity"":4,""confidence"":1}","[0,1]","../img/tt/019tt.jpg","",""
"1318.0849999999627","","","recognition","survey-text","135","705623","0.0-6.0-3.18","2880512","co38143","norming","","","{""guess"":""mes""}","","../img/tt/019tt.jpg","",""
"null","../img/gs/019gs.jpg","null","reveal","image-keyboard-response","136","707630","0.0-6.0-4.18","2880512","co38143","norming","","","","","","",""
"null","../img/tt/019tt.jpg","null","mooney2","image-keyboard-response","137","709639","0.0-6.0-5.18","2880512","co38143","norming","","","","","","",""
"3021.5500000000466","","","post_reveal_questions","survey-likert","138","712663","0.0-6.0-6.18","2880512","co38143","norming","","","{""aha"":4}","[0]","../img/tt/019tt.jpg","",""
"null","<div style=""font-size:60px;""> </div>","null","fixation","html-keyboard-response","139","712867","0.0-6.0-0.19","2880512","co38143","norming","","","","","","",""
"null","../img/tt/1154tt.jpg","null","mooney1","image-keyboard-response","140","715877","0.0-6.0-1.19","2880512","co38143","norming","","","","","","",""
"6366.734999999986","","","post_mooney1_questions","survey-likert","141","722247","0.0-6.0-2.19","2880512","co38143","norming","","","{""curiosity"":4,""confidence"":1}","[0,1]","../img/tt/1154tt.jpg","",""
"2877.9050000001444","","","recognition","survey-text","142","725127","0.0-6.0-3.19","2880512","co38143","norming","","","{""guess"":""pick nick""}","","../img/tt/1154tt.jpg","",""
"null","../img/gs/1154gs.jpg","null","reveal","image-keyboard-response","143","727137","0.0-6.0-4.19","2880512","co38143","norming","","","","","","",""
"null","../img/tt/1154tt.jpg","null","mooney2","image-keyboard-response","144","729139","0.0-6.0-5.19","2880512","co38143","norming","","","","","","",""
"4801.180000000051","","","post_reveal_questions","survey-likert","145","733943","0.0-6.0-6.19","2880512","co38143","norming","","","{""aha"":3}","[0]","../img/tt/1154tt.jpg","",""
"null","<div style=""font-size:60px;""> </div>","null","fixation","html-keyboard-response","146","734145","0.0-6.0-0.20","2880512","co38143","norming","","","","","","",""
"null","../img/tt/496tt.jpg","null","mooney1","image-keyboard-response","147","737150","0.0-6.0-1.20","2880512","co38143","norming","","","","","","",""
"3694.670000000042","","","post_mooney1_questions","survey-likert","148","740847","0.0-6.0-2.20","2880512","co38143","norming","","","{""curiosity"":6,""confidence"":0}","[0,1]","../img/tt/496tt.jpg","",""
"1493.5349999999162","","","recognition","survey-text","149","742342","0.0-6.0-3.20","2880512","co38143","norming","","","{""guess"":""""}","","../img/tt/496tt.jpg","",""
"null","../img/gs/496gs.jpg","null","reveal","image-keyboard-response","150","744345","0.0-6.0-4.20","2880512","co38143","norming","","","","","","",""
"null","../img/tt/496tt.jpg","null","mooney2","image-keyboard-response","151","746350","0.0-6.0-5.20","2880512","co38143","norming","","","","","","",""
"2998.54999999993","","","post_reveal_questions","survey-likert","152","749350","0.0-6.0-6.20","2880512","co38143","norming","","","{""aha"":5}","[0]","../img/tt/496tt.jpg","",""
"null","<div style=""font-size:60px;""> </div>","null","fixation","html-keyboard-response","153","749559","0.0-6.0-0.21","2880512","co38143","norming","","","","","","",""
"null","../img/tt/1086tt.jpg","null","mooney1","image-keyboard-response","154","752565","0.0-6.0-1.21","2880512","co38143","norming","","","","","","",""
"4695.389999999898","","","post_mooney1_questions","survey-likert","155","757263","0.0-6.0-2.21","2880512","co38143","norming","","","{""curiosity"":5,""confidence"":1}","[0,1]","../img/tt/1086tt.jpg","",""
"1269.9849999998696","","","recognition","survey-text","156","758534","0.0-6.0-3.21","2880512","co38143","norming","","","{""guess"":""wolf""}","","../img/tt/1086tt.jpg","",""
"null","../img/gs/1086gs.jpg","null","reveal","image-keyboard-response","157","760540","0.0-6.0-4.21","2880512","co38143","norming","","","","","","",""
"null","../img/tt/1086tt.jpg","null","mooney2","image-keyboard-response","158","762549","0.0-6.0-5.21","2880512","co38143","norming","","","","","","",""
"3606.960000000079","","","post_reveal_questions","survey-likert","159","766159","0.0-6.0-6.21","2880512","co38143","norming","","","{""aha"":4}","[0]","../img/tt/1086tt.jpg","",""
"null","<div style=""font-size:60px;""> </div>","null","fixation","html-keyboard-response","160","766366","0.0-6.0-0.22","2880512","co38143","norming","","","","","","",""
"null","../img/tt/081tt.jpg","null","mooney1","image-keyboard-response","161","769370","0.0-6.0-1.22","2880512","co38143","norming","","","","","","",""
"4370.254999999888","","","post_mooney1_questions","survey-likert","162","773743","0.0-6.0-2.22","2880512","co38143","norming","","","{""curiosity"":4,""confidence"":1}","[0,1]","../img/tt/081tt.jpg","",""
"1525.734999999986","","","recognition","survey-text","163","775271","0.0-6.0-3.22","2880512","co38143","norming","","","{""guess"":""slang""}","","../img/tt/081tt.jpg","",""
"null","../img/gs/081gs.jpg","null","reveal","image-keyboard-response","164","777272","0.0-6.0-4.22","2880512","co38143","norming","","","","","","",""
"null","../img/tt/081tt.jpg","null","mooney2","image-keyboard-response","165","779275","0.0-6.0-5.22","2880512","co38143","norming","","","","","","",""
"4137.534999999916","","","post_reveal_questions","survey-likert","166","783415","0.0-6.0-6.22","2880512","co38143","norming","","","{""aha"":5}","[0]","../img/tt/081tt.jpg","",""
"null","<div style=""font-size:60px;""> </div>","null","fixation","html-keyboard-response","167","783620","0.0-6.0-0.23","2880512","co38143","norming","","","","","","",""
"null","../img/tt/1309tt.jpg","null","mooney1","image-keyboard-response","168","786623","0.0-6.0-1.23","2880512","co38143","norming","","","","","","",""
"4029.4250000000466","","","post_mooney1_questions","survey-likert","169","790655","0.0-6.0-2.23","2880512","co38143","norming","","","{""curiosity"":4,""confidence"":1}","[0,1]","../img/tt/1309tt.jpg","",""
"1494.2349999998696","","","recognition","survey-text","170","792151","0.0-6.0-3.23","2880512","co38143","norming","","","{""guess"":""auto""}","","../img/tt/1309tt.jpg","",""
"null","../img/gs/1309gs.jpg","null","reveal","image-keyboard-response","171","794158","0.0-6.0-4.23","2880512","co38143","norming","","","","","","",""
"null","../img/tt/1309tt.jpg","null","mooney2","image-keyboard-response","172","796163","0.0-6.0-5.23","2880512","co38143","norming","","","","","","",""
"3785.4749999998603","","","post_reveal_questions","survey-likert","173","799951","0.0-6.0-6.23","2880512","co38143","norming","","","{""aha"":4}","[0]","../img/tt/1309tt.jpg","",""
"null","<div style=""font-size:60px;""> </div>","null","fixation","html-keyboard-response","174","800152","0.0-6.0-0.24","2880512","co38143","norming","","","","","","",""
"null","../img/tt/380tt.jpg","null","mooney1","image-keyboard-response","175","803156","0.0-6.0-1.24","2880512","co38143","norming","","","","","","",""
"5976.474999999977","","","post_mooney1_questions","survey-likert","176","809135","0.0-6.0-2.24","2880512","co38143","norming","","","{""curiosity"":5,""confidence"":2}","[0,1]","../img/tt/380tt.jpg","",""
"2726.375","","","recognition","survey-text","177","811863","0.0-6.0-3.24","2880512","co38143","norming","","","{""guess"":""kat""}","","../img/tt/380tt.jpg","",""
"null","../img/gs/380gs.jpg","null","reveal","image-keyboard-response","178","813872","0.0-6.0-4.24","2880512","co38143","norming","","","","","","",""
"null","../img/tt/380tt.jpg","null","mooney2","image-keyboard-response","179","815880","0.0-6.0-5.24","2880512","co38143","norming","","","","","","",""
"3380.920000000042","","","post_reveal_questions","survey-likert","180","819263","0.0-6.0-6.24","2880512","co38143","norming","","","{""aha"":1}","[0]","../img/tt/380tt.jpg","",""
"null","<div style=""font-size:60px;""> </div>","null","fixation","html-keyboard-response","181","819473","0.0-6.0-0.25","2880512","co38143","norming","","","","","","",""
"null","../img/tt/1063tt.jpg","null","mooney1","image-keyboard-response","182","822481","0.0-6.0-1.25","2880512","co38143","norming","","","","","","",""
"4355.119999999995","","","post_mooney1_questions","survey-likert","183","826837","0.0-6.0-2.25","2880512","co38143","norming","","","{""curiosity"":4,""confidence"":5}","[0,1]","../img/tt/1063tt.jpg","",""
"2254.7549999998882","","","recognition","survey-text","184","829093","0.0-6.0-3.25","2880512","co38143","norming","","","{""guess"":""Paard""}","","../img/tt/1063tt.jpg","",""
"null","../img/gs/1063gs.jpg","null","reveal","image-keyboard-response","185","831102","0.0-6.0-4.25","2880512","co38143","norming","","","","","","",""
"null","../img/tt/1063tt.jpg","null","mooney2","image-keyboard-response","186","833113","0.0-6.0-5.25","2880512","co38143","norming","","","","","","",""
"2761.3800000000047","","","post_reveal_questions","survey-likert","187","835877","0.0-6.0-6.25","2880512","co38143","norming","","","{""aha"":5}","[0]","../img/tt/1063tt.jpg","",""
"null","<div style=""font-size:60px;""> </div>","null","fixation","html-keyboard-response","188","836079","0.0-6.0-0.26","2880512","co38143","norming","","","","","","",""
"null","../img/tt/1033tt.jpg","null","mooney1","image-keyboard-response","189","839089","0.0-6.0-1.26","2880512","co38143","norming","","","","","","",""
"4881.550000000047","","","post_mooney1_questions","survey-likert","190","843973","0.0-6.0-2.26","2880512","co38143","norming","","","{""curiosity"":4,""confidence"":1}","[0,1]","../img/tt/1033tt.jpg","",""
"1822.1149999999907","","","recognition","survey-text","191","845797","0.0-6.0-3.26","2880512","co38143","norming","","","{""guess"":""kajak""}","","../img/tt/1033tt.jpg","",""
"null","../img/gs/1033gs.jpg","null","reveal","image-keyboard-response","192","847800","0.0-6.0-4.26","2880512","co38143","norming","","","","","","",""
"null","../img/tt/1033tt.jpg","null","mooney2","image-keyboard-response","193","849802","0.0-6.0-5.26","2880512","co38143","norming","","","","","","",""
"3960.4000000000233","","","post_reveal_questions","survey-likert","194","853765","0.0-6.0-6.26","2880512","co38143","norming","","","{""aha"":4}","[0]","../img/tt/1033tt.jpg","",""
"null","<div style=""font-size:60px;""> </div>","null","fixation","html-keyboard-response","195","853971","0.0-6.0-0.27","2880512","co38143","norming","","","","","","",""
"null","../img/tt/105tt.jpg","null","mooney1","image-keyboard-response","196","856978","0.0-6.0-1.27","2880512","co38143","norming","","","","","","",""
"5200.770000000019","","","post_mooney1_questions","survey-likert","197","862181","0.0-6.0-2.27","2880512","co38143","norming","","","{""curiosity"":4,""confidence"":1}","[0,1]","../img/tt/105tt.jpg","",""
"1358.229999999865","","","recognition","survey-text","198","863541","0.0-6.0-3.27","2880512","co38143","norming","","","{""guess"":""slang""}","","../img/tt/105tt.jpg","",""
"null","../img/gs/105gs.jpg","null","reveal","image-keyboard-response","199","865543","0.0-6.0-4.27","2880512","co38143","norming","","","","","","",""
"null","../img/tt/105tt.jpg","null","mooney2","image-keyboard-response","200","867552","0.0-6.0-5.27","2880512","co38143","norming","","","","","","",""
"3586.980000000098","","","post_reveal_questions","survey-likert","201","871141","0.0-6.0-6.27","2880512","co38143","norming","","","{""aha"":4}","[0]","../img/tt/105tt.jpg","",""
"null","<div style=""font-size:60px;""> </div>","null","fixation","html-keyboard-response","202","871347","0.0-6.0-0.28","2880512","co38143","norming","","","","","","",""
"null","../img/tt/1243tt.jpg","null","mooney1","image-keyboard-response","203","874357","0.0-6.0-1.28","2880512","co38143","norming","","","","","","",""
"3677.659999999916","","","post_mooney1_questions","survey-likert","204","878037","0.0-6.0-2.28","2880512","co38143","norming","","","{""curiosity"":4,""confidence"":3}","[0,1]","../img/tt/1243tt.jpg","",""
"1486.0400000000373","","","recognition","survey-text","205","879525","0.0-6.0-3.28","2880512","co38143","norming","","","{""guess"":""goal""}","","../img/tt/1243tt.jpg","",""
"null","../img/gs/1243gs.jpg","null","reveal","image-keyboard-response","206","881531","0.0-6.0-4.28","2880512","co38143","norming","","","","","","",""
"null","../img/tt/1243tt.jpg","null","mooney2","image-keyboard-response","207","883540","0.0-6.0-5.28","2880512","co38143","norming","","","","","","",""
"3175.159999999916","","","post_reveal_questions","survey-likert","208","886712","0.0-6.0-6.28","2880512","co38143","norming","","","{""aha"":4}","[0]","../img/tt/1243tt.jpg","",""
"null","<div style=""font-size:60px;""> </div>","null","fixation","html-keyboard-response","209","886920","0.0-6.0-0.29","2880512","co38143","norming","","","","","","",""
"null","../img/tt/1227tt.jpg","null","mooney1","image-keyboard-response","210","889922","0.0-6.0-1.29","2880512","co38143","norming","","","","","","",""
"4267.5299999999115","","","post_mooney1_questions","survey-likert","211","894192","0.0-6.0-2.29","2880512","co38143","norming","","","{""curiosity"":6,""confidence"":0}","[0,1]","../img/tt/1227tt.jpg","",""
"926.2450000001118","","","recognition","survey-text","212","895120","0.0-6.0-3.29","2880512","co38143","norming","","","{""guess"":""""}","","../img/tt/1227tt.jpg","",""
"null","../img/gs/1227gs.jpg","null","reveal","image-keyboard-response","213","897122","0.0-6.0-4.29","2880512","co38143","norming","","","","","","",""
"null","../img/tt/1227tt.jpg","null","mooney2","image-keyboard-response","214","899129","0.0-6.0-5.29","2880512","co38143","norming","","","","","","",""
"1989.895000000135","","","post_reveal_questions","survey-likert","215","901120","0.0-6.0-6.29","2880512","co38143","norming","","","{""aha"":4}","[0]","../img/tt/1227tt.jpg","",""
"null","<div style=""font-size:60px;""> </div>","null","fixation","html-keyboard-response","216","901328","0.0-6.0-0.30","2880512","co38143","norming","","","","","","",""
"null","../img/tt/524tt.jpg","null","mooney1","image-keyboard-response","217","904329","0.0-6.0-1.30","2880512","co38143","norming","","","","","","",""
"6693.2849999998","","","post_mooney1_questions","survey-likert","218","911024","0.0-6.0-2.30","2880512","co38143","norming","","","{""curiosity"":6,""confidence"":0}","[0,1]","../img/tt/524tt.jpg","",""
"1269.844999999972","","","recognition","survey-text","219","912296","0.0-6.0-3.30","2880512","co38143","norming","","","{""guess"":""""}","","../img/tt/524tt.jpg","",""
"null","../img/gs/524gs.jpg","null","reveal","image-keyboard-response","220","914296","0.0-6.0-4.30","2880512","co38143","norming","","","","","","",""
"null","../img/tt/524tt.jpg","null","mooney2","image-keyboard-response","221","916304","0.0-6.0-5.30","2880512","co38143","norming","","","","","","",""
"3431.064999999944","","","post_reveal_questions","survey-likert","222","919736","0.0-6.0-6.30","2880512","co38143","norming","","","{""aha"":6}","[0]","../img/tt/524tt.jpg","",""
"null","<div style=""font-size:60px;""> </div>","null","fixation","html-keyboard-response","223","919945","0.0-6.0-0.31","2880512","co38143","norming","","","","","","",""
"null","../img/tt/270tt.jpg","null","mooney1","image-keyboard-response","224","922956","0.0-6.0-1.31","2880512","co38143","norming","","","","","","",""
"5546.1900000000605","","","post_mooney1_questions","survey-likert","225","928504","0.0-6.0-2.31","2880512","co38143","norming","","","{""curiosity"":5,""confidence"":0}","[0,1]","../img/tt/270tt.jpg","",""
"998.1900000000605","","","recognition","survey-text","226","929504","0.0-6.0-3.31","2880512","co38143","norming","","","{""guess"":""""}","","../img/tt/270tt.jpg","",""
"null","../img/gs/270gs.jpg","null","reveal","image-keyboard-response","227","931505","0.0-6.0-4.31","2880512","co38143","norming","","","","","","",""
"null","../img/tt/270tt.jpg","null","mooney2","image-keyboard-response","228","933507","0.0-6.0-5.31","2880512","co38143","norming","","","","","","",""
"2931.70000000007","","","post_reveal_questions","survey-likert","229","936440","0.0-6.0-6.31","2880512","co38143","norming","","","{""aha"":6}","[0]","../img/tt/270tt.jpg","",""
"null","<div style=""font-size:60px;""> </div>","null","fixation","html-keyboard-response","230","936643","0.0-6.0-0.32","2880512","co38143","norming","","","","","","",""
"null","../img/tt/442tt.jpg","null","mooney1","image-keyboard-response","231","939648","0.0-6.0-1.32","2880512","co38143","norming","","","","","","",""
"4415.050000000047","","","post_mooney1_questions","survey-likert","232","944064","0.0-6.0-2.32","2880512","co38143","norming","","","{""curiosity"":5,""confidence"":1}","[0,1]","../img/tt/442tt.jpg","",""
"6909.980000000214","","","recognition","survey-text","233","950984","0.0-6.0-3.32","2880512","co38143","norming","","","{""guess"":""denne-appel""}","","../img/tt/442tt.jpg","",""
"null","../img/gs/442gs.jpg","null","reveal","image-keyboard-response","234","952989","0.0-6.0-4.32","2880512","co38143","norming","","","","","","",""
"null","../img/tt/442tt.jpg","null","mooney2","image-keyboard-response","235","954991","0.0-6.0-5.32","2880512","co38143","norming","","","","","","",""
"2831.554999999935","","","post_reveal_questions","survey-likert","236","957824","0.0-6.0-6.32","2880512","co38143","norming","","","{""aha"":5}","[0]","../img/tt/442tt.jpg","",""
"null","<div style=""font-size:60px;""> </div>","null","fixation","html-keyboard-response","237","958027","0.0-6.0-0.33","2880512","co38143","norming","","","","","","",""
"null","../img/tt/440tt.jpg","null","mooney1","image-keyboard-response","238","961036","0.0-6.0-1.33","2880512","co38143","norming","","","","","","",""
"5618.245000000112","","","post_mooney1_questions","survey-likert","239","966656","0.0-6.0-2.33","2880512","co38143","norming","","","{""curiosity"":5,""confidence"":1}","[0,1]","../img/tt/440tt.jpg","",""
"2374.0150000001304","","","recognition","survey-text","240","969032","0.0-6.0-3.33","2880512","co38143","norming","","","{""guess"":""stal""}","","../img/tt/440tt.jpg","",""
"null","../img/gs/440gs.jpg","null","reveal","image-keyboard-response","241","971038","0.0-6.0-4.33","2880512","co38143","norming","","","","","","",""
"null","../img/tt/440tt.jpg","null","mooney2","image-keyboard-response","242","973044","0.0-6.0-5.33","2880512","co38143","norming","","","","","","",""
"2898.689999999944","","","post_reveal_questions","survey-likert","243","975944","0.0-6.0-6.33","2880512","co38143","norming","","","{""aha"":4}","[0]","../img/tt/440tt.jpg","",""
"null","<div style=""font-size:60px;""> </div>","null","fixation","html-keyboard-response","244","976146","0.0-6.0-0.34","2880512","co38143","norming","","","","","","",""
"null","../img/tt/1234tt.jpg","null","mooney1","image-keyboard-response","245","979147","0.0-6.0-1.34","2880512","co38143","norming","","","","","","",""
"4107.555000000051","","","post_mooney1_questions","survey-likert","246","983256","0.0-6.0-2.34","2880512","co38143","norming","","","{""curiosity"":5,""confidence"":2}","[0,1]","../img/tt/1234tt.jpg","",""
"2046.0700000000652","","","recognition","survey-text","247","985304","0.0-6.0-3.34","2880512","co38143","norming","","","{""guess"":""zwaan""}","","../img/tt/1234tt.jpg","",""
"null","../img/gs/1234gs.jpg","null","reveal","image-keyboard-response","248","987312","0.0-6.0-4.34","2880512","co38143","norming","","","","","","",""
"null","../img/tt/1234tt.jpg","null","mooney2","image-keyboard-response","249","989319","0.0-6.0-5.34","2880512","co38143","norming","","","","","","",""
"2510.9200000001583","","","post_reveal_questions","survey-likert","250","991832","0.0-6.0-6.34","2880512","co38143","norming","","","{""aha"":4}","[0]","../img/tt/1234tt.jpg","",""
"null","<div style=""font-size:60px;""> </div>","null","fixation","html-keyboard-response","251","992035","0.0-6.0-0.35","2880512","co38143","norming","","","","","","",""
"null","../img/tt/598tt.jpg","null","mooney1","image-keyboard-response","252","995038","0.0-6.0-1.35","2880512","co38143","norming","","","","","","",""
"6535.354999999981","","","post_mooney1_questions","survey-likert","253","1001576","0.0-6.0-2.35","2880512","co38143","norming","","","{""curiosity"":6,""confidence"":1}","[0,1]","../img/tt/598tt.jpg","",""
"3389.8100000001723","","","recognition","survey-text","254","1004967","0.0-6.0-3.35","2880512","co38143","norming","","","{""guess"":""""}","","../img/tt/598tt.jpg","",""
"null","../img/gs/598gs.jpg","null","reveal","image-keyboard-response","255","1006972","0.0-6.0-4.35","2880512","co38143","norming","","","","","","",""
"null","../img/tt/598tt.jpg","null","mooney2","image-keyboard-response","256","1008974","0.0-6.0-5.35","2880512","co38143","norming","","","","","","",""
"2962.5849999999627","","","post_reveal_questions","survey-likert","257","1011939","0.0-6.0-6.35","2880512","co38143","norming","","","{""aha"":6}","[0]","../img/tt/598tt.jpg","",""
"null","<div style=""font-size:60px;""> </div>","null","fixation","html-keyboard-response","258","1012141","0.0-6.0-0.36","2880512","co38143","norming","","","","","","",""
"null","../img/tt/112tt.jpg","null","mooney1","image-keyboard-response","259","1015151","0.0-6.0-1.36","2880512","co38143","norming","","","","","","",""
"4690.044999999809","","","post_mooney1_questions","survey-likert","260","1019843","0.0-6.0-2.36","2880512","co38143","norming","","","{""curiosity"":4,""confidence"":2}","[0,1]","../img/tt/112tt.jpg","",""
"3254.20000000007","","","recognition","survey-text","261","1023099","0.0-6.0-3.36","2880512","co38143","norming","","","{""guess"":""telefoon""}","","../img/tt/112tt.jpg","",""
"null","../img/gs/112gs.jpg","null","reveal","image-keyboard-response","262","1025100","0.0-6.0-4.36","2880512","co38143","norming","","","","","","",""
"null","../img/tt/112tt.jpg","null","mooney2","image-keyboard-response","263","1027103","0.0-6.0-5.36","2880512","co38143","norming","","","","","","",""
"2352.534999999916","","","post_reveal_questions","survey-likert","264","1029458","0.0-6.0-6.36","2880512","co38143","norming","","","{""aha"":4}","[0]","../img/tt/112tt.jpg","",""
"null","<div style=""font-size:60px;""> </div>","null","fixation","html-keyboard-response","265","1029669","0.0-6.0-0.37","2880512","co38143","norming","","","","","","",""
"null","../img/tt/079tt.jpg","null","mooney1","image-keyboard-response","266","1032677","0.0-6.0-1.37","2880512","co38143","norming","","","","","","",""
"3514.944999999949","","","post_mooney1_questions","survey-likert","267","1036195","0.0-6.0-2.37","2880512","co38143","norming","","","{""curiosity"":5,""confidence"":4}","[0,1]","../img/tt/079tt.jpg","",""
"1798.045000000042","","","recognition","survey-text","268","1037994","0.0-6.0-3.37","2880512","co38143","norming","","","{""guess"":""beer""}","","../img/tt/079tt.jpg","",""
"null","../img/gs/079gs.jpg","null","reveal","image-keyboard-response","269","1039996","0.0-6.0-4.37","2880512","co38143","norming","","","","","","",""
"null","../img/tt/079tt.jpg","null","mooney2","image-keyboard-response","270","1042006","0.0-6.0-5.37","2880512","co38143","norming","","","","","","",""
"3937.6650000000373","","","post_reveal_questions","survey-likert","271","1045947","0.0-6.0-6.37","2880512","co38143","norming","","","{""aha"":4}","[0]","../img/tt/079tt.jpg","",""
"null","<div style=""font-size:60px;""> </div>","null","fixation","html-keyboard-response","272","1046150","0.0-6.0-0.38","2880512","co38143","norming","","","","","","",""
"null","../img/tt/010tt.jpg","null","mooney1","image-keyboard-response","273","1049160","0.0-6.0-1.38","2880512","co38143","norming","","","","","","",""
"3408.480000000214","","","post_mooney1_questions","survey-likert","274","1052571","0.0-6.0-2.38","2880512","co38143","norming","","","{""curiosity"":5,""confidence"":4}","[0,1]","../img/tt/010tt.jpg","",""
"3214.0149999998976","","","recognition","survey-text","275","1055787","0.0-6.0-3.38","2880512","co38143","norming","","","{""guess"":""kikker""}","","../img/tt/010tt.jpg","",""
"null","../img/gs/010gs.jpg","null","reveal","image-keyboard-response","276","1057790","0.0-6.0-4.38","2880512","co38143","norming","","","","","","",""
"null","../img/tt/010tt.jpg","null","mooney2","image-keyboard-response","277","1059799","0.0-6.0-5.38","2880512","co38143","norming","","","","","","",""
"3912.95999999973","","","post_reveal_questions","survey-likert","278","1063714","0.0-6.0-6.38","2880512","co38143","norming","","","{""aha"":3}","[0]","../img/tt/010tt.jpg","",""
"null","<div style=""font-size:60px;""> </div>","null","fixation","html-keyboard-response","279","1063916","0.0-6.0-0.39","2880512","co38143","norming","","","","","","",""
"null","../img/tt/549tt.jpg","null","mooney1","image-keyboard-response","280","1066920","0.0-6.0-1.39","2880512","co38143","norming","","","","","","",""
"3929.100000000093","","","post_mooney1_questions","survey-likert","281","1070849","0.0-6.0-2.39","2880512","co38143","norming","","","{""curiosity"":6,""confidence"":0}","[0,1]","../img/tt/549tt.jpg","",""
"870.4650000000838","","","recognition","survey-text","282","1071721","0.0-6.0-3.39","2880512","co38143","norming","","","{""guess"":""""}","","../img/tt/549tt.jpg","",""
"null","../img/gs/549gs.jpg","null","reveal","image-keyboard-response","283","1073723","0.0-6.0-4.39","2880512","co38143","norming","","","","","","",""
"null","../img/tt/549tt.jpg","null","mooney2","image-keyboard-response","284","1075728","0.0-6.0-5.39","2880512","co38143","norming","","","","","","",""
"2518.7299999999814","","","post_reveal_questions","survey-likert","285","1078249","0.0-6.0-6.39","2880512","co38143","norming","","","{""aha"":5}","[0]","../img/tt/549tt.jpg","",""
"null","<div style=""font-size:60px;""> </div>","null","fixation","html-keyboard-response","286","1078458","0.0-6.0-0.40","2880512","co38143","norming","","","","","","",""
"null","../img/tt/1278tt.jpg","null","mooney1","image-keyboard-response","287","1081461","0.0-6.0-1.40","2880512","co38143","norming","","","","","","",""
"4833.269999999786","","","post_mooney1_questions","survey-likert","288","1086298","0.0-6.0-2.40","2880512","co38143","norming","","","{""curiosity"":4,""confidence"":1}","[0,1]","../img/tt/1278tt.jpg","",""
"1838.1400000001304","","","recognition","survey-text","289","1088137","0.0-6.0-3.40","2880512","co38143","norming","","","{""guess"":""hond""}","","../img/tt/1278tt.jpg","",""
"null","../img/gs/1278gs.jpg","null","reveal","image-keyboard-response","290","1090139","0.0-6.0-4.40","2880512","co38143","norming","","","","","","",""
"null","../img/tt/1278tt.jpg","null","mooney2","image-keyboard-response","291","1092147","0.0-6.0-5.40","2880512","co38143","norming","","","","","","",""
"2555.809999999823","","","post_reveal_questions","survey-likert","292","1094706","0.0-6.0-6.40","2880512","co38143","norming","","","{""aha"":4}","[0]","../img/tt/1278tt.jpg","",""
"null","<div style=""font-size:60px;""> </div>","null","fixation","html-keyboard-response","293","1094913","0.0-6.0-0.41","2880512","co38143","norming","","","","","","",""
"null","../img/tt/123tt.jpg","null","mooney1","image-keyboard-response","294","1097918","0.0-6.0-1.41","2880512","co38143","norming","","","","","","",""
"8992.665000000037","","","post_mooney1_questions","survey-likert","295","1106914","0.0-6.0-2.41","2880512","co38143","norming","","","{""curiosity"":4,""confidence"":2}","[0,1]","../img/tt/123tt.jpg","",""
"2294.2249999998603","","","recognition","survey-text","296","1109210","0.0-6.0-3.41","2880512","co38143","norming","","","{""guess"":""wastafel""}","","../img/tt/123tt.jpg","",""
"null","../img/gs/123gs.jpg","null","reveal","image-keyboard-response","297","1111219","0.0-6.0-4.41","2880512","co38143","norming","","","","","","",""
"null","../img/tt/123tt.jpg","null","mooney2","image-keyboard-response","298","1113221","0.0-6.0-5.41","2880512","co38143","norming","","","","","","",""
"2834.185000000056","","","post_reveal_questions","survey-likert","299","1116058","0.0-6.0-6.41","2880512","co38143","norming","","","{""aha"":5}","[0]","../img/tt/123tt.jpg","",""
"null","<div style=""font-size:60px;""> </div>","null","fixation","html-keyboard-response","300","1116262","0.0-6.0-0.42","2880512","co38143","norming","","","","","","",""
"null","../img/tt/135tt.jpg","null","mooney1","image-keyboard-response","301","1119265","0.0-6.0-1.42","2880512","co38143","norming","","","","","","",""
"6741.364999999758","","","post_mooney1_questions","survey-likert","302","1126009","0.0-6.0-2.42","2880512","co38143","norming","","","{""curiosity"":2,""confidence"":5}","[0,1]","../img/tt/135tt.jpg","",""
"1494.3199999998324","","","recognition","survey-text","303","1127505","0.0-6.0-3.42","2880512","co38143","norming","","","{""guess"":""wc""}","","../img/tt/135tt.jpg","",""
"null","../img/gs/135gs.jpg","null","reveal","image-keyboard-response","304","1129522","0.0-6.0-4.42","2880512","co38143","norming","","","","","","",""
"null","../img/tt/135tt.jpg","null","mooney2","image-keyboard-response","305","1131526","0.0-6.0-5.42","2880512","co38143","norming","","","","","","",""
"2645.499999999767","","","post_reveal_questions","survey-likert","306","1134176","0.0-6.0-6.42","2880512","co38143","norming","","","{""aha"":4}","[0]","../img/tt/135tt.jpg","",""
"null","<div style=""font-size:60px;""> </div>","null","fixation","html-keyboard-response","307","1134378","0.0-6.0-0.43","2880512","co38143","norming","","","","","","",""
"null","../img/tt/1270tt.jpg","null","mooney1","image-keyboard-response","308","1137390","0.0-6.0-1.43","2880512","co38143","norming","","","","","","",""
"3735.6949999998324","","","post_mooney1_questions","survey-likert","309","1141128","0.0-6.0-2.43","2880512","co38143","norming","","","{""curiosity"":6,""confidence"":0}","[0,1]","../img/tt/1270tt.jpg","",""
"693.9399999999441","","","recognition","survey-text","310","1141824","0.0-6.0-3.43","2880512","co38143","norming","","","{""guess"":""""}","","../img/tt/1270tt.jpg","",""
"null","../img/gs/1270gs.jpg","null","reveal","image-keyboard-response","311","1143826","0.0-6.0-4.43","2880512","co38143","norming","","","","","","",""
"null","../img/tt/1270tt.jpg","null","mooney2","image-keyboard-response","312","1145828","0.0-6.0-5.43","2880512","co38143","norming","","","","","","",""
"2960.0150000001304","","","post_reveal_questions","survey-likert","313","1148792","0.0-6.0-6.43","2880512","co38143","norming","","","{""aha"":5}","[0]","../img/tt/1270tt.jpg","",""
"null","<div style=""font-size:60px;""> </div>","null","fixation","html-keyboard-response","314","1148997","0.0-6.0-0.44","2880512","co38143","norming","","","","","","",""
"null","../img/tt/163tt.jpg","null","mooney1","image-keyboard-response","315","1152000","0.0-6.0-1.44","2880512","co38143","norming","","","","","","",""
"3244.590000000084","","","post_mooney1_questions","survey-likert","316","1155248","0.0-6.0-2.44","2880512","co38143","norming","","","{""curiosity"":5,""confidence"":3}","[0,1]","../img/tt/163tt.jpg","",""
"1662.285000000149","","","recognition","survey-text","317","1156912","0.0-6.0-3.44","2880512","co38143","norming","","","{""guess"":""kikker""}","","../img/tt/163tt.jpg","",""
"null","../img/gs/163gs.jpg","null","reveal","image-keyboard-response","318","1158914","0.0-6.0-4.44","2880512","co38143","norming","","","","","","",""
"null","../img/tt/163tt.jpg","null","mooney2","image-keyboard-response","319","1160918","0.0-6.0-5.44","2880512","co38143","norming","","","","","","",""
"2609.010000000242","","","post_reveal_questions","survey-likert","320","1163528","0.0-6.0-6.44","2880512","co38143","norming","","","{""aha"":4}","[0]","../img/tt/163tt.jpg","",""
"null","<div style=""font-size:60px;""> </div>","null","fixation","html-keyboard-response","321","1163731","0.0-6.0-0.45","2880512","co38143","norming","","","","","","",""
"null","../img/tt/552tt.jpg","null","mooney1","image-keyboard-response","322","1166740","0.0-6.0-1.45","2880512","co38143","norming","","","","","","",""
"5089.450000000186","","","post_mooney1_questions","survey-likert","323","1171832","0.0-6.0-2.45","2880512","co38143","norming","","","{""curiosity"":5,""confidence"":2}","[0,1]","../img/tt/552tt.jpg","",""
"2006.4350000000559","","","recognition","survey-text","324","1173840","0.0-6.0-3.45","2880512","co38143","norming","","","{""guess"":""stinkdier""}","","../img/tt/552tt.jpg","",""
"null","../img/gs/552gs.jpg","null","reveal","image-keyboard-response","325","1175849","0.0-6.0-4.45","2880512","co38143","norming","","","","","","",""
"null","../img/tt/552tt.jpg","null","mooney2","image-keyboard-response","326","1177858","0.0-6.0-5.45","2880512","co38143","norming","","","","","","",""
"2099.189999999944","","","post_reveal_questions","survey-likert","327","1179960","0.0-6.0-6.45","2880512","co38143","norming","","","{""aha"":5}","[0]","../img/tt/552tt.jpg","",""
"null","<div style=""font-size:60px;""> </div>","null","fixation","html-keyboard-response","328","1180161","0.0-6.0-0.46","2880512","co38143","norming","","","","","","",""
"null","../img/tt/108tt.jpg","null","mooney1","image-keyboard-response","329","1183168","0.0-6.0-1.46","2880512","co38143","norming","","","","","","",""
"4045.3549999999814","","","post_mooney1_questions","survey-likert","330","1187216","0.0-6.0-2.46","2880512","co38143","norming","","","{""curiosity"":6,""confidence"":2}","[0,1]","../img/tt/108tt.jpg","",""
"1613.8250000001863","","","recognition","survey-text","331","1188832","0.0-6.0-3.46","2880512","co38143","norming","","","{""guess"":""aap""}","","../img/tt/108tt.jpg","",""
"null","../img/gs/108gs.jpg","null","reveal","image-keyboard-response","332","1190841","0.0-6.0-4.46","2880512","co38143","norming","","","","","","",""
"null","../img/tt/108tt.jpg","null","mooney2","image-keyboard-response","333","1192850","0.0-6.0-5.46","2880512","co38143","norming","","","","","","",""
"1911.6650000000373","","","post_reveal_questions","survey-likert","334","1194763","0.0-6.0-6.46","2880512","co38143","norming","","","{""aha"":6}","[0]","../img/tt/108tt.jpg","",""
"null","<div style=""font-size:60px;""> </div>","null","fixation","html-keyboard-response","335","1194972","0.0-6.0-0.47","2880512","co38143","norming","","","","","","",""
"null","../img/tt/1181tt.jpg","null","mooney1","image-keyboard-response","336","1197976","0.0-6.0-1.47","2880512","co38143","norming","","","","","","",""
"11871.930000000168","","","post_mooney1_questions","survey-likert","337","1209851","0.0-6.0-2.47","2880512","co38143","norming","","","{""curiosity"":6,""confidence"":2}","[0,1]","../img/tt/1181tt.jpg","",""
"4117.510000000009","","","recognition","survey-text","338","1213971","0.0-6.0-3.47","2880512","co38143","norming","","","{""guess"":""honkbal""}","","../img/tt/1181tt.jpg","",""
"null","../img/gs/1181gs.jpg","null","reveal","image-keyboard-response","339","1215978","0.0-6.0-4.47","2880512","co38143","norming","","","","","","",""
"null","../img/tt/1181tt.jpg","null","mooney2","image-keyboard-response","340","1217980","0.0-6.0-5.47","2880512","co38143","norming","","","","","","",""
"2692.939999999944","","","post_reveal_questions","survey-likert","341","1220675","0.0-6.0-6.47","2880512","co38143","norming","","","{""aha"":2}","[0]","../img/tt/1181tt.jpg","",""
"null","<div style=""font-size:60px;""> </div>","null","fixation","html-keyboard-response","342","1220876","0.0-6.0-0.48","2880512","co38143","norming","","","","","","",""
"null","../img/tt/1097tt.jpg","null","mooney1","image-keyboard-response","343","1223877","0.0-6.0-1.48","2880512","co38143","norming","","","","","","",""
"6155.264999999898","","","post_mooney1_questions","survey-likert","344","1230035","0.0-6.0-2.48","2880512","co38143","norming","","","{""curiosity"":5,""confidence"":5}","[0,1]","../img/tt/1097tt.jpg","",""
"1949.9800000002142","","","recognition","survey-text","345","1231987","0.0-6.0-3.48","2880512","co38143","norming","","","{""guess"":""golf""}","","../img/tt/1097tt.jpg","",""
"null","../img/gs/1097gs.jpg","null","reveal","image-keyboard-response","346","1233995","0.0-6.0-4.48","2880512","co38143","norming","","","","","","",""
"null","../img/tt/1097tt.jpg","null","mooney2","image-keyboard-response","347","1235997","0.0-6.0-5.48","2880512","co38143","norming","","","","","","",""
"3077.3000000000466","","","post_reveal_questions","survey-likert","348","1239075","0.0-6.0-6.48","2880512","co38143","norming","","","{""aha"":5}","[0]","../img/tt/1097tt.jpg","",""
"null","<div style=""font-size:60px;""> </div>","null","fixation","html-keyboard-response","349","1239285","0.0-6.0-0.49","2880512","co38143","norming","","","","","","",""
"null","../img/tt/580tt.jpg","null","mooney1","image-keyboard-response","350","1242294","0.0-6.0-1.49","2880512","co38143","norming","","","","","","",""
"3282.010000000242","","","post_mooney1_questions","survey-likert","351","1245579","0.0-6.0-2.49","2880512","co38143","norming","","","{""curiosity"":5,""confidence"":2}","[0,1]","../img/tt/580tt.jpg","",""
"1685.5150000001304","","","recognition","survey-text","352","1247267","0.0-6.0-3.49","2880512","co38143","norming","","","{""guess"":""aap""}","","../img/tt/580tt.jpg","",""
"null","../img/gs/580gs.jpg","null","reveal","image-keyboard-response","353","1249274","0.0-6.0-4.49","2880512","co38143","norming","","","","","","",""
"null","../img/tt/580tt.jpg","null","mooney2","image-keyboard-response","354","1251278","0.0-6.0-5.49","2880512","co38143","norming","","","","","","",""
"3708.1700000001583","","","post_reveal_questions","survey-likert","355","1254988","0.0-6.0-6.49","2880512","co38143","norming","","","{""aha"":5}","[0]","../img/tt/580tt.jpg","",""
"null","<div style=""font-size:60px;""> </div>","null","fixation","html-keyboard-response","356","1255191","0.0-6.0-0.50","2880512","co38143","norming","","","","","","",""
"null","../img/tt/091tt.jpg","null","mooney1","image-keyboard-response","357","1258201","0.0-6.0-1.50","2880512","co38143","norming","","","","","","",""
"4047.9549999998417","","","post_mooney1_questions","survey-likert","358","1262252","0.0-6.0-2.50","2880512","co38143","norming","","","{""curiosity"":5,""confidence"":4}","[0,1]","../img/tt/091tt.jpg","",""
"2694.125","","","recognition","survey-text","359","1264948","0.0-6.0-3.50","2880512","co38143","norming","","","{""guess"":""krokodil""}","","../img/tt/091tt.jpg","",""
"null","../img/gs/091gs.jpg","null","reveal","image-keyboard-response","360","1266959","0.0-6.0-4.50","2880512","co38143","norming","","","","","","",""
"null","../img/tt/091tt.jpg","null","mooney2","image-keyboard-response","361","1268961","0.0-6.0-5.50","2880512","co38143","norming","","","","","","",""
"2306.4749999998603","","","post_reveal_questions","survey-likert","362","1271268","0.0-6.0-6.50","2880512","co38143","norming","","","{""aha"":4}","[0]","../img/tt/091tt.jpg","",""
"null","<div style=""font-size:60px;""> </div>","null","fixation","html-keyboard-response","363","1271472","0.0-6.0-0.51","2880512","co38143","norming","","","","","","",""
"null","../img/tt/1200tt.jpg","null","mooney1","image-keyboard-response","364","1274480","0.0-6.0-1.51","2880512","co38143","norming","","","","","","",""
"5729.029999999795","","","post_mooney1_questions","survey-likert","365","1280212","0.0-6.0-2.51","2880512","co38143","norming","","","{""curiosity"":4,""confidence"":4}","[0,1]","../img/tt/1200tt.jpg","",""
"1694.3100000000559","","","recognition","survey-text","366","1281908","0.0-6.0-3.51","2880512","co38143","norming","","","{""guess"":""kano""}","","../img/tt/1200tt.jpg","",""
"null","../img/gs/1200gs.jpg","null","reveal","image-keyboard-response","367","1283917","0.0-6.0-4.51","2880512","co38143","norming","","","","","","",""
"null","../img/tt/1200tt.jpg","null","mooney2","image-keyboard-response","368","1285924","0.0-6.0-5.51","2880512","co38143","norming","","","","","","",""
"2493.7650000001304","","","post_reveal_questions","survey-likert","369","1288420","0.0-6.0-6.51","2880512","co38143","norming","","","{""aha"":4}","[0]","../img/tt/1200tt.jpg","",""
"null","<div style=""font-size:60px;""> </div>","null","fixation","html-keyboard-response","370","1288628","0.0-6.0-0.52","2880512","co38143","norming","","","","","","",""
"null","../img/tt/1096tt.jpg","null","mooney1","image-keyboard-response","371","1291632","0.0-6.0-1.52","2880512","co38143","norming","","","","","","",""
"3745.160000000382","","","post_mooney1_questions","survey-likert","372","1295381","0.0-6.0-2.52","2880512","co38143","norming","","","{""curiosity"":5,""confidence"":2}","[0,1]","../img/tt/1096tt.jpg","",""
"3565.714999999851","","","recognition","survey-text","373","1298948","0.0-6.0-3.52","2880512","co38143","norming","","","{""guess"":""paardenstal""}","","../img/tt/1096tt.jpg","",""
"null","../img/gs/1096gs.jpg","null","reveal","image-keyboard-response","374","1300951","0.0-6.0-4.52","2880512","co38143","norming","","","","","","",""
"null","../img/tt/1096tt.jpg","null","mooney2","image-keyboard-response","375","1302951","0.0-6.0-5.52","2880512","co38143","norming","","","","","","",""
"2435.220000000205","","","post_reveal_questions","survey-likert","376","1305388","0.0-6.0-6.52","2880512","co38143","norming","","","{""aha"":5}","[0]","../img/tt/1096tt.jpg","",""
"null","<div style=""font-size:60px;""> </div>","null","fixation","html-keyboard-response","377","1305595","0.0-6.0-0.53","2880512","co38143","norming","","","","","","",""
"null","../img/tt/1269tt.jpg","null","mooney1","image-keyboard-response","378","1308599","0.0-6.0-1.53","2880512","co38143","norming","","","","","","",""
"4603.054999999935","","","post_mooney1_questions","survey-likert","379","1313205","0.0-6.0-2.53","2880512","co38143","norming","","","{""curiosity"":4,""confidence"":5}","[0,1]","../img/tt/1269tt.jpg","",""
"2462.16500000027","","","recognition","survey-text","380","1315669","0.0-6.0-3.53","2880512","co38143","norming","","","{""guess"":""eekhoorn""}","","../img/tt/1269tt.jpg","",""
"null","../img/gs/1269gs.jpg","null","reveal","image-keyboard-response","381","1317671","0.0-6.0-4.53","2880512","co38143","norming","","","","","","",""
"null","../img/tt/1269tt.jpg","null","mooney2","image-keyboard-response","382","1319681","0.0-6.0-5.53","2880512","co38143","norming","","","","","","",""
"2409.0450000001583","","","post_reveal_questions","survey-likert","383","1322093","0.0-6.0-6.53","2880512","co38143","norming","","","{""aha"":5}","[0]","../img/tt/1269tt.jpg","",""
"null","<div style=""font-size:60px;""> </div>","null","fixation","html-keyboard-response","384","1322295","0.0-6.0-0.54","2880512","co38143","norming","","","","","","",""
"null","../img/tt/1161tt.jpg","null","mooney1","image-keyboard-response","385","1325298","0.0-6.0-1.54","2880512","co38143","norming","","","","","","",""
"5447.800000000279","","","post_mooney1_questions","survey-likert","386","1330749","0.0-6.0-2.54","2880512","co38143","norming","","","{""curiosity"":5,""confidence"":2}","[0,1]","../img/tt/1161tt.jpg","",""
"3941.8850000000093","","","recognition","survey-text","387","1334693","0.0-6.0-3.54","2880512","co38143","norming","","","{""guess"":""roeien""}","","../img/tt/1161tt.jpg","",""
"null","../img/gs/1161gs.jpg","null","reveal","image-keyboard-response","388","1336695","0.0-6.0-4.54","2880512","co38143","norming","","","","","","",""
"null","../img/tt/1161tt.jpg","null","mooney2","image-keyboard-response","389","1338698","0.0-6.0-5.54","2880512","co38143","norming","","","","","","",""
"2248.530000000028","","","post_reveal_questions","survey-likert","390","1340949","0.0-6.0-6.54","2880512","co38143","norming","","","{""aha"":4}","[0]","../img/tt/1161tt.jpg","",""
"null","<div style=""font-size:60px;""> </div>","null","fixation","html-keyboard-response","391","1341150","0.0-6.0-0.55","2880512","co38143","norming","","","","","","",""
"null","../img/tt/378tt.jpg","null","mooney1","image-keyboard-response","392","1344160","0.0-6.0-1.55","2880512","co38143","norming","","","","","","",""
"4441.709999999963","","","post_mooney1_questions","survey-likert","393","1348605","0.0-6.0-2.55","2880512","co38143","norming","","","{""curiosity"":5,""confidence"":2}","[0,1]","../img/tt/378tt.jpg","",""
"1510.095000000205","","","recognition","survey-text","394","1350117","0.0-6.0-3.55","2880512","co38143","norming","","","{""guess"":""hond""}","","../img/tt/378tt.jpg","",""
"null","../img/gs/378gs.jpg","null","reveal","image-keyboard-response","395","1352118","0.0-6.0-4.55","2880512","co38143","norming","","","","","","",""
"null","../img/tt/378tt.jpg","null","mooney2","image-keyboard-response","396","1354123","0.0-6.0-5.55","2880512","co38143","norming","","","","","","",""
"1934.6950000000652","","","post_reveal_questions","survey-likert","397","1356061","0.0-6.0-6.55","2880512","co38143","norming","","","{""aha"":4}","[0]","../img/tt/378tt.jpg","",""
"null","<div style=""font-size:60px;""> </div>","null","fixation","html-keyboard-response","398","1356265","0.0-6.0-0.56","2880512","co38143","norming","","","","","","",""
"null","../img/tt/078tt.jpg","null","mooney1","image-keyboard-response","399","1359276","0.0-6.0-1.56","2880512","co38143","norming","","","","","","",""
"6638.100000000326","","","post_mooney1_questions","survey-likert","400","1365917","0.0-6.0-2.56","2880512","co38143","norming","","","{""curiosity"":5,""confidence"":2}","[0,1]","../img/tt/078tt.jpg","",""
"1846.035000000149","","","recognition","survey-text","401","1367765","0.0-6.0-3.56","2880512","co38143","norming","","","{""guess"":""kikker""}","","../img/tt/078tt.jpg","",""
"null","../img/gs/078gs.jpg","null","reveal","image-keyboard-response","402","1369768","0.0-6.0-4.56","2880512","co38143","norming","","","","","","",""
"null","../img/tt/078tt.jpg","null","mooney2","image-keyboard-response","403","1371770","0.0-6.0-5.56","2880512","co38143","norming","","","","","","",""
"4223.905000000028","","","post_reveal_questions","survey-likert","404","1375996","0.0-6.0-6.56","2880512","co38143","norming","","","{""aha"":3}","[0]","../img/tt/078tt.jpg","",""
"null","<div style=""font-size:60px;""> </div>","null","fixation","html-keyboard-response","405","1376203","0.0-6.0-0.57","2880512","co38143","norming","","","","","","",""
"null","../img/tt/1191tt.jpg","null","mooney1","image-keyboard-response","406","1379210","0.0-6.0-1.57","2880512","co38143","norming","","","","","","",""
"7423.165000000037","","","post_mooney1_questions","survey-likert","407","1386637","0.0-6.0-2.57","2880512","co38143","norming","","","{""curiosity"":5,""confidence"":2}","[0,1]","../img/tt/1191tt.jpg","",""
"2934.1099999998696","","","recognition","survey-text","408","1389572","0.0-6.0-3.57","2880512","co38143","norming","","","{""guess"":""dansen""}","","../img/tt/1191tt.jpg","",""
"null","../img/gs/1191gs.jpg","null","reveal","image-keyboard-response","409","1391580","0.0-6.0-4.57","2880512","co38143","norming","","","","","","",""
"null","../img/tt/1191tt.jpg","null","mooney2","image-keyboard-response","410","1393589","0.0-6.0-5.57","2880512","co38143","norming","","","","","","",""
"3596.929999999935","","","post_reveal_questions","survey-likert","411","1397188","0.0-6.0-6.57","2880512","co38143","norming","","","{""aha"":2}","[0]","../img/tt/1191tt.jpg","",""
"null","<div style=""font-size:60px;""> </div>","null","fixation","html-keyboard-response","412","1397392","0.0-6.0-0.58","2880512","co38143","norming","","","","","","",""
"null","../img/tt/1241tt.jpg","null","mooney1","image-keyboard-response","413","1400403","0.0-6.0-1.58","2880512","co38143","norming","","","","","","",""
"4861.8300000000745","","","post_mooney1_questions","survey-likert","414","1405268","0.0-6.0-2.58","2880512","co38143","norming","","","{""curiosity"":5,""confidence"":4}","[0,1]","../img/tt/1241tt.jpg","",""
"2462.284999999916","","","recognition","survey-text","415","1407732","0.0-6.0-3.58","2880512","co38143","norming","","","{""guess"":""hyena""}","","../img/tt/1241tt.jpg","",""
"null","../img/gs/1241gs.jpg","null","reveal","image-keyboard-response","416","1409737","0.0-6.0-4.58","2880512","co38143","norming","","","","","","",""
"null","../img/tt/1241tt.jpg","null","mooney2","image-keyboard-response","417","1411745","0.0-6.0-5.58","2880512","co38143","norming","","","","","","",""
"2248.630000000121","","","post_reveal_questions","survey-likert","418","1413996","0.0-6.0-6.58","2880512","co38143","norming","","","{""aha"":4}","[0]","../img/tt/1241tt.jpg","",""
"null","<div style=""font-size:60px;""> </div>","null","fixation","html-keyboard-response","419","1414198","0.0-6.0-0.59","2880512","co38143","norming","","","","","","",""
"null","../img/tt/080tt.jpg","null","mooney1","image-keyboard-response","420","1417201","0.0-6.0-1.59","2880512","co38143","norming","","","","","","",""
"7622.945000000065","","","post_mooney1_questions","survey-likert","421","1424828","0.0-6.0-2.59","2880512","co38143","norming","","","{""curiosity"":4,""confidence"":3}","[0,1]","../img/tt/080tt.jpg","",""
"1430.255000000121","","","recognition","survey-text","422","1426260","0.0-6.0-3.59","2880512","co38143","norming","","","{""guess"":""berg""}","","../img/tt/080tt.jpg","",""
"null","../img/gs/080gs.jpg","null","reveal","image-keyboard-response","423","1428270","0.0-6.0-4.59","2880512","co38143","norming","","","","","","",""
"null","../img/tt/080tt.jpg","null","mooney2","image-keyboard-response","424","1430279","0.0-6.0-5.59","2880512","co38143","norming","","","","","","",""
"3482.5849999999627","","","post_reveal_questions","survey-likert","425","1433763","0.0-6.0-6.59","2880512","co38143","norming","","","{""aha"":2}","[0]","../img/tt/080tt.jpg","",""
"null","<div style=""font-size:60px;""> </div>","null","fixation","html-keyboard-response","426","1433966","0.0-6.0-0.60","2880512","co38143","norming","","","","","","",""
"null","../img/tt/1199tt.jpg","null","mooney1","image-keyboard-response","427","1436974","0.0-6.0-1.60","2880512","co38143","norming","","","","","","",""
"6498.689999999944","","","post_mooney1_questions","survey-likert","428","1443475","0.0-6.0-2.60","2880512","co38143","norming","","","{""curiosity"":4,""confidence"":2}","[0,1]","../img/tt/1199tt.jpg","",""
"1806.0649999999441","","","recognition","survey-text","429","1445283","0.0-6.0-3.60","2880512","co38143","norming","","","{""guess"":""piano""}","","../img/tt/1199tt.jpg","",""
"null","../img/gs/1199gs.jpg","null","reveal","image-keyboard-response","430","1447289","0.0-6.0-4.60","2880512","co38143","norming","","","","","","",""
"null","../img/tt/1199tt.jpg","null","mooney2","image-keyboard-response","431","1449297","0.0-6.0-5.60","2880512","co38143","norming","","","","","","",""
"2758.814999999944","","","post_reveal_questions","survey-likert","432","1452059","0.0-6.0-6.60","2880512","co38143","norming","","","{""aha"":4}","[0]","../img/tt/1199tt.jpg","",""
"null","<div style=""font-size:60px;""> </div>","null","fixation","html-keyboard-response","433","1452266","0.0-6.0-0.61","2880512","co38143","norming","","","","","","",""
"null","../img/tt/013tt.jpg","null","mooney1","image-keyboard-response","434","1455275","0.0-6.0-1.61","2880512","co38143","norming","","","","","","",""
"5196.614999999991","","","post_mooney1_questions","survey-likert","435","1460475","0.0-6.0-2.61","2880512","co38143","norming","","","{""curiosity"":5,""confidence"":4}","[0,1]","../img/tt/013tt.jpg","",""
"1638.0100000002421","","","recognition","survey-text","436","1462115","0.0-6.0-3.61","2880512","co38143","norming","","","{""guess"":""paard""}","","../img/tt/013tt.jpg","",""
"null","../img/gs/013gs.jpg","null","reveal","image-keyboard-response","437","1464118","0.0-6.0-4.61","2880512","co38143","norming","","","","","","",""
"null","../img/tt/013tt.jpg","null","mooney2","image-keyboard-response","438","1466120","0.0-6.0-5.61","2880512","co38143","norming","","","","","","",""
"3015.6099999998696","","","post_reveal_questions","survey-likert","439","1469139","0.0-6.0-6.61","2880512","co38143","norming","","","{""aha"":5}","[0]","../img/tt/013tt.jpg","",""
"null","<div style=""font-size:60px;""> </div>","null","fixation","html-keyboard-response","440","1469345","0.0-6.0-0.62","2880512","co38143","norming","","","","","","",""
"null","../img/tt/1239tt.jpg","null","mooney1","image-keyboard-response","441","1472351","0.0-6.0-1.62","2880512","co38143","norming","","","","","","",""
"3592.9499999999534","","","post_mooney1_questions","survey-likert","442","1475947","0.0-6.0-2.62","2880512","co38143","norming","","","{""curiosity"":5,""confidence"":5}","[0,1]","../img/tt/1239tt.jpg","",""
"1414.0649999999441","","","recognition","survey-text","443","1477363","0.0-6.0-3.62","2880512","co38143","norming","","","{""guess"":""hond""}","","../img/tt/1239tt.jpg","",""
"null","../img/gs/1239gs.jpg","null","reveal","image-keyboard-response","444","1479365","0.0-6.0-4.62","2880512","co38143","norming","","","","","","",""
"null","../img/tt/1239tt.jpg","null","mooney2","image-keyboard-response","445","1481373","0.0-6.0-5.62","2880512","co38143","norming","","","","","","",""
"2907.41500000027","","","post_reveal_questions","survey-likert","446","1484283","0.0-6.0-6.62","2880512","co38143","norming","","","{""aha"":4}","[0]","../img/tt/1239tt.jpg","",""
"null","<div style=""font-size:60px;""> </div>","null","fixation","html-keyboard-response","447","1484492","0.0-6.0-0.63","2880512","co38143","norming","","","","","","",""
"null","../img/tt/1125tt.jpg","null","mooney1","image-keyboard-response","448","1487494","0.0-6.0-1.63","2880512","co38143","norming","","","","","","",""
"6561.6150000002235","","","post_mooney1_questions","survey-likert","449","1494061","0.0-6.0-2.63","2880512","co38143","norming","","","{""curiosity"":5,""confidence"":2}","[0,1]","../img/tt/1125tt.jpg","",""
"2134.285000000149","","","recognition","survey-text","450","1496197","0.0-6.0-3.63","2880512","co38143","norming","","","{""guess"":""boxen""}","","../img/tt/1125tt.jpg","",""
"null","../img/gs/1125gs.jpg","null","reveal","image-keyboard-response","451","1498201","0.0-6.0-4.63","2880512","co38143","norming","","","","","","",""
"null","../img/tt/1125tt.jpg","null","mooney2","image-keyboard-response","452","1500204","0.0-6.0-5.63","2880512","co38143","norming","","","","","","",""
"2389.279999999795","","","post_reveal_questions","survey-likert","453","1502596","0.0-6.0-6.63","2880512","co38143","norming","","","{""aha"":2}","[0]","../img/tt/1125tt.jpg","",""
"null","<div style=""font-size:60px;""> </div>","null","fixation","html-keyboard-response","454","1502800","0.0-6.0-0.64","2880512","co38143","norming","","","","","","",""
"null","../img/tt/118tt.jpg","null","mooney1","image-keyboard-response","455","1505807","0.0-6.0-1.64","2880512","co38143","norming","","","","","","",""
"4963.135000000009","","","post_mooney1_questions","survey-likert","456","1510773","0.0-6.0-2.64","2880512","co38143","norming","","","{""curiosity"":4,""confidence"":1}","[0,1]","../img/tt/118tt.jpg","",""
"1550","","","recognition","survey-text","457","1512325","0.0-6.0-3.64","2880512","co38143","norming","","","{""guess"":""stoel""}","","../img/tt/118tt.jpg","",""
"null","../img/gs/118gs.jpg","null","reveal","image-keyboard-response","458","1514330","0.0-6.0-4.64","2880512","co38143","norming","","","","","","",""
"null","../img/tt/118tt.jpg","null","mooney2","image-keyboard-response","459","1516335","0.0-6.0-5.64","2880512","co38143","norming","","","","","","",""
"3362.614999999758","","","post_reveal_questions","survey-likert","460","1519700","0.0-6.0-6.64","2880512","co38143","norming","","","{""aha"":6}","[0]","../img/tt/118tt.jpg","",""
"null","<div style=""font-size:60px;""> </div>","null","fixation","html-keyboard-response","461","1519902","0.0-6.0-0.65","2880512","co38143","norming","","","","","","",""
"null","../img/tt/1128tt.jpg","null","mooney1","image-keyboard-response","462","1522911","0.0-6.0-1.65","2880512","co38143","norming","","","","","","",""
"3324.3499999998603","","","post_mooney1_questions","survey-likert","463","1526237","0.0-6.0-2.65","2880512","co38143","norming","","","{""curiosity"":4,""confidence"":2}","[0,1]","../img/tt/1128tt.jpg","",""
"2982.1049999999814","","","recognition","survey-text","464","1529221","0.0-6.0-3.65","2880512","co38143","norming","","","{""guess"":""rugzak""}","","../img/tt/1128tt.jpg","",""
"null","../img/gs/1128gs.jpg","null","reveal","image-keyboard-response","465","1531229","0.0-6.0-4.65","2880512","co38143","norming","","","","","","",""
"null","../img/tt/1128tt.jpg","null","mooney2","image-keyboard-response","466","1533238","0.0-6.0-5.65","2880512","co38143","norming","","","","","","",""
"5403.164999999804","","","post_reveal_questions","survey-likert","467","1538644","0.0-6.0-6.65","2880512","co38143","norming","","","{""aha"":0}","[0]","../img/tt/1128tt.jpg","",""
"null","<div style=""font-size:60px;""> </div>","null","fixation","html-keyboard-response","468","1538855","0.0-6.0-0.66","2880512","co38143","norming","","","","","","",""
"null","../img/tt/001tt.jpg","null","mooney1","image-keyboard-response","469","1541856","0.0-6.0-1.66","2880512","co38143","norming","","","","","","",""
"3704.3950000002515","","","post_mooney1_questions","survey-likert","470","1545564","0.0-6.0-2.66","2880512","co38143","norming","","","{""curiosity"":4,""confidence"":3}","[0,1]","../img/tt/001tt.jpg","",""
"1238.2150000000838","","","recognition","survey-text","471","1546804","0.0-6.0-3.66","2880512","co38143","norming","","","{""guess"":""kat""}","","../img/tt/001tt.jpg","",""
"null","../img/gs/001gs.jpg","null","reveal","image-keyboard-response","472","1548813","0.0-6.0-4.66","2880512","co38143","norming","","","","","","",""
"null","../img/tt/001tt.jpg","null","mooney2","image-keyboard-response","473","1550823","0.0-6.0-5.66","2880512","co38143","norming","","","","","","",""
"2572.3300000000745","","","post_reveal_questions","survey-likert","474","1553392","0.0-6.0-6.66","2880512","co38143","norming","","","{""aha"":4}","[0]","../img/tt/001tt.jpg","",""
"null","<div style=""font-size:60px;""> </div>","null","fixation","html-keyboard-response","475","1553599","0.0-6.0-0.67","2880512","co38143","norming","","","","","","",""
"null","../img/tt/590tt.jpg","null","mooney1","image-keyboard-response","476","1556610","0.0-6.0-1.67","2880512","co38143","norming","","","","","","",""
"7003.290000000037","","","post_mooney1_questions","survey-likert","477","1563616","0.0-6.0-2.67","2880512","co38143","norming","","","{""curiosity"":3,""confidence"":1}","[0,1]","../img/tt/590tt.jpg","",""
"2190.2900000000373","","","recognition","survey-text","478","1565808","0.0-6.0-3.67","2880512","co38143","norming","","","{""guess"":""bureau""}","","../img/tt/590tt.jpg","",""
"null","../img/gs/590gs.jpg","null","reveal","image-keyboard-response","479","1567818","0.0-6.0-4.67","2880512","co38143","norming","","","","","","",""
"null","../img/tt/590tt.jpg","null","mooney2","image-keyboard-response","480","1569829","0.0-6.0-5.67","2880512","co38143","norming","","","","","","",""
"6560.314999999944","","","post_reveal_questions","survey-likert","481","1576392","0.0-6.0-6.67","2880512","co38143","norming","","","{""aha"":1}","[0]","../img/tt/590tt.jpg","",""
"null","<div style=""font-size:60px;""> </div>","null","fixation","html-keyboard-response","482","1576602","0.0-6.0-0.68","2880512","co38143","norming","","","","","","",""
"null","../img/tt/477tt.jpg","null","mooney1","image-keyboard-response","483","1579611","0.0-6.0-1.68","2880512","co38143","norming","","","","","","",""
"6082.800000000047","","","post_mooney1_questions","survey-likert","484","1585696","0.0-6.0-2.68","2880512","co38143","norming","","","{""curiosity"":2,""confidence"":1}","[0,1]","../img/tt/477tt.jpg","",""
"1758.380000000121","","","recognition","survey-text","485","1587456","0.0-6.0-3.68","2880512","co38143","norming","","","{""guess"":""wiel""}","","../img/tt/477tt.jpg","",""
"null","../img/gs/477gs.jpg","null","reveal","image-keyboard-response","486","1589461","0.0-6.0-4.68","2880512","co38143","norming","","","","","","",""
"null","../img/tt/477tt.jpg","null","mooney2","image-keyboard-response","487","1591472","0.0-6.0-5.68","2880512","co38143","norming","","","","","","",""
"2485.7050000000745","","","post_reveal_questions","survey-likert","488","1593960","0.0-6.0-6.68","2880512","co38143","norming","","","{""aha"":4}","[0]","../img/tt/477tt.jpg","",""
"null","<div style=""font-size:60px;""> </div>","null","fixation","html-keyboard-response","489","1594164","0.0-6.0-0.69","2880512","co38143","norming","","","","","","",""
"null","../img/tt/020tt.jpg","null","mooney1","image-keyboard-response","490","1597177","0.0-6.0-1.69","2880512","co38143","norming","","","","","","",""
"4988.244999999879","","","post_mooney1_questions","survey-likert","491","1602168","0.0-6.0-2.69","2880512","co38143","norming","","","{""curiosity"":4,""confidence"":0}","[0,1]","../img/tt/020tt.jpg","",""
"981.9450000000652","","","recognition","survey-text","492","1603152","0.0-6.0-3.69","2880512","co38143","norming","","","{""guess"":""""}","","../img/tt/020tt.jpg","",""
"null","../img/gs/020gs.jpg","null","reveal","image-keyboard-response","493","1605159","0.0-6.0-4.69","2880512","co38143","norming","","","","","","",""
"null","../img/tt/020tt.jpg","null","mooney2","image-keyboard-response","494","1607170","0.0-6.0-5.69","2880512","co38143","norming","","","","","","",""
"3499.505000000121","","","post_reveal_questions","survey-likert","495","1610672","0.0-6.0-6.69","2880512","co38143","norming","","","{""aha"":3}","[0]","../img/tt/020tt.jpg","",""
"null","<div style=""font-size:60px;""> </div>","null","fixation","html-keyboard-response","496","1610882","0.0-6.0-0.70","2880512","co38143","norming","","","","","","",""
"null","../img/tt/1251tt.jpg","null","mooney1","image-keyboard-response","497","1613892","0.0-6.0-1.70","2880512","co38143","norming","","","","","","",""
"4620.574999999953","","","post_mooney1_questions","survey-likert","498","1618516","0.0-6.0-2.70","2880512","co38143","norming","","","{""curiosity"":4,""confidence"":3}","[0,1]","../img/tt/1251tt.jpg","",""
"1518.3049999999348","","","recognition","survey-text","499","1620036","0.0-6.0-3.70","2880512","co38143","norming","","","{""guess"":""koe""}","","../img/tt/1251tt.jpg","",""
"null","../img/gs/1251gs.jpg","null","reveal","image-keyboard-response","500","1622044","0.0-6.0-4.70","2880512","co38143","norming","","","","","","",""
"null","../img/tt/1251tt.jpg","null","mooney2","image-keyboard-response","501","1624052","0.0-6.0-5.70","2880512","co38143","norming","","","","","","",""
"3204.8000000000466","","","post_reveal_questions","survey-likert","502","1627260","0.0-6.0-6.70","2880512","co38143","norming","","","{""aha"":4}","[0]","../img/tt/1251tt.jpg","",""
"null","<div style=""font-size:60px;""> </div>","null","fixation","html-keyboard-response","503","1627471","0.0-6.0-0.71","2880512","co38143","norming","","","","","","",""
"null","../img/tt/1006tt.jpg","null","mooney1","image-keyboard-response","504","1630478","0.0-6.0-1.71","2880512","co38143","norming","","","","","","",""
"3970.7299999999814","","","post_mooney1_questions","survey-likert","505","1634452","0.0-6.0-2.71","2880512","co38143","norming","","","{""curiosity"":4,""confidence"":4}","[0,1]","../img/tt/1006tt.jpg","",""
"1549.844999999972","","","recognition","survey-text","506","1636004","0.0-6.0-3.71","2880512","co38143","norming","","","{""guess"":""koe""}","","../img/tt/1006tt.jpg","",""
"null","../img/gs/1006gs.jpg","null","reveal","image-keyboard-response","507","1638012","0.0-6.0-4.71","2880512","co38143","norming","","","","","","",""
"null","../img/tt/1006tt.jpg","null","mooney2","image-keyboard-response","508","1640015","0.0-6.0-5.71","2880512","co38143","norming","","","","","","",""
"2858.0849999999627","","","post_reveal_questions","survey-likert","509","1642876","0.0-6.0-6.71","2880512","co38143","norming","","","{""aha"":5}","[0]","../img/tt/1006tt.jpg","",""
"null","<div style=""font-size:60px;""> </div>","null","fixation","html-keyboard-response","510","1643077","0.0-6.0-0.72","2880512","co38143","norming","","","","","","",""
"null","../img/tt/1123tt.jpg","null","mooney1","image-keyboard-response","511","1646082","0.0-6.0-1.72","2880512","co38143","norming","","","","","","",""
"3774.125","","","post_mooney1_questions","survey-likert","512","1649860","0.0-6.0-2.72","2880512","co38143","norming","","","{""curiosity"":3,""confidence"":5}","[0,1]","../img/tt/1123tt.jpg","",""
"2574.0500000002794","","","recognition","survey-text","513","1652436","0.0-6.0-3.72","2880512","co38143","norming","","","{""guess"":""volleybal""}","","../img/tt/1123tt.jpg","",""
"null","../img/gs/1123gs.jpg","null","reveal","image-keyboard-response","514","1654444","0.0-6.0-4.72","2880512","co38143","norming","","","","","","",""
"null","../img/tt/1123tt.jpg","null","mooney2","image-keyboard-response","515","1656446","0.0-6.0-5.72","2880512","co38143","norming","","","","","","",""
"3619.255000000121","","","post_reveal_questions","survey-likert","516","1660068","0.0-6.0-6.72","2880512","co38143","norming","","","{""aha"":3}","[0]","../img/tt/1123tt.jpg","",""
"null","<div style=""font-size:60px;""> </div>","null","fixation","html-keyboard-response","517","1660271","0.0-6.0-0.73","2880512","co38143","norming","","","","","","",""
"null","../img/tt/085tt.jpg","null","mooney1","image-keyboard-response","518","1663279","0.0-6.0-1.73","2880512","co38143","norming","","","","","","",""
"5523.255000000121","","","post_mooney1_questions","survey-likert","519","1668804","0.0-6.0-2.73","2880512","co38143","norming","","","{""curiosity"":3,""confidence"":0}","[0,1]","../img/tt/085tt.jpg","",""
"1838.6500000001397","","","recognition","survey-text","520","1670644","0.0-6.0-3.73","2880512","co38143","norming","","","{""guess"":""skelet""}","","../img/tt/085tt.jpg","",""
"null","../img/gs/085gs.jpg","null","reveal","image-keyboard-response","521","1672650","0.0-6.0-4.73","2880512","co38143","norming","","","","","","",""
"null","../img/tt/085tt.jpg","null","mooney2","image-keyboard-response","522","1674652","0.0-6.0-5.73","2880512","co38143","norming","","","","","","",""
"2685.894999999786","","","post_reveal_questions","survey-likert","523","1677340","0.0-6.0-6.73","2880512","co38143","norming","","","{""aha"":2}","[0]","../img/tt/085tt.jpg","",""
"null","<div style=""font-size:60px;""> </div>","null","fixation","html-keyboard-response","524","1677546","0.0-6.0-0.74","2880512","co38143","norming","","","","","","",""
"null","../img/tt/319tt.jpg","null","mooney1","image-keyboard-response","525","1680556","0.0-6.0-1.74","2880512","co38143","norming","","","","","","",""
"4660.479999999981","","","post_mooney1_questions","survey-likert","526","1685220","0.0-6.0-2.74","2880512","co38143","norming","","","{""curiosity"":2,""confidence"":0}","[0,1]","../img/tt/319tt.jpg","",""
"2670.160000000149","","","recognition","survey-text","527","1687892","0.0-6.0-3.74","2880512","co38143","norming","","","{""guess"":""rugby""}","","../img/tt/319tt.jpg","",""
"null","../img/gs/319gs.jpg","null","reveal","image-keyboard-response","528","1689895","0.0-6.0-4.74","2880512","co38143","norming","","","","","","",""
"null","../img/tt/319tt.jpg","null","mooney2","image-keyboard-response","529","1691897","0.0-6.0-5.74","2880512","co38143","norming","","","","","","",""
"3784.9749999998603","","","post_reveal_questions","survey-likert","530","1695684","0.0-6.0-6.74","2880512","co38143","norming","","","{""aha"":5}","[0]","../img/tt/319tt.jpg","",""
"null","<div style=""font-size:60px;""> </div>","null","fixation","html-keyboard-response","531","1695886","0.0-6.0-0.75","2880512","co38143","norming","","","","","","",""
"null","../img/tt/1012tt.jpg","null","mooney1","image-keyboard-response","532","1698893","0.0-6.0-1.75","2880512","co38143","norming","","","","","","",""
"4029.929999999935","","","post_mooney1_questions","survey-likert","533","1702924","0.0-6.0-2.75","2880512","co38143","norming","","","{""curiosity"":4,""confidence"":5}","[0,1]","../img/tt/1012tt.jpg","",""
"1685.7900000000373","","","recognition","survey-text","534","1704612","0.0-6.0-3.75","2880512","co38143","norming","","","{""guess"":""paard""}","","../img/tt/1012tt.jpg","",""
"null","../img/gs/1012gs.jpg","null","reveal","image-keyboard-response","535","1706619","0.0-6.0-4.75","2880512","co38143","norming","","","","","","",""
"null","../img/tt/1012tt.jpg","null","mooney2","image-keyboard-response","536","1708628","0.0-6.0-5.75","2880512","co38143","norming","","","","","","",""
"3365.1649999998044","","","post_reveal_questions","survey-likert","537","1711996","0.0-6.0-6.75","2880512","co38143","norming","","","{""aha"":4}","[0]","../img/tt/1012tt.jpg","",""
"null","<div style=""font-size:60px;""> </div>","null","fixation","html-keyboard-response","538","1712198","0.0-6.0-0.76","2880512","co38143","norming","","","","","","",""
"null","../img/tt/296tt.jpg","null","mooney1","image-keyboard-response","539","1715202","0.0-6.0-1.76","2880512","co38143","norming","","","","","","",""
"6878.800000000047","","","post_mooney1_questions","survey-likert","540","1722084","0.0-6.0-2.76","2880512","co38143","norming","","","{""curiosity"":3,""confidence"":3}","[0,1]","../img/tt/296tt.jpg","",""
"3565.8199999998324","","","recognition","survey-text","541","1725652","0.0-6.0-3.76","2880512","co38143","norming","","","{""guess"":""buggy""}","","../img/tt/296tt.jpg","",""
"null","../img/gs/296gs.jpg","null","reveal","image-keyboard-response","542","1727658","0.0-6.0-4.76","2880512","co38143","norming","","","","","","",""
"null","../img/tt/296tt.jpg","null","mooney2","image-keyboard-response","543","1729661","0.0-6.0-5.76","2880512","co38143","norming","","","","","","",""
"4588.405000000028","","","post_reveal_questions","survey-likert","544","1734252","0.0-6.0-6.76","2880512","co38143","norming","","","{""aha"":3}","[0]","../img/tt/296tt.jpg","",""
"null","<div style=""font-size:60px;""> </div>","null","fixation","html-keyboard-response","545","1734455","0.0-6.0-0.77","2880512","co38143","norming","","","","","","",""
"null","../img/tt/1211tt.jpg","null","mooney1","image-keyboard-response","546","1737459","0.0-6.0-1.77","2880512","co38143","norming","","","","","","",""
"4765.674999999814","","","post_mooney1_questions","survey-likert","547","1742228","0.0-6.0-2.77","2880512","co38143","norming","","","{""curiosity"":4,""confidence"":4}","[0,1]","../img/tt/1211tt.jpg","",""
"2333.965000000084","","","recognition","survey-text","548","1744564","0.0-6.0-3.77","2880512","co38143","norming","","","{""guess"":""surfen""}","","../img/tt/1211tt.jpg","",""
"null","../img/gs/1211gs.jpg","null","reveal","image-keyboard-response","549","1746572","0.0-6.0-4.77","2880512","co38143","norming","","","","","","",""
"null","../img/tt/1211tt.jpg","null","mooney2","image-keyboard-response","550","1748580","0.0-6.0-5.77","2880512","co38143","norming","","","","","","",""
"4972.9550000000745","","","post_reveal_questions","survey-likert","551","1753556","0.0-6.0-6.77","2880512","co38143","norming","","","{""aha"":2}","[0]","../img/tt/1211tt.jpg","",""
"null","<div style=""font-size:60px;""> </div>","null","fixation","html-keyboard-response","552","1753765","0.0-6.0-0.78","2880512","co38143","norming","","","","","","",""
