"rt","stimulus","key_press","test_part","trial_type","trial_index","time_elapsed","internal_node_id","totalTime","subject","experiment_name","button_pressed","success","responses","question_order","currentStim","old","correct"
"5696.750000000009","Welcome to the experiment. This is an online experiment so please don't close the tab/window until we say goodbye.  Press any key to begin.","75","instructions","html-keyboard-response","0","5717","0.0-0.0","3535526","co38224","norming","","","","","","",""
"64918.925","<div style='word-wrap: break-word; width: 900px'><h3>Please consider this information carefully before deciding whether to participate in this research</h3><ul style='text-align: left; font-size: .8em;'><li><b>Purpose of the research</b>: To examine how people process images.</li><li><b>What you will do in this research</b>:  Stimuli (images) will be presented on the computer and you will be asked different questions about them.</li><li><b>Time required</b>: Participation will take between 45 and 60 minutes to complete.</li><li><b>Risks</b>:  There are no anticipated risks associated with participating in this study. The effects of participating should be comparable to those you would experience from viewing a computer monitor for 30 minutes and using a mouse or keyboard.</li><li><b>Benefits</b>:  This study provides no benefits to you individually except for the credit. The study provides important information about the nature of perception and learning.</li><li><b>Confidentiality</b>:  Your participation in this study will remain confidential. No personally identifiable information will be associated with your data. Your de-identified data may be shared with other researchers and used in future projects.</li><li><b>Participation and withdrawal</b>:  Your participation in this study is completely voluntary and you may refuse to participate or you may choose to withdraw at any time without penalty.</li><li><b>How to contact the researchers</b>: If you have questions or concerns about your participation or payment, or want to request a summary of research findings, please contact Sander Van de Cruys (KU Leuven), at sander.vandecruys@kuleuven.be.</li></ul><p>The nature and purpose of this research have been sufficiently explained and I agree to participate in this study.  I understand that I am free to withdraw at any time without incurring any penalty.</p><p>Please consent by clicking the button below to continue. Otherwise, please exit the study at this time.</p></div>","","instructions","html-button-response","1","70482","0.0-1.0","3535526","co38224","norming","0","","","","","",""
"","","","instructions","fullscreen","2","76003","0.0-2.0","3535526","co38224","norming","","true","","","","",""
"40348.770000000004","","","sona","survey-html-form","3","116358","0.0-3.0","3535526","co38224","norming","","","[{""name"":""sonaid"",""value"":""38224""},{""name"":""debrief"",""value"":""yes""},{""name"":""datajoin"",""value"":""yes""}]","","","",""
"55473.79500000004","<div style='word-wrap: break-word; width: 900px'><h3>Instructions</h3><p>This experiment will have 3 parts. In the first part you will see a series of distorted images like the one below on the left. As you can see in the righthand image, the distorted images are derived from actual photographs. In what follows, you will <strong>briefly</strong> be presented with <strong>only</strong> the distorted image.</p> <div style='float: left; margin-right: 20px;'><img src='../img/018tt.jpg' height='250' width='250'></img></div><div style='float: right; margin-left: 20px;'><img src='../img/018gs.jpg' height='250' width='250'></img></div><p>Subsequently you will be asked a few questions about the image: One question on how <strong>curious</strong> you are about the solution and one on how <strong>confident</strong> you are that you know the solution.</p>Next, we ask you to make a guess on what is in the image. Note that it is OK to name just the <strong>basic level category</strong>. For example when you see a parrot in the image, 'parrot' will obviously be a correct answer but also correct is 'bird'. However, 'animal' will <strong>not</strong> be counted as a correct response. For the example above, 'rose' would be correct or 'flower', but not 'plant'. When soccer players are depicted, 'soccer', 'football', 'soccer players' will be correct, but not 'humans', 'outdoors', or 'sports'. You do not need to describe the image in full, just name the main object in it <strong>in one or two words</strong>. All images depict objects from one of the following broad level categories: animals, inanimate objects, plants, sports, vehicles, and food. Recognizing means knowing <strong>more</strong> than these broad labels for a given image. But we always encourage you to <strong>make a guess</strong> if you can. Note that you are allowed to use <strong>Dutch and English</strong> in your answers, whatever comes easiest for you.</p><p>Press any key to continue.</p></div>","75","instructions","html-keyboard-response","4","171633","0.0-4.0","3535526","co38224","norming","","","","","","",""
"76047.65999999995","<div style='word-wrap: break-word; width: 900px'><h3>Instructions</h3> <p>Next, the solution image will be revealed to you and you'll be asked to indicate how strong your <strong>aha-experience</strong> was after seeing the solution. This describes the positive feeling of the 'click' you sometimes experience, when the pieces of the 'puzzle' fall together and you suddenly have 'insight' in the image.</p><img src='aha.jpg' height='188' width='250'></img><p>Note that there are no right or wrong answers. We are interested in what <strong>you</strong> see in the image and how <strong>you</strong> feel about it.</p><p>Press any key to start the experiment.</p></div>","75","instructions","html-keyboard-response","5","247529","0.0-5.0","3535526","co38224","norming","","","","","","",""
"null","<div style=""font-size:60px;""> </div>","null","fixation","html-keyboard-response","6","247740","0.0-6.0-0.0","3535526","co38224","norming","","","","","","",""
"null","../img/tt/1226tt.jpg","null","mooney1","image-keyboard-response","7","250745","0.0-6.0-1.0","3535526","co38224","norming","","","","","","",""
"10667.820000000007","","","post_mooney1_questions","survey-likert","8","261417","0.0-6.0-2.0","3535526","co38224","norming","","","{""curiosity"":5,""confidence"":2}","[0,1]","../img/tt/1226tt.jpg","",""
"9173.315000000002","","","recognition","survey-text","9","270593","0.0-6.0-3.0","3535526","co38224","norming","","","{""guess"":""haan""}","","../img/tt/1226tt.jpg","",""
"null","../img/gs/1226gs.jpg","null","reveal","image-keyboard-response","10","272596","0.0-6.0-4.0","3535526","co38224","norming","","","","","","",""
"null","../img/tt/1226tt.jpg","null","mooney2","image-keyboard-response","11","274602","0.0-6.0-5.0","3535526","co38224","norming","","","","","","",""
"6068.189999999944","","","post_reveal_questions","survey-likert","12","280673","0.0-6.0-6.0","3535526","co38224","norming","","","{""aha"":3}","[0]","../img/tt/1226tt.jpg","",""
"null","<div style=""font-size:60px;""> </div>","null","fixation","html-keyboard-response","13","280879","0.0-6.0-0.1","3535526","co38224","norming","","","","","","",""
"null","../img/tt/189tt.jpg","null","mooney1","image-keyboard-response","14","283888","0.0-6.0-1.1","3535526","co38224","norming","","","","","","",""
"9247.17499999993","","","post_mooney1_questions","survey-likert","15","293137","0.0-6.0-2.1","3535526","co38224","norming","","","{""curiosity"":6,""confidence"":1}","[0,1]","../img/tt/189tt.jpg","",""
"6349.780000000028","","","recognition","survey-text","16","299488","0.0-6.0-3.1","3535526","co38224","norming","","","{""guess"":""paard""}","","../img/tt/189tt.jpg","",""
"null","../img/gs/189gs.jpg","null","reveal","image-keyboard-response","17","301490","0.0-6.0-4.1","3535526","co38224","norming","","","","","","",""
"null","../img/tt/189tt.jpg","null","mooney2","image-keyboard-response","18","303491","0.0-6.0-5.1","3535526","co38224","norming","","","","","","",""
"7860.9200000001","","","post_reveal_questions","survey-likert","19","311250","0.0-6.0-6.1","3535526","co38224","norming","","","{""aha"":4}","[0]","../img/tt/189tt.jpg","",""
"null","<div style=""font-size:60px;""> </div>","null","fixation","html-keyboard-response","20","311457","0.0-6.0-0.2","3535526","co38224","norming","","","","","","",""
"null","../img/tt/1127tt.jpg","null","mooney1","image-keyboard-response","21","314464","0.0-6.0-1.2","3535526","co38224","norming","","","","","","",""
"11711.79999999993","","","post_mooney1_questions","survey-likert","22","326178","0.0-6.0-2.2","3535526","co38224","norming","","","{""curiosity"":5,""confidence"":1}","[0,1]","../img/tt/1127tt.jpg","",""
"8318.189999999944","","","recognition","survey-text","23","334498","0.0-6.0-3.2","3535526","co38224","norming","","","{""guess"":""een loper""}","","../img/tt/1127tt.jpg","",""
"null","../img/gs/1127gs.jpg","null","reveal","image-keyboard-response","24","336505","0.0-6.0-4.2","3535526","co38224","norming","","","","","","",""
"null","../img/tt/1127tt.jpg","null","mooney2","image-keyboard-response","25","338506","0.0-6.0-5.2","3535526","co38224","norming","","","","","","",""
"4757.95000000007","","","post_reveal_questions","survey-likert","26","343266","0.0-6.0-6.2","3535526","co38224","norming","","","{""aha"":5}","[0]","../img/tt/1127tt.jpg","",""
"null","<div style=""font-size:60px;""> </div>","null","fixation","html-keyboard-response","27","343473","0.0-6.0-0.3","3535526","co38224","norming","","","","","","",""
"null","../img/tt/1283tt.jpg","null","mooney1","image-keyboard-response","28","346474","0.0-6.0-1.3","3535526","co38224","norming","","","","","","",""
"7357.819999999949","","","post_mooney1_questions","survey-likert","29","353834","0.0-6.0-2.3","3535526","co38224","norming","","","{""curiosity"":6,""confidence"":0}","[0,1]","../img/tt/1283tt.jpg","",""
"9390.270000000019","","","recognition","survey-text","30","363226","0.0-6.0-3.3","3535526","co38224","norming","","","{""guess"":""bloemen""}","","../img/tt/1283tt.jpg","",""
"null","../img/gs/1283gs.jpg","null","reveal","image-keyboard-response","31","365231","0.0-6.0-4.3","3535526","co38224","norming","","","","","","",""
"null","../img/tt/1283tt.jpg","null","mooney2","image-keyboard-response","32","367240","0.0-6.0-5.3","3535526","co38224","norming","","","","","","",""
"6112.2049999999","","","post_reveal_questions","survey-likert","33","373361","0.0-6.0-6.3","3535526","co38224","norming","","","{""aha"":5}","[0]","../img/tt/1283tt.jpg","",""
"null","<div style=""font-size:60px;""> </div>","null","fixation","html-keyboard-response","34","373570","0.0-6.0-0.4","3535526","co38224","norming","","","","","","",""
"null","../img/tt/079tt.jpg","null","mooney1","image-keyboard-response","35","376572","0.0-6.0-1.4","3535526","co38224","norming","","","","","","",""
"7876.954999999958","","","post_mooney1_questions","survey-likert","36","384450","0.0-6.0-2.4","3535526","co38224","norming","","","{""curiosity"":2,""confidence"":5}","[0,1]","../img/tt/079tt.jpg","",""
"2150.0800000000163","","","recognition","survey-text","37","386601","0.0-6.0-3.4","3535526","co38224","norming","","","{""guess"":""beer""}","","../img/tt/079tt.jpg","",""
"null","../img/gs/079gs.jpg","null","reveal","image-keyboard-response","38","388609","0.0-6.0-4.4","3535526","co38224","norming","","","","","","",""
"null","../img/tt/079tt.jpg","null","mooney2","image-keyboard-response","39","390619","0.0-6.0-5.4","3535526","co38224","norming","","","","","","",""
"4454.179999999993","","","post_reveal_questions","survey-likert","40","395074","0.0-6.0-6.4","3535526","co38224","norming","","","{""aha"":0}","[0]","../img/tt/079tt.jpg","",""
"null","<div style=""font-size:60px;""> </div>","null","fixation","html-keyboard-response","41","395284","0.0-6.0-0.5","3535526","co38224","norming","","","","","","",""
"null","../img/tt/1202tt.jpg","null","mooney1","image-keyboard-response","42","398286","0.0-6.0-1.5","3535526","co38224","norming","","","","","","",""
"10810.675000000047","","","post_mooney1_questions","survey-likert","43","409098","0.0-6.0-2.5","3535526","co38224","norming","","","{""curiosity"":4,""confidence"":2}","[0,1]","../img/tt/1202tt.jpg","",""
"2718.015000000072","","","recognition","survey-text","44","411818","0.0-6.0-3.5","3535526","co38224","norming","","","{""guess"":""leeuw""}","","../img/tt/1202tt.jpg","",""
"null","../img/gs/1202gs.jpg","null","reveal","image-keyboard-response","45","413821","0.0-6.0-4.5","3535526","co38224","norming","","","","","","",""
"null","../img/tt/1202tt.jpg","null","mooney2","image-keyboard-response","46","415826","0.0-6.0-5.5","3535526","co38224","norming","","","","","","",""
"6014.860000000044","","","post_reveal_questions","survey-likert","47","421842","0.0-6.0-6.5","3535526","co38224","norming","","","{""aha"":4}","[0]","../img/tt/1202tt.jpg","",""
"null","<div style=""font-size:60px;""> </div>","null","fixation","html-keyboard-response","48","422052","0.0-6.0-0.6","3535526","co38224","norming","","","","","","",""
"null","../img/tt/1309tt.jpg","null","mooney1","image-keyboard-response","49","425058","0.0-6.0-1.6","3535526","co38224","norming","","","","","","",""
"6982.814999999944","","","post_mooney1_questions","survey-likert","50","432032","0.0-6.0-2.6","3535526","co38224","norming","","","{""curiosity"":3,""confidence"":4}","[0,1]","../img/tt/1309tt.jpg","",""
"3486.009999999951","","","recognition","survey-text","51","435520","0.0-6.0-3.6","3535526","co38224","norming","","","{""guess"":""auto in bos""}","","../img/tt/1309tt.jpg","",""
"null","../img/gs/1309gs.jpg","null","reveal","image-keyboard-response","52","437529","0.0-6.0-4.6","3535526","co38224","norming","","","","","","",""
"null","../img/tt/1309tt.jpg","null","mooney2","image-keyboard-response","53","439530","0.0-6.0-5.6","3535526","co38224","norming","","","","","","",""
"3764.8549999999814","","","post_reveal_questions","survey-likert","54","443296","0.0-6.0-6.6","3535526","co38224","norming","","","{""aha"":0}","[0]","../img/tt/1309tt.jpg","",""
"null","<div style=""font-size:60px;""> </div>","null","fixation","html-keyboard-response","55","443503","0.0-6.0-0.7","3535526","co38224","norming","","","","","","",""
"null","../img/tt/1278tt.jpg","null","mooney1","image-keyboard-response","56","446512","0.0-6.0-1.7","3535526","co38224","norming","","","","","","",""
"7799.604999999923","","","post_mooney1_questions","survey-likert","57","454313","0.0-6.0-2.7","3535526","co38224","norming","","","{""curiosity"":1,""confidence"":4}","[0,1]","../img/tt/1278tt.jpg","",""
"2886.274999999965","","","recognition","survey-text","58","457201","0.0-6.0-3.7","3535526","co38224","norming","","","{""guess"":""koala""}","","../img/tt/1278tt.jpg","",""
"null","../img/gs/1278gs.jpg","null","reveal","image-keyboard-response","59","459208","0.0-6.0-4.7","3535526","co38224","norming","","","","","","",""
"null","../img/tt/1278tt.jpg","null","mooney2","image-keyboard-response","60","461218","0.0-6.0-5.7","3535526","co38224","norming","","","","","","",""
"5868.995000000054","","","post_reveal_questions","survey-likert","61","467089","0.0-6.0-6.7","3535526","co38224","norming","","","{""aha"":4}","[0]","../img/tt/1278tt.jpg","",""
"null","<div style=""font-size:60px;""> </div>","null","fixation","html-keyboard-response","62","467289","0.0-6.0-0.8","3535526","co38224","norming","","","","","","",""
"null","../img/tt/496tt.jpg","null","mooney1","image-keyboard-response","63","470293","0.0-6.0-1.8","3535526","co38224","norming","","","","","","",""
"6089.534999999916","","","post_mooney1_questions","survey-likert","64","476385","0.0-6.0-2.8","3535526","co38224","norming","","","{""curiosity"":5,""confidence"":1}","[0,1]","../img/tt/496tt.jpg","",""
"2830.039999999979","","","recognition","survey-text","65","479216","0.0-6.0-3.8","3535526","co38224","norming","","","{""guess"":""panda""}","","../img/tt/496tt.jpg","",""
"null","../img/gs/496gs.jpg","null","reveal","image-keyboard-response","66","481222","0.0-6.0-4.8","3535526","co38224","norming","","","","","","",""
"null","../img/tt/496tt.jpg","null","mooney2","image-keyboard-response","67","483230","0.0-6.0-5.8","3535526","co38224","norming","","","","","","",""
"4831.72000000003","","","post_reveal_questions","survey-likert","68","488064","0.0-6.0-6.8","3535526","co38224","norming","","","{""aha"":5}","[0]","../img/tt/496tt.jpg","",""
"null","<div style=""font-size:60px;""> </div>","null","fixation","html-keyboard-response","69","488271","0.0-6.0-0.9","3535526","co38224","norming","","","","","","",""
"null","../img/tt/108tt.jpg","null","mooney1","image-keyboard-response","70","491277","0.0-6.0-1.9","3535526","co38224","norming","","","","","","",""
"9497.565000000002","","","post_mooney1_questions","survey-likert","71","500785","0.0-6.0-2.9","3535526","co38224","norming","","","{""curiosity"":5,""confidence"":2}","[0,1]","../img/tt/108tt.jpg","",""
"2150.2299999999814","","","recognition","survey-text","72","502936","0.0-6.0-3.9","3535526","co38224","norming","","","{""guess"":""koala""}","","../img/tt/108tt.jpg","",""
"null","../img/gs/108gs.jpg","null","reveal","image-keyboard-response","73","504944","0.0-6.0-4.9","3535526","co38224","norming","","","","","","",""
"null","../img/tt/108tt.jpg","null","mooney2","image-keyboard-response","74","506947","0.0-6.0-5.9","3535526","co38224","norming","","","","","","",""
"5195.474999999977","","","post_reveal_questions","survey-likert","75","512144","0.0-6.0-6.9","3535526","co38224","norming","","","{""aha"":5}","[0]","../img/tt/108tt.jpg","",""
"null","<div style=""font-size:60px;""> </div>","null","fixation","html-keyboard-response","76","512347","0.0-6.0-0.10","3535526","co38224","norming","","","","","","",""
"null","../img/tt/082tt.jpg","null","mooney1","image-keyboard-response","77","515356","0.0-6.0-1.10","3535526","co38224","norming","","","","","","",""
"12891.534999999974","","","post_mooney1_questions","survey-likert","78","528248","0.0-6.0-2.10","3535526","co38224","norming","","","{""curiosity"":5,""confidence"":1}","[0,1]","../img/tt/082tt.jpg","",""
"3036.725000000093","","","recognition","survey-text","79","531288","0.0-6.0-3.10","3535526","co38224","norming","","","{""guess"":""boom""}","","../img/tt/082tt.jpg","",""
"null","../img/gs/082gs.jpg","null","reveal","image-keyboard-response","80","533299","0.0-6.0-4.10","3535526","co38224","norming","","","","","","",""
"null","../img/tt/082tt.jpg","null","mooney2","image-keyboard-response","81","535309","0.0-6.0-5.10","3535526","co38224","norming","","","","","","",""
"3945.679999999935","","","post_reveal_questions","survey-likert","82","539256","0.0-6.0-6.10","3535526","co38224","norming","","","{""aha"":4}","[0]","../img/tt/082tt.jpg","",""
"null","<div style=""font-size:60px;""> </div>","null","fixation","html-keyboard-response","83","539463","0.0-6.0-0.11","3535526","co38224","norming","","","","","","",""
"null","../img/tt/468tt.jpg","null","mooney1","image-keyboard-response","84","542469","0.0-6.0-1.11","3535526","co38224","norming","","","","","","",""
"11457.359999999986","","","post_mooney1_questions","survey-likert","85","553929","0.0-6.0-2.11","3535526","co38224","norming","","","{""curiosity"":1,""confidence"":5}","[0,1]","../img/tt/468tt.jpg","",""
"5166.144999999902","","","recognition","survey-text","86","559094","0.0-6.0-3.11","3535526","co38224","norming","","","{""guess"":""viool/cello""}","","../img/tt/468tt.jpg","",""
"null","../img/gs/468gs.jpg","null","reveal","image-keyboard-response","87","561097","0.0-6.0-4.11","3535526","co38224","norming","","","","","","",""
"null","../img/tt/468tt.jpg","null","mooney2","image-keyboard-response","88","563099","0.0-6.0-5.11","3535526","co38224","norming","","","","","","",""
"3689.030000000028","","","post_reveal_questions","survey-likert","89","566790","0.0-6.0-6.11","3535526","co38224","norming","","","{""aha"":0}","[0]","../img/tt/468tt.jpg","",""
"null","<div style=""font-size:60px;""> </div>","null","fixation","html-keyboard-response","90","566999","0.0-6.0-0.12","3535526","co38224","norming","","","","","","",""
"null","../img/tt/1123tt.jpg","null","mooney1","image-keyboard-response","91","570004","0.0-6.0-1.12","3535526","co38224","norming","","","","","","",""
"6768.239999999991","","","post_mooney1_questions","survey-likert","92","576775","0.0-6.0-2.12","3535526","co38224","norming","","","{""curiosity"":1,""confidence"":5}","[0,1]","../img/tt/1123tt.jpg","",""
"2605.855000000098","","","recognition","survey-text","93","579382","0.0-6.0-3.12","3535526","co38224","norming","","","{""guess"":""zwemmer""}","","../img/tt/1123tt.jpg","",""
"null","../img/gs/1123gs.jpg","null","reveal","image-keyboard-response","94","581383","0.0-6.0-4.12","3535526","co38224","norming","","","","","","",""
"null","../img/tt/1123tt.jpg","null","mooney2","image-keyboard-response","95","583388","0.0-6.0-5.12","3535526","co38224","norming","","","","","","",""
"4113.32500000007","","","post_reveal_questions","survey-likert","96","587502","0.0-6.0-6.12","3535526","co38224","norming","","","{""aha"":5}","[0]","../img/tt/1123tt.jpg","",""
"null","<div style=""font-size:60px;""> </div>","null","fixation","html-keyboard-response","97","587709","0.0-6.0-0.13","3535526","co38224","norming","","","","","","",""
"null","../img/tt/1279tt.jpg","null","mooney1","image-keyboard-response","98","590718","0.0-6.0-1.13","3535526","co38224","norming","","","","","","",""
"13878.020000000019","","","post_mooney1_questions","survey-likert","99","604599","0.0-6.0-2.13","3535526","co38224","norming","","","{""curiosity"":6,""confidence"":1}","[0,1]","../img/tt/1279tt.jpg","",""
"2014.2750000000233","","","recognition","survey-text","100","606614","0.0-6.0-3.13","3535526","co38224","norming","","","{""guess"":""koe""}","","../img/tt/1279tt.jpg","",""
"null","../img/gs/1279gs.jpg","null","reveal","image-keyboard-response","101","608621","0.0-6.0-4.13","3535526","co38224","norming","","","","","","",""
"null","../img/tt/1279tt.jpg","null","mooney2","image-keyboard-response","102","610630","0.0-6.0-5.13","3535526","co38224","norming","","","","","","",""
"7781.9199999999255","","","post_reveal_questions","survey-likert","103","618414","0.0-6.0-6.13","3535526","co38224","norming","","","{""aha"":4}","[0]","../img/tt/1279tt.jpg","",""
"null","<div style=""font-size:60px;""> </div>","null","fixation","html-keyboard-response","104","618616","0.0-6.0-0.14","3535526","co38224","norming","","","","","","",""
"null","../img/tt/020tt.jpg","null","mooney1","image-keyboard-response","105","621628","0.0-6.0-1.14","3535526","co38224","norming","","","","","","",""
"7583.410000000033","","","post_mooney1_questions","survey-likert","106","629214","0.0-6.0-2.14","3535526","co38224","norming","","","{""curiosity"":6,""confidence"":2}","[0,1]","../img/tt/020tt.jpg","",""
"2710.1700000001583","","","recognition","survey-text","107","631926","0.0-6.0-3.14","3535526","co38224","norming","","","{""guess"":""kameleon""}","","../img/tt/020tt.jpg","",""
"null","../img/gs/020gs.jpg","null","reveal","image-keyboard-response","108","633935","0.0-6.0-4.14","3535526","co38224","norming","","","","","","",""
"null","../img/tt/020tt.jpg","null","mooney2","image-keyboard-response","109","635940","0.0-6.0-5.14","3535526","co38224","norming","","","","","","",""
"5478.664999999921","","","post_reveal_questions","survey-likert","110","641421","0.0-6.0-6.14","3535526","co38224","norming","","","{""aha"":6}","[0]","../img/tt/020tt.jpg","",""
"null","<div style=""font-size:60px;""> </div>","null","fixation","html-keyboard-response","111","641623","0.0-6.0-0.15","3535526","co38224","norming","","","","","","",""
"null","../img/tt/416tt.jpg","null","mooney1","image-keyboard-response","112","644631","0.0-6.0-1.15","3535526","co38224","norming","","","","","","",""
"6875.464999999967","","","post_mooney1_questions","survey-likert","113","651510","0.0-6.0-2.15","3535526","co38224","norming","","","{""curiosity"":1,""confidence"":4}","[0,1]","../img/tt/416tt.jpg","",""
"3710.4100000000326","","","recognition","survey-text","114","655222","0.0-6.0-3.15","3535526","co38224","norming","","","{""guess"":""flamingo""}","","../img/tt/416tt.jpg","",""
"null","../img/gs/416gs.jpg","null","reveal","image-keyboard-response","115","657226","0.0-6.0-4.15","3535526","co38224","norming","","","","","","",""
"null","../img/tt/416tt.jpg","null","mooney2","image-keyboard-response","116","659228","0.0-6.0-5.15","3535526","co38224","norming","","","","","","",""
"5023.780000000028","","","post_reveal_questions","survey-likert","117","664254","0.0-6.0-6.15","3535526","co38224","norming","","","{""aha"":5}","[0]","../img/tt/416tt.jpg","",""
"null","<div style=""font-size:60px;""> </div>","null","fixation","html-keyboard-response","118","664461","0.0-6.0-0.16","3535526","co38224","norming","","","","","","",""
"null","../img/tt/036tt.jpg","null","mooney1","image-keyboard-response","119","667465","0.0-6.0-1.16","3535526","co38224","norming","","","","","","",""
"8891.645000000019","","","post_mooney1_questions","survey-likert","120","676359","0.0-6.0-2.16","3535526","co38224","norming","","","{""curiosity"":4,""confidence"":2}","[0,1]","../img/tt/036tt.jpg","",""
"3550.1499999997905","","","recognition","survey-text","121","679910","0.0-6.0-3.16","3535526","co38224","norming","","","{""guess"":""spinnenweb""}","","../img/tt/036tt.jpg","",""
"null","../img/gs/036gs.jpg","null","reveal","image-keyboard-response","122","681920","0.0-6.0-4.16","3535526","co38224","norming","","","","","","",""
"null","../img/tt/036tt.jpg","null","mooney2","image-keyboard-response","123","683928","0.0-6.0-5.16","3535526","co38224","norming","","","","","","",""
"4299.895000000135","","","post_reveal_questions","survey-likert","124","688230","0.0-6.0-6.16","3535526","co38224","norming","","","{""aha"":4}","[0]","../img/tt/036tt.jpg","",""
"null","<div style=""font-size:60px;""> </div>","null","fixation","html-keyboard-response","125","688432","0.0-6.0-0.17","3535526","co38224","norming","","","","","","",""
"null","../img/tt/456tt.jpg","null","mooney1","image-keyboard-response","126","691436","0.0-6.0-1.17","3535526","co38224","norming","","","","","","",""
"6793.9400000000605","","","post_mooney1_questions","survey-likert","127","698231","0.0-6.0-2.17","3535526","co38224","norming","","","{""curiosity"":5,""confidence"":1}","[0,1]","../img/tt/456tt.jpg","",""
"2222.234999999986","","","recognition","survey-text","128","700454","0.0-6.0-3.17","3535526","co38224","norming","","","{""guess"":""otter""}","","../img/tt/456tt.jpg","",""
"null","../img/gs/456gs.jpg","null","reveal","image-keyboard-response","129","702464","0.0-6.0-4.17","3535526","co38224","norming","","","","","","",""
"null","../img/tt/456tt.jpg","null","mooney2","image-keyboard-response","130","704476","0.0-6.0-5.17","3535526","co38224","norming","","","","","","",""
"7520.469999999856","","","post_reveal_questions","survey-likert","131","711998","0.0-6.0-6.17","3535526","co38224","norming","","","{""aha"":4}","[0]","../img/tt/456tt.jpg","",""
"null","<div style=""font-size:60px;""> </div>","null","fixation","html-keyboard-response","132","712208","0.0-6.0-0.18","3535526","co38224","norming","","","","","","",""
"null","../img/tt/307tt.jpg","null","mooney1","image-keyboard-response","133","715217","0.0-6.0-1.18","3535526","co38224","norming","","","","","","",""
"6402.729999999981","","","post_mooney1_questions","survey-likert","134","721623","0.0-6.0-2.18","3535526","co38224","norming","","","{""curiosity"":1,""confidence"":4}","[0,1]","../img/tt/307tt.jpg","",""
"4205.954999999842","","","recognition","survey-text","135","725831","0.0-6.0-3.18","3535526","co38224","norming","","","{""guess"":""slak""}","","../img/tt/307tt.jpg","",""
"null","../img/gs/307gs.jpg","null","reveal","image-keyboard-response","136","727839","0.0-6.0-4.18","3535526","co38224","norming","","","","","","",""
"null","../img/tt/307tt.jpg","null","mooney2","image-keyboard-response","137","729841","0.0-6.0-5.18","3535526","co38224","norming","","","","","","",""
"3939.2400000002235","","","post_reveal_questions","survey-likert","138","733783","0.0-6.0-6.18","3535526","co38224","norming","","","{""aha"":5}","[0]","../img/tt/307tt.jpg","",""
"null","<div style=""font-size:60px;""> </div>","null","fixation","html-keyboard-response","139","733984","0.0-6.0-0.19","3535526","co38224","norming","","","","","","",""
"null","../img/tt/1142tt.jpg","null","mooney1","image-keyboard-response","140","736993","0.0-6.0-1.19","3535526","co38224","norming","","","","","","",""
"6014.729999999981","","","post_mooney1_questions","survey-likert","141","743010","0.0-6.0-2.19","3535526","co38224","norming","","","{""curiosity"":1,""confidence"":5}","[0,1]","../img/tt/1142tt.jpg","",""
"3366.054999999935","","","recognition","survey-text","142","746378","0.0-6.0-3.19","3535526","co38224","norming","","","{""guess"":""tennisster""}","","../img/tt/1142tt.jpg","",""
"null","../img/gs/1142gs.jpg","null","reveal","image-keyboard-response","143","748380","0.0-6.0-4.19","3535526","co38224","norming","","","","","","",""
"null","../img/tt/1142tt.jpg","null","mooney2","image-keyboard-response","144","750382","0.0-6.0-5.19","3535526","co38224","norming","","","","","","",""
"7313.530000000144","","","post_reveal_questions","survey-likert","145","757698","0.0-6.0-6.19","3535526","co38224","norming","","","{""aha"":1}","[0]","../img/tt/1142tt.jpg","",""
"null","<div style=""font-size:60px;""> </div>","null","fixation","html-keyboard-response","146","757904","0.0-6.0-0.20","3535526","co38224","norming","","","","","","",""
"null","../img/tt/1130tt.jpg","null","mooney1","image-keyboard-response","147","760908","0.0-6.0-1.20","3535526","co38224","norming","","","","","","",""
"12179.454999999958","","","post_mooney1_questions","survey-likert","148","773090","0.0-6.0-2.20","3535526","co38224","norming","","","{""curiosity"":1,""confidence"":4}","[0,1]","../img/tt/1130tt.jpg","",""
"3126.5000000001164","","","recognition","survey-text","149","776218","0.0-6.0-3.20","3535526","co38224","norming","","","{""guess"":""tennisser""}","","../img/tt/1130tt.jpg","",""
"null","../img/gs/1130gs.jpg","null","reveal","image-keyboard-response","150","778226","0.0-6.0-4.20","3535526","co38224","norming","","","","","","",""
"null","../img/tt/1130tt.jpg","null","mooney2","image-keyboard-response","151","780235","0.0-6.0-5.20","3535526","co38224","norming","","","","","","",""
"4100.314999999944","","","post_reveal_questions","survey-likert","152","784338","0.0-6.0-6.20","3535526","co38224","norming","","","{""aha"":5}","[0]","../img/tt/1130tt.jpg","",""
"null","<div style=""font-size:60px;""> </div>","null","fixation","html-keyboard-response","153","784540","0.0-6.0-0.21","3535526","co38224","norming","","","","","","",""
"null","../img/tt/1122tt.jpg","null","mooney1","image-keyboard-response","154","787544","0.0-6.0-1.21","3535526","co38224","norming","","","","","","",""
"8263.780000000028","","","post_mooney1_questions","survey-likert","155","795810","0.0-6.0-2.21","3535526","co38224","norming","","","{""curiosity"":1,""confidence"":5}","[0,1]","../img/tt/1122tt.jpg","",""
"2726.259999999893","","","recognition","survey-text","156","798538","0.0-6.0-3.21","3535526","co38224","norming","","","{""guess"":""boten""}","","../img/tt/1122tt.jpg","",""
"null","../img/gs/1122gs.jpg","null","reveal","image-keyboard-response","157","800548","0.0-6.0-4.21","3535526","co38224","norming","","","","","","",""
"null","../img/tt/1122tt.jpg","null","mooney2","image-keyboard-response","158","802552","0.0-6.0-5.21","3535526","co38224","norming","","","","","","",""
"5112.380000000005","","","post_reveal_questions","survey-likert","159","807666","0.0-6.0-6.21","3535526","co38224","norming","","","{""aha"":0}","[0]","../img/tt/1122tt.jpg","",""
"null","<div style=""font-size:60px;""> </div>","null","fixation","html-keyboard-response","160","807874","0.0-6.0-0.22","3535526","co38224","norming","","","","","","",""
"null","../img/tt/1200tt.jpg","null","mooney1","image-keyboard-response","161","810878","0.0-6.0-1.22","3535526","co38224","norming","","","","","","",""
"8066.135000000009","","","post_mooney1_questions","survey-likert","162","818947","0.0-6.0-2.22","3535526","co38224","norming","","","{""curiosity"":2,""confidence"":4}","[0,1]","../img/tt/1200tt.jpg","",""
"2518.285000000149","","","recognition","survey-text","163","821467","0.0-6.0-3.22","3535526","co38224","norming","","","{""guess"":""haven""}","","../img/tt/1200tt.jpg","",""
"null","../img/gs/1200gs.jpg","null","reveal","image-keyboard-response","164","823475","0.0-6.0-4.22","3535526","co38224","norming","","","","","","",""
"null","../img/tt/1200tt.jpg","null","mooney2","image-keyboard-response","165","825480","0.0-6.0-5.22","3535526","co38224","norming","","","","","","",""
"5353.550000000047","","","post_reveal_questions","survey-likert","166","830834","0.0-6.0-6.22","3535526","co38224","norming","","","{""aha"":2}","[0]","../img/tt/1200tt.jpg","",""
"null","<div style=""font-size:60px;""> </div>","null","fixation","html-keyboard-response","167","831038","0.0-6.0-0.23","3535526","co38224","norming","","","","","","",""
"null","../img/tt/442tt.jpg","null","mooney1","image-keyboard-response","168","834042","0.0-6.0-1.23","3535526","co38224","norming","","","","","","",""
"6717.800000000047","","","post_mooney1_questions","survey-likert","169","840763","0.0-6.0-2.23","3535526","co38224","norming","","","{""curiosity"":4,""confidence"":3}","[0,1]","../img/tt/442tt.jpg","",""
"2878.025000000256","","","recognition","survey-text","170","843642","0.0-6.0-3.23","3535526","co38224","norming","","","{""guess"":""rups""}","","../img/tt/442tt.jpg","",""
"null","../img/gs/442gs.jpg","null","reveal","image-keyboard-response","171","845649","0.0-6.0-4.23","3535526","co38224","norming","","","","","","",""
"null","../img/tt/442tt.jpg","null","mooney2","image-keyboard-response","172","847651","0.0-6.0-5.23","3535526","co38224","norming","","","","","","",""
"5620.484999999986","","","post_reveal_questions","survey-likert","173","853274","0.0-6.0-6.23","3535526","co38224","norming","","","{""aha"":5}","[0]","../img/tt/442tt.jpg","",""
"null","<div style=""font-size:60px;""> </div>","null","fixation","html-keyboard-response","174","853475","0.0-6.0-0.24","3535526","co38224","norming","","","","","","",""
"null","../img/tt/329tt.jpg","null","mooney1","image-keyboard-response","175","856477","0.0-6.0-1.24","3535526","co38224","norming","","","","","","",""
"7884.769999999902","","","post_mooney1_questions","survey-likert","176","864358","0.0-6.0-2.24","3535526","co38224","norming","","","{""curiosity"":5,""confidence"":0}","[0,1]","../img/tt/329tt.jpg","",""
"1694.0100000001257","","","recognition","survey-text","177","866054","0.0-6.0-3.24","3535526","co38224","norming","","","{""guess"":""""}","","../img/tt/329tt.jpg","",""
"null","../img/gs/329gs.jpg","null","reveal","image-keyboard-response","178","868056","0.0-6.0-4.24","3535526","co38224","norming","","","","","","",""
"null","../img/tt/329tt.jpg","null","mooney2","image-keyboard-response","179","870057","0.0-6.0-5.24","3535526","co38224","norming","","","","","","",""
"3579.7700000000186","","","post_reveal_questions","survey-likert","180","873638","0.0-6.0-6.24","3535526","co38224","norming","","","{""aha"":4}","[0]","../img/tt/329tt.jpg","",""
"null","<div style=""font-size:60px;""> </div>","null","fixation","html-keyboard-response","181","873842","0.0-6.0-0.25","3535526","co38224","norming","","","","","","",""
"null","../img/tt/406tt.jpg","null","mooney1","image-keyboard-response","182","876843","0.0-6.0-1.25","3535526","co38224","norming","","","","","","",""
"7225","","","post_mooney1_questions","survey-likert","183","884070","0.0-6.0-2.25","3535526","co38224","norming","","","{""curiosity"":6,""confidence"":1}","[0,1]","../img/tt/406tt.jpg","",""
"3470.0350000000326","","","recognition","survey-text","184","887542","0.0-6.0-3.25","3535526","co38224","norming","","","{""guess"":""vleermuis""}","","../img/tt/406tt.jpg","",""
"null","../img/gs/406gs.jpg","null","reveal","image-keyboard-response","185","889548","0.0-6.0-4.25","3535526","co38224","norming","","","","","","",""
"null","../img/tt/406tt.jpg","null","mooney2","image-keyboard-response","186","891556","0.0-6.0-5.25","3535526","co38224","norming","","","","","","",""
"3624.594999999972","","","post_reveal_questions","survey-likert","187","895182","0.0-6.0-6.25","3535526","co38224","norming","","","{""aha"":4}","[0]","../img/tt/406tt.jpg","",""
"null","<div style=""font-size:60px;""> </div>","null","fixation","html-keyboard-response","188","895384","0.0-6.0-0.26","3535526","co38224","norming","","","","","","",""
"null","../img/tt/078tt.jpg","null","mooney1","image-keyboard-response","189","898387","0.0-6.0-1.26","3535526","co38224","norming","","","","","","",""
"8769.905000000144","","","post_mooney1_questions","survey-likert","190","907158","0.0-6.0-2.26","3535526","co38224","norming","","","{""curiosity"":4,""confidence"":3}","[0,1]","../img/tt/078tt.jpg","",""
"2765.8950000000186","","","recognition","survey-text","191","909926","0.0-6.0-3.26","3535526","co38224","norming","","","{""guess"":""druiven""}","","../img/tt/078tt.jpg","",""
"null","../img/gs/078gs.jpg","null","reveal","image-keyboard-response","192","911927","0.0-6.0-4.26","3535526","co38224","norming","","","","","","",""
"null","../img/tt/078tt.jpg","null","mooney2","image-keyboard-response","193","913932","0.0-6.0-5.26","3535526","co38224","norming","","","","","","",""
"5945.164999999921","","","post_reveal_questions","survey-likert","194","919878","0.0-6.0-6.26","3535526","co38224","norming","","","{""aha"":4}","[0]","../img/tt/078tt.jpg","",""
"null","<div style=""font-size:60px;""> </div>","null","fixation","html-keyboard-response","195","920079","0.0-6.0-0.27","3535526","co38224","norming","","","","","","",""
"null","../img/tt/1089tt.jpg","null","mooney1","image-keyboard-response","196","923092","0.0-6.0-1.27","3535526","co38224","norming","","","","","","",""
"5729.020000000019","","","post_mooney1_questions","survey-likert","197","928822","0.0-6.0-2.27","3535526","co38224","norming","","","{""curiosity"":4,""confidence"":4}","[0,1]","../img/tt/1089tt.jpg","",""
"3286.0949999998556","","","recognition","survey-text","198","932110","0.0-6.0-3.27","3535526","co38224","norming","","","{""guess"":""boerderij""}","","../img/tt/1089tt.jpg","",""
"null","../img/gs/1089gs.jpg","null","reveal","image-keyboard-response","199","934120","0.0-6.0-4.27","3535526","co38224","norming","","","","","","",""
"null","../img/tt/1089tt.jpg","null","mooney2","image-keyboard-response","200","936127","0.0-6.0-5.27","3535526","co38224","norming","","","","","","",""
"4717.245000000112","","","post_reveal_questions","survey-likert","201","940846","0.0-6.0-6.27","3535526","co38224","norming","","","{""aha"":3}","[0]","../img/tt/1089tt.jpg","",""
"null","<div style=""font-size:60px;""> </div>","null","fixation","html-keyboard-response","202","941051","0.0-6.0-0.28","3535526","co38224","norming","","","","","","",""
"null","../img/tt/1190tt.jpg","null","mooney1","image-keyboard-response","203","944054","0.0-6.0-1.28","3535526","co38224","norming","","","","","","",""
"8127.080000000191","","","post_mooney1_questions","survey-likert","204","952182","0.0-6.0-2.28","3535526","co38224","norming","","","{""curiosity"":5,""confidence"":2}","[0,1]","../img/tt/1190tt.jpg","",""
"2678.4250000000466","","","recognition","survey-text","205","954862","0.0-6.0-3.28","3535526","co38224","norming","","","{""guess"":""olifant""}","","../img/tt/1190tt.jpg","",""
"null","../img/gs/1190gs.jpg","null","reveal","image-keyboard-response","206","956863","0.0-6.0-4.28","3535526","co38224","norming","","","","","","",""
"null","../img/tt/1190tt.jpg","null","mooney2","image-keyboard-response","207","958869","0.0-6.0-5.28","3535526","co38224","norming","","","","","","",""
"6712.009999999893","","","post_reveal_questions","survey-likert","208","965582","0.0-6.0-6.28","3535526","co38224","norming","","","{""aha"":4}","[0]","../img/tt/1190tt.jpg","",""
"null","<div style=""font-size:60px;""> </div>","null","fixation","html-keyboard-response","209","965785","0.0-6.0-0.29","3535526","co38224","norming","","","","","","",""
"null","../img/tt/163tt.jpg","null","mooney1","image-keyboard-response","210","968794","0.0-6.0-1.29","3535526","co38224","norming","","","","","","",""
"5867.585000000196","","","post_mooney1_questions","survey-likert","211","974663","0.0-6.0-2.29","3535526","co38224","norming","","","{""curiosity"":3,""confidence"":4}","[0,1]","../img/tt/163tt.jpg","",""
"2054.1200000001118","","","recognition","survey-text","212","976718","0.0-6.0-3.29","3535526","co38224","norming","","","{""guess"":""kikker""}","","../img/tt/163tt.jpg","",""
"null","../img/gs/163gs.jpg","null","reveal","image-keyboard-response","213","978720","0.0-6.0-4.29","3535526","co38224","norming","","","","","","",""
"null","../img/tt/163tt.jpg","null","mooney2","image-keyboard-response","214","980722","0.0-6.0-5.29","3535526","co38224","norming","","","","","","",""
"3609.680000000051","","","post_reveal_questions","survey-likert","215","984331","0.0-6.0-6.29","3535526","co38224","norming","","","{""aha"":0}","[0]","../img/tt/163tt.jpg","",""
"null","<div style=""font-size:60px;""> </div>","null","fixation","html-keyboard-response","216","984533","0.0-6.0-0.30","3535526","co38224","norming","","","","","","",""
"null","../img/tt/007tt.jpg","null","mooney1","image-keyboard-response","217","987539","0.0-6.0-1.30","3535526","co38224","norming","","","","","","",""
"6550.600000000093","","","post_mooney1_questions","survey-likert","218","994092","0.0-6.0-2.30","3535526","co38224","norming","","","{""curiosity"":3,""confidence"":4}","[0,1]","../img/tt/007tt.jpg","",""
"3550.2849999997998","","","recognition","survey-text","219","997644","0.0-6.0-3.30","3535526","co38224","norming","","","{""guess"":""walrus""}","","../img/tt/007tt.jpg","",""
"null","../img/gs/007gs.jpg","null","reveal","image-keyboard-response","220","999653","0.0-6.0-4.30","3535526","co38224","norming","","","","","","",""
"null","../img/tt/007tt.jpg","null","mooney2","image-keyboard-response","221","1001655","0.0-6.0-5.30","3535526","co38224","norming","","","","","","",""
"5394.514999999898","","","post_reveal_questions","survey-likert","222","1007052","0.0-6.0-6.30","3535526","co38224","norming","","","{""aha"":5}","[0]","../img/tt/007tt.jpg","",""
"null","<div style=""font-size:60px;""> </div>","null","fixation","html-keyboard-response","223","1007253","0.0-6.0-0.31","3535526","co38224","norming","","","","","","",""
"null","../img/tt/040tt.jpg","null","mooney1","image-keyboard-response","224","1010259","0.0-6.0-1.31","3535526","co38224","norming","","","","","","",""
"9390.0349999998","","","post_mooney1_questions","survey-likert","225","1019652","0.0-6.0-2.31","3535526","co38224","norming","","","{""curiosity"":5,""confidence"":2}","[0,1]","../img/tt/040tt.jpg","",""
"2470.0599999997066","","","recognition","survey-text","226","1022124","0.0-6.0-3.31","3535526","co38224","norming","","","{""guess"":""kameel""}","","../img/tt/040tt.jpg","",""
"null","../img/gs/040gs.jpg","null","reveal","image-keyboard-response","227","1024128","0.0-6.0-4.31","3535526","co38224","norming","","","","","","",""
"null","../img/tt/040tt.jpg","null","mooney2","image-keyboard-response","228","1026140","0.0-6.0-5.31","3535526","co38224","norming","","","","","","",""
"4862.014999999665","","","post_reveal_questions","survey-likert","229","1031004","0.0-6.0-6.31","3535526","co38224","norming","","","{""aha"":5}","[0]","../img/tt/040tt.jpg","",""
"null","<div style=""font-size:60px;""> </div>","null","fixation","html-keyboard-response","230","1031213","0.0-6.0-0.32","3535526","co38224","norming","","","","","","",""
"null","../img/tt/1148tt.jpg","null","mooney1","image-keyboard-response","231","1034221","0.0-6.0-1.32","3535526","co38224","norming","","","","","","",""
"8756.224999999977","","","post_mooney1_questions","survey-likert","232","1042980","0.0-6.0-2.32","3535526","co38224","norming","","","{""curiosity"":5,""confidence"":4}","[0,1]","../img/tt/1148tt.jpg","",""
"3029.935000000056","","","recognition","survey-text","233","1046014","0.0-6.0-3.32","3535526","co38224","norming","","","{""guess"":""ballerina""}","","../img/tt/1148tt.jpg","",""
"null","../img/gs/1148gs.jpg","null","reveal","image-keyboard-response","234","1048020","0.0-6.0-4.32","3535526","co38224","norming","","","","","","",""
"null","../img/tt/1148tt.jpg","null","mooney2","image-keyboard-response","235","1050021","0.0-6.0-5.32","3535526","co38224","norming","","","","","","",""
"5733.825000000419","","","post_reveal_questions","survey-likert","236","1055758","0.0-6.0-6.32","3535526","co38224","norming","","","{""aha"":5}","[0]","../img/tt/1148tt.jpg","",""
"null","<div style=""font-size:60px;""> </div>","null","fixation","html-keyboard-response","237","1055966","0.0-6.0-0.33","3535526","co38224","norming","","","","","","",""
"null","../img/tt/1276tt.jpg","null","mooney1","image-keyboard-response","238","1058970","0.0-6.0-1.33","3535526","co38224","norming","","","","","","",""
"10985.27500000014","","","post_mooney1_questions","survey-likert","239","1069958","0.0-6.0-2.33","3535526","co38224","norming","","","{""curiosity"":5,""confidence"":2}","[0,1]","../img/tt/1276tt.jpg","",""
"3878.005000000121","","","recognition","survey-text","240","1073838","0.0-6.0-3.33","3535526","co38224","norming","","","{""guess"":""luiaard""}","","../img/tt/1276tt.jpg","",""
"null","../img/gs/1276gs.jpg","null","reveal","image-keyboard-response","241","1075841","0.0-6.0-4.33","3535526","co38224","norming","","","","","","",""
"null","../img/tt/1276tt.jpg","null","mooney2","image-keyboard-response","242","1077850","0.0-6.0-5.33","3535526","co38224","norming","","","","","","",""
"6544.769999999786","","","post_reveal_questions","survey-likert","243","1084397","0.0-6.0-6.33","3535526","co38224","norming","","","{""aha"":3}","[0]","../img/tt/1276tt.jpg","",""
"null","<div style=""font-size:60px;""> </div>","null","fixation","html-keyboard-response","244","1084602","0.0-6.0-0.34","3535526","co38224","norming","","","","","","",""
"null","../img/tt/1251tt.jpg","null","mooney1","image-keyboard-response","245","1087608","0.0-6.0-1.34","3535526","co38224","norming","","","","","","",""
"8467.009999999776","","","post_mooney1_questions","survey-likert","246","1096078","0.0-6.0-2.34","3535526","co38224","norming","","","{""curiosity"":5,""confidence"":1}","[0,1]","../img/tt/1251tt.jpg","",""
"1693.9749999998603","","","recognition","survey-text","247","1097774","0.0-6.0-3.34","3535526","co38224","norming","","","{""guess"":""beer""}","","../img/tt/1251tt.jpg","",""
"null","../img/gs/1251gs.jpg","null","reveal","image-keyboard-response","248","1099782","0.0-6.0-4.34","3535526","co38224","norming","","","","","","",""
"null","../img/tt/1251tt.jpg","null","mooney2","image-keyboard-response","249","1101793","0.0-6.0-5.34","3535526","co38224","norming","","","","","","",""
"18194.18500000029","","","post_reveal_questions","survey-likert","250","1119991","0.0-6.0-6.34","3535526","co38224","norming","","","{""aha"":0}","[0]","../img/tt/1251tt.jpg","",""
"null","<div style=""font-size:60px;""> </div>","null","fixation","html-keyboard-response","251","1120193","0.0-6.0-0.35","3535526","co38224","norming","","","","","","",""
"null","../img/tt/049tt.jpg","null","mooney1","image-keyboard-response","252","1123203","0.0-6.0-1.35","3535526","co38224","norming","","","","","","",""
"9393.189999999944","","","post_mooney1_questions","survey-likert","253","1132600","0.0-6.0-2.35","3535526","co38224","norming","","","{""curiosity"":6,""confidence"":1}","[0,1]","../img/tt/049tt.jpg","",""
"2741.9300000001676","","","recognition","survey-text","254","1135343","0.0-6.0-3.35","3535526","co38224","norming","","","{""guess"":""gras""}","","../img/tt/049tt.jpg","",""
"null","../img/gs/049gs.jpg","null","reveal","image-keyboard-response","255","1137353","0.0-6.0-4.35","3535526","co38224","norming","","","","","","",""
"null","../img/tt/049tt.jpg","null","mooney2","image-keyboard-response","256","1139363","0.0-6.0-5.35","3535526","co38224","norming","","","","","","",""
"4258.135000000009","","","post_reveal_questions","survey-likert","257","1143623","0.0-6.0-6.35","3535526","co38224","norming","","","{""aha"":4}","[0]","../img/tt/049tt.jpg","",""
"null","<div style=""font-size:60px;""> </div>","null","fixation","html-keyboard-response","258","1143825","0.0-6.0-0.36","3535526","co38224","norming","","","","","","",""
"null","../img/tt/1066tt.jpg","null","mooney1","image-keyboard-response","259","1146828","0.0-6.0-1.36","3535526","co38224","norming","","","","","","",""
"6960.870000000345","","","post_mooney1_questions","survey-likert","260","1153792","0.0-6.0-2.36","3535526","co38224","norming","","","{""curiosity"":1,""confidence"":5}","[0,1]","../img/tt/1066tt.jpg","",""
"1806.040000000503","","","recognition","survey-text","261","1155600","0.0-6.0-3.36","3535526","co38224","norming","","","{""guess"":""bus""}","","../img/tt/1066tt.jpg","",""
"null","../img/gs/1066gs.jpg","null","reveal","image-keyboard-response","262","1157607","0.0-6.0-4.36","3535526","co38224","norming","","","","","","",""
"null","../img/tt/1066tt.jpg","null","mooney2","image-keyboard-response","263","1159610","0.0-6.0-5.36","3535526","co38224","norming","","","","","","",""
"2883.2000000001863","","","post_reveal_questions","survey-likert","264","1162495","0.0-6.0-6.36","3535526","co38224","norming","","","{""aha"":0}","[0]","../img/tt/1066tt.jpg","",""
"null","<div style=""font-size:60px;""> </div>","null","fixation","html-keyboard-response","265","1162697","0.0-6.0-0.37","3535526","co38224","norming","","","","","","",""
"null","../img/tt/1161tt.jpg","null","mooney1","image-keyboard-response","266","1165704","0.0-6.0-1.37","3535526","co38224","norming","","","","","","",""
"9596.839999999618","","","post_mooney1_questions","survey-likert","267","1175304","0.0-6.0-2.37","3535526","co38224","norming","","","{""curiosity"":5,""confidence"":1}","[0,1]","../img/tt/1161tt.jpg","",""
"4198.044999999693","","","recognition","survey-text","268","1179496","0.0-6.0-3.37","3535526","co38224","norming","","","{""guess"":""octopus""}","","../img/tt/1161tt.jpg","",""
"null","../img/gs/1161gs.jpg","null","reveal","image-keyboard-response","269","1181506","0.0-6.0-4.37","3535526","co38224","norming","","","","","","",""
"null","../img/tt/1161tt.jpg","null","mooney2","image-keyboard-response","270","1183515","0.0-6.0-5.37","3535526","co38224","norming","","","","","","",""
"4451.79000000027","","","post_reveal_questions","survey-likert","271","1187968","0.0-6.0-6.37","3535526","co38224","norming","","","{""aha"":5}","[0]","../img/tt/1161tt.jpg","",""
"null","<div style=""font-size:60px;""> </div>","null","fixation","html-keyboard-response","272","1188169","0.0-6.0-0.38","3535526","co38224","norming","","","","","","",""
"null","../img/tt/584tt.jpg","null","mooney1","image-keyboard-response","273","1191172","0.0-6.0-1.38","3535526","co38224","norming","","","","","","",""
"6864.895000000019","","","post_mooney1_questions","survey-likert","274","1198040","0.0-6.0-2.38","3535526","co38224","norming","","","{""curiosity"":5,""confidence"":2}","[0,1]","../img/tt/584tt.jpg","",""
"7421.784999999916","","","recognition","survey-text","275","1205464","0.0-6.0-3.38","3535526","co38224","norming","","","{""guess"":""knijptangen""}","","../img/tt/584tt.jpg","",""
"null","../img/gs/584gs.jpg","null","reveal","image-keyboard-response","276","1207471","0.0-6.0-4.38","3535526","co38224","norming","","","","","","",""
"null","../img/tt/584tt.jpg","null","mooney2","image-keyboard-response","277","1209477","0.0-6.0-5.38","3535526","co38224","norming","","","","","","",""
"4113.905000000028","","","post_reveal_questions","survey-likert","278","1213592","0.0-6.0-6.38","3535526","co38224","norming","","","{""aha"":0}","[0]","../img/tt/584tt.jpg","",""
"null","<div style=""font-size:60px;""> </div>","null","fixation","html-keyboard-response","279","1213797","0.0-6.0-0.39","3535526","co38224","norming","","","","","","",""
"null","../img/tt/1199tt.jpg","null","mooney1","image-keyboard-response","280","1216801","0.0-6.0-1.39","3535526","co38224","norming","","","","","","",""
"12484.064999999944","","","post_mooney1_questions","survey-likert","281","1229288","0.0-6.0-2.39","3535526","co38224","norming","","","{""curiosity"":2,""confidence"":4}","[0,1]","../img/tt/1199tt.jpg","",""
"4574.045000000391","","","recognition","survey-text","282","1233864","0.0-6.0-3.39","3535526","co38224","norming","","","{""guess"":""persoon op bed""}","","../img/tt/1199tt.jpg","",""
"null","../img/gs/1199gs.jpg","null","reveal","image-keyboard-response","283","1235868","0.0-6.0-4.39","3535526","co38224","norming","","","","","","",""
"null","../img/tt/1199tt.jpg","null","mooney2","image-keyboard-response","284","1237879","0.0-6.0-5.39","3535526","co38224","norming","","","","","","",""
"5142.73499999987","","","post_reveal_questions","survey-likert","285","1243026","0.0-6.0-6.39","3535526","co38224","norming","","","{""aha"":5}","[0]","../img/tt/1199tt.jpg","",""
"null","<div style=""font-size:60px;""> </div>","null","fixation","html-keyboard-response","286","1243229","0.0-6.0-0.40","3535526","co38224","norming","","","","","","",""
"null","../img/tt/1247tt.jpg","null","mooney1","image-keyboard-response","287","1246239","0.0-6.0-1.40","3535526","co38224","norming","","","","","","",""
"6480.2750000003725","","","post_mooney1_questions","survey-likert","288","1252722","0.0-6.0-2.40","3535526","co38224","norming","","","{""curiosity"":5,""confidence"":3}","[0,1]","../img/tt/1247tt.jpg","",""
"4182.195000000531","","","recognition","survey-text","289","1256906","0.0-6.0-3.40","3535526","co38224","norming","","","{""guess"":""bloem""}","","../img/tt/1247tt.jpg","",""
"null","../img/gs/1247gs.jpg","null","reveal","image-keyboard-response","290","1258909","0.0-6.0-4.40","3535526","co38224","norming","","","","","","",""
"null","../img/tt/1247tt.jpg","null","mooney2","image-keyboard-response","291","1260911","0.0-6.0-5.40","3535526","co38224","norming","","","","","","",""
"3576.3950000000186","","","post_reveal_questions","survey-likert","292","1264490","0.0-6.0-6.40","3535526","co38224","norming","","","{""aha"":5}","[0]","../img/tt/1247tt.jpg","",""
"null","<div style=""font-size:60px;""> </div>","null","fixation","html-keyboard-response","293","1264693","0.0-6.0-0.41","3535526","co38224","norming","","","","","","",""
"null","../img/tt/1217tt.jpg","null","mooney1","image-keyboard-response","294","1267704","0.0-6.0-1.41","3535526","co38224","norming","","","","","","",""
"6871.719999999506","","","post_mooney1_questions","survey-likert","295","1274578","0.0-6.0-2.41","3535526","co38224","norming","","","{""curiosity"":1,""confidence"":4}","[0,1]","../img/tt/1217tt.jpg","",""
"5206.094999999972","","","recognition","survey-text","296","1279786","0.0-6.0-3.41","3535526","co38224","norming","","","{""guess"":""baseballspeler""}","","../img/tt/1217tt.jpg","",""
"null","../img/gs/1217gs.jpg","null","reveal","image-keyboard-response","297","1281791","0.0-6.0-4.41","3535526","co38224","norming","","","","","","",""
"null","../img/tt/1217tt.jpg","null","mooney2","image-keyboard-response","298","1283793","0.0-6.0-5.41","3535526","co38224","norming","","","","","","",""
"4318.625000000466","","","post_reveal_questions","survey-likert","299","1288114","0.0-6.0-6.41","3535526","co38224","norming","","","{""aha"":5}","[0]","../img/tt/1217tt.jpg","",""
"null","<div style=""font-size:60px;""> </div>","null","fixation","html-keyboard-response","300","1288316","0.0-6.0-0.42","3535526","co38224","norming","","","","","","",""
"null","../img/tt/1080tt.jpg","null","mooney1","image-keyboard-response","301","1291319","0.0-6.0-1.42","3535526","co38224","norming","","","","","","",""
"4591.940000000177","","","post_mooney1_questions","survey-likert","302","1295914","0.0-6.0-2.42","3535526","co38224","norming","","","{""curiosity"":1,""confidence"":5}","[0,1]","../img/tt/1080tt.jpg","",""
"3326.184999999823","","","recognition","survey-text","303","1299242","0.0-6.0-3.42","3535526","co38224","norming","","","{""guess"":""schapen""}","","../img/tt/1080tt.jpg","",""
"null","../img/gs/1080gs.jpg","null","reveal","image-keyboard-response","304","1301243","0.0-6.0-4.42","3535526","co38224","norming","","","","","","",""
"null","../img/tt/1080tt.jpg","null","mooney2","image-keyboard-response","305","1303259","0.0-6.0-5.42","3535526","co38224","norming","","","","","","",""
"3767.8900000001304","","","post_reveal_questions","survey-likert","306","1307032","0.0-6.0-6.42","3535526","co38224","norming","","","{""aha"":0}","[0]","../img/tt/1080tt.jpg","",""
"null","<div style=""font-size:60px;""> </div>","null","fixation","html-keyboard-response","307","1307241","0.0-6.0-0.43","3535526","co38224","norming","","","","","","",""
"null","../img/tt/534tt.jpg","null","mooney1","image-keyboard-response","308","1310245","0.0-6.0-1.43","3535526","co38224","norming","","","","","","",""
"5456.4199999999255","","","post_mooney1_questions","survey-likert","309","1315704","0.0-6.0-2.43","3535526","co38224","norming","","","{""curiosity"":2,""confidence"":4}","[0,1]","../img/tt/534tt.jpg","",""
"3814.2600000000093","","","recognition","survey-text","310","1319520","0.0-6.0-3.43","3535526","co38224","norming","","","{""guess"":""cactussen""}","","../img/tt/534tt.jpg","",""
"null","../img/gs/534gs.jpg","null","reveal","image-keyboard-response","311","1321527","0.0-6.0-4.43","3535526","co38224","norming","","","","","","",""
"null","../img/tt/534tt.jpg","null","mooney2","image-keyboard-response","312","1323533","0.0-6.0-5.43","3535526","co38224","norming","","","","","","",""
"3377.8700000001118","","","post_reveal_questions","survey-likert","313","1326912","0.0-6.0-6.43","3535526","co38224","norming","","","{""aha"":0}","[0]","../img/tt/534tt.jpg","",""
"null","<div style=""font-size:60px;""> </div>","null","fixation","html-keyboard-response","314","1327113","0.0-6.0-0.44","3535526","co38224","norming","","","","","","",""
"null","../img/tt/507tt.jpg","null","mooney1","image-keyboard-response","315","1330116","0.0-6.0-1.44","3535526","co38224","norming","","","","","","",""
"8529.750000000233","","","post_mooney1_questions","survey-likert","316","1338648","0.0-6.0-2.44","3535526","co38224","norming","","","{""curiosity"":1,""confidence"":4}","[0,1]","../img/tt/507tt.jpg","",""
"3238.1800000004005","","","recognition","survey-text","317","1341888","0.0-6.0-3.44","3535526","co38224","norming","","","{""guess"":""loopster""}","","../img/tt/507tt.jpg","",""
"null","../img/gs/507gs.jpg","null","reveal","image-keyboard-response","318","1343896","0.0-6.0-4.44","3535526","co38224","norming","","","","","","",""
"null","../img/tt/507tt.jpg","null","mooney2","image-keyboard-response","319","1345907","0.0-6.0-5.44","3535526","co38224","norming","","","","","","",""
"3411.4449999995995","","","post_reveal_questions","survey-likert","320","1349320","0.0-6.0-6.44","3535526","co38224","norming","","","{""aha"":2}","[0]","../img/tt/507tt.jpg","",""
"null","<div style=""font-size:60px;""> </div>","null","fixation","html-keyboard-response","321","1349522","0.0-6.0-0.45","3535526","co38224","norming","","","","","","",""
"null","../img/tt/055tt.jpg","null","mooney1","image-keyboard-response","322","1352525","0.0-6.0-1.45","3535526","co38224","norming","","","","","","",""
"6080.805000000168","","","post_mooney1_questions","survey-likert","323","1358608","0.0-6.0-2.45","3535526","co38224","norming","","","{""curiosity"":6,""confidence"":0}","[0,1]","../img/tt/055tt.jpg","",""
"1590.095000000205","","","recognition","survey-text","324","1360200","0.0-6.0-3.45","3535526","co38224","norming","","","{""guess"":""""}","","../img/tt/055tt.jpg","",""
"null","../img/gs/055gs.jpg","null","reveal","image-keyboard-response","325","1362201","0.0-6.0-4.45","3535526","co38224","norming","","","","","","",""
"null","../img/tt/055tt.jpg","null","mooney2","image-keyboard-response","326","1364203","0.0-6.0-5.45","3535526","co38224","norming","","","","","","",""
"4540.205000000307","","","post_reveal_questions","survey-likert","327","1368744","0.0-6.0-6.45","3535526","co38224","norming","","","{""aha"":4}","[0]","../img/tt/055tt.jpg","",""
"null","<div style=""font-size:60px;""> </div>","null","fixation","html-keyboard-response","328","1368952","0.0-6.0-0.46","3535526","co38224","norming","","","","","","",""
"null","../img/tt/318tt.jpg","null","mooney1","image-keyboard-response","329","1371958","0.0-6.0-1.46","3535526","co38224","norming","","","","","","",""
"5358.935000000289","","","post_mooney1_questions","survey-likert","330","1377321","0.0-6.0-2.46","3535526","co38224","norming","","","{""curiosity"":4,""confidence"":4}","[0,1]","../img/tt/318tt.jpg","",""
"4117.804999999935","","","recognition","survey-text","331","1381440","0.0-6.0-3.46","3535526","co38224","norming","","","{""guess"":""autostuur""}","","../img/tt/318tt.jpg","",""
"null","../img/gs/318gs.jpg","null","reveal","image-keyboard-response","332","1383445","0.0-6.0-4.46","3535526","co38224","norming","","","","","","",""
"null","../img/tt/318tt.jpg","null","mooney2","image-keyboard-response","333","1385446","0.0-6.0-5.46","3535526","co38224","norming","","","","","","",""
"3729.4850000001024","","","post_reveal_questions","survey-likert","334","1389176","0.0-6.0-6.46","3535526","co38224","norming","","","{""aha"":0}","[0]","../img/tt/318tt.jpg","",""
"null","<div style=""font-size:60px;""> </div>","null","fixation","html-keyboard-response","335","1389380","0.0-6.0-0.47","3535526","co38224","norming","","","","","","",""
"null","../img/tt/1363tt.jpg","null","mooney1","image-keyboard-response","336","1392384","0.0-6.0-1.47","3535526","co38224","norming","","","","","","",""
"12052.989999999758","","","post_mooney1_questions","survey-likert","337","1404441","0.0-6.0-2.47","3535526","co38224","norming","","","{""curiosity"":5,""confidence"":2}","[0,1]","../img/tt/1363tt.jpg","",""
"6229.684999999823","","","recognition","survey-text","338","1410672","0.0-6.0-3.47","3535526","co38224","norming","","","{""guess"":""soepkom""}","","../img/tt/1363tt.jpg","",""
"null","../img/gs/1363gs.jpg","null","reveal","image-keyboard-response","339","1412680","0.0-6.0-4.47","3535526","co38224","norming","","","","","","",""
"null","../img/tt/1363tt.jpg","null","mooney2","image-keyboard-response","340","1414689","0.0-6.0-5.47","3535526","co38224","norming","","","","","","",""
"3165.1049999999814","","","post_reveal_questions","survey-likert","341","1417857","0.0-6.0-6.47","3535526","co38224","norming","","","{""aha"":5}","[0]","../img/tt/1363tt.jpg","",""
"null","<div style=""font-size:60px;""> </div>","null","fixation","html-keyboard-response","342","1418058","0.0-6.0-0.48","3535526","co38224","norming","","","","","","",""
"null","../img/tt/1255tt.jpg","null","mooney1","image-keyboard-response","343","1421068","0.0-6.0-1.48","3535526","co38224","norming","","","","","","",""
"5041.160000000149","","","post_mooney1_questions","survey-likert","344","1426108","0.0-6.0-2.48","3535526","co38224","norming","","","{""curiosity"":1,""confidence"":4}","[0,1]","../img/tt/1255tt.jpg","",""
"2878.1650000000373","","","recognition","survey-text","345","1428988","0.0-6.0-3.48","3535526","co38224","norming","","","{""guess"":""konijn""}","","../img/tt/1255tt.jpg","",""
"null","../img/gs/1255gs.jpg","null","reveal","image-keyboard-response","346","1430994","0.0-6.0-4.48","3535526","co38224","norming","","","","","","",""
"null","../img/tt/1255tt.jpg","null","mooney2","image-keyboard-response","347","1432999","0.0-6.0-5.48","3535526","co38224","norming","","","","","","",""
"6289.66500000027","","","post_reveal_questions","survey-likert","348","1439292","0.0-6.0-6.48","3535526","co38224","norming","","","{""aha"":0}","[0]","../img/tt/1255tt.jpg","",""
"null","<div style=""font-size:60px;""> </div>","null","fixation","html-keyboard-response","349","1439500","0.0-6.0-0.49","3535526","co38224","norming","","","","","","",""
"null","../img/tt/1241tt.jpg","null","mooney1","image-keyboard-response","350","1442510","0.0-6.0-1.49","3535526","co38224","norming","","","","","","",""
"5722.610000000335","","","post_mooney1_questions","survey-likert","351","1448236","0.0-6.0-2.49","3535526","co38224","norming","","","{""curiosity"":1,""confidence"":4}","[0,1]","../img/tt/1241tt.jpg","",""
"2973.8899999996647","","","recognition","survey-text","352","1451212","0.0-6.0-3.49","3535526","co38224","norming","","","{""guess"":""kat""}","","../img/tt/1241tt.jpg","",""
"null","../img/gs/1241gs.jpg","null","reveal","image-keyboard-response","353","1453220","0.0-6.0-4.49","3535526","co38224","norming","","","","","","",""
"null","../img/tt/1241tt.jpg","null","mooney2","image-keyboard-response","354","1455231","0.0-6.0-5.49","3535526","co38224","norming","","","","","","",""
"3875.0450000001583","","","post_reveal_questions","survey-likert","355","1459108","0.0-6.0-6.49","3535526","co38224","norming","","","{""aha"":5}","[0]","../img/tt/1241tt.jpg","",""
"null","<div style=""font-size:60px;""> </div>","null","fixation","html-keyboard-response","356","1459311","0.0-6.0-0.50","3535526","co38224","norming","","","","","","",""
"null","../img/tt/1181tt.jpg","null","mooney1","image-keyboard-response","357","1462321","0.0-6.0-1.50","3535526","co38224","norming","","","","","","",""
"10407.345000000205","","","post_mooney1_questions","survey-likert","358","1472732","0.0-6.0-2.50","3535526","co38224","norming","","","{""curiosity"":2,""confidence"":4}","[0,1]","../img/tt/1181tt.jpg","",""
"4477.425000000047","","","recognition","survey-text","359","1477212","0.0-6.0-3.50","3535526","co38224","norming","","","{""guess"":""twee mannen""}","","../img/tt/1181tt.jpg","",""
"null","../img/gs/1181gs.jpg","null","reveal","image-keyboard-response","360","1479222","0.0-6.0-4.50","3535526","co38224","norming","","","","","","",""
"null","../img/tt/1181tt.jpg","null","mooney2","image-keyboard-response","361","1481230","0.0-6.0-5.50","3535526","co38224","norming","","","","","","",""
"5875.039999999804","","","post_reveal_questions","survey-likert","362","1487106","0.0-6.0-6.50","3535526","co38224","norming","","","{""aha"":1}","[0]","../img/tt/1181tt.jpg","",""
"null","<div style=""font-size:60px;""> </div>","null","fixation","html-keyboard-response","363","1487313","0.0-6.0-0.51","3535526","co38224","norming","","","","","","",""
"null","../img/tt/1002tt.jpg","null","mooney1","image-keyboard-response","364","1490319","0.0-6.0-1.51","3535526","co38224","norming","","","","","","",""
"4728.180000000168","","","post_mooney1_questions","survey-likert","365","1495050","0.0-6.0-2.51","3535526","co38224","norming","","","{""curiosity"":2,""confidence"":5}","[0,1]","../img/tt/1002tt.jpg","",""
"1789.8599999998696","","","recognition","survey-text","366","1496842","0.0-6.0-3.51","3535526","co38224","norming","","","{""guess"":""beer""}","","../img/tt/1002tt.jpg","",""
"null","../img/gs/1002gs.jpg","null","reveal","image-keyboard-response","367","1498846","0.0-6.0-4.51","3535526","co38224","norming","","","","","","",""
"null","../img/tt/1002tt.jpg","null","mooney2","image-keyboard-response","368","1500853","0.0-6.0-5.51","3535526","co38224","norming","","","","","","",""
"9226.060000000056","","","post_reveal_questions","survey-likert","369","1510082","0.0-6.0-6.51","3535526","co38224","norming","","","{""aha"":0}","[0]","../img/tt/1002tt.jpg","",""
"null","<div style=""font-size:60px;""> </div>","null","fixation","html-keyboard-response","370","1510284","0.0-6.0-0.52","3535526","co38224","norming","","","","","","",""
"null","../img/tt/135tt.jpg","null","mooney1","image-keyboard-response","371","1513293","0.0-6.0-1.52","3535526","co38224","norming","","","","","","",""
"4384.935000000056","","","post_mooney1_questions","survey-likert","372","1517682","0.0-6.0-2.52","3535526","co38224","norming","","","{""curiosity"":0,""confidence"":6}","[0,1]","../img/tt/135tt.jpg","",""
"2133.9849999998696","","","recognition","survey-text","373","1519818","0.0-6.0-3.52","3535526","co38224","norming","","","{""guess"":""wc""}","","../img/tt/135tt.jpg","",""
"null","../img/gs/135gs.jpg","null","reveal","image-keyboard-response","374","1521823","0.0-6.0-4.52","3535526","co38224","norming","","","","","","",""
"null","../img/tt/135tt.jpg","null","mooney2","image-keyboard-response","375","1523825","0.0-6.0-5.52","3535526","co38224","norming","","","","","","",""
"3246.029999999795","","","post_reveal_questions","survey-likert","376","1527074","0.0-6.0-6.52","3535526","co38224","norming","","","{""aha"":0}","[0]","../img/tt/135tt.jpg","",""
"null","<div style=""font-size:60px;""> </div>","null","fixation","html-keyboard-response","377","1527275","0.0-6.0-0.53","3535526","co38224","norming","","","","","","",""
"null","../img/tt/1033tt.jpg","null","mooney1","image-keyboard-response","378","1530280","0.0-6.0-1.53","3535526","co38224","norming","","","","","","",""
"5910.59999999986","","","post_mooney1_questions","survey-likert","379","1536194","0.0-6.0-2.53","3535526","co38224","norming","","","{""curiosity"":1,""confidence"":5}","[0,1]","../img/tt/1033tt.jpg","",""
"3973.7199999997392","","","recognition","survey-text","380","1540170","0.0-6.0-3.53","3535526","co38224","norming","","","{""guess"":""boogschieter""}","","../img/tt/1033tt.jpg","",""
"null","../img/gs/1033gs.jpg","null","reveal","image-keyboard-response","381","1542172","0.0-6.0-4.53","3535526","co38224","norming","","","","","","",""
"null","../img/tt/1033tt.jpg","null","mooney2","image-keyboard-response","382","1544174","0.0-6.0-5.53","3535526","co38224","norming","","","","","","",""
"5824.59999999986","","","post_reveal_questions","survey-likert","383","1550006","0.0-6.0-6.53","3535526","co38224","norming","","","{""aha"":5}","[0]","../img/tt/1033tt.jpg","",""
"null","<div style=""font-size:60px;""> </div>","null","fixation","html-keyboard-response","384","1550207","0.0-6.0-0.54","3535526","co38224","norming","","","","","","",""
"null","../img/tt/1228tt.jpg","null","mooney1","image-keyboard-response","385","1553217","0.0-6.0-1.54","3535526","co38224","norming","","","","","","",""
"5026.110000000102","","","post_mooney1_questions","survey-likert","386","1558246","0.0-6.0-2.54","3535526","co38224","norming","","","{""curiosity"":1,""confidence"":4}","[0,1]","../img/tt/1228tt.jpg","",""
"5798.299999999814","","","recognition","survey-text","387","1564046","0.0-6.0-3.54","3535526","co38224","norming","","","{""guess"":""vogelnest""}","","../img/tt/1228tt.jpg","",""
"null","../img/gs/1228gs.jpg","null","reveal","image-keyboard-response","388","1566050","0.0-6.0-4.54","3535526","co38224","norming","","","","","","",""
"null","../img/tt/1228tt.jpg","null","mooney2","image-keyboard-response","389","1568059","0.0-6.0-5.54","3535526","co38224","norming","","","","","","",""
"3664.4950000001118","","","post_reveal_questions","survey-likert","390","1571726","0.0-6.0-6.54","3535526","co38224","norming","","","{""aha"":5}","[0]","../img/tt/1228tt.jpg","",""
"null","<div style=""font-size:60px;""> </div>","null","fixation","html-keyboard-response","391","1571931","0.0-6.0-0.55","3535526","co38224","norming","","","","","","",""
"null","../img/tt/1040tt.jpg","null","mooney1","image-keyboard-response","392","1574942","0.0-6.0-1.55","3535526","co38224","norming","","","","","","",""
"6236.754999999888","","","post_mooney1_questions","survey-likert","393","1581183","0.0-6.0-2.55","3535526","co38224","norming","","","{""curiosity"":6,""confidence"":0}","[0,1]","../img/tt/1040tt.jpg","",""
"1021.4200000001583","","","recognition","survey-text","394","1582206","0.0-6.0-3.55","3535526","co38224","norming","","","{""guess"":""""}","","../img/tt/1040tt.jpg","",""
"null","../img/gs/1040gs.jpg","null","reveal","image-keyboard-response","395","1584215","0.0-6.0-4.55","3535526","co38224","norming","","","","","","",""
"null","../img/tt/1040tt.jpg","null","mooney2","image-keyboard-response","396","1586226","0.0-6.0-5.55","3535526","co38224","norming","","","","","","",""
"5209.090000000084","","","post_reveal_questions","survey-likert","397","1591438","0.0-6.0-6.55","3535526","co38224","norming","","","{""aha"":4}","[0]","../img/tt/1040tt.jpg","",""
"null","<div style=""font-size:60px;""> </div>","null","fixation","html-keyboard-response","398","1591647","0.0-6.0-0.56","3535526","co38224","norming","","","","","","",""
"null","../img/tt/1254tt.jpg","null","mooney1","image-keyboard-response","399","1594652","0.0-6.0-1.56","3535526","co38224","norming","","","","","","",""
"5455.81500000041","","","post_mooney1_questions","survey-likert","400","1600110","0.0-6.0-2.56","3535526","co38224","norming","","","{""curiosity"":0,""confidence"":6}","[0,1]","../img/tt/1254tt.jpg","",""
"2878.060000000056","","","recognition","survey-text","401","1602990","0.0-6.0-3.56","3535526","co38224","norming","","","{""guess"":""konijn""}","","../img/tt/1254tt.jpg","",""
"null","../img/gs/1254gs.jpg","null","reveal","image-keyboard-response","402","1604998","0.0-6.0-4.56","3535526","co38224","norming","","","","","","",""
"null","../img/tt/1254tt.jpg","null","mooney2","image-keyboard-response","403","1607007","0.0-6.0-5.56","3535526","co38224","norming","","","","","","",""
"4676.279999999562","","","post_reveal_questions","survey-likert","404","1611688","0.0-6.0-6.56","3535526","co38224","norming","","","{""aha"":0}","[0]","../img/tt/1254tt.jpg","",""
"null","<div style=""font-size:60px;""> </div>","null","fixation","html-keyboard-response","405","1611892","0.0-6.0-0.57","3535526","co38224","norming","","","","","","",""
"null","../img/tt/085tt.jpg","null","mooney1","image-keyboard-response","406","1614897","0.0-6.0-1.57","3535526","co38224","norming","","","","","","",""
"4564.284999999916","","","post_mooney1_questions","survey-likert","407","1619464","0.0-6.0-2.57","3535526","co38224","norming","","","{""curiosity"":4,""confidence"":4}","[0,1]","../img/tt/085tt.jpg","",""
"2502.4950000001118","","","recognition","survey-text","408","1621969","0.0-6.0-3.57","3535526","co38224","norming","","","{""guess"":""krekel""}","","../img/tt/085tt.jpg","",""
"null","../img/gs/085gs.jpg","null","reveal","image-keyboard-response","409","1623977","0.0-6.0-4.57","3535526","co38224","norming","","","","","","",""
"null","../img/tt/085tt.jpg","null","mooney2","image-keyboard-response","410","1625979","0.0-6.0-5.57","3535526","co38224","norming","","","","","","",""
"6123.0449999999255","","","post_reveal_questions","survey-likert","411","1632104","0.0-6.0-6.57","3535526","co38224","norming","","","{""aha"":1}","[0]","../img/tt/085tt.jpg","",""
"null","<div style=""font-size:60px;""> </div>","null","fixation","html-keyboard-response","412","1632313","0.0-6.0-0.58","3535526","co38224","norming","","","","","","",""
"null","../img/tt/1353tt.jpg","null","mooney1","image-keyboard-response","413","1635317","0.0-6.0-1.58","3535526","co38224","norming","","","","","","",""
"6768.395000000019","","","post_mooney1_questions","survey-likert","414","1642089","0.0-6.0-2.58","3535526","co38224","norming","","","{""curiosity"":4,""confidence"":3}","[0,1]","../img/tt/1353tt.jpg","",""
"2646.1049999999814","","","recognition","survey-text","415","1644736","0.0-6.0-3.58","3535526","co38224","norming","","","{""guess"":""bloem""}","","../img/tt/1353tt.jpg","",""
"null","../img/gs/1353gs.jpg","null","reveal","image-keyboard-response","416","1646742","0.0-6.0-4.58","3535526","co38224","norming","","","","","","",""
"null","../img/tt/1353tt.jpg","null","mooney2","image-keyboard-response","417","1648751","0.0-6.0-5.58","3535526","co38224","norming","","","","","","",""
"3550.989999999758","","","post_reveal_questions","survey-likert","418","1652304","0.0-6.0-6.58","3535526","co38224","norming","","","{""aha"":4}","[0]","../img/tt/1353tt.jpg","",""
"null","<div style=""font-size:60px;""> </div>","null","fixation","html-keyboard-response","419","1652507","0.0-6.0-0.59","3535526","co38224","norming","","","","","","",""
"null","../img/tt/1224tt.jpg","null","mooney1","image-keyboard-response","420","1655509","0.0-6.0-1.59","3535526","co38224","norming","","","","","","",""
"6866.600000000326","","","post_mooney1_questions","survey-likert","421","1662376","0.0-6.0-2.59","3535526","co38224","norming","","","{""curiosity"":4,""confidence"":3}","[0,1]","../img/tt/1224tt.jpg","",""
"5430.315000000177","","","recognition","survey-text","422","1667808","0.0-6.0-3.59","3535526","co38224","norming","","","{""guess"":""gewichtheffen""}","","../img/tt/1224tt.jpg","",""
"null","../img/gs/1224gs.jpg","null","reveal","image-keyboard-response","423","1669815","0.0-6.0-4.59","3535526","co38224","norming","","","","","","",""
"null","../img/tt/1224tt.jpg","null","mooney2","image-keyboard-response","424","1671824","0.0-6.0-5.59","3535526","co38224","norming","","","","","","",""
"5117.514999999898","","","post_reveal_questions","survey-likert","425","1676944","0.0-6.0-6.59","3535526","co38224","norming","","","{""aha"":5}","[0]","../img/tt/1224tt.jpg","",""
"null","<div style=""font-size:60px;""> </div>","null","fixation","html-keyboard-response","426","1677147","0.0-6.0-0.60","3535526","co38224","norming","","","","","","",""
"null","../img/tt/1260tt.jpg","null","mooney1","image-keyboard-response","427","1680159","0.0-6.0-1.60","3535526","co38224","norming","","","","","","",""
"9998.055000000168","","","post_mooney1_questions","survey-likert","428","1690161","0.0-6.0-2.60","3535526","co38224","norming","","","{""curiosity"":4,""confidence"":4}","[0,1]","../img/tt/1260tt.jpg","",""
"3581.8449999997392","","","recognition","survey-text","429","1693745","0.0-6.0-3.60","3535526","co38224","norming","","","{""guess"":""kever""}","","../img/tt/1260tt.jpg","",""
"null","../img/gs/1260gs.jpg","null","reveal","image-keyboard-response","430","1695758","0.0-6.0-4.60","3535526","co38224","norming","","","","","","",""
"null","../img/tt/1260tt.jpg","null","mooney2","image-keyboard-response","431","1697766","0.0-6.0-5.60","3535526","co38224","norming","","","","","","",""
"3887.380000000121","","","post_reveal_questions","survey-likert","432","1701656","0.0-6.0-6.60","3535526","co38224","norming","","","{""aha"":3}","[0]","../img/tt/1260tt.jpg","",""
"null","<div style=""font-size:60px;""> </div>","null","fixation","html-keyboard-response","433","1701858","0.0-6.0-0.61","3535526","co38224","norming","","","","","","",""
"null","../img/tt/380tt.jpg","null","mooney1","image-keyboard-response","434","1704866","0.0-6.0-1.61","3535526","co38224","norming","","","","","","",""
"6883.420000000158","","","post_mooney1_questions","survey-likert","435","1711753","0.0-6.0-2.61","3535526","co38224","norming","","","{""curiosity"":5,""confidence"":1}","[0,1]","../img/tt/380tt.jpg","",""
"1990.2150000003166","","","recognition","survey-text","436","1713744","0.0-6.0-3.61","3535526","co38224","norming","","","{""guess"":""rat""}","","../img/tt/380tt.jpg","",""
"null","../img/gs/380gs.jpg","null","reveal","image-keyboard-response","437","1715754","0.0-6.0-4.61","3535526","co38224","norming","","","","","","",""
"null","../img/tt/380tt.jpg","null","mooney2","image-keyboard-response","438","1717763","0.0-6.0-5.61","3535526","co38224","norming","","","","","","",""
"5778.2700000002515","","","post_reveal_questions","survey-likert","439","1723545","0.0-6.0-6.61","3535526","co38224","norming","","","{""aha"":3}","[0]","../img/tt/380tt.jpg","",""
"null","<div style=""font-size:60px;""> </div>","null","fixation","html-keyboard-response","440","1723754","0.0-6.0-0.62","3535526","co38224","norming","","","","","","",""
"null","../img/tt/1087tt.jpg","null","mooney1","image-keyboard-response","441","1726757","0.0-6.0-1.62","3535526","co38224","norming","","","","","","",""
"6648.340000000317","","","post_mooney1_questions","survey-likert","442","1733402","0.0-6.0-2.62","3535526","co38224","norming","","","{""curiosity"":1,""confidence"":5}","[0,1]","../img/tt/1087tt.jpg","",""
"2846.095000000205","","","recognition","survey-text","443","1736250","0.0-6.0-3.62","3535526","co38224","norming","","","{""guess"":""schapen""}","","../img/tt/1087tt.jpg","",""
"null","../img/gs/1087gs.jpg","null","reveal","image-keyboard-response","444","1738260","0.0-6.0-4.62","3535526","co38224","norming","","","","","","",""
"null","../img/tt/1087tt.jpg","null","mooney2","image-keyboard-response","445","1740268","0.0-6.0-5.62","3535526","co38224","norming","","","","","","",""
"2842.8899999998976","","","post_reveal_questions","survey-likert","446","1743114","0.0-6.0-6.62","3535526","co38224","norming","","","{""aha"":0}","[0]","../img/tt/1087tt.jpg","",""
"null","<div style=""font-size:60px;""> </div>","null","fixation","html-keyboard-response","447","1743317","0.0-6.0-0.63","3535526","co38224","norming","","","","","","",""
"null","../img/tt/270tt.jpg","null","mooney1","image-keyboard-response","448","1746326","0.0-6.0-1.63","3535526","co38224","norming","","","","","","",""
"15288.725000000093","","","post_mooney1_questions","survey-likert","449","1761618","0.0-6.0-2.63","3535526","co38224","norming","","","{""curiosity"":5,""confidence"":1}","[0,1]","../img/tt/270tt.jpg","",""
"3158.0999999996275","","","recognition","survey-text","450","1764778","0.0-6.0-3.63","3535526","co38224","norming","","","{""guess"":""schapen""}","","../img/tt/270tt.jpg","",""
"null","../img/gs/270gs.jpg","null","reveal","image-keyboard-response","451","1766788","0.0-6.0-4.63","3535526","co38224","norming","","","","","","",""
"null","../img/tt/270tt.jpg","null","mooney2","image-keyboard-response","452","1768791","0.0-6.0-5.63","3535526","co38224","norming","","","","","","",""
"8170.240000000456","","","post_reveal_questions","survey-likert","453","1776962","0.0-6.0-6.63","3535526","co38224","norming","","","{""aha"":4}","[0]","../img/tt/270tt.jpg","",""
"null","<div style=""font-size:60px;""> </div>","null","fixation","html-keyboard-response","454","1777163","0.0-6.0-0.64","3535526","co38224","norming","","","","","","",""
"null","../img/tt/438tt.jpg","null","mooney1","image-keyboard-response","455","1780166","0.0-6.0-1.64","3535526","co38224","norming","","","","","","",""
"4384.570000000298","","","post_mooney1_questions","survey-likert","456","1784554","0.0-6.0-2.64","3535526","co38224","norming","","","{""curiosity"":4,""confidence"":4}","[0,1]","../img/tt/438tt.jpg","",""
"2621.654999999795","","","recognition","survey-text","457","1787177","0.0-6.0-3.64","3535526","co38224","norming","","","{""guess"":""slang""}","","../img/tt/438tt.jpg","",""
"null","../img/gs/438gs.jpg","null","reveal","image-keyboard-response","458","1789184","0.0-6.0-4.64","3535526","co38224","norming","","","","","","",""
"null","../img/tt/438tt.jpg","null","mooney2","image-keyboard-response","459","1791197","0.0-6.0-5.64","3535526","co38224","norming","","","","","","",""
"4818.200000000186","","","post_reveal_questions","survey-likert","460","1796024","0.0-6.0-6.64","3535526","co38224","norming","","","{""aha"":0}","[0]","../img/tt/438tt.jpg","",""
"null","<div style=""font-size:60px;""> </div>","null","fixation","html-keyboard-response","461","1796225","0.0-6.0-0.65","3535526","co38224","norming","","","","","","",""
"null","../img/tt/1362tt.jpg","null","mooney1","image-keyboard-response","462","1799228","0.0-6.0-1.65","3535526","co38224","norming","","","","","","",""
"4208.90000000014","","","post_mooney1_questions","survey-likert","463","1803440","0.0-6.0-2.65","3535526","co38224","norming","","","{""curiosity"":1,""confidence"":5}","[0,1]","../img/tt/1362tt.jpg","",""
"3534.0200000002515","","","recognition","survey-text","464","1806976","0.0-6.0-3.65","3535526","co38224","norming","","","{""guess"":""platenspeler""}","","../img/tt/1362tt.jpg","",""
"null","../img/gs/1362gs.jpg","null","reveal","image-keyboard-response","465","1808986","0.0-6.0-4.65","3535526","co38224","norming","","","","","","",""
"null","../img/tt/1362tt.jpg","null","mooney2","image-keyboard-response","466","1810995","0.0-6.0-5.65","3535526","co38224","norming","","","","","","",""
"3994.285000000149","","","post_reveal_questions","survey-likert","467","1814992","0.0-6.0-6.65","3535526","co38224","norming","","","{""aha"":5}","[0]","../img/tt/1362tt.jpg","",""
"null","<div style=""font-size:60px;""> </div>","null","fixation","html-keyboard-response","468","1815198","0.0-6.0-0.66","3535526","co38224","norming","","","","","","",""
"null","../img/tt/598tt.jpg","null","mooney1","image-keyboard-response","469","1818204","0.0-6.0-1.66","3535526","co38224","norming","","","","","","",""
"7256.435000000056","","","post_mooney1_questions","survey-likert","470","1825464","0.0-6.0-2.66","3535526","co38224","norming","","","{""curiosity"":4,""confidence"":4}","[0,1]","../img/tt/598tt.jpg","",""
"2918.2150000003166","","","recognition","survey-text","471","1828384","0.0-6.0-3.66","3535526","co38224","norming","","","{""guess"":""breien""}","","../img/tt/598tt.jpg","",""
"null","../img/gs/598gs.jpg","null","reveal","image-keyboard-response","472","1830391","0.0-6.0-4.66","3535526","co38224","norming","","","","","","",""
"null","../img/tt/598tt.jpg","null","mooney2","image-keyboard-response","473","1832392","0.0-6.0-5.66","3535526","co38224","norming","","","","","","",""
"4228.784999999916","","","post_reveal_questions","survey-likert","474","1836624","0.0-6.0-6.66","3535526","co38224","norming","","","{""aha"":4}","[0]","../img/tt/598tt.jpg","",""
"null","<div style=""font-size:60px;""> </div>","null","fixation","html-keyboard-response","475","1836826","0.0-6.0-0.67","3535526","co38224","norming","","","","","","",""
"null","../img/tt/010tt.jpg","null","mooney1","image-keyboard-response","476","1839830","0.0-6.0-1.67","3535526","co38224","norming","","","","","","",""
"6862.834999999963","","","post_mooney1_questions","survey-likert","477","1846696","0.0-6.0-2.67","3535526","co38224","norming","","","{""curiosity"":5,""confidence"":3}","[0,1]","../img/tt/010tt.jpg","",""
"2854.015000000363","","","recognition","survey-text","478","1849552","0.0-6.0-3.67","3535526","co38224","norming","","","{""guess"":""vlinder""}","","../img/tt/010tt.jpg","",""
"null","../img/gs/010gs.jpg","null","reveal","image-keyboard-response","479","1851561","0.0-6.0-4.67","3535526","co38224","norming","","","","","","",""
"null","../img/tt/010tt.jpg","null","mooney2","image-keyboard-response","480","1853566","0.0-6.0-5.67","3535526","co38224","norming","","","","","","",""
"3392.144999999786","","","post_reveal_questions","survey-likert","481","1856957","0.0-6.0-6.67","3535526","co38224","norming","","","{""aha"":5}","[0]","../img/tt/010tt.jpg","",""
"null","<div style=""font-size:60px;""> </div>","null","fixation","html-keyboard-response","482","1857166","0.0-6.0-0.68","3535526","co38224","norming","","","","","","",""
"null","../img/tt/517tt.jpg","null","mooney1","image-keyboard-response","483","1860176","0.0-6.0-1.68","3535526","co38224","norming","","","","","","",""
"11825.684999999823","","","post_mooney1_questions","survey-likert","484","1872006","0.0-6.0-2.68","3535526","co38224","norming","","","{""curiosity"":5,""confidence"":3}","[0,1]","../img/tt/517tt.jpg","",""
"4086.1750000000466","","","recognition","survey-text","485","1876093","0.0-6.0-3.68","3535526","co38224","norming","","","{""guess"":""everzwijn""}","","../img/tt/517tt.jpg","",""
"null","../img/gs/517gs.jpg","null","reveal","image-keyboard-response","486","1878096","0.0-6.0-4.68","3535526","co38224","norming","","","","","","",""
"null","../img/tt/517tt.jpg","null","mooney2","image-keyboard-response","487","1880105","0.0-6.0-5.68","3535526","co38224","norming","","","","","","",""
"5872.464999999851","","","post_reveal_questions","survey-likert","488","1885981","0.0-6.0-6.68","3535526","co38224","norming","","","{""aha"":5}","[0]","../img/tt/517tt.jpg","",""
"null","<div style=""font-size:60px;""> </div>","null","fixation","html-keyboard-response","489","1886182","0.0-6.0-0.69","3535526","co38224","norming","","","","","","",""
"null","../img/tt/112tt.jpg","null","mooney1","image-keyboard-response","490","1889192","0.0-6.0-1.69","3535526","co38224","norming","","","","","","",""
"8098.26500000013","","","post_mooney1_questions","survey-likert","491","1897294","0.0-6.0-2.69","3535526","co38224","norming","","","{""curiosity"":4,""confidence"":3}","[0,1]","../img/tt/112tt.jpg","",""
"4990.064999999944","","","recognition","survey-text","492","1902286","0.0-6.0-3.69","3535526","co38224","norming","","","{""guess"":""uurwerk""}","","../img/tt/112tt.jpg","",""
"null","../img/gs/112gs.jpg","null","reveal","image-keyboard-response","493","1904287","0.0-6.0-4.69","3535526","co38224","norming","","","","","","",""
"null","../img/tt/112tt.jpg","null","mooney2","image-keyboard-response","494","1906296","0.0-6.0-5.69","3535526","co38224","norming","","","","","","",""
"4306.330000000307","","","post_reveal_questions","survey-likert","495","1910606","0.0-6.0-6.69","3535526","co38224","norming","","","{""aha"":5}","[0]","../img/tt/112tt.jpg","",""
"null","<div style=""font-size:60px;""> </div>","null","fixation","html-keyboard-response","496","1910807","0.0-6.0-0.70","3535526","co38224","norming","","","","","","",""
"null","../img/tt/435tt.jpg","null","mooney1","image-keyboard-response","497","1913810","0.0-6.0-1.70","3535526","co38224","norming","","","","","","",""
"7888.185000000289","","","post_mooney1_questions","survey-likert","498","1921706","0.0-6.0-2.70","3535526","co38224","norming","","","{""curiosity"":2,""confidence"":5}","[0,1]","../img/tt/435tt.jpg","",""
"4373.859999999637","","","recognition","survey-text","499","1926081","0.0-6.0-3.70","3535526","co38224","norming","","","{""guess"":""pooltafel""}","","../img/tt/435tt.jpg","",""
"null","../img/gs/435gs.jpg","null","reveal","image-keyboard-response","500","1928089","0.0-6.0-4.70","3535526","co38224","norming","","","","","","",""
"null","../img/tt/435tt.jpg","null","mooney2","image-keyboard-response","501","1930100","0.0-6.0-5.70","3535526","co38224","norming","","","","","","",""
"4915.684999999823","","","post_reveal_questions","survey-likert","502","1935018","0.0-6.0-6.70","3535526","co38224","norming","","","{""aha"":0}","[0]","../img/tt/435tt.jpg","",""
"null","<div style=""font-size:60px;""> </div>","null","fixation","html-keyboard-response","503","1935224","0.0-6.0-0.71","3535526","co38224","norming","","","","","","",""
"null","../img/tt/1070tt.jpg","null","mooney1","image-keyboard-response","504","1938229","0.0-6.0-1.71","3535526","co38224","norming","","","","","","",""
"9008.380000000354","","","post_mooney1_questions","survey-likert","505","1947242","0.0-6.0-2.71","3535526","co38224","norming","","","{""curiosity"":4,""confidence"":3}","[0,1]","../img/tt/1070tt.jpg","",""
"4166.220000000205","","","recognition","survey-text","506","1951409","0.0-6.0-3.71","3535526","co38224","norming","","","{""guess"":""stuk taart""}","","../img/tt/1070tt.jpg","",""
"null","../img/gs/1070gs.jpg","null","reveal","image-keyboard-response","507","1953414","0.0-6.0-4.71","3535526","co38224","norming","","","","","","",""
"null","../img/tt/1070tt.jpg","null","mooney2","image-keyboard-response","508","1955418","0.0-6.0-5.71","3535526","co38224","norming","","","","","","",""
"3181.0749999999534","","","post_reveal_questions","survey-likert","509","1958602","0.0-6.0-6.71","3535526","co38224","norming","","","{""aha"":0}","[0]","../img/tt/1070tt.jpg","",""
"null","<div style=""font-size:60px;""> </div>","null","fixation","html-keyboard-response","510","1958803","0.0-6.0-0.72","3535526","co38224","norming","","","","","","",""
"null","../img/tt/590tt.jpg","null","mooney1","image-keyboard-response","511","1961811","0.0-6.0-1.72","3535526","co38224","norming","","","","","","",""
"6235.039999999572","","","post_mooney1_questions","survey-likert","512","1968050","0.0-6.0-2.72","3535526","co38224","norming","","","{""curiosity"":5,""confidence"":2}","[0,1]","../img/tt/590tt.jpg","",""
"5805.995000000112","","","recognition","survey-text","513","1973858","0.0-6.0-3.72","3535526","co38224","norming","","","{""guess"":""fietsenstalling""}","","../img/tt/590tt.jpg","",""
"null","../img/gs/590gs.jpg","null","reveal","image-keyboard-response","514","1975859","0.0-6.0-4.72","3535526","co38224","norming","","","","","","",""
"null","../img/tt/590tt.jpg","null","mooney2","image-keyboard-response","515","1977867","0.0-6.0-5.72","3535526","co38224","norming","","","","","","",""
"6000.850000000559","","","post_reveal_questions","survey-likert","516","1983870","0.0-6.0-6.72","3535526","co38224","norming","","","{""aha"":3}","[0]","../img/tt/590tt.jpg","",""
"null","<div style=""font-size:60px;""> </div>","null","fixation","html-keyboard-response","517","1984075","0.0-6.0-0.73","3535526","co38224","norming","","","","","","",""
"null","../img/tt/1143tt.jpg","null","mooney1","image-keyboard-response","518","1987080","0.0-6.0-1.73","3535526","co38224","norming","","","","","","",""
"7346.605000000214","","","post_mooney1_questions","survey-likert","519","1994430","0.0-6.0-2.73","3535526","co38224","norming","","","{""curiosity"":1,""confidence"":5}","[0,1]","../img/tt/1143tt.jpg","",""
"4246.199999999953","","","recognition","survey-text","520","1998678","0.0-6.0-3.73","3535526","co38224","norming","","","{""guess"":""zwemmers""}","","../img/tt/1143tt.jpg","",""
"null","../img/gs/1143gs.jpg","null","reveal","image-keyboard-response","521","2000683","0.0-6.0-4.73","3535526","co38224","norming","","","","","","",""
"null","../img/tt/1143tt.jpg","null","mooney2","image-keyboard-response","522","2002690","0.0-6.0-5.73","3535526","co38224","norming","","","","","","",""
"3872.7649999998976","","","post_reveal_questions","survey-likert","523","2006566","0.0-6.0-6.73","3535526","co38224","norming","","","{""aha"":5}","[0]","../img/tt/1143tt.jpg","",""
"null","<div style=""font-size:60px;""> </div>","null","fixation","html-keyboard-response","524","2006774","0.0-6.0-0.74","3535526","co38224","norming","","","","","","",""
"null","../img/tt/1043tt.jpg","null","mooney1","image-keyboard-response","525","2009782","0.0-6.0-1.74","3535526","co38224","norming","","","","","","",""
"13671.179999999935","","","post_mooney1_questions","survey-likert","526","2023454","0.0-6.0-2.74","3535526","co38224","norming","","","{""curiosity"":5,""confidence"":4}","[0,1]","../img/tt/1043tt.jpg","",""
"4358.625","","","recognition","survey-text","527","2027814","0.0-6.0-3.74","3535526","co38224","norming","","","{""guess"":""eten ""}","","../img/tt/1043tt.jpg","",""
"null","../img/gs/1043gs.jpg","null","reveal","image-keyboard-response","528","2029817","0.0-6.0-4.74","3535526","co38224","norming","","","","","","",""
"null","../img/tt/1043tt.jpg","null","mooney2","image-keyboard-response","529","2031820","0.0-6.0-5.74","3535526","co38224","norming","","","","","","",""
"5215.2299999997485","","","post_reveal_questions","survey-likert","530","2037038","0.0-6.0-6.74","3535526","co38224","norming","","","{""aha"":4}","[0]","../img/tt/1043tt.jpg","",""
"null","<div style=""font-size:60px;""> </div>","null","fixation","html-keyboard-response","531","2037247","0.0-6.0-0.75","3535526","co38224","norming","","","","","","",""
"null","../img/tt/405tt.jpg","null","mooney1","image-keyboard-response","532","2040258","0.0-6.0-1.75","3535526","co38224","norming","","","","","","",""
"5577.055000000168","","","post_mooney1_questions","survey-likert","533","2045839","0.0-6.0-2.75","3535526","co38224","norming","","","{""curiosity"":5,""confidence"":3}","[0,1]","../img/tt/405tt.jpg","",""
"4198.269999999786","","","recognition","survey-text","534","2050039","0.0-6.0-3.75","3535526","co38224","norming","","","{""guess"":""koala""}","","../img/tt/405tt.jpg","",""
"null","../img/gs/405gs.jpg","null","reveal","image-keyboard-response","535","2052041","0.0-6.0-4.75","3535526","co38224","norming","","","","","","",""
"null","../img/tt/405tt.jpg","null","mooney2","image-keyboard-response","536","2054043","0.0-6.0-5.75","3535526","co38224","norming","","","","","","",""
"14873.540000000037","","","post_reveal_questions","survey-likert","537","2068919","0.0-6.0-6.75","3535526","co38224","norming","","","{""aha"":5}","[0]","../img/tt/405tt.jpg","",""
"null","<div style=""font-size:60px;""> </div>","null","fixation","html-keyboard-response","538","2069121","0.0-6.0-0.76","3535526","co38224","norming","","","","","","",""
"null","../img/tt/1004tt.jpg","null","mooney1","image-keyboard-response","539","2072124","0.0-6.0-1.76","3535526","co38224","norming","","","","","","",""
"10280.134999999776","","","post_mooney1_questions","survey-likert","540","2082407","0.0-6.0-2.76","3535526","co38224","norming","","","{""curiosity"":5,""confidence"":2}","[0,1]","../img/tt/1004tt.jpg","",""
"3438.0749999999534","","","recognition","survey-text","541","2085847","0.0-6.0-3.76","3535526","co38224","norming","","","{""guess"":""een vos""}","","../img/tt/1004tt.jpg","",""
"null","../img/gs/1004gs.jpg","null","reveal","image-keyboard-response","542","2087855","0.0-6.0-4.76","3535526","co38224","norming","","","","","","",""
"null","../img/tt/1004tt.jpg","null","mooney2","image-keyboard-response","543","2089865","0.0-6.0-5.76","3535526","co38224","norming","","","","","","",""
"5268.200000000419","","","post_reveal_questions","survey-likert","544","2095135","0.0-6.0-6.76","3535526","co38224","norming","","","{""aha"":4}","[0]","../img/tt/1004tt.jpg","",""
"null","<div style=""font-size:60px;""> </div>","null","fixation","html-keyboard-response","545","2095338","0.0-6.0-0.77","3535526","co38224","norming","","","","","","",""
"null","../img/tt/064tt.jpg","null","mooney1","image-keyboard-response","546","2098339","0.0-6.0-1.77","3535526","co38224","norming","","","","","","",""
"3833.2500000004657","","","post_mooney1_questions","survey-likert","547","2102172","0.0-6.0-2.77","3535526","co38224","norming","","","{""curiosity"":4,""confidence"":4}","[0,1]","../img/tt/064tt.jpg","",""
"6566.084999999963","","","recognition","survey-text","548","2108740","0.0-6.0-3.77","3535526","co38224","norming","","","{""guess"":""schildpad""}","","../img/tt/064tt.jpg","",""
"null","../img/gs/064gs.jpg","null","reveal","image-keyboard-response","549","2110745","0.0-6.0-4.77","3535526","co38224","norming","","","","","","",""
"null","../img/tt/064tt.jpg","null","mooney2","image-keyboard-response","550","2112747","0.0-6.0-5.77","3535526","co38224","norming","","","","","","",""
"4670.585000000428","","","post_reveal_questions","survey-likert","551","2117420","0.0-6.0-6.77","3535526","co38224","norming","","","{""aha"":2}","[0]","../img/tt/064tt.jpg","",""
