"rt","stimulus","key_press","test_part","trial_type","trial_index","time_elapsed","internal_node_id","totalTime","subject","experiment_name","button_pressed","success","responses","question_order","currentStim","old","correct"
"77253.53999999969","Welcome to the experiment. This is an online experiment so please don't close the tab/window until we say goodbye.  Press any key to begin.","74","instructions","html-keyboard-response","0","77258","0.0-0.0","2997176","co38290","norming","","","","","","",""
"21216.77999999975","<div style='word-wrap: break-word; width: 900px'><h3>Please consider this information carefully before deciding whether to participate in this research</h3><ul style='text-align: left; font-size: .8em;'><li><b>Purpose of the research</b>: To examine how people process images.</li><li><b>What you will do in this research</b>:  Stimuli (images) will be presented on the computer and you will be asked different questions about them.</li><li><b>Time required</b>: Participation will take between 45 and 60 minutes to complete.</li><li><b>Risks</b>:  There are no anticipated risks associated with participating in this study. The effects of participating should be comparable to those you would experience from viewing a computer monitor for 30 minutes and using a mouse or keyboard.</li><li><b>Benefits</b>:  This study provides no benefits to you individually except for the credit. The study provides important information about the nature of perception and learning.</li><li><b>Confidentiality</b>:  Your participation in this study will remain confidential. No personally identifiable information will be associated with your data. Your de-identified data may be shared with other researchers and used in future projects.</li><li><b>Participation and withdrawal</b>:  Your participation in this study is completely voluntary and you may refuse to participate or you may choose to withdraw at any time without penalty.</li><li><b>How to contact the researchers</b>: If you have questions or concerns about your participation or payment, or want to request a summary of research findings, please contact Sander Van de Cruys (KU Leuven), at sander.vandecruys@kuleuven.be.</li></ul><p>The nature and purpose of this research have been sufficiently explained and I agree to participate in this study.  I understand that I am free to withdraw at any time without incurring any penalty.</p><p>Please consent by clicking the button below to continue. Otherwise, please exit the study at this time.</p></div>","","instructions","html-button-response","1","98478","0.0-1.0","2997176","co38290","norming","0","","","","","",""
"","","","instructions","fullscreen","2","104407","0.0-2.0","2997176","co38290","norming","","true","","","","",""
"42443.419999999605","","","sona","survey-html-form","3","146852","0.0-3.0","2997176","co38290","norming","","","[{""name"":""sonaid"",""value"":""38290""},{""name"":""debrief"",""value"":""yes""},{""name"":""datajoin"",""value"":""yes""}]","","","",""
"48287.00500000012","<div style='word-wrap: break-word; width: 900px'><h3>Instructions</h3><p>This experiment will have 3 parts. In the first part you will see a series of distorted images like the one below on the left. As you can see in the righthand image, the distorted images are derived from actual photographs. In what follows, you will <strong>briefly</strong> be presented with <strong>only</strong> the distorted image.</p> <div style='float: left; margin-right: 20px;'><img src='../img/018tt.jpg' height='250' width='250'></img></div><div style='float: right; margin-left: 20px;'><img src='../img/018gs.jpg' height='250' width='250'></img></div><p>Subsequently you will be asked a few questions about the image: One question on how <strong>curious</strong> you are about the solution and one on how <strong>confident</strong> you are that you know the solution.</p>Next, we ask you to make a guess on what is in the image. Note that it is OK to name just the <strong>basic level category</strong>. For example when you see a parrot in the image, 'parrot' will obviously be a correct answer but also correct is 'bird'. However, 'animal' will <strong>not</strong> be counted as a correct response. For the example above, 'rose' would be correct or 'flower', but not 'plant'. When soccer players are depicted, 'soccer', 'football', 'soccer players' will be correct, but not 'humans', 'outdoors', or 'sports'. You do not need to describe the image in full, just name the main object in it <strong>in one or two words</strong>. All images depict objects from one of the following broad level categories: animals, inanimate objects, plants, sports, vehicles, and food. Recognizing means knowing <strong>more</strong> than these broad labels for a given image. But we always encourage you to <strong>make a guess</strong> if you can. Note that you are allowed to use <strong>Dutch and English</strong> in your answers, whatever comes easiest for you.</p><p>Press any key to continue.</p></div>","32","instructions","html-keyboard-response","4","195140","0.0-4.0","2997176","co38290","norming","","","","","","",""
"6414.200000000157","<div style='word-wrap: break-word; width: 900px'><h3>Instructions</h3> <p>Next, the solution image will be revealed to you and you'll be asked to indicate how strong your <strong>aha-experience</strong> was after seeing the solution. This describes the positive feeling of the 'click' you sometimes experience, when the pieces of the 'puzzle' fall together and you suddenly have 'insight' in the image.</p><img src='aha.jpg' height='188' width='250'></img><p>Note that there are no right or wrong answers. We are interested in what <strong>you</strong> see in the image and how <strong>you</strong> feel about it.</p><p>Press any key to start the experiment.</p></div>","32","instructions","html-keyboard-response","5","201556","0.0-5.0","2997176","co38290","norming","","","","","","",""
"null","<div style=""font-size:60px;""> </div>","null","fixation","html-keyboard-response","6","201767","0.0-6.0-0.0","2997176","co38290","norming","","","","","","",""
"null","../img/tt/279tt.jpg","null","mooney1","image-keyboard-response","7","204775","0.0-6.0-1.0","2997176","co38290","norming","","","","","","",""
"8091.27499999979","","","post_mooney1_questions","survey-likert","8","212871","0.0-6.0-2.0","2997176","co38290","norming","","","{""curiosity"":4,""confidence"":6}","[0,1]","../img/tt/279tt.jpg","",""
"4597.6599999994505","","","recognition","survey-text","9","217470","0.0-6.0-3.0","2997176","co38290","norming","","","{""guess"":""koala""}","","../img/tt/279tt.jpg","",""
"null","../img/gs/279gs.jpg","null","reveal","image-keyboard-response","10","219472","0.0-6.0-4.0","2997176","co38290","norming","","","","","","",""
"null","../img/tt/279tt.jpg","null","mooney2","image-keyboard-response","11","221474","0.0-6.0-5.0","2997176","co38290","norming","","","","","","",""
"8553.740000000282","","","post_reveal_questions","survey-likert","12","230030","0.0-6.0-6.0","2997176","co38290","norming","","","{""aha"":3}","[0]","../img/tt/279tt.jpg","",""
"null","<div style=""font-size:60px;""> </div>","null","fixation","html-keyboard-response","13","230241","0.0-6.0-0.1","2997176","co38290","norming","","","","","","",""
"null","../img/tt/184tt.jpg","null","mooney1","image-keyboard-response","14","233249","0.0-6.0-1.1","2997176","co38290","norming","","","","","","",""
"5779.564999999828","","","post_mooney1_questions","survey-likert","15","239030","0.0-6.0-2.1","2997176","co38290","norming","","","{""curiosity"":5,""confidence"":0}","[0,1]","../img/tt/184tt.jpg","",""
"3318.005000000092","","","recognition","survey-text","16","242350","0.0-6.0-3.1","2997176","co38290","norming","","","{""guess"":""""}","","../img/tt/184tt.jpg","",""
"null","../img/gs/184gs.jpg","null","reveal","image-keyboard-response","17","244351","0.0-6.0-4.1","2997176","co38290","norming","","","","","","",""
"null","../img/tt/184tt.jpg","null","mooney2","image-keyboard-response","18","246354","0.0-6.0-5.1","2997176","co38290","norming","","","","","","",""
"4265.71499999956","","","post_reveal_questions","survey-likert","19","250622","0.0-6.0-6.1","2997176","co38290","norming","","","{""aha"":4}","[0]","../img/tt/184tt.jpg","",""
"null","<div style=""font-size:60px;""> </div>","null","fixation","html-keyboard-response","20","250831","0.0-6.0-0.2","2997176","co38290","norming","","","","","","",""
"null","../img/tt/1040tt.jpg","null","mooney1","image-keyboard-response","21","253836","0.0-6.0-1.2","2997176","co38290","norming","","","","","","",""
"8767.710000000108","","","post_mooney1_questions","survey-likert","22","262606","0.0-6.0-2.2","2997176","co38290","norming","","","{""curiosity"":5,""confidence"":0}","[0,1]","../img/tt/1040tt.jpg","",""
"1398.1350000004168","","","recognition","survey-text","23","264006","0.0-6.0-3.2","2997176","co38290","norming","","","{""guess"":""""}","","../img/tt/1040tt.jpg","",""
"null","../img/gs/1040gs.jpg","null","reveal","image-keyboard-response","24","266016","0.0-6.0-4.2","2997176","co38290","norming","","","","","","",""
"null","../img/tt/1040tt.jpg","null","mooney2","image-keyboard-response","25","268025","0.0-6.0-5.2","2997176","co38290","norming","","","","","","",""
"3828.125","","","post_reveal_questions","survey-likert","26","271855","0.0-6.0-6.2","2997176","co38290","norming","","","{""aha"":5}","[0]","../img/tt/1040tt.jpg","",""
"null","<div style=""font-size:60px;""> </div>","null","fixation","html-keyboard-response","27","272065","0.0-6.0-0.3","2997176","co38290","norming","","","","","","",""
"null","../img/tt/1217tt.jpg","null","mooney1","image-keyboard-response","28","275072","0.0-6.0-1.3","2997176","co38290","norming","","","","","","",""
"4068.7400000005728","","","post_mooney1_questions","survey-likert","29","279144","0.0-6.0-2.3","2997176","co38290","norming","","","{""curiosity"":6,""confidence"":1}","[0,1]","../img/tt/1217tt.jpg","",""
"2878.139999999781","","","recognition","survey-text","30","282023","0.0-6.0-3.3","2997176","co38290","norming","","","{""guess"":""trees""}","","../img/tt/1217tt.jpg","",""
"null","../img/gs/1217gs.jpg","null","reveal","image-keyboard-response","31","284025","0.0-6.0-4.3","2997176","co38290","norming","","","","","","",""
"null","../img/tt/1217tt.jpg","null","mooney2","image-keyboard-response","32","286029","0.0-6.0-5.3","2997176","co38290","norming","","","","","","",""
"5760.384999999602","","","post_reveal_questions","survey-likert","33","291791","0.0-6.0-6.3","2997176","co38290","norming","","","{""aha"":5}","[0]","../img/tt/1217tt.jpg","",""
"null","<div style=""font-size:60px;""> </div>","null","fixation","html-keyboard-response","34","291997","0.0-6.0-0.4","2997176","co38290","norming","","","","","","",""
"null","../img/tt/1048tt.jpg","null","mooney1","image-keyboard-response","35","295007","0.0-6.0-1.4","2997176","co38290","norming","","","","","","",""
"6902.149999999849","","","post_mooney1_questions","survey-likert","36","301912","0.0-6.0-2.4","2997176","co38290","norming","","","{""curiosity"":6,""confidence"":0}","[0,1]","../img/tt/1048tt.jpg","",""
"709.7599999997183","","","recognition","survey-text","37","302623","0.0-6.0-3.4","2997176","co38290","norming","","","{""guess"":""""}","","../img/tt/1048tt.jpg","",""
"null","../img/gs/1048gs.jpg","null","reveal","image-keyboard-response","38","304633","0.0-6.0-4.4","2997176","co38290","norming","","","","","","",""
"null","../img/tt/1048tt.jpg","null","mooney2","image-keyboard-response","39","306647","0.0-6.0-5.4","2997176","co38290","norming","","","","","","",""
"3726.6649999992223","","","post_reveal_questions","survey-likert","40","310375","0.0-6.0-6.4","2997176","co38290","norming","","","{""aha"":2}","[0]","../img/tt/1048tt.jpg","",""
"null","<div style=""font-size:60px;""> </div>","null","fixation","html-keyboard-response","41","310579","0.0-6.0-0.5","2997176","co38290","norming","","","","","","",""
"null","../img/tt/189tt.jpg","null","mooney1","image-keyboard-response","42","313585","0.0-6.0-1.5","2997176","co38290","norming","","","","","","",""
"5996.739999999583","","","post_mooney1_questions","survey-likert","43","319583","0.0-6.0-2.5","2997176","co38290","norming","","","{""curiosity"":4,""confidence"":3}","[0,1]","../img/tt/189tt.jpg","",""
"3078.500000000524","","","recognition","survey-text","44","322663","0.0-6.0-3.5","2997176","co38290","norming","","","{""guess"":""skilift""}","","../img/tt/189tt.jpg","",""
"null","../img/gs/189gs.jpg","null","reveal","image-keyboard-response","45","324674","0.0-6.0-4.5","2997176","co38290","norming","","","","","","",""
"null","../img/tt/189tt.jpg","null","mooney2","image-keyboard-response","46","326676","0.0-6.0-5.5","2997176","co38290","norming","","","","","","",""
"3114.3950000005425","","","post_reveal_questions","survey-likert","47","329792","0.0-6.0-6.5","2997176","co38290","norming","","","{""aha"":5}","[0]","../img/tt/189tt.jpg","",""
"null","<div style=""font-size:60px;""> </div>","null","fixation","html-keyboard-response","48","329999","0.0-6.0-0.6","2997176","co38290","norming","","","","","","",""
"null","../img/tt/135tt.jpg","null","mooney1","image-keyboard-response","49","333004","0.0-6.0-1.6","2997176","co38290","norming","","","","","","",""
"5771.314999999944","","","post_mooney1_questions","survey-likert","50","338776","0.0-6.0-2.6","2997176","co38290","norming","","","{""curiosity"":6,""confidence"":2}","[0,1]","../img/tt/135tt.jpg","",""
"2013.8649999998743","","","recognition","survey-text","51","340792","0.0-6.0-3.6","2997176","co38290","norming","","","{""guess"":""hoed""}","","../img/tt/135tt.jpg","",""
"null","../img/gs/135gs.jpg","null","reveal","image-keyboard-response","52","342801","0.0-6.0-4.6","2997176","co38290","norming","","","","","","",""
"null","../img/tt/135tt.jpg","null","mooney2","image-keyboard-response","53","344811","0.0-6.0-5.6","2997176","co38290","norming","","","","","","",""
"5483.065000000352","","","post_reveal_questions","survey-likert","54","350296","0.0-6.0-6.6","2997176","co38290","norming","","","{""aha"":5}","[0]","../img/tt/135tt.jpg","",""
"null","<div style=""font-size:60px;""> </div>","null","fixation","html-keyboard-response","55","350497","0.0-6.0-0.7","2997176","co38290","norming","","","","","","",""
"null","../img/tt/1283tt.jpg","null","mooney1","image-keyboard-response","56","353501","0.0-6.0-1.7","2997176","co38290","norming","","","","","","",""
"4520.594999999914","","","post_mooney1_questions","survey-likert","57","358024","0.0-6.0-2.7","2997176","co38290","norming","","","{""curiosity"":6,""confidence"":0}","[0,1]","../img/tt/1283tt.jpg","",""
"838.6199999995297","","","recognition","survey-text","58","358864","0.0-6.0-3.7","2997176","co38290","norming","","","{""guess"":""""}","","../img/tt/1283tt.jpg","",""
"null","../img/gs/1283gs.jpg","null","reveal","image-keyboard-response","59","360867","0.0-6.0-4.7","2997176","co38290","norming","","","","","","",""
"null","../img/tt/1283tt.jpg","null","mooney2","image-keyboard-response","60","362875","0.0-6.0-5.7","2997176","co38290","norming","","","","","","",""
"3459.2750000001397","","","post_reveal_questions","survey-likert","61","366336","0.0-6.0-6.7","2997176","co38290","norming","","","{""aha"":2}","[0]","../img/tt/1283tt.jpg","",""
"null","<div style=""font-size:60px;""> </div>","null","fixation","html-keyboard-response","62","366538","0.0-6.0-0.8","2997176","co38290","norming","","","","","","",""
"null","../img/tt/001tt.jpg","null","mooney1","image-keyboard-response","63","369543","0.0-6.0-1.8","2997176","co38290","norming","","","","","","",""
"12718.25999999966","","","post_mooney1_questions","survey-likert","64","382264","0.0-6.0-2.8","2997176","co38290","norming","","","{""curiosity"":6,""confidence"":2}","[0,1]","../img/tt/001tt.jpg","",""
"4974.365000000049","","","recognition","survey-text","65","387234","0.0-6.0-3.8","2997176","co38290","norming","","","{""guess"":""angry man""}","","../img/tt/001tt.jpg","",""
"null","../img/gs/001gs.jpg","null","reveal","image-keyboard-response","66","389235","0.0-6.0-4.8","2997176","co38290","norming","","","","","","",""
"null","../img/tt/001tt.jpg","null","mooney2","image-keyboard-response","67","391241","0.0-6.0-5.8","2997176","co38290","norming","","","","","","",""
"5733.994999999588","","","post_reveal_questions","survey-likert","68","396978","0.0-6.0-6.8","2997176","co38290","norming","","","{""aha"":3}","[0]","../img/tt/001tt.jpg","",""
"null","<div style=""font-size:60px;""> </div>","null","fixation","html-keyboard-response","69","397186","0.0-6.0-0.9","2997176","co38290","norming","","","","","","",""
"null","../img/tt/1063tt.jpg","null","mooney1","image-keyboard-response","70","400193","0.0-6.0-1.9","2997176","co38290","norming","","","","","","",""
"7654.429999999586","","","post_mooney1_questions","survey-likert","71","407850","0.0-6.0-2.9","2997176","co38290","norming","","","{""curiosity"":4,""confidence"":3}","[0,1]","../img/tt/1063tt.jpg","",""
"2150.2449999998207","","","recognition","survey-text","72","410002","0.0-6.0-3.9","2997176","co38290","norming","","","{""guess"":""horse""}","","../img/tt/1063tt.jpg","",""
"null","../img/gs/1063gs.jpg","null","reveal","image-keyboard-response","73","412003","0.0-6.0-4.9","2997176","co38290","norming","","","","","","",""
"null","../img/tt/1063tt.jpg","null","mooney2","image-keyboard-response","74","414014","0.0-6.0-5.9","2997176","co38290","norming","","","","","","",""
"4001.090000000666","","","post_reveal_questions","survey-likert","75","418018","0.0-6.0-6.9","2997176","co38290","norming","","","{""aha"":5}","[0]","../img/tt/1063tt.jpg","",""
"null","<div style=""font-size:60px;""> </div>","null","fixation","html-keyboard-response","76","418221","0.0-6.0-0.10","2997176","co38290","norming","","","","","","",""
"null","../img/tt/603tt.jpg","null","mooney1","image-keyboard-response","77","421232","0.0-6.0-1.10","2997176","co38290","norming","","","","","","",""
"4439.355000000389","","","post_mooney1_questions","survey-likert","78","425674","0.0-6.0-2.10","2997176","co38290","norming","","","{""curiosity"":4,""confidence"":3}","[0,1]","../img/tt/603tt.jpg","",""
"1749.280000000028","","","recognition","survey-text","79","427426","0.0-6.0-3.10","2997176","co38290","norming","","","{""guess"":""cat""}","","../img/tt/603tt.jpg","",""
"null","../img/gs/603gs.jpg","null","reveal","image-keyboard-response","80","429427","0.0-6.0-4.10","2997176","co38290","norming","","","","","","",""
"null","../img/tt/603tt.jpg","null","mooney2","image-keyboard-response","81","431429","0.0-6.0-5.10","2997176","co38290","norming","","","","","","",""
"18186.43999999948","","","post_reveal_questions","survey-likert","82","449618","0.0-6.0-6.10","2997176","co38290","norming","","","{""aha"":4}","[0]","../img/tt/603tt.jpg","",""
"null","<div style=""font-size:60px;""> </div>","null","fixation","html-keyboard-response","83","449821","0.0-6.0-0.11","2997176","co38290","norming","","","","","","",""
"null","../img/tt/1175tt.jpg","null","mooney1","image-keyboard-response","84","452827","0.0-6.0-1.11","2997176","co38290","norming","","","","","","",""
"12844.544999999925","","","post_mooney1_questions","survey-likert","85","465674","0.0-6.0-2.11","2997176","co38290","norming","","","{""curiosity"":6,""confidence"":1}","[0,1]","../img/tt/1175tt.jpg","",""
"1893.7749999995576","","","recognition","survey-text","86","467569","0.0-6.0-3.11","2997176","co38290","norming","","","{""guess"":""sheep""}","","../img/tt/1175tt.jpg","",""
"null","../img/gs/1175gs.jpg","null","reveal","image-keyboard-response","87","469575","0.0-6.0-4.11","2997176","co38290","norming","","","","","","",""
"null","../img/tt/1175tt.jpg","null","mooney2","image-keyboard-response","88","471581","0.0-6.0-5.11","2997176","co38290","norming","","","","","","",""
"5306.429999999644","","","post_reveal_questions","survey-likert","89","476890","0.0-6.0-6.11","2997176","co38290","norming","","","{""aha"":0}","[0]","../img/tt/1175tt.jpg","",""
"null","<div style=""font-size:60px;""> </div>","null","fixation","html-keyboard-response","90","477099","0.0-6.0-0.12","2997176","co38290","norming","","","","","","",""
"null","../img/tt/580tt.jpg","null","mooney1","image-keyboard-response","91","480111","0.0-6.0-1.12","2997176","co38290","norming","","","","","","",""
"5064.585000000079","","","post_mooney1_questions","survey-likert","92","485178","0.0-6.0-2.12","2997176","co38290","norming","","","{""curiosity"":6,""confidence"":1}","[0,1]","../img/tt/580tt.jpg","",""
"1893.9199999995762","","","recognition","survey-text","93","487073","0.0-6.0-3.12","2997176","co38290","norming","","","{""guess"":""tree""}","","../img/tt/580tt.jpg","",""
"null","../img/gs/580gs.jpg","null","reveal","image-keyboard-response","94","489075","0.0-6.0-4.12","2997176","co38290","norming","","","","","","",""
"null","../img/tt/580tt.jpg","null","mooney2","image-keyboard-response","95","491077","0.0-6.0-5.12","2997176","co38290","norming","","","","","","",""
"2258.17499999993","","","post_reveal_questions","survey-likert","96","493338","0.0-6.0-6.12","2997176","co38290","norming","","","{""aha"":3}","[0]","../img/tt/580tt.jpg","",""
"null","<div style=""font-size:60px;""> </div>","null","fixation","html-keyboard-response","97","493544","0.0-6.0-0.13","2997176","co38290","norming","","","","","","",""
"null","../img/tt/1237tt.jpg","null","mooney1","image-keyboard-response","98","496547","0.0-6.0-1.13","2997176","co38290","norming","","","","","","",""
"5174.135000000242","","","post_mooney1_questions","survey-likert","99","501722","0.0-6.0-2.13","2997176","co38290","norming","","","{""curiosity"":6,""confidence"":0}","[0,1]","../img/tt/1237tt.jpg","",""
"1574.029999999737","","","recognition","survey-text","100","503297","0.0-6.0-3.13","2997176","co38290","norming","","","{""guess"":""sea""}","","../img/tt/1237tt.jpg","",""
"null","../img/gs/1237gs.jpg","null","reveal","image-keyboard-response","101","505298","0.0-6.0-4.13","2997176","co38290","norming","","","","","","",""
"null","../img/tt/1237tt.jpg","null","mooney2","image-keyboard-response","102","507308","0.0-6.0-5.13","2997176","co38290","norming","","","","","","",""
"3308.3999999998487","","","post_reveal_questions","survey-likert","103","510621","0.0-6.0-6.13","2997176","co38290","norming","","","{""aha"":5}","[0]","../img/tt/1237tt.jpg","",""
"null","<div style=""font-size:60px;""> </div>","null","fixation","html-keyboard-response","104","510827","0.0-6.0-0.14","2997176","co38290","norming","","","","","","",""
"null","../img/tt/1080tt.jpg","null","mooney1","image-keyboard-response","105","513830","0.0-6.0-1.14","2997176","co38290","norming","","","","","","",""
"12755.425000000338","","","post_mooney1_questions","survey-likert","106","526589","0.0-6.0-2.14","2997176","co38290","norming","","","{""curiosity"":6,""confidence"":1}","[0,1]","../img/tt/1080tt.jpg","",""
"6486.445000000414","","","recognition","survey-text","107","533077","0.0-6.0-3.14","2997176","co38290","norming","","","{""guess"":""someone in the desert""}","","../img/tt/1080tt.jpg","",""
"null","../img/gs/1080gs.jpg","null","reveal","image-keyboard-response","108","535079","0.0-6.0-4.14","2997176","co38290","norming","","","","","","",""
"null","../img/tt/1080tt.jpg","null","mooney2","image-keyboard-response","109","537080","0.0-6.0-5.14","2997176","co38290","norming","","","","","","",""
"8770.679999999586","","","post_reveal_questions","survey-likert","110","545853","0.0-6.0-6.14","2997176","co38290","norming","","","{""aha"":0}","[0]","../img/tt/1080tt.jpg","",""
"null","<div style=""font-size:60px;""> </div>","null","fixation","html-keyboard-response","111","546062","0.0-6.0-0.15","2997176","co38290","norming","","","","","","",""
"null","../img/tt/080tt.jpg","null","mooney1","image-keyboard-response","112","549073","0.0-6.0-1.15","2997176","co38290","norming","","","","","","",""
"6282.99499999953","","","post_mooney1_questions","survey-likert","113","555357","0.0-6.0-2.15","2997176","co38290","norming","","","{""curiosity"":6,""confidence"":0}","[0,1]","../img/tt/080tt.jpg","",""
"1910.0250000001397","","","recognition","survey-text","114","557269","0.0-6.0-3.15","2997176","co38290","norming","","","{""guess"":""egg""}","","../img/tt/080tt.jpg","",""
"null","../img/gs/080gs.jpg","null","reveal","image-keyboard-response","115","559273","0.0-6.0-4.15","2997176","co38290","norming","","","","","","",""
"null","../img/tt/080tt.jpg","null","mooney2","image-keyboard-response","116","561279","0.0-6.0-5.15","2997176","co38290","norming","","","","","","",""
"2250.890000000247","","","post_reveal_questions","survey-likert","117","563533","0.0-6.0-6.15","2997176","co38290","norming","","","{""aha"":0}","[0]","../img/tt/080tt.jpg","",""
"null","<div style=""font-size:60px;""> </div>","null","fixation","html-keyboard-response","118","563738","0.0-6.0-0.16","2997176","co38290","norming","","","","","","",""
"null","../img/tt/1143tt.jpg","null","mooney1","image-keyboard-response","119","566744","0.0-6.0-1.16","2997176","co38290","norming","","","","","","",""
"5369.890000000014","","","post_mooney1_questions","survey-likert","120","572119","0.0-6.0-2.16","2997176","co38290","norming","","","{""curiosity"":5,""confidence"":1}","[0,1]","../img/tt/1143tt.jpg","",""
"2493.559999999823","","","recognition","survey-text","121","574615","0.0-6.0-3.16","2997176","co38290","norming","","","{""guess"":""cows""}","","../img/tt/1143tt.jpg","",""
"null","../img/gs/1143gs.jpg","null","reveal","image-keyboard-response","122","576622","0.0-6.0-4.16","2997176","co38290","norming","","","","","","",""
"null","../img/tt/1143tt.jpg","null","mooney2","image-keyboard-response","123","578624","0.0-6.0-5.16","2997176","co38290","norming","","","","","","",""
"2950.1600000002654","","","post_reveal_questions","survey-likert","124","581575","0.0-6.0-6.16","2997176","co38290","norming","","","{""aha"":1}","[0]","../img/tt/1143tt.jpg","",""
"null","<div style=""font-size:60px;""> </div>","null","fixation","html-keyboard-response","125","581783","0.0-6.0-0.17","2997176","co38290","norming","","","","","","",""
"null","../img/tt/1122tt.jpg","null","mooney1","image-keyboard-response","126","584790","0.0-6.0-1.17","2997176","co38290","norming","","","","","","",""
"9318.294999999925","","","post_mooney1_questions","survey-likert","127","594111","0.0-6.0-2.17","2997176","co38290","norming","","","{""curiosity"":4,""confidence"":3}","[0,1]","../img/tt/1122tt.jpg","",""
"1813.9899999996414","","","recognition","survey-text","128","595927","0.0-6.0-3.17","2997176","co38290","norming","","","{""guess"":""cars""}","","../img/tt/1122tt.jpg","",""
"null","../img/gs/1122gs.jpg","null","reveal","image-keyboard-response","129","597928","0.0-6.0-4.17","2997176","co38290","norming","","","","","","",""
"null","../img/tt/1122tt.jpg","null","mooney2","image-keyboard-response","130","599939","0.0-6.0-5.17","2997176","co38290","norming","","","","","","",""
"3473.814999999362","","","post_reveal_questions","survey-likert","131","603415","0.0-6.0-6.17","2997176","co38290","norming","","","{""aha"":2}","[0]","../img/tt/1122tt.jpg","",""
"null","<div style=""font-size:60px;""> </div>","null","fixation","html-keyboard-response","132","603622","0.0-6.0-0.18","2997176","co38290","norming","","","","","","",""
"null","../img/tt/1307tt.jpg","null","mooney1","image-keyboard-response","133","606632","0.0-6.0-1.18","2997176","co38290","norming","","","","","","",""
"5061.630000000121","","","post_mooney1_questions","survey-likert","134","611695","0.0-6.0-2.18","2997176","co38290","norming","","","{""curiosity"":5,""confidence"":2}","[0,1]","../img/tt/1307tt.jpg","",""
"8102.149999999674","","","recognition","survey-text","135","619799","0.0-6.0-3.18","2997176","co38290","norming","","","{""guess"":""building""}","","../img/tt/1307tt.jpg","",""
"null","../img/gs/1307gs.jpg","null","reveal","image-keyboard-response","136","621806","0.0-6.0-4.18","2997176","co38290","norming","","","","","","",""
"null","../img/tt/1307tt.jpg","null","mooney2","image-keyboard-response","137","623808","0.0-6.0-5.18","2997176","co38290","norming","","","","","","",""
"3020.389999999781","","","post_reveal_questions","survey-likert","138","626831","0.0-6.0-6.18","2997176","co38290","norming","","","{""aha"":0}","[0]","../img/tt/1307tt.jpg","",""
"null","<div style=""font-size:60px;""> </div>","null","fixation","html-keyboard-response","139","627036","0.0-6.0-0.19","2997176","co38290","norming","","","","","","",""
"null","../img/tt/1151tt.jpg","null","mooney1","image-keyboard-response","140","630039","0.0-6.0-1.19","2997176","co38290","norming","","","","","","",""
"7829.744999999995","","","post_mooney1_questions","survey-likert","141","637873","0.0-6.0-2.19","2997176","co38290","norming","","","{""curiosity"":5,""confidence"":0}","[0,1]","../img/tt/1151tt.jpg","",""
"2390.024999999674","","","recognition","survey-text","142","640265","0.0-6.0-3.19","2997176","co38290","norming","","","{""guess"":""sheep""}","","../img/tt/1151tt.jpg","",""
"null","../img/gs/1151gs.jpg","null","reveal","image-keyboard-response","143","642266","0.0-6.0-4.19","2997176","co38290","norming","","","","","","",""
"null","../img/tt/1151tt.jpg","null","mooney2","image-keyboard-response","144","644276","0.0-6.0-5.19","2997176","co38290","norming","","","","","","",""
"2428.4200000001583","","","post_reveal_questions","survey-likert","145","646705","0.0-6.0-6.19","2997176","co38290","norming","","","{""aha"":0}","[0]","../img/tt/1151tt.jpg","",""
"null","<div style=""font-size:60px;""> </div>","null","fixation","html-keyboard-response","146","646908","0.0-6.0-0.20","2997176","co38290","norming","","","","","","",""
"null","../img/tt/1247tt.jpg","null","mooney1","image-keyboard-response","147","649917","0.0-6.0-1.20","2997176","co38290","norming","","","","","","",""
"7976.990000000107","","","post_mooney1_questions","survey-likert","148","657897","0.0-6.0-2.20","2997176","co38290","norming","","","{""curiosity"":5,""confidence"":1}","[0,1]","../img/tt/1247tt.jpg","",""
"4526.260000000591","","","recognition","survey-text","149","662425","0.0-6.0-3.20","2997176","co38290","norming","","","{""guess"":""two women""}","","../img/tt/1247tt.jpg","",""
"null","../img/gs/1247gs.jpg","null","reveal","image-keyboard-response","150","664428","0.0-6.0-4.20","2997176","co38290","norming","","","","","","",""
"null","../img/tt/1247tt.jpg","null","mooney2","image-keyboard-response","151","666439","0.0-6.0-5.20","2997176","co38290","norming","","","","","","",""
"15296.690000000177","","","post_reveal_questions","survey-likert","152","681737","0.0-6.0-6.20","2997176","co38290","norming","","","{""aha"":0}","[0]","../img/tt/1247tt.jpg","",""
"null","<div style=""font-size:60px;""> </div>","null","fixation","html-keyboard-response","153","681939","0.0-6.0-0.21","2997176","co38290","norming","","","","","","",""
"null","../img/tt/013tt.jpg","null","mooney1","image-keyboard-response","154","684951","0.0-6.0-1.21","2997176","co38290","norming","","","","","","",""
"4297.520000000135","","","post_mooney1_questions","survey-likert","155","689249","0.0-6.0-2.21","2997176","co38290","norming","","","{""curiosity"":5,""confidence"":0}","[0,1]","../img/tt/013tt.jpg","",""
"1878.004999999539","","","recognition","survey-text","156","691129","0.0-6.0-3.21","2997176","co38290","norming","","","{""guess"":""face""}","","../img/tt/013tt.jpg","",""
"null","../img/gs/013gs.jpg","null","reveal","image-keyboard-response","157","693134","0.0-6.0-4.21","2997176","co38290","norming","","","","","","",""
"null","../img/tt/013tt.jpg","null","mooney2","image-keyboard-response","158","695138","0.0-6.0-5.21","2997176","co38290","norming","","","","","","",""
"3557.794999999809","","","post_reveal_questions","survey-likert","159","698698","0.0-6.0-6.21","2997176","co38290","norming","","","{""aha"":1}","[0]","../img/tt/013tt.jpg","",""
"null","<div style=""font-size:60px;""> </div>","null","fixation","html-keyboard-response","160","698903","0.0-6.0-0.22","2997176","co38290","norming","","","","","","",""
"null","../img/tt/1126tt.jpg","null","mooney1","image-keyboard-response","161","701909","0.0-6.0-1.22","2997176","co38290","norming","","","","","","",""
"9042.205000000657","","","post_mooney1_questions","survey-likert","162","710954","0.0-6.0-2.22","2997176","co38290","norming","","","{""curiosity"":3,""confidence"":1}","[0,1]","../img/tt/1126tt.jpg","",""
"5934.140000000363","","","recognition","survey-text","163","716890","0.0-6.0-3.22","2997176","co38290","norming","","","{""guess"":""mountain""}","","../img/tt/1126tt.jpg","",""
"null","../img/gs/1126gs.jpg","null","reveal","image-keyboard-response","164","718896","0.0-6.0-4.22","2997176","co38290","norming","","","","","","",""
"null","../img/tt/1126tt.jpg","null","mooney2","image-keyboard-response","165","720904","0.0-6.0-5.22","2997176","co38290","norming","","","","","","",""
"3287.54999999993","","","post_reveal_questions","survey-likert","166","724194","0.0-6.0-6.22","2997176","co38290","norming","","","{""aha"":5}","[0]","../img/tt/1126tt.jpg","",""
"null","<div style=""font-size:60px;""> </div>","null","fixation","html-keyboard-response","167","724395","0.0-6.0-0.23","2997176","co38290","norming","","","","","","",""
"null","../img/tt/598tt.jpg","null","mooney1","image-keyboard-response","168","727407","0.0-6.0-1.23","2997176","co38290","norming","","","","","","",""
"4327.809999999823","","","post_mooney1_questions","survey-likert","169","731738","0.0-6.0-2.23","2997176","co38290","norming","","","{""curiosity"":2,""confidence"":0}","[0,1]","../img/tt/598tt.jpg","",""
"1517.9849999995204","","","recognition","survey-text","170","733258","0.0-6.0-3.23","2997176","co38290","norming","","","{""guess"":""""}","","../img/tt/598tt.jpg","",""
"null","../img/gs/598gs.jpg","null","reveal","image-keyboard-response","171","735268","0.0-6.0-4.23","2997176","co38290","norming","","","","","","",""
"null","../img/tt/598tt.jpg","null","mooney2","image-keyboard-response","172","737279","0.0-6.0-5.23","2997176","co38290","norming","","","","","","",""
"2657.0250000003725","","","post_reveal_questions","survey-likert","173","739938","0.0-6.0-6.23","2997176","co38290","norming","","","{""aha"":1}","[0]","../img/tt/598tt.jpg","",""
"null","<div style=""font-size:60px;""> </div>","null","fixation","html-keyboard-response","174","740144","0.0-6.0-0.24","2997176","co38290","norming","","","","","","",""
"null","../img/tt/1107tt.jpg","null","mooney1","image-keyboard-response","175","743150","0.0-6.0-1.24","2997176","co38290","norming","","","","","","",""
"7481.58000000054","","","post_mooney1_questions","survey-likert","176","750634","0.0-6.0-2.24","2997176","co38290","norming","","","{""curiosity"":4,""confidence"":1}","[0,1]","../img/tt/1107tt.jpg","",""
"3485.990000000107","","","recognition","survey-text","177","754122","0.0-6.0-3.24","2997176","co38290","norming","","","{""guess"":""nijlpaard""}","","../img/tt/1107tt.jpg","",""
"null","../img/gs/1107gs.jpg","null","reveal","image-keyboard-response","178","756123","0.0-6.0-4.24","2997176","co38290","norming","","","","","","",""
"null","../img/tt/1107tt.jpg","null","mooney2","image-keyboard-response","179","758132","0.0-6.0-5.24","2997176","co38290","norming","","","","","","",""
"2779.435000000405","","","post_reveal_questions","survey-likert","180","760914","0.0-6.0-6.24","2997176","co38290","norming","","","{""aha"":1}","[0]","../img/tt/1107tt.jpg","",""
"null","<div style=""font-size:60px;""> </div>","null","fixation","html-keyboard-response","181","761117","0.0-6.0-0.25","2997176","co38290","norming","","","","","","",""
"null","../img/tt/412tt.jpg","null","mooney1","image-keyboard-response","182","764124","0.0-6.0-1.25","2997176","co38290","norming","","","","","","",""
"5771.190000000293","","","post_mooney1_questions","survey-likert","183","769898","0.0-6.0-2.25","2997176","co38290","norming","","","{""curiosity"":4,""confidence"":2}","[0,1]","../img/tt/412tt.jpg","",""
"6110.385000000009","","","recognition","survey-text","184","776010","0.0-6.0-3.25","2997176","co38290","norming","","","{""guess"":""a man shooting""}","","../img/tt/412tt.jpg","",""
"null","../img/gs/412gs.jpg","null","reveal","image-keyboard-response","185","778013","0.0-6.0-4.25","2997176","co38290","norming","","","","","","",""
"null","../img/tt/412tt.jpg","null","mooney2","image-keyboard-response","186","780015","0.0-6.0-5.25","2997176","co38290","norming","","","","","","",""
"2657.5400000001537","","","post_reveal_questions","survey-likert","187","782674","0.0-6.0-6.25","2997176","co38290","norming","","","{""aha"":0}","[0]","../img/tt/412tt.jpg","",""
"null","<div style=""font-size:60px;""> </div>","null","fixation","html-keyboard-response","188","782876","0.0-6.0-0.26","2997176","co38290","norming","","","","","","",""
"null","../img/tt/1154tt.jpg","null","mooney1","image-keyboard-response","189","785880","0.0-6.0-1.26","2997176","co38290","norming","","","","","","",""
"4159.910000000265","","","post_mooney1_questions","survey-likert","190","790042","0.0-6.0-2.26","2997176","co38290","norming","","","{""curiosity"":3,""confidence"":3}","[0,1]","../img/tt/1154tt.jpg","",""
"7326.195000000531","","","recognition","survey-text","191","797370","0.0-6.0-3.26","2997176","co38290","norming","","","{""guess"":""kano varen""}","","../img/tt/1154tt.jpg","",""
"null","../img/gs/1154gs.jpg","null","reveal","image-keyboard-response","192","799372","0.0-6.0-4.26","2997176","co38290","norming","","","","","","",""
"null","../img/tt/1154tt.jpg","null","mooney2","image-keyboard-response","193","801382","0.0-6.0-5.26","2997176","co38290","norming","","","","","","",""
"3473.2599999997765","","","post_reveal_questions","survey-likert","194","804858","0.0-6.0-6.26","2997176","co38290","norming","","","{""aha"":6}","[0]","../img/tt/1154tt.jpg","",""
"null","<div style=""font-size:60px;""> </div>","null","fixation","html-keyboard-response","195","805063","0.0-6.0-0.27","2997176","co38290","norming","","","","","","",""
"null","../img/tt/319tt.jpg","null","mooney1","image-keyboard-response","196","808072","0.0-6.0-1.27","2997176","co38290","norming","","","","","","",""
"4983.755000000121","","","post_mooney1_questions","survey-likert","197","813058","0.0-6.0-2.27","2997176","co38290","norming","","","{""curiosity"":2,""confidence"":3}","[0,1]","../img/tt/319tt.jpg","",""
"2550.6699999995762","","","recognition","survey-text","198","815610","0.0-6.0-3.27","2997176","co38290","norming","","","{""guess"":""cows""}","","../img/tt/319tt.jpg","",""
"null","../img/gs/319gs.jpg","null","reveal","image-keyboard-response","199","817612","0.0-6.0-4.27","2997176","co38290","norming","","","","","","",""
"null","../img/tt/319tt.jpg","null","mooney2","image-keyboard-response","200","819613","0.0-6.0-5.27","2997176","co38290","norming","","","","","","",""
"2466.3000000000466","","","post_reveal_questions","survey-likert","201","822082","0.0-6.0-6.27","2997176","co38290","norming","","","{""aha"":3}","[0]","../img/tt/319tt.jpg","",""
"null","<div style=""font-size:60px;""> </div>","null","fixation","html-keyboard-response","202","822284","0.0-6.0-0.28","2997176","co38290","norming","","","","","","",""
"null","../img/tt/118tt.jpg","null","mooney1","image-keyboard-response","203","825287","0.0-6.0-1.28","2997176","co38290","norming","","","","","","",""
"4671.95999999973","","","post_mooney1_questions","survey-likert","204","829962","0.0-6.0-2.28","2997176","co38290","norming","","","{""curiosity"":3,""confidence"":1}","[0,1]","../img/tt/118tt.jpg","",""
"2334.130000000121","","","recognition","survey-text","205","832298","0.0-6.0-3.28","2997176","co38290","norming","","","{""guess"":""bench""}","","../img/tt/118tt.jpg","",""
"null","../img/gs/118gs.jpg","null","reveal","image-keyboard-response","206","834309","0.0-6.0-4.28","2997176","co38290","norming","","","","","","",""
"null","../img/tt/118tt.jpg","null","mooney2","image-keyboard-response","207","836310","0.0-6.0-5.28","2997176","co38290","norming","","","","","","",""
"2786.4649999991525","","","post_reveal_questions","survey-likert","208","839098","0.0-6.0-6.28","2997176","co38290","norming","","","{""aha"":3}","[0]","../img/tt/118tt.jpg","",""
"null","<div style=""font-size:60px;""> </div>","null","fixation","html-keyboard-response","209","839301","0.0-6.0-0.29","2997176","co38290","norming","","","","","","",""
"null","../img/tt/456tt.jpg","null","mooney1","image-keyboard-response","210","842307","0.0-6.0-1.29","2997176","co38290","norming","","","","","","",""
"4564.410000000033","","","post_mooney1_questions","survey-likert","211","846874","0.0-6.0-2.29","2997176","co38290","norming","","","{""curiosity"":2,""confidence"":1}","[0,1]","../img/tt/456tt.jpg","",""
"3006.1199999999953","","","recognition","survey-text","212","849882","0.0-6.0-3.29","2997176","co38290","norming","","","{""guess"":""child""}","","../img/tt/456tt.jpg","",""
"null","../img/gs/456gs.jpg","null","reveal","image-keyboard-response","213","851883","0.0-6.0-4.29","2997176","co38290","norming","","","","","","",""
"null","../img/tt/456tt.jpg","null","mooney2","image-keyboard-response","214","853885","0.0-6.0-5.29","2997176","co38290","norming","","","","","","",""
"2506.600000000675","","","post_reveal_questions","survey-likert","215","856394","0.0-6.0-6.29","2997176","co38290","norming","","","{""aha"":0}","[0]","../img/tt/456tt.jpg","",""
"null","<div style=""font-size:60px;""> </div>","null","fixation","html-keyboard-response","216","856600","0.0-6.0-0.30","2997176","co38290","norming","","","","","","",""
"null","../img/tt/1205tt.jpg","null","mooney1","image-keyboard-response","217","859607","0.0-6.0-1.30","2997176","co38290","norming","","","","","","",""
"9824.219999999506","","","post_mooney1_questions","survey-likert","218","869434","0.0-6.0-2.30","2997176","co38290","norming","","","{""curiosity"":6,""confidence"":2}","[0,1]","../img/tt/1205tt.jpg","",""
"3742.139999999432","","","recognition","survey-text","219","873178","0.0-6.0-3.30","2997176","co38290","norming","","","{""guess"":""people praying""}","","../img/tt/1205tt.jpg","",""
"null","../img/gs/1205gs.jpg","null","reveal","image-keyboard-response","220","875181","0.0-6.0-4.30","2997176","co38290","norming","","","","","","",""
"null","../img/tt/1205tt.jpg","null","mooney2","image-keyboard-response","221","877184","0.0-6.0-5.30","2997176","co38290","norming","","","","","","",""
"20321.45500000019","","","post_reveal_questions","survey-likert","222","897504","0.0-6.0-6.30","2997176","co38290","norming","","","{""aha"":1}","[0]","../img/tt/1205tt.jpg","",""
"null","<div style=""font-size:60px;""> </div>","null","fixation","html-keyboard-response","223","897707","0.0-6.0-0.31","2997176","co38290","norming","","","","","","",""
"null","../img/tt/1227tt.jpg","null","mooney1","image-keyboard-response","224","900714","0.0-6.0-1.31","2997176","co38290","norming","","","","","","",""
"4844.804999999702","","","post_mooney1_questions","survey-likert","225","905560","0.0-6.0-2.31","2997176","co38290","norming","","","{""curiosity"":2,""confidence"":0}","[0,1]","../img/tt/1227tt.jpg","",""
"798.2099999999627","","","recognition","survey-text","226","906360","0.0-6.0-3.31","2997176","co38290","norming","","","{""guess"":""""}","","../img/tt/1227tt.jpg","",""
"null","../img/gs/1227gs.jpg","null","reveal","image-keyboard-response","227","908364","0.0-6.0-4.31","2997176","co38290","norming","","","","","","",""
"null","../img/tt/1227tt.jpg","null","mooney2","image-keyboard-response","228","910367","0.0-6.0-5.31","2997176","co38290","norming","","","","","","",""
"3998.524999999907","","","post_reveal_questions","survey-likert","229","914368","0.0-6.0-6.31","2997176","co38290","norming","","","{""aha"":0}","[0]","../img/tt/1227tt.jpg","",""
"null","<div style=""font-size:60px;""> </div>","null","fixation","html-keyboard-response","230","914570","0.0-6.0-0.32","2997176","co38290","norming","","","","","","",""
"null","../img/tt/1254tt.jpg","null","mooney1","image-keyboard-response","231","917571","0.0-6.0-1.32","2997176","co38290","norming","","","","","","",""
"5360.584999999497","","","post_mooney1_questions","survey-likert","232","922936","0.0-6.0-2.32","2997176","co38290","norming","","","{""curiosity"":1,""confidence"":1}","[0,1]","../img/tt/1254tt.jpg","",""
"1789.9049999996787","","","recognition","survey-text","233","924728","0.0-6.0-3.32","2997176","co38290","norming","","","{""guess"":""horse""}","","../img/tt/1254tt.jpg","",""
"null","../img/gs/1254gs.jpg","null","reveal","image-keyboard-response","234","926735","0.0-6.0-4.32","2997176","co38290","norming","","","","","","",""
"null","../img/tt/1254tt.jpg","null","mooney2","image-keyboard-response","235","928746","0.0-6.0-5.32","2997176","co38290","norming","","","","","","",""
"2571.5849999996135","","","post_reveal_questions","survey-likert","236","931320","0.0-6.0-6.32","2997176","co38290","norming","","","{""aha"":0}","[0]","../img/tt/1254tt.jpg","",""
"null","<div style=""font-size:60px;""> </div>","null","fixation","html-keyboard-response","237","931521","0.0-6.0-0.33","2997176","co38290","norming","","","","","","",""
"null","../img/tt/1156tt.jpg","null","mooney1","image-keyboard-response","238","934528","0.0-6.0-1.33","2997176","co38290","norming","","","","","","",""
"6533.26500000013","","","post_mooney1_questions","survey-likert","239","941064","0.0-6.0-2.33","2997176","co38290","norming","","","{""curiosity"":1,""confidence"":4}","[0,1]","../img/tt/1156tt.jpg","",""
"3981.8999999997905","","","recognition","survey-text","240","945048","0.0-6.0-3.33","2997176","co38290","norming","","","{""guess"":""woman bikini""}","","../img/tt/1156tt.jpg","",""
"null","../img/gs/1156gs.jpg","null","reveal","image-keyboard-response","241","947053","0.0-6.0-4.33","2997176","co38290","norming","","","","","","",""
"null","../img/tt/1156tt.jpg","null","mooney2","image-keyboard-response","242","949065","0.0-6.0-5.33","2997176","co38290","norming","","","","","","",""
"4356.670000000158","","","post_reveal_questions","survey-likert","243","953424","0.0-6.0-6.33","2997176","co38290","norming","","","{""aha"":4}","[0]","../img/tt/1156tt.jpg","",""
"null","<div style=""font-size:60px;""> </div>","null","fixation","html-keyboard-response","244","953630","0.0-6.0-0.34","2997176","co38290","norming","","","","","","",""
"null","../img/tt/1125tt.jpg","null","mooney1","image-keyboard-response","245","956636","0.0-6.0-1.34","2997176","co38290","norming","","","","","","",""
"8981.389999999898","","","post_mooney1_questions","survey-likert","246","965618","0.0-6.0-2.34","2997176","co38290","norming","","","{""curiosity"":3,""confidence"":3}","[0,1]","../img/tt/1125tt.jpg","",""
"2550.255000000121","","","recognition","survey-text","247","968170","0.0-6.0-3.34","2997176","co38290","norming","","","{""guess"":""child""}","","../img/tt/1125tt.jpg","",""
"null","../img/gs/1125gs.jpg","null","reveal","image-keyboard-response","248","970172","0.0-6.0-4.34","2997176","co38290","norming","","","","","","",""
"null","../img/tt/1125tt.jpg","null","mooney2","image-keyboard-response","249","972182","0.0-6.0-5.34","2997176","co38290","norming","","","","","","",""
"3058.1400000001304","","","post_reveal_questions","survey-likert","250","975242","0.0-6.0-6.34","2997176","co38290","norming","","","{""aha"":1}","[0]","../img/tt/1125tt.jpg","",""
"null","<div style=""font-size:60px;""> </div>","null","fixation","html-keyboard-response","251","975444","0.0-6.0-0.35","2997176","co38290","norming","","","","","","",""
"null","../img/tt/020tt.jpg","null","mooney1","image-keyboard-response","252","978451","0.0-6.0-1.35","2997176","co38290","norming","","","","","","",""
"5092.520000000135","","","post_mooney1_questions","survey-likert","253","983546","0.0-6.0-2.35","2997176","co38290","norming","","","{""curiosity"":0,""confidence"":0}","[0,1]","../img/tt/020tt.jpg","",""
"1030.039999999688","","","recognition","survey-text","254","984578","0.0-6.0-3.35","2997176","co38290","norming","","","{""guess"":""""}","","../img/tt/020tt.jpg","",""
"null","../img/gs/020gs.jpg","null","reveal","image-keyboard-response","255","986580","0.0-6.0-4.35","2997176","co38290","norming","","","","","","",""
"null","../img/tt/020tt.jpg","null","mooney2","image-keyboard-response","256","988584","0.0-6.0-5.35","2997176","co38290","norming","","","","","","",""
"5793.174999999697","","","post_reveal_questions","survey-likert","257","994378","0.0-6.0-6.35","2997176","co38290","norming","","","{""aha"":0}","[0]","../img/tt/020tt.jpg","",""
"null","<div style=""font-size:60px;""> </div>","null","fixation","html-keyboard-response","258","994581","0.0-6.0-0.36","2997176","co38290","norming","","","","","","",""
"null","../img/tt/1268tt.jpg","null","mooney1","image-keyboard-response","259","997583","0.0-6.0-1.36","2997176","co38290","norming","","","","","","",""
"5352.264999999548","","","post_mooney1_questions","survey-likert","260","1002939","0.0-6.0-2.36","2997176","co38290","norming","","","{""curiosity"":1,""confidence"":0}","[0,1]","../img/tt/1268tt.jpg","",""
"1237.985000000568","","","recognition","survey-text","261","1004178","0.0-6.0-3.36","2997176","co38290","norming","","","{""guess"":""""}","","../img/tt/1268tt.jpg","",""
"null","../img/gs/1268gs.jpg","null","reveal","image-keyboard-response","262","1006182","0.0-6.0-4.36","2997176","co38290","norming","","","","","","",""
"null","../img/tt/1268tt.jpg","null","mooney2","image-keyboard-response","263","1008186","0.0-6.0-5.36","2997176","co38290","norming","","","","","","",""
"3525.335000000312","","","post_reveal_questions","survey-likert","264","1011714","0.0-6.0-6.36","2997176","co38290","norming","","","{""aha"":0}","[0]","../img/tt/1268tt.jpg","",""
"null","<div style=""font-size:60px;""> </div>","null","fixation","html-keyboard-response","265","1011916","0.0-6.0-0.37","2997176","co38290","norming","","","","","","",""
"null","../img/tt/010tt.jpg","null","mooney1","image-keyboard-response","266","1014924","0.0-6.0-1.37","2997176","co38290","norming","","","","","","",""
"7059.419999999576","","","post_mooney1_questions","survey-likert","267","1021984","0.0-6.0-2.37","2997176","co38290","norming","","","{""curiosity"":1,""confidence"":0}","[0,1]","../img/tt/010tt.jpg","",""
"2934.0949999995064","","","recognition","survey-text","268","1024920","0.0-6.0-3.37","2997176","co38290","norming","","","{""guess"":""ghost""}","","../img/tt/010tt.jpg","",""
"null","../img/gs/010gs.jpg","null","reveal","image-keyboard-response","269","1026922","0.0-6.0-4.37","2997176","co38290","norming","","","","","","",""
"null","../img/tt/010tt.jpg","null","mooney2","image-keyboard-response","270","1028924","0.0-6.0-5.37","2997176","co38290","norming","","","","","","",""
"2098.070000000065","","","post_reveal_questions","survey-likert","271","1031024","0.0-6.0-6.37","2997176","co38290","norming","","","{""aha"":1}","[0]","../img/tt/010tt.jpg","",""
"null","<div style=""font-size:60px;""> </div>","null","fixation","html-keyboard-response","272","1031234","0.0-6.0-0.38","2997176","co38290","norming","","","","","","",""
"null","../img/tt/1362tt.jpg","null","mooney1","image-keyboard-response","273","1034238","0.0-6.0-1.38","2997176","co38290","norming","","","","","","",""
"8991.674999999348","","","post_mooney1_questions","survey-likert","274","1043232","0.0-6.0-2.38","2997176","co38290","norming","","","{""curiosity"":2,""confidence"":2}","[0,1]","../img/tt/1362tt.jpg","",""
"2566.0899999993853","","","recognition","survey-text","275","1045800","0.0-6.0-3.38","2997176","co38290","norming","","","{""guess"":""cooking""}","","../img/tt/1362tt.jpg","",""
"null","../img/gs/1362gs.jpg","null","reveal","image-keyboard-response","276","1047802","0.0-6.0-4.38","2997176","co38290","norming","","","","","","",""
"null","../img/tt/1362tt.jpg","null","mooney2","image-keyboard-response","277","1049810","0.0-6.0-5.38","2997176","co38290","norming","","","","","","",""
"2818.7349999998696","","","post_reveal_questions","survey-likert","278","1052632","0.0-6.0-6.38","2997176","co38290","norming","","","{""aha"":5}","[0]","../img/tt/1362tt.jpg","",""
"null","<div style=""font-size:60px;""> </div>","null","fixation","html-keyboard-response","279","1052839","0.0-6.0-0.39","2997176","co38290","norming","","","","","","",""
"null","../img/tt/1275tt.jpg","null","mooney1","image-keyboard-response","280","1055843","0.0-6.0-1.39","2997176","co38290","norming","","","","","","",""
"4017.804999999469","","","post_mooney1_questions","survey-likert","281","1059864","0.0-6.0-2.39","2997176","co38290","norming","","","{""curiosity"":4,""confidence"":1}","[0,1]","../img/tt/1275tt.jpg","",""
"2574.375000000233","","","recognition","survey-text","282","1062440","0.0-6.0-3.39","2997176","co38290","norming","","","{""guess"":""angry face""}","","../img/tt/1275tt.jpg","",""
"null","../img/gs/1275gs.jpg","null","reveal","image-keyboard-response","283","1064442","0.0-6.0-4.39","2997176","co38290","norming","","","","","","",""
"null","../img/tt/1275tt.jpg","null","mooney2","image-keyboard-response","284","1066447","0.0-6.0-5.39","2997176","co38290","norming","","","","","","",""
"4918.26999999932","","","post_reveal_questions","survey-likert","285","1071368","0.0-6.0-6.39","2997176","co38290","norming","","","{""aha"":0}","[0]","../img/tt/1275tt.jpg","",""
"null","<div style=""font-size:60px;""> </div>","null","fixation","html-keyboard-response","286","1071575","0.0-6.0-0.40","2997176","co38290","norming","","","","","","",""
"null","../img/tt/552tt.jpg","null","mooney1","image-keyboard-response","287","1074579","0.0-6.0-1.40","2997176","co38290","norming","","","","","","",""
"5467.880000000354","","","post_mooney1_questions","survey-likert","288","1080048","0.0-6.0-2.40","2997176","co38290","norming","","","{""curiosity"":1,""confidence"":3}","[0,1]","../img/tt/552tt.jpg","",""
"3334.130000000354","","","recognition","survey-text","289","1083384","0.0-6.0-3.40","2997176","co38290","norming","","","{""guess"":""squirrel""}","","../img/tt/552tt.jpg","",""
"null","../img/gs/552gs.jpg","null","reveal","image-keyboard-response","290","1085391","0.0-6.0-4.40","2997176","co38290","norming","","","","","","",""
"null","../img/tt/552tt.jpg","null","mooney2","image-keyboard-response","291","1087402","0.0-6.0-5.40","2997176","co38290","norming","","","","","","",""
"2627.6549999993294","","","post_reveal_questions","survey-likert","292","1090032","0.0-6.0-6.40","2997176","co38290","norming","","","{""aha"":5}","[0]","../img/tt/552tt.jpg","",""
"null","<div style=""font-size:60px;""> </div>","null","fixation","html-keyboard-response","293","1090240","0.0-6.0-0.41","2997176","co38290","norming","","","","","","",""
"null","../img/tt/1037tt.jpg","null","mooney1","image-keyboard-response","294","1093249","0.0-6.0-1.41","2997176","co38290","norming","","","","","","",""
"3203.730000000214","","","post_mooney1_questions","survey-likert","295","1096456","0.0-6.0-2.41","2997176","co38290","norming","","","{""curiosity"":1,""confidence"":1}","[0,1]","../img/tt/1037tt.jpg","",""
"750.0550000004005","","","recognition","survey-text","296","1097208","0.0-6.0-3.41","2997176","co38290","norming","","","{""guess"":""""}","","../img/tt/1037tt.jpg","",""
"null","../img/gs/1037gs.jpg","null","reveal","image-keyboard-response","297","1099209","0.0-6.0-4.41","2997176","co38290","norming","","","","","","",""
"null","../img/tt/1037tt.jpg","null","mooney2","image-keyboard-response","298","1101211","0.0-6.0-5.41","2997176","co38290","norming","","","","","","",""
"4218.039999999804","","","post_reveal_questions","survey-likert","299","1105432","0.0-6.0-6.41","2997176","co38290","norming","","","{""aha"":4}","[0]","../img/tt/1037tt.jpg","",""
"null","<div style=""font-size:60px;""> </div>","null","fixation","html-keyboard-response","300","1105641","0.0-6.0-0.42","2997176","co38290","norming","","","","","","",""
"null","../img/tt/1250tt.jpg","null","mooney1","image-keyboard-response","301","1108648","0.0-6.0-1.42","2997176","co38290","norming","","","","","","",""
"3990.350000000093","","","post_mooney1_questions","survey-likert","302","1112640","0.0-6.0-2.42","2997176","co38290","norming","","","{""curiosity"":3,""confidence"":3}","[0,1]","../img/tt/1250tt.jpg","",""
"2582.390000000596","","","recognition","survey-text","303","1115224","0.0-6.0-3.42","2997176","co38290","norming","","","{""guess"":""zeehonden""}","","../img/tt/1250tt.jpg","",""
"null","../img/gs/1250gs.jpg","null","reveal","image-keyboard-response","304","1117226","0.0-6.0-4.42","2997176","co38290","norming","","","","","","",""
"null","../img/tt/1250tt.jpg","null","mooney2","image-keyboard-response","305","1119229","0.0-6.0-5.42","2997176","co38290","norming","","","","","","",""
"19174.099999999395","","","post_reveal_questions","survey-likert","306","1138408","0.0-6.0-6.42","2997176","co38290","norming","","","{""aha"":1}","[0]","../img/tt/1250tt.jpg","",""
"null","<div style=""font-size:60px;""> </div>","null","fixation","html-keyboard-response","307","1138618","0.0-6.0-0.43","2997176","co38290","norming","","","","","","",""
"null","../img/tt/1070tt.jpg","null","mooney1","image-keyboard-response","308","1141625","0.0-6.0-1.43","2997176","co38290","norming","","","","","","",""
"6127.270000000019","","","post_mooney1_questions","survey-likert","309","1147755","0.0-6.0-2.43","2997176","co38290","norming","","","{""curiosity"":6,""confidence"":1}","[0,1]","../img/tt/1070tt.jpg","",""
"3102.149999999907","","","recognition","survey-text","310","1150859","0.0-6.0-3.43","2997176","co38290","norming","","","{""guess"":""taco""}","","../img/tt/1070tt.jpg","",""
"null","../img/gs/1070gs.jpg","null","reveal","image-keyboard-response","311","1152861","0.0-6.0-4.43","2997176","co38290","norming","","","","","","",""
"null","../img/tt/1070tt.jpg","null","mooney2","image-keyboard-response","312","1154864","0.0-6.0-5.43","2997176","co38290","norming","","","","","","",""
"39527.84500000067","","","post_reveal_questions","survey-likert","313","1194395","0.0-6.0-6.43","2997176","co38290","norming","","","{""aha"":1}","[0]","../img/tt/1070tt.jpg","",""
"null","<div style=""font-size:60px;""> </div>","null","fixation","html-keyboard-response","314","1194597","0.0-6.0-0.44","2997176","co38290","norming","","","","","","",""
"null","../img/tt/329tt.jpg","null","mooney1","image-keyboard-response","315","1197603","0.0-6.0-1.44","2997176","co38290","norming","","","","","","",""
"5997.015000000829","","","post_mooney1_questions","survey-likert","316","1203596","0.0-6.0-2.44","2997176","co38290","norming","","","{""curiosity"":3,""confidence"":0}","[0,1]","../img/tt/329tt.jpg","",""
"2214.239999999525","","","recognition","survey-text","317","1205812","0.0-6.0-3.44","2997176","co38290","norming","","","{""guess"":""""}","","../img/tt/329tt.jpg","",""
"null","../img/gs/329gs.jpg","null","reveal","image-keyboard-response","318","1207820","0.0-6.0-4.44","2997176","co38290","norming","","","","","","",""
"null","../img/tt/329tt.jpg","null","mooney2","image-keyboard-response","319","1209824","0.0-6.0-5.44","2997176","co38290","norming","","","","","","",""
"2360.864999999525","","","post_reveal_questions","survey-likert","320","1212188","0.0-6.0-6.44","2997176","co38290","norming","","","{""aha"":0}","[0]","../img/tt/329tt.jpg","",""
"null","<div style=""font-size:60px;""> </div>","null","fixation","html-keyboard-response","321","1212395","0.0-6.0-0.45","2997176","co38290","norming","","","","","","",""
"null","../img/tt/477tt.jpg","null","mooney1","image-keyboard-response","322","1215402","0.0-6.0-1.45","2997176","co38290","norming","","","","","","",""
"5185.0649999994785","","","post_mooney1_questions","survey-likert","323","1220588","0.0-6.0-2.45","2997176","co38290","norming","","","{""curiosity"":0,""confidence"":0}","[0,1]","../img/tt/477tt.jpg","",""
"798.0150000001304","","","recognition","survey-text","324","1221388","0.0-6.0-3.45","2997176","co38290","norming","","","{""guess"":""""}","","../img/tt/477tt.jpg","",""
"null","../img/gs/477gs.jpg","null","reveal","image-keyboard-response","325","1223390","0.0-6.0-4.45","2997176","co38290","norming","","","","","","",""
"null","../img/tt/477tt.jpg","null","mooney2","image-keyboard-response","326","1225394","0.0-6.0-5.45","2997176","co38290","norming","","","","","","",""
"2960.7450000003446","","","post_reveal_questions","survey-likert","327","1228356","0.0-6.0-6.45","2997176","co38290","norming","","","{""aha"":0}","[0]","../img/tt/477tt.jpg","",""
"null","<div style=""font-size:60px;""> </div>","null","fixation","html-keyboard-response","328","1228560","0.0-6.0-0.46","2997176","co38290","norming","","","","","","",""
"null","../img/tt/584tt.jpg","null","mooney1","image-keyboard-response","329","1231566","0.0-6.0-1.46","2997176","co38290","norming","","","","","","",""
"4218.780000000261","","","post_mooney1_questions","survey-likert","330","1235788","0.0-6.0-2.46","2997176","co38290","norming","","","{""curiosity"":4,""confidence"":1}","[0,1]","../img/tt/584tt.jpg","",""
"2966.3700000001118","","","recognition","survey-text","331","1238756","0.0-6.0-3.46","2997176","co38290","norming","","","{""guess"":""flower""}","","../img/tt/584tt.jpg","",""
"null","../img/gs/584gs.jpg","null","reveal","image-keyboard-response","332","1240762","0.0-6.0-4.46","2997176","co38290","norming","","","","","","",""
"null","../img/tt/584tt.jpg","null","mooney2","image-keyboard-response","333","1242772","0.0-6.0-5.46","2997176","co38290","norming","","","","","","",""
"2765.5200000000186","","","post_reveal_questions","survey-likert","334","1245540","0.0-6.0-6.46","2997176","co38290","norming","","","{""aha"":0}","[0]","../img/tt/584tt.jpg","",""
"null","<div style=""font-size:60px;""> </div>","null","fixation","html-keyboard-response","335","1245741","0.0-6.0-0.47","2997176","co38290","norming","","","","","","",""
"null","../img/tt/1116tt.jpg","null","mooney1","image-keyboard-response","336","1248743","0.0-6.0-1.47","2997176","co38290","norming","","","","","","",""
"3377.749999999767","","","post_mooney1_questions","survey-likert","337","1252124","0.0-6.0-2.47","2997176","co38290","norming","","","{""curiosity"":4,""confidence"":1}","[0,1]","../img/tt/1116tt.jpg","",""
"1989.6199999991804","","","recognition","survey-text","338","1254116","0.0-6.0-3.47","2997176","co38290","norming","","","{""guess"":""beach""}","","../img/tt/1116tt.jpg","",""
"null","../img/gs/1116gs.jpg","null","reveal","image-keyboard-response","339","1256117","0.0-6.0-4.47","2997176","co38290","norming","","","","","","",""
"null","../img/tt/1116tt.jpg","null","mooney2","image-keyboard-response","340","1258124","0.0-6.0-5.47","2997176","co38290","norming","","","","","","",""
"1837.95999999973","","","post_reveal_questions","survey-likert","341","1259964","0.0-6.0-6.47","2997176","co38290","norming","","","{""aha"":0}","[0]","../img/tt/1116tt.jpg","",""
"null","<div style=""font-size:60px;""> </div>","null","fixation","html-keyboard-response","342","1260175","0.0-6.0-0.48","2997176","co38290","norming","","","","","","",""
"null","../img/tt/163tt.jpg","null","mooney1","image-keyboard-response","343","1263187","0.0-6.0-1.48","2997176","co38290","norming","","","","","","",""
"4885.655000000028","","","post_mooney1_questions","survey-likert","344","1268076","0.0-6.0-2.48","2997176","co38290","norming","","","{""curiosity"":1,""confidence"":0}","[0,1]","../img/tt/163tt.jpg","",""
"2142.2899999998044","","","recognition","survey-text","345","1270220","0.0-6.0-3.48","2997176","co38290","norming","","","{""guess"":""ghosts""}","","../img/tt/163tt.jpg","",""
"null","../img/gs/163gs.jpg","null","reveal","image-keyboard-response","346","1272222","0.0-6.0-4.48","2997176","co38290","norming","","","","","","",""
"null","../img/tt/163tt.jpg","null","mooney2","image-keyboard-response","347","1274231","0.0-6.0-5.48","2997176","co38290","norming","","","","","","",""
"2602.6550000007264","","","post_reveal_questions","survey-likert","348","1276836","0.0-6.0-6.48","2997176","co38290","norming","","","{""aha"":0}","[0]","../img/tt/163tt.jpg","",""
"null","<div style=""font-size:60px;""> </div>","null","fixation","html-keyboard-response","349","1277044","0.0-6.0-0.49","2997176","co38290","norming","","","","","","",""
"null","../img/tt/1027tt.jpg","null","mooney1","image-keyboard-response","350","1280050","0.0-6.0-1.49","2997176","co38290","norming","","","","","","",""
"3703.3849999997765","","","post_mooney1_questions","survey-likert","351","1283756","0.0-6.0-2.49","2997176","co38290","norming","","","{""curiosity"":3,""confidence"":1}","[0,1]","../img/tt/1027tt.jpg","",""
"2158.304999999935","","","recognition","survey-text","352","1285916","0.0-6.0-3.49","2997176","co38290","norming","","","{""guess"":""horses""}","","../img/tt/1027tt.jpg","",""
"null","../img/gs/1027gs.jpg","null","reveal","image-keyboard-response","353","1287918","0.0-6.0-4.49","2997176","co38290","norming","","","","","","",""
"null","../img/tt/1027tt.jpg","null","mooney2","image-keyboard-response","354","1289924","0.0-6.0-5.49","2997176","co38290","norming","","","","","","",""
"1957.0749999994878","","","post_reveal_questions","survey-likert","355","1291884","0.0-6.0-6.49","2997176","co38290","norming","","","{""aha"":1}","[0]","../img/tt/1027tt.jpg","",""
"null","<div style=""font-size:60px;""> </div>","null","fixation","html-keyboard-response","356","1292093","0.0-6.0-0.50","2997176","co38290","norming","","","","","","",""
"null","../img/tt/1202tt.jpg","null","mooney1","image-keyboard-response","357","1295097","0.0-6.0-1.50","2997176","co38290","norming","","","","","","",""
"8378.080000000307","","","post_mooney1_questions","survey-likert","358","1303476","0.0-6.0-2.50","2997176","co38290","norming","","","{""curiosity"":0,""confidence"":0}","[0,1]","../img/tt/1202tt.jpg","",""
"806.0549999999348","","","recognition","survey-text","359","1304284","0.0-6.0-3.50","2997176","co38290","norming","","","{""guess"":""""}","","../img/tt/1202tt.jpg","",""
"null","../img/gs/1202gs.jpg","null","reveal","image-keyboard-response","360","1306287","0.0-6.0-4.50","2997176","co38290","norming","","","","","","",""
"null","../img/tt/1202tt.jpg","null","mooney2","image-keyboard-response","361","1308298","0.0-6.0-5.50","2997176","co38290","norming","","","","","","",""
"1895.6049999997485","","","post_reveal_questions","survey-likert","362","1310196","0.0-6.0-6.50","2997176","co38290","norming","","","{""aha"":0}","[0]","../img/tt/1202tt.jpg","",""
"null","<div style=""font-size:60px;""> </div>","null","fixation","html-keyboard-response","363","1310400","0.0-6.0-0.51","2997176","co38290","norming","","","","","","",""
"null","../img/tt/194tt.jpg","null","mooney1","image-keyboard-response","364","1313406","0.0-6.0-1.51","2997176","co38290","norming","","","","","","",""
"6003.45999999973","","","post_mooney1_questions","survey-likert","365","1319412","0.0-6.0-2.51","2997176","co38290","norming","","","{""curiosity"":4,""confidence"":3}","[0,1]","../img/tt/194tt.jpg","",""
"3398.0449999996927","","","recognition","survey-text","366","1322812","0.0-6.0-3.51","2997176","co38290","norming","","","{""guess"":""girl harp""}","","../img/tt/194tt.jpg","",""
"null","../img/gs/194gs.jpg","null","reveal","image-keyboard-response","367","1324815","0.0-6.0-4.51","2997176","co38290","norming","","","","","","",""
"null","../img/tt/194tt.jpg","null","mooney2","image-keyboard-response","368","1326820","0.0-6.0-5.51","2997176","co38290","norming","","","","","","",""
"2606.6949999995995","","","post_reveal_questions","survey-likert","369","1329429","0.0-6.0-6.51","2997176","co38290","norming","","","{""aha"":4}","[0]","../img/tt/194tt.jpg","",""
"null","<div style=""font-size:60px;""> </div>","null","fixation","html-keyboard-response","370","1329634","0.0-6.0-0.52","2997176","co38290","norming","","","","","","",""
"null","../img/tt/1128tt.jpg","null","mooney1","image-keyboard-response","371","1332644","0.0-6.0-1.52","2997176","co38290","norming","","","","","","",""
"5015.76500000013","","","post_mooney1_questions","survey-likert","372","1337661","0.0-6.0-2.52","2997176","co38290","norming","","","{""curiosity"":3,""confidence"":1}","[0,1]","../img/tt/1128tt.jpg","",""
"2926.0949999997392","","","recognition","survey-text","373","1340589","0.0-6.0-3.52","2997176","co38290","norming","","","{""guess"":""raccoon""}","","../img/tt/1128tt.jpg","",""
"null","../img/gs/1128gs.jpg","null","reveal","image-keyboard-response","374","1342590","0.0-6.0-4.52","2997176","co38290","norming","","","","","","",""
"null","../img/tt/1128tt.jpg","null","mooney2","image-keyboard-response","375","1344602","0.0-6.0-5.52","2997176","co38290","norming","","","","","","",""
"2234.4799999999814","","","post_reveal_questions","survey-likert","376","1346837","0.0-6.0-6.52","2997176","co38290","norming","","","{""aha"":3}","[0]","../img/tt/1128tt.jpg","",""
"null","<div style=""font-size:60px;""> </div>","null","fixation","html-keyboard-response","377","1347042","0.0-6.0-0.53","2997176","co38290","norming","","","","","","",""
"null","../img/tt/549tt.jpg","null","mooney1","image-keyboard-response","378","1350049","0.0-6.0-1.53","2997176","co38290","norming","","","","","","",""
"10880.80999999959","","","post_mooney1_questions","survey-likert","379","1360933","0.0-6.0-2.53","2997176","co38290","norming","","","{""curiosity"":3,""confidence"":0}","[0,1]","../img/tt/549tt.jpg","",""
"3382.149999999441","","","recognition","survey-text","380","1364317","0.0-6.0-3.53","2997176","co38290","norming","","","{""guess"":""underwater""}","","../img/tt/549tt.jpg","",""
"null","../img/gs/549gs.jpg","null","reveal","image-keyboard-response","381","1366318","0.0-6.0-4.53","2997176","co38290","norming","","","","","","",""
"null","../img/tt/549tt.jpg","null","mooney2","image-keyboard-response","382","1368329","0.0-6.0-5.53","2997176","co38290","norming","","","","","","",""
"3097.5399999995716","","","post_reveal_questions","survey-likert","383","1371429","0.0-6.0-6.53","2997176","co38290","norming","","","{""aha"":0}","[0]","../img/tt/549tt.jpg","",""
"null","<div style=""font-size:60px;""> </div>","null","fixation","html-keyboard-response","384","1371639","0.0-6.0-0.54","2997176","co38290","norming","","","","","","",""
"null","../img/tt/1309tt.jpg","null","mooney1","image-keyboard-response","385","1374645","0.0-6.0-1.54","2997176","co38290","norming","","","","","","",""
"4711.4999999993015","","","post_mooney1_questions","survey-likert","386","1379357","0.0-6.0-2.54","2997176","co38290","norming","","","{""curiosity"":4,""confidence"":3}","[0,1]","../img/tt/1309tt.jpg","",""
"1774.0900000000838","","","recognition","survey-text","387","1381133","0.0-6.0-3.54","2997176","co38290","norming","","","{""guess"":""jeep""}","","../img/tt/1309tt.jpg","",""
"null","../img/gs/1309gs.jpg","null","reveal","image-keyboard-response","388","1383139","0.0-6.0-4.54","2997176","co38290","norming","","","","","","",""
"null","../img/tt/1309tt.jpg","null","mooney2","image-keyboard-response","389","1385142","0.0-6.0-5.54","2997176","co38290","norming","","","","","","",""
"2509.56500000041","","","post_reveal_questions","survey-likert","390","1387654","0.0-6.0-6.54","2997176","co38290","norming","","","{""aha"":6}","[0]","../img/tt/1309tt.jpg","",""
"null","<div style=""font-size:60px;""> </div>","null","fixation","html-keyboard-response","391","1387859","0.0-6.0-0.55","2997176","co38290","norming","","","","","","",""
"null","../img/tt/1261tt.jpg","null","mooney1","image-keyboard-response","392","1390867","0.0-6.0-1.55","2997176","co38290","norming","","","","","","",""
"10406.009999999776","","","post_mooney1_questions","survey-likert","393","1401278","0.0-6.0-2.55","2997176","co38290","norming","","","{""curiosity"":4,""confidence"":3}","[0,1]","../img/tt/1261tt.jpg","",""
"5246.2149999991525","","","recognition","survey-text","394","1406526","0.0-6.0-3.55","2997176","co38290","norming","","","{""guess"":""window and dishes""}","","../img/tt/1261tt.jpg","",""
"null","../img/gs/1261gs.jpg","null","reveal","image-keyboard-response","395","1408536","0.0-6.0-4.55","2997176","co38290","norming","","","","","","",""
"null","../img/tt/1261tt.jpg","null","mooney2","image-keyboard-response","396","1410539","0.0-6.0-5.55","2997176","co38290","norming","","","","","","",""
"2456.369999999879","","","post_reveal_questions","survey-likert","397","1412998","0.0-6.0-6.55","2997176","co38290","norming","","","{""aha"":1}","[0]","../img/tt/1261tt.jpg","",""
"null","<div style=""font-size:60px;""> </div>","null","fixation","html-keyboard-response","398","1413202","0.0-6.0-0.56","2997176","co38290","norming","","","","","","",""
"null","../img/tt/111tt.jpg","null","mooney1","image-keyboard-response","399","1416205","0.0-6.0-1.56","2997176","co38290","norming","","","","","","",""
"5638.155000000494","","","post_mooney1_questions","survey-likert","400","1421846","0.0-6.0-2.56","2997176","co38290","norming","","","{""curiosity"":3,""confidence"":2}","[0,1]","../img/tt/111tt.jpg","",""
"5382.050000000047","","","recognition","survey-text","401","1427230","0.0-6.0-3.56","2997176","co38290","norming","","","{""guess"":""telephone""}","","../img/tt/111tt.jpg","",""
"null","../img/gs/111gs.jpg","null","reveal","image-keyboard-response","402","1429231","0.0-6.0-4.56","2997176","co38290","norming","","","","","","",""
"null","../img/tt/111tt.jpg","null","mooney2","image-keyboard-response","403","1431242","0.0-6.0-5.56","2997176","co38290","norming","","","","","","",""
"4201.674999999348","","","post_reveal_questions","survey-likert","404","1435446","0.0-6.0-6.56","2997176","co38290","norming","","","{""aha"":4}","[0]","../img/tt/111tt.jpg","",""
"null","<div style=""font-size:60px;""> </div>","null","fixation","html-keyboard-response","405","1435650","0.0-6.0-0.57","2997176","co38290","norming","","","","","","",""
"null","../img/tt/416tt.jpg","null","mooney1","image-keyboard-response","406","1438659","0.0-6.0-1.57","2997176","co38290","norming","","","","","","",""
"3457.6650000000373","","","post_mooney1_questions","survey-likert","407","1442118","0.0-6.0-2.57","2997176","co38290","norming","","","{""curiosity"":2,""confidence"":2}","[0,1]","../img/tt/416tt.jpg","",""
"2134.065000000177","","","recognition","survey-text","408","1444254","0.0-6.0-3.57","2997176","co38290","norming","","","{""guess"":""chickens""}","","../img/tt/416tt.jpg","",""
"null","../img/gs/416gs.jpg","null","reveal","image-keyboard-response","409","1446256","0.0-6.0-4.57","2997176","co38290","norming","","","","","","",""
"null","../img/tt/416tt.jpg","null","mooney2","image-keyboard-response","410","1448261","0.0-6.0-5.57","2997176","co38290","norming","","","","","","",""
"1917.910000000149","","","post_reveal_questions","survey-likert","411","1450182","0.0-6.0-6.57","2997176","co38290","norming","","","{""aha"":2}","[0]","../img/tt/416tt.jpg","",""
"null","<div style=""font-size:60px;""> </div>","null","fixation","html-keyboard-response","412","1450385","0.0-6.0-0.58","2997176","co38290","norming","","","","","","",""
"null","../img/tt/1243tt.jpg","null","mooney1","image-keyboard-response","413","1453393","0.0-6.0-1.58","2997176","co38290","norming","","","","","","",""
"5650.204999999842","","","post_mooney1_questions","survey-likert","414","1459047","0.0-6.0-2.58","2997176","co38290","norming","","","{""curiosity"":1,""confidence"":1}","[0,1]","../img/tt/1243tt.jpg","",""
"4086.070000000298","","","recognition","survey-text","415","1463134","0.0-6.0-3.58","2997176","co38290","norming","","","{""guess"":""cage""}","","../img/tt/1243tt.jpg","",""
"null","../img/gs/1243gs.jpg","null","reveal","image-keyboard-response","416","1465137","0.0-6.0-4.58","2997176","co38290","norming","","","","","","",""
"null","../img/tt/1243tt.jpg","null","mooney2","image-keyboard-response","417","1467143","0.0-6.0-5.58","2997176","co38290","norming","","","","","","",""
"3244.4150000000373","","","post_reveal_questions","survey-likert","418","1470390","0.0-6.0-6.58","2997176","co38290","norming","","","{""aha"":4}","[0]","../img/tt/1243tt.jpg","",""
"null","<div style=""font-size:60px;""> </div>","null","fixation","html-keyboard-response","419","1470596","0.0-6.0-0.59","2997176","co38290","norming","","","","","","",""
"null","../img/tt/1181tt.jpg","null","mooney1","image-keyboard-response","420","1473606","0.0-6.0-1.59","2997176","co38290","norming","","","","","","",""
"2804.820000000298","","","post_mooney1_questions","survey-likert","421","1476415","0.0-6.0-2.59","2997176","co38290","norming","","","{""curiosity"":0,""confidence"":0}","[0,1]","../img/tt/1181tt.jpg","",""
"694.1299999998882","","","recognition","survey-text","422","1477110","0.0-6.0-3.59","2997176","co38290","norming","","","{""guess"":""""}","","../img/tt/1181tt.jpg","",""
"null","../img/gs/1181gs.jpg","null","reveal","image-keyboard-response","423","1479112","0.0-6.0-4.59","2997176","co38290","norming","","","","","","",""
"null","../img/tt/1181tt.jpg","null","mooney2","image-keyboard-response","424","1481120","0.0-6.0-5.59","2997176","co38290","norming","","","","","","",""
"2539.630000000121","","","post_reveal_questions","survey-likert","425","1483662","0.0-6.0-6.59","2997176","co38290","norming","","","{""aha"":0}","[0]","../img/tt/1181tt.jpg","",""
"null","<div style=""font-size:60px;""> </div>","null","fixation","html-keyboard-response","426","1483865","0.0-6.0-0.60","2997176","co38290","norming","","","","","","",""
"null","../img/tt/1043tt.jpg","null","mooney1","image-keyboard-response","427","1486874","0.0-6.0-1.60","2997176","co38290","norming","","","","","","",""
"5632.819999999832","","","post_mooney1_questions","survey-likert","428","1492510","0.0-6.0-2.60","2997176","co38290","norming","","","{""curiosity"":2,""confidence"":0}","[0,1]","../img/tt/1043tt.jpg","",""
"1326.1049999999814","","","recognition","survey-text","429","1493838","0.0-6.0-3.60","2997176","co38290","norming","","","{""guess"":""food""}","","../img/tt/1043tt.jpg","",""
"null","../img/gs/1043gs.jpg","null","reveal","image-keyboard-response","430","1495842","0.0-6.0-4.60","2997176","co38290","norming","","","","","","",""
"null","../img/tt/1043tt.jpg","null","mooney2","image-keyboard-response","431","1497851","0.0-6.0-5.60","2997176","co38290","norming","","","","","","",""
"4344.484999999637","","","post_reveal_questions","survey-likert","432","1502198","0.0-6.0-6.60","2997176","co38290","norming","","","{""aha"":4}","[0]","../img/tt/1043tt.jpg","",""
"null","<div style=""font-size:60px;""> </div>","null","fixation","html-keyboard-response","433","1502401","0.0-6.0-0.61","2997176","co38290","norming","","","","","","",""
"null","../img/tt/496tt.jpg","null","mooney1","image-keyboard-response","434","1505408","0.0-6.0-1.61","2997176","co38290","norming","","","","","","",""
"2850.695000000065","","","post_mooney1_questions","survey-likert","435","1508260","0.0-6.0-2.61","2997176","co38290","norming","","","{""curiosity"":0,""confidence"":0}","[0,1]","../img/tt/496tt.jpg","",""
"822.2550000001211","","","recognition","survey-text","436","1509084","0.0-6.0-3.61","2997176","co38290","norming","","","{""guess"":""""}","","../img/tt/496tt.jpg","",""
"null","../img/gs/496gs.jpg","null","reveal","image-keyboard-response","437","1511088","0.0-6.0-4.61","2997176","co38290","norming","","","","","","",""
"null","../img/tt/496tt.jpg","null","mooney2","image-keyboard-response","438","1513100","0.0-6.0-5.61","2997176","co38290","norming","","","","","","",""
"1749.8949999997858","","","post_reveal_questions","survey-likert","439","1514852","0.0-6.0-6.61","2997176","co38290","norming","","","{""aha"":0}","[0]","../img/tt/496tt.jpg","",""
"null","<div style=""font-size:60px;""> </div>","null","fixation","html-keyboard-response","440","1515055","0.0-6.0-0.62","2997176","co38290","norming","","","","","","",""
"null","../img/tt/140tt.jpg","null","mooney1","image-keyboard-response","441","1518067","0.0-6.0-1.62","2997176","co38290","norming","","","","","","",""
"4597.589999999385","","","post_mooney1_questions","survey-likert","442","1522668","0.0-6.0-2.62","2997176","co38290","norming","","","{""curiosity"":1,""confidence"":3}","[0,1]","../img/tt/140tt.jpg","",""
"2062.100000000093","","","recognition","survey-text","443","1524732","0.0-6.0-3.62","2997176","co38290","norming","","","{""guess"":""forks""}","","../img/tt/140tt.jpg","",""
"null","../img/gs/140gs.jpg","null","reveal","image-keyboard-response","444","1526739","0.0-6.0-4.62","2997176","co38290","norming","","","","","","",""
"null","../img/tt/140tt.jpg","null","mooney2","image-keyboard-response","445","1528740","0.0-6.0-5.62","2997176","co38290","norming","","","","","","",""
"2406.9900000004563","","","post_reveal_questions","survey-likert","446","1531148","0.0-6.0-6.62","2997176","co38290","norming","","","{""aha"":4}","[0]","../img/tt/140tt.jpg","",""
"null","<div style=""font-size:60px;""> </div>","null","fixation","html-keyboard-response","447","1531357","0.0-6.0-0.63","2997176","co38290","norming","","","","","","",""
"null","../img/tt/040tt.jpg","null","mooney1","image-keyboard-response","448","1534366","0.0-6.0-1.63","2997176","co38290","norming","","","","","","",""
"3083.179999999702","","","post_mooney1_questions","survey-likert","449","1537452","0.0-6.0-2.63","2997176","co38290","norming","","","{""curiosity"":1,""confidence"":0}","[0,1]","../img/tt/040tt.jpg","",""
"686.0299999997951","","","recognition","survey-text","450","1538140","0.0-6.0-3.63","2997176","co38290","norming","","","{""guess"":""""}","","../img/tt/040tt.jpg","",""
"null","../img/gs/040gs.jpg","null","reveal","image-keyboard-response","451","1540145","0.0-6.0-4.63","2997176","co38290","norming","","","","","","",""
"null","../img/tt/040tt.jpg","null","mooney2","image-keyboard-response","452","1542148","0.0-6.0-5.63","2997176","co38290","norming","","","","","","",""
"3308.804999999702","","","post_reveal_questions","survey-likert","453","1545460","0.0-6.0-6.63","2997176","co38290","norming","","","{""aha"":0}","[0]","../img/tt/040tt.jpg","",""
"null","<div style=""font-size:60px;""> </div>","null","fixation","html-keyboard-response","454","1545669","0.0-6.0-0.64","2997176","co38290","norming","","","","","","",""
"null","../img/tt/1189tt.jpg","null","mooney1","image-keyboard-response","455","1548674","0.0-6.0-1.64","2997176","co38290","norming","","","","","","",""
"2984.7850000006147","","","post_mooney1_questions","survey-likert","456","1551660","0.0-6.0-2.64","2997176","co38290","norming","","","{""curiosity"":0,""confidence"":0}","[0,1]","../img/tt/1189tt.jpg","",""
"2237.79000000027","","","recognition","survey-text","457","1553900","0.0-6.0-3.64","2997176","co38290","norming","","","{""guess"":""swimmer""}","","../img/tt/1189tt.jpg","",""
"null","../img/gs/1189gs.jpg","null","reveal","image-keyboard-response","458","1555911","0.0-6.0-4.64","2997176","co38290","norming","","","","","","",""
"null","../img/tt/1189tt.jpg","null","mooney2","image-keyboard-response","459","1557914","0.0-6.0-5.64","2997176","co38290","norming","","","","","","",""
"4575.090000000317","","","post_reveal_questions","survey-likert","460","1562492","0.0-6.0-6.64","2997176","co38290","norming","","","{""aha"":6}","[0]","../img/tt/1189tt.jpg","",""
"null","<div style=""font-size:60px;""> </div>","null","fixation","html-keyboard-response","461","1562693","0.0-6.0-0.65","2997176","co38290","norming","","","","","","",""
"null","../img/tt/121tt.jpg","null","mooney1","image-keyboard-response","462","1565701","0.0-6.0-1.65","2997176","co38290","norming","","","","","","",""
"8555.5699999996","","","post_mooney1_questions","survey-likert","463","1574259","0.0-6.0-2.65","2997176","co38290","norming","","","{""curiosity"":3,""confidence"":1}","[0,1]","../img/tt/121tt.jpg","",""
"1957.975000000326","","","recognition","survey-text","464","1576218","0.0-6.0-3.65","2997176","co38290","norming","","","{""guess"":""kayak""}","","../img/tt/121tt.jpg","",""
"null","../img/gs/121gs.jpg","null","reveal","image-keyboard-response","465","1578220","0.0-6.0-4.65","2997176","co38290","norming","","","","","","",""
"null","../img/tt/121tt.jpg","null","mooney2","image-keyboard-response","466","1580230","0.0-6.0-5.65","2997176","co38290","norming","","","","","","",""
"2617.8349999999627","","","post_reveal_questions","survey-likert","467","1582850","0.0-6.0-6.65","2997176","co38290","norming","","","{""aha"":1}","[0]","../img/tt/121tt.jpg","",""
"null","<div style=""font-size:60px;""> </div>","null","fixation","html-keyboard-response","468","1583052","0.0-6.0-0.66","2997176","co38290","norming","","","","","","",""
"null","../img/tt/1251tt.jpg","null","mooney1","image-keyboard-response","469","1586060","0.0-6.0-1.66","2997176","co38290","norming","","","","","","",""
"2851.5049999996554","","","post_mooney1_questions","survey-likert","470","1588915","0.0-6.0-2.66","2997176","co38290","norming","","","{""curiosity"":2,""confidence"":1}","[0,1]","../img/tt/1251tt.jpg","",""
"3190.1399999996647","","","recognition","survey-text","471","1592107","0.0-6.0-3.66","2997176","co38290","norming","","","{""guess"":""bear""}","","../img/tt/1251tt.jpg","",""
"null","../img/gs/1251gs.jpg","null","reveal","image-keyboard-response","472","1594108","0.0-6.0-4.66","2997176","co38290","norming","","","","","","",""
"null","../img/tt/1251tt.jpg","null","mooney2","image-keyboard-response","473","1596111","0.0-6.0-5.66","2997176","co38290","norming","","","","","","",""
"2225.1649999998044","","","post_reveal_questions","survey-likert","474","1598338","0.0-6.0-6.66","2997176","co38290","norming","","","{""aha"":5}","[0]","../img/tt/1251tt.jpg","",""
"null","<div style=""font-size:60px;""> </div>","null","fixation","html-keyboard-response","475","1598544","0.0-6.0-0.67","2997176","co38290","norming","","","","","","",""
"null","../img/tt/1366tt.jpg","null","mooney1","image-keyboard-response","476","1601552","0.0-6.0-1.67","2997176","co38290","norming","","","","","","",""
"4295.6450000002515","","","post_mooney1_questions","survey-likert","477","1605851","0.0-6.0-2.67","2997176","co38290","norming","","","{""curiosity"":0,""confidence"":0}","[0,1]","../img/tt/1366tt.jpg","",""
"685.9049999995623","","","recognition","survey-text","478","1606538","0.0-6.0-3.67","2997176","co38290","norming","","","{""guess"":""""}","","../img/tt/1366tt.jpg","",""
"null","../img/gs/1366gs.jpg","null","reveal","image-keyboard-response","479","1608548","0.0-6.0-4.67","2997176","co38290","norming","","","","","","",""
"null","../img/tt/1366tt.jpg","null","mooney2","image-keyboard-response","480","1610553","0.0-6.0-5.67","2997176","co38290","norming","","","","","","",""
"1734.7399999997579","","","post_reveal_questions","survey-likert","481","1612290","0.0-6.0-6.67","2997176","co38290","norming","","","{""aha"":0}","[0]","../img/tt/1366tt.jpg","",""
"null","<div style=""font-size:60px;""> </div>","null","fixation","html-keyboard-response","482","1612501","0.0-6.0-0.68","2997176","co38290","norming","","","","","","",""
"null","../img/tt/1269tt.jpg","null","mooney1","image-keyboard-response","483","1615507","0.0-6.0-1.68","2997176","co38290","norming","","","","","","",""
"9243.814999999944","","","post_mooney1_questions","survey-likert","484","1624754","0.0-6.0-2.68","2997176","co38290","norming","","","{""curiosity"":2,""confidence"":2}","[0,1]","../img/tt/1269tt.jpg","",""
"3877.9150000000373","","","recognition","survey-text","485","1628634","0.0-6.0-3.68","2997176","co38290","norming","","","{""guess"":""animal in tree""}","","../img/tt/1269tt.jpg","",""
"null","../img/gs/1269gs.jpg","null","reveal","image-keyboard-response","486","1630641","0.0-6.0-4.68","2997176","co38290","norming","","","","","","",""
"null","../img/tt/1269tt.jpg","null","mooney2","image-keyboard-response","487","1632643","0.0-6.0-5.68","2997176","co38290","norming","","","","","","",""
"2451.4600000001956","","","post_reveal_questions","survey-likert","488","1635095","0.0-6.0-6.68","2997176","co38290","norming","","","{""aha"":0}","[0]","../img/tt/1269tt.jpg","",""
"null","<div style=""font-size:60px;""> </div>","null","fixation","html-keyboard-response","489","1635303","0.0-6.0-0.69","2997176","co38290","norming","","","","","","",""
"null","../img/tt/1236tt.jpg","null","mooney1","image-keyboard-response","490","1638311","0.0-6.0-1.69","2997176","co38290","norming","","","","","","",""
"5813.264999999665","","","post_mooney1_questions","survey-likert","491","1644128","0.0-6.0-2.69","2997176","co38290","norming","","","{""curiosity"":2,""confidence"":1}","[0,1]","../img/tt/1236tt.jpg","",""
"1342.1850000002887","","","recognition","survey-text","492","1645471","0.0-6.0-3.69","2997176","co38290","norming","","","{""guess"":""lake""}","","../img/tt/1236tt.jpg","",""
"null","../img/gs/1236gs.jpg","null","reveal","image-keyboard-response","493","1647475","0.0-6.0-4.69","2997176","co38290","norming","","","","","","",""
"null","../img/tt/1236tt.jpg","null","mooney2","image-keyboard-response","494","1649477","0.0-6.0-5.69","2997176","co38290","norming","","","","","","",""
"2087.8149999997113","","","post_reveal_questions","survey-likert","495","1651568","0.0-6.0-6.69","2997176","co38290","norming","","","{""aha"":2}","[0]","../img/tt/1236tt.jpg","",""
"null","<div style=""font-size:60px;""> </div>","null","fixation","html-keyboard-response","496","1651775","0.0-6.0-0.70","2997176","co38290","norming","","","","","","",""
"null","../img/tt/440tt.jpg","null","mooney1","image-keyboard-response","497","1654786","0.0-6.0-1.70","2997176","co38290","norming","","","","","","",""
"5572.430000000168","","","post_mooney1_questions","survey-likert","498","1660360","0.0-6.0-2.70","2997176","co38290","norming","","","{""curiosity"":1,""confidence"":1}","[0,1]","../img/tt/440tt.jpg","",""
"2118.0649999997113","","","recognition","survey-text","499","1662480","0.0-6.0-3.70","2997176","co38290","norming","","","{""guess"":""horses""}","","../img/tt/440tt.jpg","",""
"null","../img/gs/440gs.jpg","null","reveal","image-keyboard-response","500","1664481","0.0-6.0-4.70","2997176","co38290","norming","","","","","","",""
"null","../img/tt/440tt.jpg","null","mooney2","image-keyboard-response","501","1666492","0.0-6.0-5.70","2997176","co38290","norming","","","","","","",""
"3007.560000000056","","","post_reveal_questions","survey-likert","502","1669504","0.0-6.0-6.70","2997176","co38290","norming","","","{""aha"":1}","[0]","../img/tt/440tt.jpg","",""
"null","<div style=""font-size:60px;""> </div>","null","fixation","html-keyboard-response","503","1669712","0.0-6.0-0.71","2997176","co38290","norming","","","","","","",""
"null","../img/tt/060tt.jpg","null","mooney1","image-keyboard-response","504","1672723","0.0-6.0-1.71","2997176","co38290","norming","","","","","","",""
"3923.434999999823","","","post_mooney1_questions","survey-likert","505","1676647","0.0-6.0-2.71","2997176","co38290","norming","","","{""curiosity"":3,""confidence"":1}","[0,1]","../img/tt/060tt.jpg","",""
"1942.3950000000186","","","recognition","survey-text","506","1678591","0.0-6.0-3.71","2997176","co38290","norming","","","{""guess"":""hot dog""}","","../img/tt/060tt.jpg","",""
"null","../img/gs/060gs.jpg","null","reveal","image-keyboard-response","507","1680593","0.0-6.0-4.71","2997176","co38290","norming","","","","","","",""
"null","../img/tt/060tt.jpg","null","mooney2","image-keyboard-response","508","1682605","0.0-6.0-5.71","2997176","co38290","norming","","","","","","",""
"3799.649999999907","","","post_reveal_questions","survey-likert","509","1686408","0.0-6.0-6.71","2997176","co38290","norming","","","{""aha"":5}","[0]","../img/tt/060tt.jpg","",""
"null","<div style=""font-size:60px;""> </div>","null","fixation","html-keyboard-response","510","1686609","0.0-6.0-0.72","2997176","co38290","norming","","","","","","",""
"null","../img/tt/481tt.jpg","null","mooney1","image-keyboard-response","511","1689619","0.0-6.0-1.72","2997176","co38290","norming","","","","","","",""
"4776.930000000168","","","post_mooney1_questions","survey-likert","512","1694398","0.0-6.0-2.72","2997176","co38290","norming","","","{""curiosity"":2,""confidence"":2}","[0,1]","../img/tt/481tt.jpg","",""
"1630.0000000002328","","","recognition","survey-text","513","1696030","0.0-6.0-3.72","2997176","co38290","norming","","","{""guess"":""cat""}","","../img/tt/481tt.jpg","",""
"null","../img/gs/481gs.jpg","null","reveal","image-keyboard-response","514","1698036","0.0-6.0-4.72","2997176","co38290","norming","","","","","","",""
"null","../img/tt/481tt.jpg","null","mooney2","image-keyboard-response","515","1700045","0.0-6.0-5.72","2997176","co38290","norming","","","","","","",""
"2846.005000000354","","","post_reveal_questions","survey-likert","516","1702894","0.0-6.0-6.72","2997176","co38290","norming","","","{""aha"":1}","[0]","../img/tt/481tt.jpg","",""
"null","<div style=""font-size:60px;""> </div>","null","fixation","html-keyboard-response","517","1703102","0.0-6.0-0.73","2997176","co38290","norming","","","","","","",""
"null","../img/tt/318tt.jpg","null","mooney1","image-keyboard-response","518","1706104","0.0-6.0-1.73","2997176","co38290","norming","","","","","","",""
"3669.16500000027","","","post_mooney1_questions","survey-likert","519","1709774","0.0-6.0-2.73","2997176","co38290","norming","","","{""curiosity"":3,""confidence"":0}","[0,1]","../img/tt/318tt.jpg","",""
"2237.8950000000186","","","recognition","survey-text","520","1712014","0.0-6.0-3.73","2997176","co38290","norming","","","{""guess"":""pinguin""}","","../img/tt/318tt.jpg","",""
"null","../img/gs/318gs.jpg","null","reveal","image-keyboard-response","521","1714016","0.0-6.0-4.73","2997176","co38290","norming","","","","","","",""
"null","../img/tt/318tt.jpg","null","mooney2","image-keyboard-response","522","1716028","0.0-6.0-5.73","2997176","co38290","norming","","","","","","",""
"2511.2150000005495","","","post_reveal_questions","survey-likert","523","1718542","0.0-6.0-6.73","2997176","co38290","norming","","","{""aha"":0}","[0]","../img/tt/318tt.jpg","",""
"null","<div style=""font-size:60px;""> </div>","null","fixation","html-keyboard-response","524","1718750","0.0-6.0-0.74","2997176","co38290","norming","","","","","","",""
"null","../img/tt/082tt.jpg","null","mooney1","image-keyboard-response","525","1721760","0.0-6.0-1.74","2997176","co38290","norming","","","","","","",""
"3954.7350000003353","","","post_mooney1_questions","survey-likert","526","1725718","0.0-6.0-2.74","2997176","co38290","norming","","","{""curiosity"":3,""confidence"":0}","[0,1]","../img/tt/082tt.jpg","",""
"2902.239999999525","","","recognition","survey-text","527","1728622","0.0-6.0-3.74","2997176","co38290","norming","","","{""guess"":""squirrel""}","","../img/tt/082tt.jpg","",""
"null","../img/gs/082gs.jpg","null","reveal","image-keyboard-response","528","1730632","0.0-6.0-4.74","2997176","co38290","norming","","","","","","",""
"null","../img/tt/082tt.jpg","null","mooney2","image-keyboard-response","529","1732635","0.0-6.0-5.74","2997176","co38290","norming","","","","","","",""
"2080.445000000531","","","post_reveal_questions","survey-likert","530","1734718","0.0-6.0-6.74","2997176","co38290","norming","","","{""aha"":0}","[0]","../img/tt/082tt.jpg","",""
"null","<div style=""font-size:60px;""> </div>","null","fixation","html-keyboard-response","531","1734927","0.0-6.0-0.75","2997176","co38290","norming","","","","","","",""
"null","../img/tt/084tt.jpg","null","mooney1","image-keyboard-response","532","1737938","0.0-6.0-1.75","2997176","co38290","norming","","","","","","",""
"4448.545000000158","","","post_mooney1_questions","survey-likert","533","1742390","0.0-6.0-2.75","2997176","co38290","norming","","","{""curiosity"":0,""confidence"":0}","[0,1]","../img/tt/084tt.jpg","",""
"717.8700000003446","","","recognition","survey-text","534","1743110","0.0-6.0-3.75","2997176","co38290","norming","","","{""guess"":""""}","","../img/tt/084tt.jpg","",""
"null","../img/gs/084gs.jpg","null","reveal","image-keyboard-response","535","1745118","0.0-6.0-4.75","2997176","co38290","norming","","","","","","",""
"null","../img/tt/084tt.jpg","null","mooney2","image-keyboard-response","536","1747122","0.0-6.0-5.75","2997176","co38290","norming","","","","","","",""
"1825.5799999996088","","","post_reveal_questions","survey-likert","537","1748950","0.0-6.0-6.75","2997176","co38290","norming","","","{""aha"":3}","[0]","../img/tt/084tt.jpg","",""
"null","<div style=""font-size:60px;""> </div>","null","fixation","html-keyboard-response","538","1749158","0.0-6.0-0.76","2997176","co38290","norming","","","","","","",""
"null","../img/tt/1148tt.jpg","null","mooney1","image-keyboard-response","539","1752162","0.0-6.0-1.76","2997176","co38290","norming","","","","","","",""
"5568.304999999702","","","post_mooney1_questions","survey-likert","540","1757728","0.0-6.0-2.76","2997176","co38290","norming","","","{""curiosity"":0,""confidence"":0}","[0,1]","../img/tt/1148tt.jpg","",""
"494.1950000000652","","","recognition","survey-text","541","1758224","0.0-6.0-3.76","2997176","co38290","norming","","","{""guess"":""""}","","../img/tt/1148tt.jpg","",""
"null","../img/gs/1148gs.jpg","null","reveal","image-keyboard-response","542","1760227","0.0-6.0-4.76","2997176","co38290","norming","","","","","","",""
"null","../img/tt/1148tt.jpg","null","mooney2","image-keyboard-response","543","1762237","0.0-6.0-5.76","2997176","co38290","norming","","","","","","",""
"1935.755000000354","","","post_reveal_questions","survey-likert","544","1764176","0.0-6.0-6.76","2997176","co38290","norming","","","{""aha"":4}","[0]","../img/tt/1148tt.jpg","",""
"null","<div style=""font-size:60px;""> </div>","null","fixation","html-keyboard-response","545","1764382","0.0-6.0-0.77","2997176","co38290","norming","","","","","","",""
"null","../img/tt/1142tt.jpg","null","mooney1","image-keyboard-response","546","1767391","0.0-6.0-1.77","2997176","co38290","norming","","","","","","",""
"5175.989999999758","","","post_mooney1_questions","survey-likert","547","1772568","0.0-6.0-2.77","2997176","co38290","norming","","","{""curiosity"":2,""confidence"":1}","[0,1]","../img/tt/1142tt.jpg","",""
"4654.080000000307","","","recognition","survey-text","548","1777224","0.0-6.0-3.77","2997176","co38290","norming","","","{""guess"":""kogelstoten""}","","../img/tt/1142tt.jpg","",""
"null","../img/gs/1142gs.jpg","null","reveal","image-keyboard-response","549","1779235","0.0-6.0-4.77","2997176","co38290","norming","","","","","","",""
"null","../img/tt/1142tt.jpg","null","mooney2","image-keyboard-response","550","1781236","0.0-6.0-5.77","2997176","co38290","norming","","","","","","",""
"1560.8799999998882","","","post_reveal_questions","survey-likert","551","1782800","0.0-6.0-6.77","2997176","co38290","norming","","","{""aha"":5}","[0]","../img/tt/1142tt.jpg","",""
