"rt","stimulus","key_press","test_part","trial_type","trial_index","time_elapsed","internal_node_id","totalTime","subject","experiment_name","button_pressed","success","responses","question_order","currentStim","old","correct"
"8295.209999999997","Welcome to the experiment. This is an online experiment so please don't close the tab/window until we say goodbye.  Press any key to begin.","13","instructions","html-keyboard-response","0","8297","0.0-0.0","2975860","co38620","norming","","","","","","",""
"19590.374999999993","<div style='word-wrap: break-word; width: 900px'><h3>Please consider this information carefully before deciding whether to participate in this research</h3><ul style='text-align: left; font-size: .8em;'><li><b>Purpose of the research</b>: To examine how people process images.</li><li><b>What you will do in this research</b>:  Stimuli (images) will be presented on the computer and you will be asked different questions about them.</li><li><b>Time required</b>: Participation will take between 45 and 60 minutes to complete.</li><li><b>Risks</b>:  There are no anticipated risks associated with participating in this study. The effects of participating should be comparable to those you would experience from viewing a computer monitor for 30 minutes and using a mouse or keyboard.</li><li><b>Benefits</b>:  This study provides no benefits to you individually except for the credit. The study provides important information about the nature of perception and learning.</li><li><b>Confidentiality</b>:  Your participation in this study will remain confidential. No personally identifiable information will be associated with your data. Your de-identified data may be shared with other researchers and used in future projects.</li><li><b>Participation and withdrawal</b>:  Your participation in this study is completely voluntary and you may refuse to participate or you may choose to withdraw at any time without penalty.</li><li><b>How to contact the researchers</b>: If you have questions or concerns about your participation or payment, or want to request a summary of research findings, please contact Sander Van de Cruys (KU Leuven), at sander.vandecruys@kuleuven.be.</li></ul><p>The nature and purpose of this research have been sufficiently explained and I agree to participate in this study.  I understand that I am free to withdraw at any time without incurring any penalty.</p><p>Please consent by clicking the button below to continue. Otherwise, please exit the study at this time.</p></div>","","instructions","html-button-response","1","27889","0.0-1.0","2975860","co38620","norming","0","","","","","",""
"","","","instructions","fullscreen","2","32429","0.0-2.0","2975860","co38620","norming","","true","","","","",""
"26192.759999999907","","","sona","survey-html-form","3","58625","0.0-3.0","2975860","co38620","norming","","","[{""name"":""sonaid"",""value"":""38620""},{""name"":""debrief"",""value"":""no""},{""name"":""datajoin"",""value"":""yes""}]","","","",""
"50646.76000000008","<div style='word-wrap: break-word; width: 900px'><h3>Instructions</h3><p>This experiment will have 3 parts. In the first part you will see a series of distorted images like the one below on the left. As you can see in the righthand image, the distorted images are derived from actual photographs. In what follows, you will <strong>briefly</strong> be presented with <strong>only</strong> the distorted image.</p> <div style='float: left; margin-right: 20px;'><img src='../img/018tt.jpg' height='250' width='250'></img></div><div style='float: right; margin-left: 20px;'><img src='../img/018gs.jpg' height='250' width='250'></img></div><p>Subsequently you will be asked a few questions about the image: One question on how <strong>curious</strong> you are about the solution and one on how <strong>confident</strong> you are that you know the solution.</p>Next, we ask you to make a guess on what is in the image. Note that it is OK to name just the <strong>basic level category</strong>. For example when you see a parrot in the image, 'parrot' will obviously be a correct answer but also correct is 'bird'. However, 'animal' will <strong>not</strong> be counted as a correct response. For the example above, 'rose' would be correct or 'flower', but not 'plant'. When soccer players are depicted, 'soccer', 'football', 'soccer players' will be correct, but not 'humans', 'outdoors', or 'sports'. You do not need to describe the image in full, just name the main object in it <strong>in one or two words</strong>. All images depict objects from one of the following broad level categories: animals, inanimate objects, plants, sports, vehicles, and food. Recognizing means knowing <strong>more</strong> than these broad labels for a given image. But we always encourage you to <strong>make a guess</strong> if you can. Note that you are allowed to use <strong>Dutch and English</strong> in your answers, whatever comes easiest for you.</p><p>Press any key to continue.</p></div>","13","instructions","html-keyboard-response","4","109272","0.0-4.0","2975860","co38620","norming","","","","","","",""
"46991.15499999994","<div style='word-wrap: break-word; width: 900px'><h3>Instructions</h3> <p>Next, the solution image will be revealed to you and you'll be asked to indicate how strong your <strong>aha-experience</strong> was after seeing the solution. This describes the positive feeling of the 'click' you sometimes experience, when the pieces of the 'puzzle' fall together and you suddenly have 'insight' in the image.</p><img src='aha.jpg' height='188' width='250'></img><p>Note that there are no right or wrong answers. We are interested in what <strong>you</strong> see in the image and how <strong>you</strong> feel about it.</p><p>Press any key to start the experiment.</p></div>","13","instructions","html-keyboard-response","5","156264","0.0-5.0","2975860","co38620","norming","","","","","","",""
"null","<div style=""font-size:60px;""> </div>","null","fixation","html-keyboard-response","6","156466","0.0-6.0-0.0","2975860","co38620","norming","","","","","","",""
"null","../img/tt/468tt.jpg","null","mooney1","image-keyboard-response","7","159473","0.0-6.0-1.0","2975860","co38620","norming","","","","","","",""
"14004.560000000085","","","post_mooney1_questions","survey-likert","8","173480","0.0-6.0-2.0","2975860","co38620","norming","","","{""curiosity"":1,""confidence"":0}","[0,1]","../img/tt/468tt.jpg","",""
"7005.549999999872","","","recognition","survey-text","9","180488","0.0-6.0-3.0","2975860","co38620","norming","","","{""guess"":""""}","","../img/tt/468tt.jpg","",""
"null","../img/gs/468gs.jpg","null","reveal","image-keyboard-response","10","182490","0.0-6.0-4.0","2975860","co38620","norming","","","","","","",""
"null","../img/tt/468tt.jpg","null","mooney2","image-keyboard-response","11","184500","0.0-6.0-5.0","2975860","co38620","norming","","","","","","",""
"6537.4200000001","","","post_reveal_questions","survey-likert","12","191040","0.0-6.0-6.0","2975860","co38620","norming","","","{""aha"":5}","[0]","../img/tt/468tt.jpg","",""
"null","<div style=""font-size:60px;""> </div>","null","fixation","html-keyboard-response","13","191250","0.0-6.0-0.1","2975860","co38620","norming","","","","","","",""
"null","../img/tt/412tt.jpg","null","mooney1","image-keyboard-response","14","194255","0.0-6.0-1.1","2975860","co38620","norming","","","","","","",""
"20558.904999999853","","","post_mooney1_questions","survey-likert","15","214816","0.0-6.0-2.1","2975860","co38620","norming","","","{""curiosity"":4,""confidence"":1}","[0,1]","../img/tt/412tt.jpg","",""
"3950.1949999998906","","","recognition","survey-text","16","218768","0.0-6.0-3.1","2975860","co38620","norming","","","{""guess"":""""}","","../img/tt/412tt.jpg","",""
"null","../img/gs/412gs.jpg","null","reveal","image-keyboard-response","17","220775","0.0-6.0-4.1","2975860","co38620","norming","","","","","","",""
"null","../img/tt/412tt.jpg","null","mooney2","image-keyboard-response","18","222779","0.0-6.0-5.1","2975860","co38620","norming","","","","","","",""
"5586.354999999923","","","post_reveal_questions","survey-likert","19","228368","0.0-6.0-6.1","2975860","co38620","norming","","","{""aha"":5}","[0]","../img/tt/412tt.jpg","",""
"null","<div style=""font-size:60px;""> </div>","null","fixation","html-keyboard-response","20","228570","0.0-6.0-0.2","2975860","co38620","norming","","","","","","",""
"null","../img/tt/416tt.jpg","null","mooney1","image-keyboard-response","21","231591","0.0-6.0-1.2","2975860","co38620","norming","","","","","","",""
"11968.509999999922","","","post_mooney1_questions","survey-likert","22","243562","0.0-6.0-2.2","2975860","co38620","norming","","","{""curiosity"":4,""confidence"":1}","[0,1]","../img/tt/416tt.jpg","",""
"3181.9199999999837","","","recognition","survey-text","23","246746","0.0-6.0-3.2","2975860","co38620","norming","","","{""guess"":""""}","","../img/tt/416tt.jpg","",""
"null","../img/gs/416gs.jpg","null","reveal","image-keyboard-response","24","248755","0.0-6.0-4.2","2975860","co38620","norming","","","","","","",""
"null","../img/tt/416tt.jpg","null","mooney2","image-keyboard-response","25","250756","0.0-6.0-5.2","2975860","co38620","norming","","","","","","",""
"3219.9800000000687","","","post_reveal_questions","survey-likert","26","253978","0.0-6.0-6.2","2975860","co38620","norming","","","{""aha"":5}","[0]","../img/tt/416tt.jpg","",""
"null","<div style=""font-size:60px;""> </div>","null","fixation","html-keyboard-response","27","254189","0.0-6.0-0.3","2975860","co38620","norming","","","","","","",""
"null","../img/tt/126tt.jpg","null","mooney1","image-keyboard-response","28","257199","0.0-6.0-1.3","2975860","co38620","norming","","","","","","",""
"12792.770000000019","","","post_mooney1_questions","survey-likert","29","269995","0.0-6.0-2.3","2975860","co38620","norming","","","{""curiosity"":4,""confidence"":0}","[0,1]","../img/tt/126tt.jpg","",""
"1133.9950000001118","","","recognition","survey-text","30","271130","0.0-6.0-3.3","2975860","co38620","norming","","","{""guess"":""""}","","../img/tt/126tt.jpg","",""
"null","../img/gs/126gs.jpg","null","reveal","image-keyboard-response","31","273139","0.0-6.0-4.3","2975860","co38620","norming","","","","","","",""
"null","../img/tt/126tt.jpg","null","mooney2","image-keyboard-response","32","275148","0.0-6.0-5.3","2975860","co38620","norming","","","","","","",""
"7717.395000000135","","","post_reveal_questions","survey-likert","33","282866","0.0-6.0-6.3","2975860","co38620","norming","","","{""aha"":3}","[0]","../img/tt/126tt.jpg","",""
"null","<div style=""font-size:60px;""> </div>","null","fixation","html-keyboard-response","34","283077","0.0-6.0-0.4","2975860","co38620","norming","","","","","","",""
"null","../img/tt/1084tt.jpg","null","mooney1","image-keyboard-response","35","286080","0.0-6.0-1.4","2975860","co38620","norming","","","","","","",""
"11538.174999999872","","","post_mooney1_questions","survey-likert","36","297613","0.0-6.0-2.4","2975860","co38620","norming","","","{""curiosity"":4,""confidence"":1}","[0,1]","../img/tt/1084tt.jpg","",""
"18453.314999999944","","","recognition","survey-text","37","316069","0.0-6.0-3.4","2975860","co38620","norming","","","{""guess"":""bestek bord""}","","../img/tt/1084tt.jpg","",""
"null","../img/gs/1084gs.jpg","null","reveal","image-keyboard-response","38","318074","0.0-6.0-4.4","2975860","co38620","norming","","","","","","",""
"null","../img/tt/1084tt.jpg","null","mooney2","image-keyboard-response","39","320081","0.0-6.0-5.4","2975860","co38620","norming","","","","","","",""
"6194.934999999998","","","post_reveal_questions","survey-likert","40","326277","0.0-6.0-6.4","2975860","co38620","norming","","","{""aha"":4}","[0]","../img/tt/1084tt.jpg","",""
"null","<div style=""font-size:60px;""> </div>","null","fixation","html-keyboard-response","41","326487","0.0-6.0-0.5","2975860","co38620","norming","","","","","","",""
"null","../img/tt/124tt.jpg","null","mooney1","image-keyboard-response","42","329490","0.0-6.0-1.5","2975860","co38620","norming","","","","","","",""
"9216.985000000044","","","post_mooney1_questions","survey-likert","43","338709","0.0-6.0-2.5","2975860","co38620","norming","","","{""curiosity"":3,""confidence"":3}","[0,1]","../img/tt/124tt.jpg","",""
"36654.02500000002","","","recognition","survey-text","44","375362","0.0-6.0-3.5","2975860","co38620","norming","","","{""guess"":""beer""}","","../img/tt/124tt.jpg","",""
"null","../img/gs/124gs.jpg","null","reveal","image-keyboard-response","45","377373","0.0-6.0-4.5","2975860","co38620","norming","","","","","","",""
"null","../img/tt/124tt.jpg","null","mooney2","image-keyboard-response","46","379375","0.0-6.0-5.5","2975860","co38620","norming","","","","","","",""
"5873.890000000072","","","post_reveal_questions","survey-likert","47","385251","0.0-6.0-6.5","2975860","co38620","norming","","","{""aha"":5}","[0]","../img/tt/124tt.jpg","",""
"null","<div style=""font-size:60px;""> </div>","null","fixation","html-keyboard-response","48","385462","0.0-6.0-0.6","2975860","co38620","norming","","","","","","",""
"null","../img/tt/1046tt.jpg","null","mooney1","image-keyboard-response","49","388467","0.0-6.0-1.6","2975860","co38620","norming","","","","","","",""
"24966.149999999965","","","post_mooney1_questions","survey-likert","50","413435","0.0-6.0-2.6","2975860","co38620","norming","","","{""curiosity"":4,""confidence"":2}","[0,1]","../img/tt/1046tt.jpg","",""
"9374.01999999996","","","recognition","survey-text","51","422811","0.0-6.0-3.6","2975860","co38620","norming","","","{""guess"":""""}","","../img/tt/1046tt.jpg","",""
"null","../img/gs/1046gs.jpg","null","reveal","image-keyboard-response","52","424819","0.0-6.0-4.6","2975860","co38620","norming","","","","","","",""
"null","../img/tt/1046tt.jpg","null","mooney2","image-keyboard-response","53","426821","0.0-6.0-5.6","2975860","co38620","norming","","","","","","",""
"11779.990000000049","","","post_reveal_questions","survey-likert","54","438611","0.0-6.0-6.6","2975860","co38620","norming","","","{""aha"":5}","[0]","../img/tt/1046tt.jpg","",""
"null","<div style=""font-size:60px;""> </div>","null","fixation","html-keyboard-response","55","438819","0.0-6.0-0.7","2975860","co38620","norming","","","","","","",""
"null","../img/tt/111tt.jpg","null","mooney1","image-keyboard-response","56","441825","0.0-6.0-1.7","2975860","co38620","norming","","","","","","",""
"5983.440000000235","","","post_mooney1_questions","survey-likert","57","447811","0.0-6.0-2.7","2975860","co38620","norming","","","{""curiosity"":4,""confidence"":2}","[0,1]","../img/tt/111tt.jpg","",""
"7574.02999999997","","","recognition","survey-text","58","455386","0.0-6.0-3.7","2975860","co38620","norming","","","{""guess"":""telephone""}","","../img/tt/111tt.jpg","",""
"null","../img/gs/111gs.jpg","null","reveal","image-keyboard-response","59","457393","0.0-6.0-4.7","2975860","co38620","norming","","","","","","",""
"null","../img/tt/111tt.jpg","null","mooney2","image-keyboard-response","60","459402","0.0-6.0-5.7","2975860","co38620","norming","","","","","","",""
"4262.180000000168","","","post_reveal_questions","survey-likert","61","463666","0.0-6.0-6.7","2975860","co38620","norming","","","{""aha"":5}","[0]","../img/tt/111tt.jpg","",""
"null","<div style=""font-size:60px;""> </div>","null","fixation","html-keyboard-response","62","463876","0.0-6.0-0.8","2975860","co38620","norming","","","","","","",""
"null","../img/tt/1228tt.jpg","null","mooney1","image-keyboard-response","63","466888","0.0-6.0-1.8","2975860","co38620","norming","","","","","","",""
"6864.505000000005","","","post_mooney1_questions","survey-likert","64","473755","0.0-6.0-2.8","2975860","co38620","norming","","","{""curiosity"":4,""confidence"":1}","[0,1]","../img/tt/1228tt.jpg","",""
"2918.155000000086","","","recognition","survey-text","65","476675","0.0-6.0-3.8","2975860","co38620","norming","","","{""guess"":""bird""}","","../img/tt/1228tt.jpg","",""
"null","../img/gs/1228gs.jpg","null","reveal","image-keyboard-response","66","478681","0.0-6.0-4.8","2975860","co38620","norming","","","","","","",""
"null","../img/tt/1228tt.jpg","null","mooney2","image-keyboard-response","67","480684","0.0-6.0-5.8","2975860","co38620","norming","","","","","","",""
"4029.994999999879","","","post_reveal_questions","survey-likert","68","484715","0.0-6.0-6.8","2975860","co38620","norming","","","{""aha"":4}","[0]","../img/tt/1228tt.jpg","",""
"null","<div style=""font-size:60px;""> </div>","null","fixation","html-keyboard-response","69","484921","0.0-6.0-0.9","2975860","co38620","norming","","","","","","",""
"null","../img/tt/1055tt.jpg","null","mooney1","image-keyboard-response","70","487923","0.0-6.0-1.9","2975860","co38620","norming","","","","","","",""
"6541.439999999944","","","post_mooney1_questions","survey-likert","71","494467","0.0-6.0-2.9","2975860","co38620","norming","","","{""curiosity"":4,""confidence"":0}","[0,1]","../img/tt/1055tt.jpg","",""
"789.9099999999744","","","recognition","survey-text","72","495258","0.0-6.0-3.9","2975860","co38620","norming","","","{""guess"":""""}","","../img/tt/1055tt.jpg","",""
"null","../img/gs/1055gs.jpg","null","reveal","image-keyboard-response","73","497260","0.0-6.0-4.9","2975860","co38620","norming","","","","","","",""
"null","../img/tt/1055tt.jpg","null","mooney2","image-keyboard-response","74","499262","0.0-6.0-5.9","2975860","co38620","norming","","","","","","",""
"4067.3249999999534","","","post_reveal_questions","survey-likert","75","503331","0.0-6.0-6.9","2975860","co38620","norming","","","{""aha"":5}","[0]","../img/tt/1055tt.jpg","",""
"null","<div style=""font-size:60px;""> </div>","null","fixation","html-keyboard-response","76","503533","0.0-6.0-0.10","2975860","co38620","norming","","","","","","",""
"null","../img/tt/008tt.jpg","null","mooney1","image-keyboard-response","77","506536","0.0-6.0-1.10","2975860","co38620","norming","","","","","","",""
"5152.769999999902","","","post_mooney1_questions","survey-likert","78","511691","0.0-6.0-2.10","2975860","co38620","norming","","","{""curiosity"":4,""confidence"":0}","[0,1]","../img/tt/008tt.jpg","",""
"949.1749999999884","","","recognition","survey-text","79","512643","0.0-6.0-3.10","2975860","co38620","norming","","","{""guess"":""""}","","../img/tt/008tt.jpg","",""
"null","../img/gs/008gs.jpg","null","reveal","image-keyboard-response","80","514644","0.0-6.0-4.10","2975860","co38620","norming","","","","","","",""
"null","../img/tt/008tt.jpg","null","mooney2","image-keyboard-response","81","516646","0.0-6.0-5.10","2975860","co38620","norming","","","","","","",""
"1938.6600000000326","","","post_reveal_questions","survey-likert","82","518587","0.0-6.0-6.10","2975860","co38620","norming","","","{""aha"":5}","[0]","../img/tt/008tt.jpg","",""
"null","<div style=""font-size:60px;""> </div>","null","fixation","html-keyboard-response","83","518798","0.0-6.0-0.11","2975860","co38620","norming","","","","","","",""
"null","../img/tt/1107tt.jpg","null","mooney1","image-keyboard-response","84","521800","0.0-6.0-1.11","2975860","co38620","norming","","","","","","",""
"9271.994999999995","","","post_mooney1_questions","survey-likert","85","531075","0.0-6.0-2.11","2975860","co38620","norming","","","{""curiosity"":4,""confidence"":0}","[0,1]","../img/tt/1107tt.jpg","",""
"870.015000000014","","","recognition","survey-text","86","531947","0.0-6.0-3.11","2975860","co38620","norming","","","{""guess"":""""}","","../img/tt/1107tt.jpg","",""
"null","../img/gs/1107gs.jpg","null","reveal","image-keyboard-response","87","533957","0.0-6.0-4.11","2975860","co38620","norming","","","","","","",""
"null","../img/tt/1107tt.jpg","null","mooney2","image-keyboard-response","88","535959","0.0-6.0-5.11","2975860","co38620","norming","","","","","","",""
"2769.9500000001863","","","post_reveal_questions","survey-likert","89","538731","0.0-6.0-6.11","2975860","co38620","norming","","","{""aha"":6}","[0]","../img/tt/1107tt.jpg","",""
"null","<div style=""font-size:60px;""> </div>","null","fixation","html-keyboard-response","90","538932","0.0-6.0-0.12","2975860","co38620","norming","","","","","","",""
"null","../img/tt/044tt.jpg","null","mooney1","image-keyboard-response","91","541943","0.0-6.0-1.12","2975860","co38620","norming","","","","","","",""
"7985.479999999981","","","post_mooney1_questions","survey-likert","92","549931","0.0-6.0-2.12","2975860","co38620","norming","","","{""curiosity"":4,""confidence"":0}","[0,1]","../img/tt/044tt.jpg","",""
"1206.0499999999302","","","recognition","survey-text","93","551139","0.0-6.0-3.12","2975860","co38620","norming","","","{""guess"":""""}","","../img/tt/044tt.jpg","",""
"null","../img/gs/044gs.jpg","null","reveal","image-keyboard-response","94","553140","0.0-6.0-4.12","2975860","co38620","norming","","","","","","",""
"null","../img/tt/044tt.jpg","null","mooney2","image-keyboard-response","95","555149","0.0-6.0-5.12","2975860","co38620","norming","","","","","","",""
"3595.949999999837","","","post_reveal_questions","survey-likert","96","558747","0.0-6.0-6.12","2975860","co38620","norming","","","{""aha"":4}","[0]","../img/tt/044tt.jpg","",""
"null","<div style=""font-size:60px;""> </div>","null","fixation","html-keyboard-response","97","558951","0.0-6.0-0.13","2975860","co38620","norming","","","","","","",""
"null","../img/tt/406tt.jpg","null","mooney1","image-keyboard-response","98","561953","0.0-6.0-1.13","2975860","co38620","norming","","","","","","",""
"15783.859999999986","","","post_mooney1_questions","survey-likert","99","577739","0.0-6.0-2.13","2975860","co38620","norming","","","{""curiosity"":4,""confidence"":0}","[0,1]","../img/tt/406tt.jpg","",""
"3302.1200000001118","","","recognition","survey-text","100","581043","0.0-6.0-3.13","2975860","co38620","norming","","","{""guess"":""""}","","../img/tt/406tt.jpg","",""
"null","../img/gs/406gs.jpg","null","reveal","image-keyboard-response","101","583053","0.0-6.0-4.13","2975860","co38620","norming","","","","","","",""
"null","../img/tt/406tt.jpg","null","mooney2","image-keyboard-response","102","585054","0.0-6.0-5.13","2975860","co38620","norming","","","","","","",""
"3883.9599999999627","","","post_reveal_questions","survey-likert","103","588939","0.0-6.0-6.13","2975860","co38620","norming","","","{""aha"":6}","[0]","../img/tt/406tt.jpg","",""
"null","<div style=""font-size:60px;""> </div>","null","fixation","html-keyboard-response","104","589140","0.0-6.0-0.14","2975860","co38620","norming","","","","","","",""
"null","../img/tt/163tt.jpg","null","mooney1","image-keyboard-response","105","592151","0.0-6.0-1.14","2975860","co38620","norming","","","","","","",""
"6618.709999999963","","","post_mooney1_questions","survey-likert","106","598771","0.0-6.0-2.14","2975860","co38620","norming","","","{""curiosity"":4,""confidence"":1}","[0,1]","../img/tt/163tt.jpg","",""
"830.1599999999162","","","recognition","survey-text","107","599603","0.0-6.0-3.14","2975860","co38620","norming","","","{""guess"":""""}","","../img/tt/163tt.jpg","",""
"null","../img/gs/163gs.jpg","null","reveal","image-keyboard-response","108","601608","0.0-6.0-4.14","2975860","co38620","norming","","","","","","",""
"null","../img/tt/163tt.jpg","null","mooney2","image-keyboard-response","109","603610","0.0-6.0-5.14","2975860","co38620","norming","","","","","","",""
"4063.1300000000047","","","post_reveal_questions","survey-likert","110","607675","0.0-6.0-6.14","2975860","co38620","norming","","","{""aha"":6}","[0]","../img/tt/163tt.jpg","",""
"null","<div style=""font-size:60px;""> </div>","null","fixation","html-keyboard-response","111","607885","0.0-6.0-0.15","2975860","co38620","norming","","","","","","",""
"null","../img/tt/121tt.jpg","null","mooney1","image-keyboard-response","112","610888","0.0-6.0-1.15","2975860","co38620","norming","","","","","","",""
"5048.815000000177","","","post_mooney1_questions","survey-likert","113","615939","0.0-6.0-2.15","2975860","co38620","norming","","","{""curiosity"":5,""confidence"":2}","[0,1]","../img/tt/121tt.jpg","",""
"1917.9300000000512","","","recognition","survey-text","114","617859","0.0-6.0-3.15","2975860","co38620","norming","","","{""guess"":""bird""}","","../img/tt/121tt.jpg","",""
"null","../img/gs/121gs.jpg","null","reveal","image-keyboard-response","115","619868","0.0-6.0-4.15","2975860","co38620","norming","","","","","","",""
"null","../img/tt/121tt.jpg","null","mooney2","image-keyboard-response","116","621870","0.0-6.0-5.15","2975860","co38620","norming","","","","","","",""
"3610.9749999999767","","","post_reveal_questions","survey-likert","117","625480","0.0-6.0-6.15","2975860","co38620","norming","","","{""aha"":6}","[0]","../img/tt/121tt.jpg","",""
"null","<div style=""font-size:60px;""> </div>","null","fixation","html-keyboard-response","118","625682","0.0-6.0-0.16","2975860","co38620","norming","","","","","","",""
"null","../img/tt/096tt.jpg","null","mooney1","image-keyboard-response","119","628684","0.0-6.0-1.16","2975860","co38620","norming","","","","","","",""
"7705.474999999977","","","post_mooney1_questions","survey-likert","120","636392","0.0-6.0-2.16","2975860","co38620","norming","","","{""curiosity"":3,""confidence"":6}","[0,1]","../img/tt/096tt.jpg","",""
"3213.5200000000186","","","recognition","survey-text","121","639607","0.0-6.0-3.16","2975860","co38620","norming","","","{""guess"":""piano""}","","../img/tt/096tt.jpg","",""
"null","../img/gs/096gs.jpg","null","reveal","image-keyboard-response","122","641611","0.0-6.0-4.16","2975860","co38620","norming","","","","","","",""
"null","../img/tt/096tt.jpg","null","mooney2","image-keyboard-response","123","643620","0.0-6.0-5.16","2975860","co38620","norming","","","","","","",""
"6265.77500000014","","","post_reveal_questions","survey-likert","124","649888","0.0-6.0-6.16","2975860","co38620","norming","","","{""aha"":0}","[0]","../img/tt/096tt.jpg","",""
"null","<div style=""font-size:60px;""> </div>","null","fixation","html-keyboard-response","125","650095","0.0-6.0-0.17","2975860","co38620","norming","","","","","","",""
"null","../img/tt/567tt.jpg","null","mooney1","image-keyboard-response","126","653105","0.0-6.0-1.17","2975860","co38620","norming","","","","","","",""
"11540.95000000007","","","post_mooney1_questions","survey-likert","127","664648","0.0-6.0-2.17","2975860","co38620","norming","","","{""curiosity"":4,""confidence"":1}","[0,1]","../img/tt/567tt.jpg","",""
"6454.055000000168","","","recognition","survey-text","128","671104","0.0-6.0-3.17","2975860","co38620","norming","","","{""guess"":""sponge""}","","../img/tt/567tt.jpg","",""
"null","../img/gs/567gs.jpg","null","reveal","image-keyboard-response","129","673110","0.0-6.0-4.17","2975860","co38620","norming","","","","","","",""
"null","../img/tt/567tt.jpg","null","mooney2","image-keyboard-response","130","675112","0.0-6.0-5.17","2975860","co38620","norming","","","","","","",""
"1758.3500000000931","","","post_reveal_questions","survey-likert","131","676872","0.0-6.0-6.17","2975860","co38620","norming","","","{""aha"":6}","[0]","../img/tt/567tt.jpg","",""
"null","<div style=""font-size:60px;""> </div>","null","fixation","html-keyboard-response","132","677073","0.0-6.0-0.18","2975860","co38620","norming","","","","","","",""
"null","../img/tt/1186tt.jpg","null","mooney1","image-keyboard-response","133","680075","0.0-6.0-1.18","2975860","co38620","norming","","","","","","",""
"7132.020000000019","","","post_mooney1_questions","survey-likert","134","687203","0.0-6.0-2.18","2975860","co38620","norming","","","{""curiosity"":4,""confidence"":2}","[0,1]","../img/tt/1186tt.jpg","",""
"5446.089999999967","","","recognition","survey-text","135","692651","0.0-6.0-3.18","2975860","co38620","norming","","","{""guess"":""astronout""}","","../img/tt/1186tt.jpg","",""
"null","../img/gs/1186gs.jpg","null","reveal","image-keyboard-response","136","694659","0.0-6.0-4.18","2975860","co38620","norming","","","","","","",""
"null","../img/tt/1186tt.jpg","null","mooney2","image-keyboard-response","137","696666","0.0-6.0-5.18","2975860","co38620","norming","","","","","","",""
"2686.1650000000373","","","post_reveal_questions","survey-likert","138","699355","0.0-6.0-6.18","2975860","co38620","norming","","","{""aha"":5}","[0]","../img/tt/1186tt.jpg","",""
"null","<div style=""font-size:60px;""> </div>","null","fixation","html-keyboard-response","139","699566","0.0-6.0-0.19","2975860","co38620","norming","","","","","","",""
"null","../img/tt/435tt.jpg","null","mooney1","image-keyboard-response","140","702573","0.0-6.0-1.19","2975860","co38620","norming","","","","","","",""
"5605.399999999907","","","post_mooney1_questions","survey-likert","141","708179","0.0-6.0-2.19","2975860","co38620","norming","","","{""curiosity"":6,""confidence"":0}","[0,1]","../img/tt/435tt.jpg","",""
"1085.9049999999115","","","recognition","survey-text","142","709267","0.0-6.0-3.19","2975860","co38620","norming","","","{""guess"":""""}","","../img/tt/435tt.jpg","",""
"null","../img/gs/435gs.jpg","null","reveal","image-keyboard-response","143","711268","0.0-6.0-4.19","2975860","co38620","norming","","","","","","",""
"null","../img/tt/435tt.jpg","null","mooney2","image-keyboard-response","144","713279","0.0-6.0-5.19","2975860","co38620","norming","","","","","","",""
"2209.980000000098","","","post_reveal_questions","survey-likert","145","715491","0.0-6.0-6.19","2975860","co38620","norming","","","{""aha"":6}","[0]","../img/tt/435tt.jpg","",""
"null","<div style=""font-size:60px;""> </div>","null","fixation","html-keyboard-response","146","715698","0.0-6.0-0.20","2975860","co38620","norming","","","","","","",""
"null","../img/tt/1234tt.jpg","null","mooney1","image-keyboard-response","147","718707","0.0-6.0-1.20","2975860","co38620","norming","","","","","","",""
"4741.730000000098","","","post_mooney1_questions","survey-likert","148","723451","0.0-6.0-2.20","2975860","co38620","norming","","","{""curiosity"":4,""confidence"":2}","[0,1]","../img/tt/1234tt.jpg","",""
"2526.1699999999255","","","recognition","survey-text","149","725979","0.0-6.0-3.20","2975860","co38620","norming","","","{""guess"":""boat""}","","../img/tt/1234tt.jpg","",""
"null","../img/gs/1234gs.jpg","null","reveal","image-keyboard-response","150","727986","0.0-6.0-4.20","2975860","co38620","norming","","","","","","",""
"null","../img/tt/1234tt.jpg","null","mooney2","image-keyboard-response","151","729994","0.0-6.0-5.20","2975860","co38620","norming","","","","","","",""
"3535.0050000000047","","","post_reveal_questions","survey-likert","152","733531","0.0-6.0-6.20","2975860","co38620","norming","","","{""aha"":5}","[0]","../img/tt/1234tt.jpg","",""
"null","<div style=""font-size:60px;""> </div>","null","fixation","html-keyboard-response","153","733739","0.0-6.0-0.21","2975860","co38620","norming","","","","","","",""
"null","../img/tt/1148tt.jpg","null","mooney1","image-keyboard-response","154","736750","0.0-6.0-1.21","2975860","co38620","norming","","","","","","",""
"5250.860000000102","","","post_mooney1_questions","survey-likert","155","742003","0.0-6.0-2.21","2975860","co38620","norming","","","{""curiosity"":4,""confidence"":2}","[0,1]","../img/tt/1148tt.jpg","",""
"3421.914999999921","","","recognition","survey-text","156","745430","0.0-6.0-3.21","2975860","co38620","norming","","","{""guess"":""duck""}","","../img/tt/1148tt.jpg","",""
"null","../img/gs/1148gs.jpg","null","reveal","image-keyboard-response","157","747440","0.0-6.0-4.21","2975860","co38620","norming","","","","","","",""
"null","../img/tt/1148tt.jpg","null","mooney2","image-keyboard-response","158","749441","0.0-6.0-5.21","2975860","co38620","norming","","","","","","",""
"2243.1450000000186","","","post_reveal_questions","survey-likert","159","751687","0.0-6.0-6.21","2975860","co38620","norming","","","{""aha"":6}","[0]","../img/tt/1148tt.jpg","",""
"null","<div style=""font-size:60px;""> </div>","null","fixation","html-keyboard-response","160","751888","0.0-6.0-0.22","2975860","co38620","norming","","","","","","",""
"null","../img/tt/1235tt.jpg","null","mooney1","image-keyboard-response","161","754897","0.0-6.0-1.22","2975860","co38620","norming","","","","","","",""
"5186.979999999981","","","post_mooney1_questions","survey-likert","162","760086","0.0-6.0-2.22","2975860","co38620","norming","","","{""curiosity"":5,""confidence"":0}","[0,1]","../img/tt/1235tt.jpg","",""
"965.9149999999208","","","recognition","survey-text","163","761054","0.0-6.0-3.22","2975860","co38620","norming","","","{""guess"":""""}","","../img/tt/1235tt.jpg","",""
"null","../img/gs/1235gs.jpg","null","reveal","image-keyboard-response","164","763063","0.0-6.0-4.22","2975860","co38620","norming","","","","","","",""
"null","../img/tt/1235tt.jpg","null","mooney2","image-keyboard-response","165","765074","0.0-6.0-5.22","2975860","co38620","norming","","","","","","",""
"3801.9250000000466","","","post_reveal_questions","survey-likert","166","768878","0.0-6.0-6.22","2975860","co38620","norming","","","{""aha"":6}","[0]","../img/tt/1235tt.jpg","",""
"null","<div style=""font-size:60px;""> </div>","null","fixation","html-keyboard-response","167","769085","0.0-6.0-0.23","2975860","co38620","norming","","","","","","",""
"null","../img/tt/1254tt.jpg","null","mooney1","image-keyboard-response","168","772092","0.0-6.0-1.23","2975860","co38620","norming","","","","","","",""
"5857.310000000172","","","post_mooney1_questions","survey-likert","169","777951","0.0-6.0-2.23","2975860","co38620","norming","","","{""curiosity"":4,""confidence"":0}","[0,1]","../img/tt/1254tt.jpg","",""
"574.1500000001397","","","recognition","survey-text","170","778526","0.0-6.0-3.23","2975860","co38620","norming","","","{""guess"":""""}","","../img/tt/1254tt.jpg","",""
"null","../img/gs/1254gs.jpg","null","reveal","image-keyboard-response","171","780535","0.0-6.0-4.23","2975860","co38620","norming","","","","","","",""
"null","../img/tt/1254tt.jpg","null","mooney2","image-keyboard-response","172","782537","0.0-6.0-5.23","2975860","co38620","norming","","","","","","",""
"1531.5050000000047","","","post_reveal_questions","survey-likert","173","784070","0.0-6.0-6.23","2975860","co38620","norming","","","{""aha"":6}","[0]","../img/tt/1254tt.jpg","",""
"null","<div style=""font-size:60px;""> </div>","null","fixation","html-keyboard-response","174","784275","0.0-6.0-0.24","2975860","co38620","norming","","","","","","",""
"null","../img/tt/318tt.jpg","null","mooney1","image-keyboard-response","175","787285","0.0-6.0-1.24","2975860","co38620","norming","","","","","","",""
"5712.45000000007","","","post_mooney1_questions","survey-likert","176","792999","0.0-6.0-2.24","2975860","co38620","norming","","","{""curiosity"":4,""confidence"":1}","[0,1]","../img/tt/318tt.jpg","",""
"3453.945000000065","","","recognition","survey-text","177","796454","0.0-6.0-3.24","2975860","co38620","norming","","","{""guess"":""window""}","","../img/tt/318tt.jpg","",""
"null","../img/gs/318gs.jpg","null","reveal","image-keyboard-response","178","798464","0.0-6.0-4.24","2975860","co38620","norming","","","","","","",""
"null","../img/tt/318tt.jpg","null","mooney2","image-keyboard-response","179","800466","0.0-6.0-5.24","2975860","co38620","norming","","","","","","",""
"2586.9049999999115","","","post_reveal_questions","survey-likert","180","803055","0.0-6.0-6.24","2975860","co38620","norming","","","{""aha"":5}","[0]","../img/tt/318tt.jpg","",""
"null","<div style=""font-size:60px;""> </div>","null","fixation","html-keyboard-response","181","803265","0.0-6.0-0.25","2975860","co38620","norming","","","","","","",""
"null","../img/tt/1089tt.jpg","null","mooney1","image-keyboard-response","182","806275","0.0-6.0-1.25","2975860","co38620","norming","","","","","","",""
"5991.625000000116","","","post_mooney1_questions","survey-likert","183","812268","0.0-6.0-2.25","2975860","co38620","norming","","","{""curiosity"":4,""confidence"":0}","[0,1]","../img/tt/1089tt.jpg","",""
"654.0250000000233","","","recognition","survey-text","184","812923","0.0-6.0-3.25","2975860","co38620","norming","","","{""guess"":""""}","","../img/tt/1089tt.jpg","",""
"null","../img/gs/1089gs.jpg","null","reveal","image-keyboard-response","185","814933","0.0-6.0-4.25","2975860","co38620","norming","","","","","","",""
"null","../img/tt/1089tt.jpg","null","mooney2","image-keyboard-response","186","816944","0.0-6.0-5.25","2975860","co38620","norming","","","","","","",""
"2936.964999999851","","","post_reveal_questions","survey-likert","187","819884","0.0-6.0-6.25","2975860","co38620","norming","","","{""aha"":5}","[0]","../img/tt/1089tt.jpg","",""
"null","<div style=""font-size:60px;""> </div>","null","fixation","html-keyboard-response","188","820093","0.0-6.0-0.26","2975860","co38620","norming","","","","","","",""
"null","../img/tt/118tt.jpg","null","mooney1","image-keyboard-response","189","823103","0.0-6.0-1.26","2975860","co38620","norming","","","","","","",""
"6170.609999999986","","","post_mooney1_questions","survey-likert","190","829276","0.0-6.0-2.26","2975860","co38620","norming","","","{""curiosity"":4,""confidence"":1}","[0,1]","../img/tt/118tt.jpg","",""
"654.0399999998044","","","recognition","survey-text","191","829932","0.0-6.0-3.26","2975860","co38620","norming","","","{""guess"":""""}","","../img/tt/118tt.jpg","",""
"null","../img/gs/118gs.jpg","null","reveal","image-keyboard-response","192","831935","0.0-6.0-4.26","2975860","co38620","norming","","","","","","",""
"null","../img/tt/118tt.jpg","null","mooney2","image-keyboard-response","193","833937","0.0-6.0-5.26","2975860","co38620","norming","","","","","","",""
"2976.180000000051","","","post_reveal_questions","survey-likert","194","836916","0.0-6.0-6.26","2975860","co38620","norming","","","{""aha"":6}","[0]","../img/tt/118tt.jpg","",""
"null","<div style=""font-size:60px;""> </div>","null","fixation","html-keyboard-response","195","837126","0.0-6.0-0.27","2975860","co38620","norming","","","","","","",""
"null","../img/tt/094tt.jpg","null","mooney1","image-keyboard-response","196","840130","0.0-6.0-1.27","2975860","co38620","norming","","","","","","",""
"9217.100000000093","","","post_mooney1_questions","survey-likert","197","849348","0.0-6.0-2.27","2975860","co38620","norming","","","{""curiosity"":5,""confidence"":0}","[0,1]","../img/tt/094tt.jpg","",""
"982.0400000001537","","","recognition","survey-text","198","850331","0.0-6.0-3.27","2975860","co38620","norming","","","{""guess"":""""}","","../img/tt/094tt.jpg","",""
"null","../img/gs/094gs.jpg","null","reveal","image-keyboard-response","199","852340","0.0-6.0-4.27","2975860","co38620","norming","","","","","","",""
"null","../img/tt/094tt.jpg","null","mooney2","image-keyboard-response","200","854349","0.0-6.0-5.27","2975860","co38620","norming","","","","","","",""
"4948.124999999884","","","post_reveal_questions","survey-likert","201","859300","0.0-6.0-6.27","2975860","co38620","norming","","","{""aha"":1}","[0]","../img/tt/094tt.jpg","",""
"null","<div style=""font-size:60px;""> </div>","null","fixation","html-keyboard-response","202","859504","0.0-6.0-0.28","2975860","co38620","norming","","","","","","",""
"null","../img/tt/300tt.jpg","null","mooney1","image-keyboard-response","203","862515","0.0-6.0-1.28","2975860","co38620","norming","","","","","","",""
"4310.780000000028","","","post_mooney1_questions","survey-likert","204","866827","0.0-6.0-2.28","2975860","co38620","norming","","","{""curiosity"":4,""confidence"":0}","[0,1]","../img/tt/300tt.jpg","",""
"669.9550000000745","","","recognition","survey-text","205","867499","0.0-6.0-3.28","2975860","co38620","norming","","","{""guess"":""""}","","../img/tt/300tt.jpg","",""
"null","../img/gs/300gs.jpg","null","reveal","image-keyboard-response","206","869503","0.0-6.0-4.28","2975860","co38620","norming","","","","","","",""
"null","../img/tt/300tt.jpg","null","mooney2","image-keyboard-response","207","871511","0.0-6.0-5.28","2975860","co38620","norming","","","","","","",""
"3257.7149999999674","","","post_reveal_questions","survey-likert","208","874771","0.0-6.0-6.28","2975860","co38620","norming","","","{""aha"":5}","[0]","../img/tt/300tt.jpg","",""
"null","<div style=""font-size:60px;""> </div>","null","fixation","html-keyboard-response","209","874972","0.0-6.0-0.29","2975860","co38620","norming","","","","","","",""
"null","../img/tt/1091tt.jpg","null","mooney1","image-keyboard-response","210","877977","0.0-6.0-1.29","2975860","co38620","norming","","","","","","",""
"9118.764999999898","","","post_mooney1_questions","survey-likert","211","887099","0.0-6.0-2.29","2975860","co38620","norming","","","{""curiosity"":6,""confidence"":2}","[0,1]","../img/tt/1091tt.jpg","",""
"5541.600000000093","","","recognition","survey-text","212","892643","0.0-6.0-3.29","2975860","co38620","norming","","","{""guess"":""elephant""}","","../img/tt/1091tt.jpg","",""
"null","../img/gs/1091gs.jpg","null","reveal","image-keyboard-response","213","894652","0.0-6.0-4.29","2975860","co38620","norming","","","","","","",""
"null","../img/tt/1091tt.jpg","null","mooney2","image-keyboard-response","214","896654","0.0-6.0-5.29","2975860","co38620","norming","","","","","","",""
"3603.554999999935","","","post_reveal_questions","survey-likert","215","900258","0.0-6.0-6.29","2975860","co38620","norming","","","{""aha"":6}","[0]","../img/tt/1091tt.jpg","",""
"null","<div style=""font-size:60px;""> </div>","null","fixation","html-keyboard-response","216","900466","0.0-6.0-0.30","2975860","co38620","norming","","","","","","",""
"null","../img/tt/1078tt.jpg","null","mooney1","image-keyboard-response","217","903475","0.0-6.0-1.30","2975860","co38620","norming","","","","","","",""
"7966.855000000098","","","post_mooney1_questions","survey-likert","218","911443","0.0-6.0-2.30","2975860","co38620","norming","","","{""curiosity"":4,""confidence"":2}","[0,1]","../img/tt/1078tt.jpg","",""
"7006.020000000019","","","recognition","survey-text","219","918451","0.0-6.0-3.30","2975860","co38620","norming","","","{""guess"":""sitting person""}","","../img/tt/1078tt.jpg","",""
"null","../img/gs/1078gs.jpg","null","reveal","image-keyboard-response","220","920452","0.0-6.0-4.30","2975860","co38620","norming","","","","","","",""
"null","../img/tt/1078tt.jpg","null","mooney2","image-keyboard-response","221","922461","0.0-6.0-5.30","2975860","co38620","norming","","","","","","",""
"2643.7200000000885","","","post_reveal_questions","survey-likert","222","925107","0.0-6.0-6.30","2975860","co38620","norming","","","{""aha"":5}","[0]","../img/tt/1078tt.jpg","",""
"null","<div style=""font-size:60px;""> </div>","null","fixation","html-keyboard-response","223","925311","0.0-6.0-0.31","2975860","co38620","norming","","","","","","",""
"null","../img/tt/1087tt.jpg","null","mooney1","image-keyboard-response","224","928320","0.0-6.0-1.31","2975860","co38620","norming","","","","","","",""
"3385.475000000093","","","post_mooney1_questions","survey-likert","225","931707","0.0-6.0-2.31","2975860","co38620","norming","","","{""curiosity"":5,""confidence"":0}","[0,1]","../img/tt/1087tt.jpg","",""
"702.1050000003306","","","recognition","survey-text","226","932411","0.0-6.0-3.31","2975860","co38620","norming","","","{""guess"":""""}","","../img/tt/1087tt.jpg","",""
"null","../img/gs/1087gs.jpg","null","reveal","image-keyboard-response","227","934416","0.0-6.0-4.31","2975860","co38620","norming","","","","","","",""
"null","../img/tt/1087tt.jpg","null","mooney2","image-keyboard-response","228","936422","0.0-6.0-5.31","2975860","co38620","norming","","","","","","",""
"2954.975000000093","","","post_reveal_questions","survey-likert","229","939379","0.0-6.0-6.31","2975860","co38620","norming","","","{""aha"":5}","[0]","../img/tt/1087tt.jpg","",""
"null","<div style=""font-size:60px;""> </div>","null","fixation","html-keyboard-response","230","939583","0.0-6.0-0.32","2975860","co38620","norming","","","","","","",""
"null","../img/tt/079tt.jpg","null","mooney1","image-keyboard-response","231","942588","0.0-6.0-1.32","2975860","co38620","norming","","","","","","",""
"14676.955000000424","","","post_mooney1_questions","survey-likert","232","957268","0.0-6.0-2.32","2975860","co38620","norming","","","{""curiosity"":3,""confidence"":3}","[0,1]","../img/tt/079tt.jpg","",""
"2677.564999999944","","","recognition","survey-text","233","959947","0.0-6.0-3.32","2975860","co38620","norming","","","{""guess"":""bear""}","","../img/tt/079tt.jpg","",""
"null","../img/gs/079gs.jpg","null","reveal","image-keyboard-response","234","961949","0.0-6.0-4.32","2975860","co38620","norming","","","","","","",""
"null","../img/tt/079tt.jpg","null","mooney2","image-keyboard-response","235","963951","0.0-6.0-5.32","2975860","co38620","norming","","","","","","",""
"1874.4599999999627","","","post_reveal_questions","survey-likert","236","965827","0.0-6.0-6.32","2975860","co38620","norming","","","{""aha"":1}","[0]","../img/tt/079tt.jpg","",""
"null","<div style=""font-size:60px;""> </div>","null","fixation","html-keyboard-response","237","966029","0.0-6.0-0.33","2975860","co38620","norming","","","","","","",""
"null","../img/tt/517tt.jpg","null","mooney1","image-keyboard-response","238","969037","0.0-6.0-1.33","2975860","co38620","norming","","","","","","",""
"5884.200000000419","","","post_mooney1_questions","survey-likert","239","974924","0.0-6.0-2.33","2975860","co38620","norming","","","{""curiosity"":4,""confidence"":3}","[0,1]","../img/tt/517tt.jpg","",""
"1766.1349999997765","","","recognition","survey-text","240","976691","0.0-6.0-3.33","2975860","co38620","norming","","","{""guess"":""dog""}","","../img/tt/517tt.jpg","",""
"null","../img/gs/517gs.jpg","null","reveal","image-keyboard-response","241","978695","0.0-6.0-4.33","2975860","co38620","norming","","","","","","",""
"null","../img/tt/517tt.jpg","null","mooney2","image-keyboard-response","242","980704","0.0-6.0-5.33","2975860","co38620","norming","","","","","","",""
"3569.0550000004005","","","post_reveal_questions","survey-likert","243","984276","0.0-6.0-6.33","2975860","co38620","norming","","","{""aha"":2}","[0]","../img/tt/517tt.jpg","",""
"null","<div style=""font-size:60px;""> </div>","null","fixation","html-keyboard-response","244","984486","0.0-6.0-0.34","2975860","co38620","norming","","","","","","",""
"null","../img/tt/301tt.jpg","null","mooney1","image-keyboard-response","245","987491","0.0-6.0-1.34","2975860","co38620","norming","","","","","","",""
"10118.095000000205","","","post_mooney1_questions","survey-likert","246","997608","0.0-6.0-2.34","2975860","co38620","norming","","","{""curiosity"":4,""confidence"":0}","[0,1]","../img/tt/301tt.jpg","",""
"581.9200000000419","","","recognition","survey-text","247","998192","0.0-6.0-3.34","2975860","co38620","norming","","","{""guess"":""""}","","../img/tt/301tt.jpg","",""
"null","../img/gs/301gs.jpg","null","reveal","image-keyboard-response","248","1000201","0.0-6.0-4.34","2975860","co38620","norming","","","","","","",""
"null","../img/tt/301tt.jpg","null","mooney2","image-keyboard-response","249","1002207","0.0-6.0-5.34","2975860","co38620","norming","","","","","","",""
"3888.0999999996275","","","post_reveal_questions","survey-likert","250","1006096","0.0-6.0-6.34","2975860","co38620","norming","","","{""aha"":3}","[0]","../img/tt/301tt.jpg","",""
"null","<div style=""font-size:60px;""> </div>","null","fixation","html-keyboard-response","251","1006305","0.0-6.0-0.35","2975860","co38620","norming","","","","","","",""
"null","../img/tt/477tt.jpg","null","mooney1","image-keyboard-response","252","1009309","0.0-6.0-1.35","2975860","co38620","norming","","","","","","",""
"3648.7600000000093","","","post_mooney1_questions","survey-likert","253","1012960","0.0-6.0-2.35","2975860","co38620","norming","","","{""curiosity"":4,""confidence"":0}","[0,1]","../img/tt/477tt.jpg","",""
"741.9150000000373","","","recognition","survey-text","254","1013704","0.0-6.0-3.35","2975860","co38620","norming","","","{""guess"":""""}","","../img/tt/477tt.jpg","",""
"null","../img/gs/477gs.jpg","null","reveal","image-keyboard-response","255","1015713","0.0-6.0-4.35","2975860","co38620","norming","","","","","","",""
"null","../img/tt/477tt.jpg","null","mooney2","image-keyboard-response","256","1017715","0.0-6.0-5.35","2975860","co38620","norming","","","","","","",""
"2090.3649999999907","","","post_reveal_questions","survey-likert","257","1019808","0.0-6.0-6.35","2975860","co38620","norming","","","{""aha"":5}","[0]","../img/tt/477tt.jpg","",""
"null","<div style=""font-size:60px;""> </div>","null","fixation","html-keyboard-response","258","1020009","0.0-6.0-0.36","2975860","co38620","norming","","","","","","",""
"null","../img/tt/1262tt.jpg","null","mooney1","image-keyboard-response","259","1023020","0.0-6.0-1.36","2975860","co38620","norming","","","","","","",""
"9481.414999999688","","","post_mooney1_questions","survey-likert","260","1032504","0.0-6.0-2.36","2975860","co38620","norming","","","{""curiosity"":4,""confidence"":2}","[0,1]","../img/tt/1262tt.jpg","",""
"3558.2199999998556","","","recognition","survey-text","261","1036064","0.0-6.0-3.36","2975860","co38620","norming","","","{""guess"":""fence""}","","../img/tt/1262tt.jpg","",""
"null","../img/gs/1262gs.jpg","null","reveal","image-keyboard-response","262","1038066","0.0-6.0-4.36","2975860","co38620","norming","","","","","","",""
"null","../img/tt/1262tt.jpg","null","mooney2","image-keyboard-response","263","1040068","0.0-6.0-5.36","2975860","co38620","norming","","","","","","",""
"3201.980000000214","","","post_reveal_questions","survey-likert","264","1043272","0.0-6.0-6.36","2975860","co38620","norming","","","{""aha"":4}","[0]","../img/tt/1262tt.jpg","",""
"null","<div style=""font-size:60px;""> </div>","null","fixation","html-keyboard-response","265","1043483","0.0-6.0-0.37","2975860","co38620","norming","","","","","","",""
"null","../img/tt/1366tt.jpg","null","mooney1","image-keyboard-response","266","1046489","0.0-6.0-1.37","2975860","co38620","norming","","","","","","",""
"5836.539999999804","","","post_mooney1_questions","survey-likert","267","1052328","0.0-6.0-2.37","2975860","co38620","norming","","","{""curiosity"":4,""confidence"":0}","[0,1]","../img/tt/1366tt.jpg","",""
"622.3700000001118","","","recognition","survey-text","268","1052952","0.0-6.0-3.37","2975860","co38620","norming","","","{""guess"":""""}","","../img/tt/1366tt.jpg","",""
"null","../img/gs/1366gs.jpg","null","reveal","image-keyboard-response","269","1054954","0.0-6.0-4.37","2975860","co38620","norming","","","","","","",""
"null","../img/tt/1366tt.jpg","null","mooney2","image-keyboard-response","270","1056965","0.0-6.0-5.37","2975860","co38620","norming","","","","","","",""
"2321.034999999916","","","post_reveal_questions","survey-likert","271","1059288","0.0-6.0-6.37","2975860","co38620","norming","","","{""aha"":5}","[0]","../img/tt/1366tt.jpg","",""
"null","<div style=""font-size:60px;""> </div>","null","fixation","html-keyboard-response","272","1059491","0.0-6.0-0.38","2975860","co38620","norming","","","","","","",""
"null","../img/tt/1043tt.jpg","null","mooney1","image-keyboard-response","273","1062496","0.0-6.0-1.38","2975860","co38620","norming","","","","","","",""
"6365.860000000335","","","post_mooney1_questions","survey-likert","274","1068864","0.0-6.0-2.38","2975860","co38620","norming","","","{""curiosity"":4,""confidence"":0}","[0,1]","../img/tt/1043tt.jpg","",""
"678.0950000002049","","","recognition","survey-text","275","1069544","0.0-6.0-3.38","2975860","co38620","norming","","","{""guess"":""""}","","../img/tt/1043tt.jpg","",""
"null","../img/gs/1043gs.jpg","null","reveal","image-keyboard-response","276","1071548","0.0-6.0-4.38","2975860","co38620","norming","","","","","","",""
"null","../img/tt/1043tt.jpg","null","mooney2","image-keyboard-response","277","1073552","0.0-6.0-5.38","2975860","co38620","norming","","","","","","",""
"2878.1299999998882","","","post_reveal_questions","survey-likert","278","1076432","0.0-6.0-6.38","2975860","co38620","norming","","","{""aha"":3}","[0]","../img/tt/1043tt.jpg","",""
"null","<div style=""font-size:60px;""> </div>","null","fixation","html-keyboard-response","279","1076637","0.0-6.0-0.39","2975860","co38620","norming","","","","","","",""
"null","../img/tt/1362tt.jpg","null","mooney1","image-keyboard-response","280","1079644","0.0-6.0-1.39","2975860","co38620","norming","","","","","","",""
"3673.909999999916","","","post_mooney1_questions","survey-likert","281","1083320","0.0-6.0-2.39","2975860","co38620","norming","","","{""curiosity"":5,""confidence"":0}","[0,1]","../img/tt/1362tt.jpg","",""
"598.0500000000466","","","recognition","survey-text","282","1083920","0.0-6.0-3.39","2975860","co38620","norming","","","{""guess"":""""}","","../img/tt/1362tt.jpg","",""
"null","../img/gs/1362gs.jpg","null","reveal","image-keyboard-response","283","1085922","0.0-6.0-4.39","2975860","co38620","norming","","","","","","",""
"null","../img/tt/1362tt.jpg","null","mooney2","image-keyboard-response","284","1087925","0.0-6.0-5.39","2975860","co38620","norming","","","","","","",""
"1584.875","","","post_reveal_questions","survey-likert","285","1089512","0.0-6.0-6.39","2975860","co38620","norming","","","{""aha"":6}","[0]","../img/tt/1362tt.jpg","",""
"null","<div style=""font-size:60px;""> </div>","null","fixation","html-keyboard-response","286","1089717","0.0-6.0-0.40","2975860","co38620","norming","","","","","","",""
"null","../img/tt/1290tt.jpg","null","mooney1","image-keyboard-response","287","1092721","0.0-6.0-1.40","2975860","co38620","norming","","","","","","",""
"7620.710000000196","","","post_mooney1_questions","survey-likert","288","1100344","0.0-6.0-2.40","2975860","co38620","norming","","","{""curiosity"":4,""confidence"":2}","[0,1]","../img/tt/1290tt.jpg","",""
"2918.094999999972","","","recognition","survey-text","289","1103264","0.0-6.0-3.40","2975860","co38620","norming","","","{""guess"":""lift""}","","../img/tt/1290tt.jpg","",""
"null","../img/gs/1290gs.jpg","null","reveal","image-keyboard-response","290","1105265","0.0-6.0-4.40","2975860","co38620","norming","","","","","","",""
"null","../img/tt/1290tt.jpg","null","mooney2","image-keyboard-response","291","1107270","0.0-6.0-5.40","2975860","co38620","norming","","","","","","",""
"2991.2950000001583","","","post_reveal_questions","survey-likert","292","1110264","0.0-6.0-6.40","2975860","co38620","norming","","","{""aha"":1}","[0]","../img/tt/1290tt.jpg","",""
"null","<div style=""font-size:60px;""> </div>","null","fixation","html-keyboard-response","293","1110465","0.0-6.0-0.41","2975860","co38620","norming","","","","","","",""
"null","../img/tt/1353tt.jpg","null","mooney1","image-keyboard-response","294","1113468","0.0-6.0-1.41","2975860","co38620","norming","","","","","","",""
"10929.475000000326","","","post_mooney1_questions","survey-likert","295","1124402","0.0-6.0-2.41","2975860","co38620","norming","","","{""curiosity"":4,""confidence"":2}","[0,1]","../img/tt/1353tt.jpg","",""
"6094.079999999842","","","recognition","survey-text","296","1130497","0.0-6.0-3.41","2975860","co38620","norming","","","{""guess"":""rollercoaster""}","","../img/tt/1353tt.jpg","",""
"null","../img/gs/1353gs.jpg","null","reveal","image-keyboard-response","297","1132503","0.0-6.0-4.41","2975860","co38620","norming","","","","","","",""
"null","../img/tt/1353tt.jpg","null","mooney2","image-keyboard-response","298","1134511","0.0-6.0-5.41","2975860","co38620","norming","","","","","","",""
"3832.0449999996927","","","post_reveal_questions","survey-likert","299","1138345","0.0-6.0-6.41","2975860","co38620","norming","","","{""aha"":6}","[0]","../img/tt/1353tt.jpg","",""
"null","<div style=""font-size:60px;""> </div>","null","fixation","html-keyboard-response","300","1138549","0.0-6.0-0.42","2975860","co38620","norming","","","","","","",""
"null","../img/tt/222tt.jpg","null","mooney1","image-keyboard-response","301","1141560","0.0-6.0-1.42","2975860","co38620","norming","","","","","","",""
"3119.8549999997485","","","post_mooney1_questions","survey-likert","302","1144682","0.0-6.0-2.42","2975860","co38620","norming","","","{""curiosity"":4,""confidence"":0}","[0,1]","../img/tt/222tt.jpg","",""
"541.9150000000373","","","recognition","survey-text","303","1145225","0.0-6.0-3.42","2975860","co38620","norming","","","{""guess"":""""}","","../img/tt/222tt.jpg","",""
"null","../img/gs/222gs.jpg","null","reveal","image-keyboard-response","304","1147231","0.0-6.0-4.42","2975860","co38620","norming","","","","","","",""
"null","../img/tt/222tt.jpg","null","mooney2","image-keyboard-response","305","1149233","0.0-6.0-5.42","2975860","co38620","norming","","","","","","",""
"3203.970000000205","","","post_reveal_questions","survey-likert","306","1152442","0.0-6.0-6.42","2975860","co38620","norming","","","{""aha"":2}","[0]","../img/tt/222tt.jpg","",""
"null","<div style=""font-size:60px;""> </div>","null","fixation","html-keyboard-response","307","1152649","0.0-6.0-0.43","2975860","co38620","norming","","","","","","",""
"null","../img/tt/580tt.jpg","null","mooney1","image-keyboard-response","308","1155655","0.0-6.0-1.43","2975860","co38620","norming","","","","","","",""
"5783.915000000037","","","post_mooney1_questions","survey-likert","309","1161442","0.0-6.0-2.43","2975860","co38620","norming","","","{""curiosity"":4,""confidence"":0}","[0,1]","../img/tt/580tt.jpg","",""
"1038.059999999823","","","recognition","survey-text","310","1162481","0.0-6.0-3.43","2975860","co38620","norming","","","{""guess"":""""}","","../img/tt/580tt.jpg","",""
"null","../img/gs/580gs.jpg","null","reveal","image-keyboard-response","311","1164490","0.0-6.0-4.43","2975860","co38620","norming","","","","","","",""
"null","../img/tt/580tt.jpg","null","mooney2","image-keyboard-response","312","1166493","0.0-6.0-5.43","2975860","co38620","norming","","","","","","",""
"3585.7350000001024","","","post_reveal_questions","survey-likert","313","1170081","0.0-6.0-6.43","2975860","co38620","norming","","","{""aha"":5}","[0]","../img/tt/580tt.jpg","",""
"null","<div style=""font-size:60px;""> </div>","null","fixation","html-keyboard-response","314","1170283","0.0-6.0-0.44","2975860","co38620","norming","","","","","","",""
"null","../img/tt/1278tt.jpg","null","mooney1","image-keyboard-response","315","1173292","0.0-6.0-1.44","2975860","co38620","norming","","","","","","",""
"14372.635000000242","","","post_mooney1_questions","survey-likert","316","1187669","0.0-6.0-2.44","2975860","co38620","norming","","","{""curiosity"":4,""confidence"":0}","[0,1]","../img/tt/1278tt.jpg","",""
"1237.91500000027","","","recognition","survey-text","317","1188908","0.0-6.0-3.44","2975860","co38620","norming","","","{""guess"":""""}","","../img/tt/1278tt.jpg","",""
"null","../img/gs/1278gs.jpg","null","reveal","image-keyboard-response","318","1190918","0.0-6.0-4.44","2975860","co38620","norming","","","","","","",""
"null","../img/tt/1278tt.jpg","null","mooney2","image-keyboard-response","319","1192930","0.0-6.0-5.44","2975860","co38620","norming","","","","","","",""
"2431.340000000084","","","post_reveal_questions","survey-likert","320","1195364","0.0-6.0-6.44","2975860","co38620","norming","","","{""aha"":2}","[0]","../img/tt/1278tt.jpg","",""
"null","<div style=""font-size:60px;""> </div>","null","fixation","html-keyboard-response","321","1195568","0.0-6.0-0.45","2975860","co38620","norming","","","","","","",""
"null","../img/tt/019tt.jpg","null","mooney1","image-keyboard-response","322","1198571","0.0-6.0-1.45","2975860","co38620","norming","","","","","","",""
"4103.260000000242","","","post_mooney1_questions","survey-likert","323","1202677","0.0-6.0-2.45","2975860","co38620","norming","","","{""curiosity"":3,""confidence"":5}","[0,1]","../img/tt/019tt.jpg","",""
"1941.8899999998976","","","recognition","survey-text","324","1204620","0.0-6.0-3.45","2975860","co38620","norming","","","{""guess"":""pen""}","","../img/tt/019tt.jpg","",""
"null","../img/gs/019gs.jpg","null","reveal","image-keyboard-response","325","1206627","0.0-6.0-4.45","2975860","co38620","norming","","","","","","",""
"null","../img/tt/019tt.jpg","null","mooney2","image-keyboard-response","326","1208630","0.0-6.0-5.45","2975860","co38620","norming","","","","","","",""
"3276.119999999879","","","post_reveal_questions","survey-likert","327","1211908","0.0-6.0-6.45","2975860","co38620","norming","","","{""aha"":6}","[0]","../img/tt/019tt.jpg","",""
"null","<div style=""font-size:60px;""> </div>","null","fixation","html-keyboard-response","328","1212118","0.0-6.0-0.46","2975860","co38620","norming","","","","","","",""
"null","../img/tt/053tt.jpg","null","mooney1","image-keyboard-response","329","1215124","0.0-6.0-1.46","2975860","co38620","norming","","","","","","",""
"7925.785000000382","","","post_mooney1_questions","survey-likert","330","1223053","0.0-6.0-2.46","2975860","co38620","norming","","","{""curiosity"":4,""confidence"":0}","[0,1]","../img/tt/053tt.jpg","",""
"1277.929999999702","","","recognition","survey-text","331","1224332","0.0-6.0-3.46","2975860","co38620","norming","","","{""guess"":""""}","","../img/tt/053tt.jpg","",""
"null","../img/gs/053gs.jpg","null","reveal","image-keyboard-response","332","1226336","0.0-6.0-4.46","2975860","co38620","norming","","","","","","",""
"null","../img/tt/053tt.jpg","null","mooney2","image-keyboard-response","333","1228338","0.0-6.0-5.46","2975860","co38620","norming","","","","","","",""
"4839.719999999972","","","post_reveal_questions","survey-likert","334","1233181","0.0-6.0-6.46","2975860","co38620","norming","","","{""aha"":5}","[0]","../img/tt/053tt.jpg","",""
"null","<div style=""font-size:60px;""> </div>","null","fixation","html-keyboard-response","335","1233389","0.0-6.0-0.47","2975860","co38620","norming","","","","","","",""
"null","../img/tt/1270tt.jpg","null","mooney1","image-keyboard-response","336","1236395","0.0-6.0-1.47","2975860","co38620","norming","","","","","","",""
"8206.19999999972","","","post_mooney1_questions","survey-likert","337","1244608","0.0-6.0-2.47","2975860","co38620","norming","","","{""curiosity"":4,""confidence"":0}","[0,1]","../img/tt/1270tt.jpg","",""
"733.6350000000093","","","recognition","survey-text","338","1245344","0.0-6.0-3.47","2975860","co38620","norming","","","{""guess"":""""}","","../img/tt/1270tt.jpg","",""
"null","../img/gs/1270gs.jpg","null","reveal","image-keyboard-response","339","1247351","0.0-6.0-4.47","2975860","co38620","norming","","","","","","",""
"null","../img/tt/1270tt.jpg","null","mooney2","image-keyboard-response","340","1249353","0.0-6.0-5.47","2975860","co38620","norming","","","","","","",""
"4837.045000000158","","","post_reveal_questions","survey-likert","341","1254192","0.0-6.0-6.47","2975860","co38620","norming","","","{""aha"":5}","[0]","../img/tt/1270tt.jpg","",""
"null","<div style=""font-size:60px;""> </div>","null","fixation","html-keyboard-response","342","1254395","0.0-6.0-0.48","2975860","co38620","norming","","","","","","",""
"null","../img/tt/052tt.jpg","null","mooney1","image-keyboard-response","343","1257403","0.0-6.0-1.48","2975860","co38620","norming","","","","","","",""
"6593.574999999721","","","post_mooney1_questions","survey-likert","344","1264000","0.0-6.0-2.48","2975860","co38620","norming","","","{""curiosity"":4,""confidence"":1}","[0,1]","../img/tt/052tt.jpg","",""
"2173.635000000242","","","recognition","survey-text","345","1266176","0.0-6.0-3.48","2975860","co38620","norming","","","{""guess"":""stage""}","","../img/tt/052tt.jpg","",""
"null","../img/gs/052gs.jpg","null","reveal","image-keyboard-response","346","1268181","0.0-6.0-4.48","2975860","co38620","norming","","","","","","",""
"null","../img/tt/052tt.jpg","null","mooney2","image-keyboard-response","347","1270187","0.0-6.0-5.48","2975860","co38620","norming","","","","","","",""
"3548.2050000000745","","","post_reveal_questions","survey-likert","348","1273736","0.0-6.0-6.48","2975860","co38620","norming","","","{""aha"":5}","[0]","../img/tt/052tt.jpg","",""
"null","<div style=""font-size:60px;""> </div>","null","fixation","html-keyboard-response","349","1273944","0.0-6.0-0.49","2975860","co38620","norming","","","","","","",""
"null","../img/tt/405tt.jpg","null","mooney1","image-keyboard-response","350","1276955","0.0-6.0-1.49","2975860","co38620","norming","","","","","","",""
"3897.5999999998603","","","post_mooney1_questions","survey-likert","351","1280856","0.0-6.0-2.49","2975860","co38620","norming","","","{""curiosity"":4,""confidence"":0}","[0,1]","../img/tt/405tt.jpg","",""
"606.0600000002887","","","recognition","survey-text","352","1281464","0.0-6.0-3.49","2975860","co38620","norming","","","{""guess"":""""}","","../img/tt/405tt.jpg","",""
"null","../img/gs/405gs.jpg","null","reveal","image-keyboard-response","353","1283472","0.0-6.0-4.49","2975860","co38620","norming","","","","","","",""
"null","../img/tt/405tt.jpg","null","mooney2","image-keyboard-response","354","1285481","0.0-6.0-5.49","2975860","co38620","norming","","","","","","",""
"1685.0549999999348","","","post_reveal_questions","survey-likert","355","1287168","0.0-6.0-6.49","2975860","co38620","norming","","","{""aha"":5}","[0]","../img/tt/405tt.jpg","",""
"null","<div style=""font-size:60px;""> </div>","null","fixation","html-keyboard-response","356","1287377","0.0-6.0-0.50","2975860","co38620","norming","","","","","","",""
"null","../img/tt/1269tt.jpg","null","mooney1","image-keyboard-response","357","1290383","0.0-6.0-1.50","2975860","co38620","norming","","","","","","",""
"13245.5550000004","","","post_mooney1_questions","survey-likert","358","1303632","0.0-6.0-2.50","2975860","co38620","norming","","","{""curiosity"":5,""confidence"":2}","[0,1]","../img/tt/1269tt.jpg","",""
"47902.385000000475","","","recognition","survey-text","359","1351531","0.0-6.0-3.50","2975860","co38620","norming","","","{""guess"":""eekhoorn""}","","../img/tt/1269tt.jpg","",""
"null","../img/gs/1269gs.jpg","null","reveal","image-keyboard-response","360","1353541","0.0-6.0-4.50","2975860","co38620","norming","","","","","","",""
"null","../img/tt/1269tt.jpg","null","mooney2","image-keyboard-response","361","1355542","0.0-6.0-5.50","2975860","co38620","norming","","","","","","",""
"2051.0999999996275","","","post_reveal_questions","survey-likert","362","1357595","0.0-6.0-6.50","2975860","co38620","norming","","","{""aha"":1}","[0]","../img/tt/1269tt.jpg","",""
"null","<div style=""font-size:60px;""> </div>","null","fixation","html-keyboard-response","363","1357799","0.0-6.0-0.51","2975860","co38620","norming","","","","","","",""
"null","../img/tt/1217tt.jpg","null","mooney1","image-keyboard-response","364","1360808","0.0-6.0-1.51","2975860","co38620","norming","","","","","","",""
"6712.070000000065","","","post_mooney1_questions","survey-likert","365","1367526","0.0-6.0-2.51","2975860","co38620","norming","","","{""curiosity"":4,""confidence"":0}","[0,1]","../img/tt/1217tt.jpg","",""
"733.7200000002049","","","recognition","survey-text","366","1368261","0.0-6.0-3.51","2975860","co38620","norming","","","{""guess"":""""}","","../img/tt/1217tt.jpg","",""
"null","../img/gs/1217gs.jpg","null","reveal","image-keyboard-response","367","1370266","0.0-6.0-4.51","2975860","co38620","norming","","","","","","",""
"null","../img/tt/1217tt.jpg","null","mooney2","image-keyboard-response","368","1372268","0.0-6.0-5.51","2975860","co38620","norming","","","","","","",""
"2543.105000000214","","","post_reveal_questions","survey-likert","369","1374813","0.0-6.0-6.51","2975860","co38620","norming","","","{""aha"":5}","[0]","../img/tt/1217tt.jpg","",""
"null","<div style=""font-size:60px;""> </div>","null","fixation","html-keyboard-response","370","1375017","0.0-6.0-0.52","2975860","co38620","norming","","","","","","",""
"null","../img/tt/123tt.jpg","null","mooney1","image-keyboard-response","371","1378028","0.0-6.0-1.52","2975860","co38620","norming","","","","","","",""
"5342.719999999739","","","post_mooney1_questions","survey-likert","372","1383373","0.0-6.0-2.52","2975860","co38620","norming","","","{""curiosity"":5,""confidence"":0}","[0,1]","../img/tt/123tt.jpg","",""
"517.9099999999162","","","recognition","survey-text","373","1383893","0.0-6.0-3.52","2975860","co38620","norming","","","{""guess"":""""}","","../img/tt/123tt.jpg","",""
"null","../img/gs/123gs.jpg","null","reveal","image-keyboard-response","374","1385895","0.0-6.0-4.52","2975860","co38620","norming","","","","","","",""
"null","../img/tt/123tt.jpg","null","mooney2","image-keyboard-response","375","1387903","0.0-6.0-5.52","2975860","co38620","norming","","","","","","",""
"2267.280000000028","","","post_reveal_questions","survey-likert","376","1390173","0.0-6.0-6.52","2975860","co38620","norming","","","{""aha"":5}","[0]","../img/tt/123tt.jpg","",""
"null","<div style=""font-size:60px;""> </div>","null","fixation","html-keyboard-response","377","1390375","0.0-6.0-0.53","2975860","co38620","norming","","","","","","",""
"null","../img/tt/1307tt.jpg","null","mooney1","image-keyboard-response","378","1393383","0.0-6.0-1.53","2975860","co38620","norming","","","","","","",""
"7619.260000000009","","","post_mooney1_questions","survey-likert","379","1401005","0.0-6.0-2.53","2975860","co38620","norming","","","{""curiosity"":5,""confidence"":2}","[0,1]","../img/tt/1307tt.jpg","",""
"3678.0100000000093","","","recognition","survey-text","380","1404685","0.0-6.0-3.53","2975860","co38620","norming","","","{""guess"":""wiel""}","","../img/tt/1307tt.jpg","",""
"null","../img/gs/1307gs.jpg","null","reveal","image-keyboard-response","381","1406690","0.0-6.0-4.53","2975860","co38620","norming","","","","","","",""
"null","../img/tt/1307tt.jpg","null","mooney2","image-keyboard-response","382","1408693","0.0-6.0-5.53","2975860","co38620","norming","","","","","","",""
"1541.594999999972","","","post_reveal_questions","survey-likert","383","1410237","0.0-6.0-6.53","2975860","co38620","norming","","","{""aha"":5}","[0]","../img/tt/1307tt.jpg","",""
"null","<div style=""font-size:60px;""> </div>","null","fixation","html-keyboard-response","384","1410439","0.0-6.0-0.54","2975860","co38620","norming","","","","","","",""
"null","../img/tt/329tt.jpg","null","mooney1","image-keyboard-response","385","1413449","0.0-6.0-1.54","2975860","co38620","norming","","","","","","",""
"3345.109999999637","","","post_mooney1_questions","survey-likert","386","1416798","0.0-6.0-2.54","2975860","co38620","norming","","","{""curiosity"":4,""confidence"":0}","[0,1]","../img/tt/329tt.jpg","",""
"822.1149999997579","","","recognition","survey-text","387","1417621","0.0-6.0-3.54","2975860","co38620","norming","","","{""guess"":""""}","","../img/tt/329tt.jpg","",""
"null","../img/gs/329gs.jpg","null","reveal","image-keyboard-response","388","1419626","0.0-6.0-4.54","2975860","co38620","norming","","","","","","",""
"null","../img/tt/329tt.jpg","null","mooney2","image-keyboard-response","389","1421632","0.0-6.0-5.54","2975860","co38620","norming","","","","","","",""
"2330.994999999879","","","post_reveal_questions","survey-likert","390","1423965","0.0-6.0-6.54","2975860","co38620","norming","","","{""aha"":2}","[0]","../img/tt/329tt.jpg","",""
"null","<div style=""font-size:60px;""> </div>","null","fixation","html-keyboard-response","391","1424175","0.0-6.0-0.55","2975860","co38620","norming","","","","","","",""
"null","../img/tt/085tt.jpg","null","mooney1","image-keyboard-response","392","1427186","0.0-6.0-1.55","2975860","co38620","norming","","","","","","",""
"3682.820000000065","","","post_mooney1_questions","survey-likert","393","1430872","0.0-6.0-2.55","2975860","co38620","norming","","","{""curiosity"":4,""confidence"":0}","[0,1]","../img/tt/085tt.jpg","",""
"645.9599999997299","","","recognition","survey-text","394","1431520","0.0-6.0-3.55","2975860","co38620","norming","","","{""guess"":""""}","","../img/tt/085tt.jpg","",""
"null","../img/gs/085gs.jpg","null","reveal","image-keyboard-response","395","1433521","0.0-6.0-4.55","2975860","co38620","norming","","","","","","",""
"null","../img/tt/085tt.jpg","null","mooney2","image-keyboard-response","396","1435524","0.0-6.0-5.55","2975860","co38620","norming","","","","","","",""
"4017.6699999996927","","","post_reveal_questions","survey-likert","397","1439544","0.0-6.0-6.55","2975860","co38620","norming","","","{""aha"":3}","[0]","../img/tt/085tt.jpg","",""
"null","<div style=""font-size:60px;""> </div>","null","fixation","html-keyboard-response","398","1439753","0.0-6.0-0.56","2975860","co38620","norming","","","","","","",""
"null","../img/tt/1161tt.jpg","null","mooney1","image-keyboard-response","399","1442763","0.0-6.0-1.56","2975860","co38620","norming","","","","","","",""
"5049.810000000056","","","post_mooney1_questions","survey-likert","400","1447816","0.0-6.0-2.56","2975860","co38620","norming","","","{""curiosity"":4,""confidence"":0}","[0,1]","../img/tt/1161tt.jpg","",""
"1054.094999999972","","","recognition","survey-text","401","1448872","0.0-6.0-3.56","2975860","co38620","norming","","","{""guess"":""""}","","../img/tt/1161tt.jpg","",""
"null","../img/gs/1161gs.jpg","null","reveal","image-keyboard-response","402","1450878","0.0-6.0-4.56","2975860","co38620","norming","","","","","","",""
"null","../img/tt/1161tt.jpg","null","mooney2","image-keyboard-response","403","1452881","0.0-6.0-5.56","2975860","co38620","norming","","","","","","",""
"1790.4899999997579","","","post_reveal_questions","survey-likert","404","1454672","0.0-6.0-6.56","2975860","co38620","norming","","","{""aha"":5}","[0]","../img/tt/1161tt.jpg","",""
"null","<div style=""font-size:60px;""> </div>","null","fixation","html-keyboard-response","405","1454878","0.0-6.0-0.57","2975860","co38620","norming","","","","","","",""
"null","../img/tt/1268tt.jpg","null","mooney1","image-keyboard-response","406","1457881","0.0-6.0-1.57","2975860","co38620","norming","","","","","","",""
"5667.540000000503","","","post_mooney1_questions","survey-likert","407","1463552","0.0-6.0-2.57","2975860","co38620","norming","","","{""curiosity"":5,""confidence"":0}","[0,1]","../img/tt/1268tt.jpg","",""
"550.089999999851","","","recognition","survey-text","408","1464104","0.0-6.0-3.57","2975860","co38620","norming","","","{""guess"":""""}","","../img/tt/1268tt.jpg","",""
"null","../img/gs/1268gs.jpg","null","reveal","image-keyboard-response","409","1466105","0.0-6.0-4.57","2975860","co38620","norming","","","","","","",""
"null","../img/tt/1268tt.jpg","null","mooney2","image-keyboard-response","410","1468107","0.0-6.0-5.57","2975860","co38620","norming","","","","","","",""
"1954.2600000000093","","","post_reveal_questions","survey-likert","411","1470064","0.0-6.0-6.57","2975860","co38620","norming","","","{""aha"":5}","[0]","../img/tt/1268tt.jpg","",""
"null","<div style=""font-size:60px;""> </div>","null","fixation","html-keyboard-response","412","1470273","0.0-6.0-0.58","2975860","co38620","norming","","","","","","",""
"null","../img/tt/1199tt.jpg","null","mooney1","image-keyboard-response","413","1473284","0.0-6.0-1.58","2975860","co38620","norming","","","","","","",""
"6881.070000000065","","","post_mooney1_questions","survey-likert","414","1480168","0.0-6.0-2.58","2975860","co38620","norming","","","{""curiosity"":5,""confidence"":0}","[0,1]","../img/tt/1199tt.jpg","",""
"1006.3299999996088","","","recognition","survey-text","415","1481176","0.0-6.0-3.58","2975860","co38620","norming","","","{""guess"":""""}","","../img/tt/1199tt.jpg","",""
"null","../img/gs/1199gs.jpg","null","reveal","image-keyboard-response","416","1483178","0.0-6.0-4.58","2975860","co38620","norming","","","","","","",""
"null","../img/tt/1199tt.jpg","null","mooney2","image-keyboard-response","417","1485189","0.0-6.0-5.58","2975860","co38620","norming","","","","","","",""
"1680.8249999999534","","","post_reveal_questions","survey-likert","418","1486872","0.0-6.0-6.58","2975860","co38620","norming","","","{""aha"":5}","[0]","../img/tt/1199tt.jpg","",""
"null","<div style=""font-size:60px;""> </div>","null","fixation","html-keyboard-response","419","1487080","0.0-6.0-0.59","2975860","co38620","norming","","","","","","",""
"null","../img/tt/1272tt.jpg","null","mooney1","image-keyboard-response","420","1490090","0.0-6.0-1.59","2975860","co38620","norming","","","","","","",""
"3323.1750000000466","","","post_mooney1_questions","survey-likert","421","1493416","0.0-6.0-2.59","2975860","co38620","norming","","","{""curiosity"":5,""confidence"":0}","[0,1]","../img/tt/1272tt.jpg","",""
"814.0349999999162","","","recognition","survey-text","422","1494232","0.0-6.0-3.59","2975860","co38620","norming","","","{""guess"":""""}","","../img/tt/1272tt.jpg","",""
"null","../img/gs/1272gs.jpg","null","reveal","image-keyboard-response","423","1496235","0.0-6.0-4.59","2975860","co38620","norming","","","","","","",""
"null","../img/tt/1272tt.jpg","null","mooney2","image-keyboard-response","424","1498236","0.0-6.0-5.59","2975860","co38620","norming","","","","","","",""
"2306.935000000056","","","post_reveal_questions","survey-likert","425","1500544","0.0-6.0-6.59","2975860","co38620","norming","","","{""aha"":5}","[0]","../img/tt/1272tt.jpg","",""
"null","<div style=""font-size:60px;""> </div>","null","fixation","html-keyboard-response","426","1500746","0.0-6.0-0.60","2975860","co38620","norming","","","","","","",""
"null","../img/tt/1279tt.jpg","null","mooney1","image-keyboard-response","427","1503753","0.0-6.0-1.60","2975860","co38620","norming","","","","","","",""
"2915.945000000065","","","post_mooney1_questions","survey-likert","428","1506672","0.0-6.0-2.60","2975860","co38620","norming","","","{""curiosity"":5,""confidence"":0}","[0,1]","../img/tt/1279tt.jpg","",""
"670.0050000003539","","","recognition","survey-text","429","1507344","0.0-6.0-3.60","2975860","co38620","norming","","","{""guess"":""""}","","../img/tt/1279tt.jpg","",""
"null","../img/gs/1279gs.jpg","null","reveal","image-keyboard-response","430","1509351","0.0-6.0-4.60","2975860","co38620","norming","","","","","","",""
"null","../img/tt/1279tt.jpg","null","mooney2","image-keyboard-response","431","1511353","0.0-6.0-5.60","2975860","co38620","norming","","","","","","",""
"3469.274999999907","","","post_reveal_questions","survey-likert","432","1514824","0.0-6.0-6.60","2975860","co38620","norming","","","{""aha"":5}","[0]","../img/tt/1279tt.jpg","",""
"null","<div style=""font-size:60px;""> </div>","null","fixation","html-keyboard-response","433","1515033","0.0-6.0-0.61","2975860","co38620","norming","","","","","","",""
"null","../img/tt/1040tt.jpg","null","mooney1","image-keyboard-response","434","1518040","0.0-6.0-1.61","2975860","co38620","norming","","","","","","",""
"4684.964999999851","","","post_mooney1_questions","survey-likert","435","1522728","0.0-6.0-2.61","2975860","co38620","norming","","","{""curiosity"":3,""confidence"":0}","[0,1]","../img/tt/1040tt.jpg","",""
"549.9549999998417","","","recognition","survey-text","436","1523280","0.0-6.0-3.61","2975860","co38620","norming","","","{""guess"":""""}","","../img/tt/1040tt.jpg","",""
"null","../img/gs/1040gs.jpg","null","reveal","image-keyboard-response","437","1525289","0.0-6.0-4.61","2975860","co38620","norming","","","","","","",""
"null","../img/tt/1040tt.jpg","null","mooney2","image-keyboard-response","438","1527291","0.0-6.0-5.61","2975860","co38620","norming","","","","","","",""
"1874.839999999851","","","post_reveal_questions","survey-likert","439","1529169","0.0-6.0-6.61","2975860","co38620","norming","","","{""aha"":6}","[0]","../img/tt/1040tt.jpg","",""
"null","<div style=""font-size:60px;""> </div>","null","fixation","html-keyboard-response","440","1529371","0.0-6.0-0.62","2975860","co38620","norming","","","","","","",""
"null","../img/tt/1232tt.jpg","null","mooney1","image-keyboard-response","441","1532380","0.0-6.0-1.62","2975860","co38620","norming","","","","","","",""
"3921.3000000000466","","","post_mooney1_questions","survey-likert","442","1536304","0.0-6.0-2.62","2975860","co38620","norming","","","{""curiosity"":3,""confidence"":0}","[0,1]","../img/tt/1232tt.jpg","",""
"525.8649999999907","","","recognition","survey-text","443","1536832","0.0-6.0-3.62","2975860","co38620","norming","","","{""guess"":""""}","","../img/tt/1232tt.jpg","",""
"null","../img/gs/1232gs.jpg","null","reveal","image-keyboard-response","444","1538838","0.0-6.0-4.62","2975860","co38620","norming","","","","","","",""
"null","../img/tt/1232tt.jpg","null","mooney2","image-keyboard-response","445","1540840","0.0-6.0-5.62","2975860","co38620","norming","","","","","","",""
"1797.5750000001863","","","post_reveal_questions","survey-likert","446","1542640","0.0-6.0-6.62","2975860","co38620","norming","","","{""aha"":6}","[0]","../img/tt/1232tt.jpg","",""
"null","<div style=""font-size:60px;""> </div>","null","fixation","html-keyboard-response","447","1542845","0.0-6.0-0.63","2975860","co38620","norming","","","","","","",""
"null","../img/tt/1309tt.jpg","null","mooney1","image-keyboard-response","448","1545855","0.0-6.0-1.63","2975860","co38620","norming","","","","","","",""
"5478.094999999972","","","post_mooney1_questions","survey-likert","449","1551332","0.0-6.0-2.63","2975860","co38620","norming","","","{""curiosity"":5,""confidence"":1}","[0,1]","../img/tt/1309tt.jpg","",""
"3206.0049999998882","","","recognition","survey-text","450","1554540","0.0-6.0-3.63","2975860","co38620","norming","","","{""guess"":""auto""}","","../img/tt/1309tt.jpg","",""
"null","../img/gs/1309gs.jpg","null","reveal","image-keyboard-response","451","1556545","0.0-6.0-4.63","2975860","co38620","norming","","","","","","",""
"null","../img/tt/1309tt.jpg","null","mooney2","image-keyboard-response","452","1558549","0.0-6.0-5.63","2975860","co38620","norming","","","","","","",""
"1988.1750000000466","","","post_reveal_questions","survey-likert","453","1560540","0.0-6.0-6.63","2975860","co38620","norming","","","{""aha"":4}","[0]","../img/tt/1309tt.jpg","",""
"null","<div style=""font-size:60px;""> </div>","null","fixation","html-keyboard-response","454","1560741","0.0-6.0-0.64","2975860","co38620","norming","","","","","","",""
"null","../img/tt/1049tt.jpg","null","mooney1","image-keyboard-response","455","1563748","0.0-6.0-1.64","2975860","co38620","norming","","","","","","",""
"7052.935000000056","","","post_mooney1_questions","survey-likert","456","1570804","0.0-6.0-2.64","2975860","co38620","norming","","","{""curiosity"":5,""confidence"":0}","[0,1]","../img/tt/1049tt.jpg","",""
"549.5550000001676","","","recognition","survey-text","457","1571355","0.0-6.0-3.64","2975860","co38620","norming","","","{""guess"":""""}","","../img/tt/1049tt.jpg","",""
"null","../img/gs/1049gs.jpg","null","reveal","image-keyboard-response","458","1573363","0.0-6.0-4.64","2975860","co38620","norming","","","","","","",""
"null","../img/tt/1049tt.jpg","null","mooney2","image-keyboard-response","459","1575368","0.0-6.0-5.64","2975860","co38620","norming","","","","","","",""
"7913.035000000149","","","post_reveal_questions","survey-likert","460","1583284","0.0-6.0-6.64","2975860","co38620","norming","","","{""aha"":4}","[0]","../img/tt/1049tt.jpg","",""
"null","<div style=""font-size:60px;""> </div>","null","fixation","html-keyboard-response","461","1583486","0.0-6.0-0.65","2975860","co38620","norming","","","","","","",""
"null","../img/tt/319tt.jpg","null","mooney1","image-keyboard-response","462","1586496","0.0-6.0-1.65","2975860","co38620","norming","","","","","","",""
"3736.04000000027","","","post_mooney1_questions","survey-likert","463","1590236","0.0-6.0-2.65","2975860","co38620","norming","","","{""curiosity"":5,""confidence"":0}","[0,1]","../img/tt/319tt.jpg","",""
"694.2150000000838","","","recognition","survey-text","464","1590932","0.0-6.0-3.65","2975860","co38620","norming","","","{""guess"":""""}","","../img/tt/319tt.jpg","",""
"null","../img/gs/319gs.jpg","null","reveal","image-keyboard-response","465","1592940","0.0-6.0-4.65","2975860","co38620","norming","","","","","","",""
"null","../img/tt/319tt.jpg","null","mooney2","image-keyboard-response","466","1594944","0.0-6.0-5.65","2975860","co38620","norming","","","","","","",""
"1337.4199999996927","","","post_reveal_questions","survey-likert","467","1596284","0.0-6.0-6.65","2975860","co38620","norming","","","{""aha"":6}","[0]","../img/tt/319tt.jpg","",""
"null","<div style=""font-size:60px;""> </div>","null","fixation","html-keyboard-response","468","1596492","0.0-6.0-0.66","2975860","co38620","norming","","","","","","",""
"null","../img/tt/064tt.jpg","null","mooney1","image-keyboard-response","469","1599499","0.0-6.0-1.66","2975860","co38620","norming","","","","","","",""
"4381.174999999814","","","post_mooney1_questions","survey-likert","470","1603884","0.0-6.0-2.66","2975860","co38620","norming","","","{""curiosity"":4,""confidence"":0}","[0,1]","../img/tt/064tt.jpg","",""
"646.054999999702","","","recognition","survey-text","471","1604532","0.0-6.0-3.66","2975860","co38620","norming","","","{""guess"":""""}","","../img/tt/064tt.jpg","",""
"null","../img/gs/064gs.jpg","null","reveal","image-keyboard-response","472","1606540","0.0-6.0-4.66","2975860","co38620","norming","","","","","","",""
"null","../img/tt/064tt.jpg","null","mooney2","image-keyboard-response","473","1608542","0.0-6.0-5.66","2975860","co38620","norming","","","","","","",""
"1363.3250000001863","","","post_reveal_questions","survey-likert","474","1609908","0.0-6.0-6.66","2975860","co38620","norming","","","{""aha"":6}","[0]","../img/tt/064tt.jpg","",""
"null","<div style=""font-size:60px;""> </div>","null","fixation","html-keyboard-response","475","1610112","0.0-6.0-0.67","2975860","co38620","norming","","","","","","",""
"null","../img/tt/1127tt.jpg","null","mooney1","image-keyboard-response","476","1613119","0.0-6.0-1.67","2975860","co38620","norming","","","","","","",""
"6718.089999999851","","","post_mooney1_questions","survey-likert","477","1619840","0.0-6.0-2.67","2975860","co38620","norming","","","{""curiosity"":4,""confidence"":2}","[0,1]","../img/tt/1127tt.jpg","",""
"5237.850000000093","","","recognition","survey-text","478","1625080","0.0-6.0-3.67","2975860","co38620","norming","","","{""guess"":""caf""}","","../img/tt/1127tt.jpg","",""
"null","../img/gs/1127gs.jpg","null","reveal","image-keyboard-response","479","1627082","0.0-6.0-4.67","2975860","co38620","norming","","","","","","",""
"null","../img/tt/1127tt.jpg","null","mooney2","image-keyboard-response","480","1629094","0.0-6.0-5.67","2975860","co38620","norming","","","","","","",""
"5352.039999999804","","","post_reveal_questions","survey-likert","481","1634448","0.0-6.0-6.67","2975860","co38620","norming","","","{""aha"":4}","[0]","../img/tt/1127tt.jpg","",""
"null","<div style=""font-size:60px;""> </div>","null","fixation","html-keyboard-response","482","1634653","0.0-6.0-0.68","2975860","co38620","norming","","","","","","",""
"null","../img/tt/1196tt.jpg","null","mooney1","image-keyboard-response","483","1637657","0.0-6.0-1.68","2975860","co38620","norming","","","","","","",""
"6981.174999999814","","","post_mooney1_questions","survey-likert","484","1644640","0.0-6.0-2.68","2975860","co38620","norming","","","{""curiosity"":5,""confidence"":1}","[0,1]","../img/tt/1196tt.jpg","",""
"3005.9500000001863","","","recognition","survey-text","485","1647648","0.0-6.0-3.68","2975860","co38620","norming","","","{""guess"":""judo""}","","../img/tt/1196tt.jpg","",""
"null","../img/gs/1196gs.jpg","null","reveal","image-keyboard-response","486","1649653","0.0-6.0-4.68","2975860","co38620","norming","","","","","","",""
"null","../img/tt/1196tt.jpg","null","mooney2","image-keyboard-response","487","1651655","0.0-6.0-5.68","2975860","co38620","norming","","","","","","",""
"3380.3499999998603","","","post_reveal_questions","survey-likert","488","1655040","0.0-6.0-6.68","2975860","co38620","norming","","","{""aha"":4}","[0]","../img/tt/1196tt.jpg","",""
"null","<div style=""font-size:60px;""> </div>","null","fixation","html-keyboard-response","489","1655243","0.0-6.0-0.69","2975860","co38620","norming","","","","","","",""
"null","../img/tt/1044tt.jpg","null","mooney1","image-keyboard-response","490","1658254","0.0-6.0-1.69","2975860","co38620","norming","","","","","","",""
"3713.274999999441","","","post_mooney1_questions","survey-likert","491","1661969","0.0-6.0-2.69","2975860","co38620","norming","","","{""curiosity"":4,""confidence"":0}","[0,1]","../img/tt/1044tt.jpg","",""
"533.9450000000652","","","recognition","survey-text","492","1662504","0.0-6.0-3.69","2975860","co38620","norming","","","{""guess"":""""}","","../img/tt/1044tt.jpg","",""
"null","../img/gs/1044gs.jpg","null","reveal","image-keyboard-response","493","1664515","0.0-6.0-4.69","2975860","co38620","norming","","","","","","",""
"null","../img/tt/1044tt.jpg","null","mooney2","image-keyboard-response","494","1666517","0.0-6.0-5.69","2975860","co38620","norming","","","","","","",""
"1264.8300000000745","","","post_reveal_questions","survey-likert","495","1667785","0.0-6.0-6.69","2975860","co38620","norming","","","{""aha"":5}","[0]","../img/tt/1044tt.jpg","",""
"null","<div style=""font-size:60px;""> </div>","null","fixation","html-keyboard-response","496","1667990","0.0-6.0-0.70","2975860","co38620","norming","","","","","","",""
"null","../img/tt/1247tt.jpg","null","mooney1","image-keyboard-response","497","1670999","0.0-6.0-1.70","2975860","co38620","norming","","","","","","",""
"6213.860000000335","","","post_mooney1_questions","survey-likert","498","1677207","0.0-6.0-2.70","2975860","co38620","norming","","","{""curiosity"":4,""confidence"":0}","[0,1]","../img/tt/1247tt.jpg","",""
"686.7199999997392","","","recognition","survey-text","499","1677895","0.0-6.0-3.70","2975860","co38620","norming","","","{""guess"":""""}","","../img/tt/1247tt.jpg","",""
"null","../img/gs/1247gs.jpg","null","reveal","image-keyboard-response","500","1679900","0.0-6.0-4.70","2975860","co38620","norming","","","","","","",""
"null","../img/tt/1247tt.jpg","null","mooney2","image-keyboard-response","501","1681902","0.0-6.0-5.70","2975860","co38620","norming","","","","","","",""
"2133.0749999997206","","","post_reveal_questions","survey-likert","502","1684039","0.0-6.0-6.70","2975860","co38620","norming","","","{""aha"":5}","[0]","../img/tt/1247tt.jpg","",""
"null","<div style=""font-size:60px;""> </div>","null","fixation","html-keyboard-response","503","1684247","0.0-6.0-0.71","2975860","co38620","norming","","","","","","",""
"null","../img/tt/559tt.jpg","null","mooney1","image-keyboard-response","504","1687248","0.0-6.0-1.71","2975860","co38620","norming","","","","","","",""
"5140.020000000019","","","post_mooney1_questions","survey-likert","505","1692392","0.0-6.0-2.71","2975860","co38620","norming","","","{""curiosity"":4,""confidence"":0}","[0,1]","../img/tt/559tt.jpg","",""
"829.6649999998044","","","recognition","survey-text","506","1693223","0.0-6.0-3.71","2975860","co38620","norming","","","{""guess"":""""}","","../img/tt/559tt.jpg","",""
"null","../img/gs/559gs.jpg","null","reveal","image-keyboard-response","507","1695232","0.0-6.0-4.71","2975860","co38620","norming","","","","","","",""
"null","../img/tt/559tt.jpg","null","mooney2","image-keyboard-response","508","1697240","0.0-6.0-5.71","2975860","co38620","norming","","","","","","",""
"1860.58499999973","","","post_reveal_questions","survey-likert","509","1699103","0.0-6.0-6.71","2975860","co38620","norming","","","{""aha"":4}","[0]","../img/tt/559tt.jpg","",""
"null","<div style=""font-size:60px;""> </div>","null","fixation","html-keyboard-response","510","1699314","0.0-6.0-0.72","2975860","co38620","norming","","","","","","",""
"null","../img/tt/1191tt.jpg","null","mooney1","image-keyboard-response","511","1702318","0.0-6.0-1.72","2975860","co38620","norming","","","","","","",""
"14086.304999999702","","","post_mooney1_questions","survey-likert","512","1716408","0.0-6.0-2.72","2975860","co38620","norming","","","{""curiosity"":4,""confidence"":0}","[0,1]","../img/tt/1191tt.jpg","",""
"645.9650000000838","","","recognition","survey-text","513","1717055","0.0-6.0-3.72","2975860","co38620","norming","","","{""guess"":""""}","","../img/tt/1191tt.jpg","",""
"null","../img/gs/1191gs.jpg","null","reveal","image-keyboard-response","514","1719062","0.0-6.0-4.72","2975860","co38620","norming","","","","","","",""
"null","../img/tt/1191tt.jpg","null","mooney2","image-keyboard-response","515","1721067","0.0-6.0-5.72","2975860","co38620","norming","","","","","","",""
"1746.0249999999069","","","post_reveal_questions","survey-likert","516","1722815","0.0-6.0-6.72","2975860","co38620","norming","","","{""aha"":5}","[0]","../img/tt/1191tt.jpg","",""
"null","<div style=""font-size:60px;""> </div>","null","fixation","html-keyboard-response","517","1723017","0.0-6.0-0.73","2975860","co38620","norming","","","","","","",""
"null","../img/tt/380tt.jpg","null","mooney1","image-keyboard-response","518","1726029","0.0-6.0-1.73","2975860","co38620","norming","","","","","","",""
"3927.1800000001676","","","post_mooney1_questions","survey-likert","519","1729960","0.0-6.0-2.73","2975860","co38620","norming","","","{""curiosity"":5,""confidence"":0}","[0,1]","../img/tt/380tt.jpg","",""
"629.8400000000838","","","recognition","survey-text","520","1730591","0.0-6.0-3.73","2975860","co38620","norming","","","{""guess"":""""}","","../img/tt/380tt.jpg","",""
"null","../img/gs/380gs.jpg","null","reveal","image-keyboard-response","521","1732600","0.0-6.0-4.73","2975860","co38620","norming","","","","","","",""
"null","../img/tt/380tt.jpg","null","mooney2","image-keyboard-response","522","1734612","0.0-6.0-5.73","2975860","co38620","norming","","","","","","",""
"3585.649999999907","","","post_reveal_questions","survey-likert","523","1738200","0.0-6.0-6.73","2975860","co38620","norming","","","{""aha"":3}","[0]","../img/tt/380tt.jpg","",""
"null","<div style=""font-size:60px;""> </div>","null","fixation","html-keyboard-response","524","1738402","0.0-6.0-0.74","2975860","co38620","norming","","","","","","",""
"null","../img/tt/1154tt.jpg","null","mooney1","image-keyboard-response","525","1741404","0.0-6.0-1.74","2975860","co38620","norming","","","","","","",""
"7521.264999999898","","","post_mooney1_questions","survey-likert","526","1748929","0.0-6.0-2.74","2975860","co38620","norming","","","{""curiosity"":5,""confidence"":0}","[0,1]","../img/tt/1154tt.jpg","",""
"989.7849999996834","","","recognition","survey-text","527","1749920","0.0-6.0-3.74","2975860","co38620","norming","","","{""guess"":""""}","","../img/tt/1154tt.jpg","",""
"null","../img/gs/1154gs.jpg","null","reveal","image-keyboard-response","528","1751928","0.0-6.0-4.74","2975860","co38620","norming","","","","","","",""
"null","../img/tt/1154tt.jpg","null","mooney2","image-keyboard-response","529","1753939","0.0-6.0-5.74","2975860","co38620","norming","","","","","","",""
"4499.569999999832","","","post_reveal_questions","survey-likert","530","1758441","0.0-6.0-6.74","2975860","co38620","norming","","","{""aha"":4}","[0]","../img/tt/1154tt.jpg","",""
"null","<div style=""font-size:60px;""> </div>","null","fixation","html-keyboard-response","531","1758646","0.0-6.0-0.75","2975860","co38620","norming","","","","","","",""
"null","../img/tt/315tt.jpg","null","mooney1","image-keyboard-response","532","1761648","0.0-6.0-1.75","2975860","co38620","norming","","","","","","",""
"4391.844999999972","","","post_mooney1_questions","survey-likert","533","1766041","0.0-6.0-2.75","2975860","co38620","norming","","","{""curiosity"":3,""confidence"":0}","[0,1]","../img/tt/315tt.jpg","",""
"942","","","recognition","survey-text","534","1766985","0.0-6.0-3.75","2975860","co38620","norming","","","{""guess"":""""}","","../img/tt/315tt.jpg","",""
"null","../img/gs/315gs.jpg","null","reveal","image-keyboard-response","535","1768992","0.0-6.0-4.75","2975860","co38620","norming","","","","","","",""
"null","../img/tt/315tt.jpg","null","mooney2","image-keyboard-response","536","1770995","0.0-6.0-5.75","2975860","co38620","norming","","","","","","",""
"1627.209999999497","","","post_reveal_questions","survey-likert","537","1772625","0.0-6.0-6.75","2975860","co38620","norming","","","{""aha"":3}","[0]","../img/tt/315tt.jpg","",""
"null","<div style=""font-size:60px;""> </div>","null","fixation","html-keyboard-response","538","1772827","0.0-6.0-0.76","2975860","co38620","norming","","","","","","",""
"null","../img/tt/1116tt.jpg","null","mooney1","image-keyboard-response","539","1775837","0.0-6.0-1.76","2975860","co38620","norming","","","","","","",""
"4225.200000000186","","","post_mooney1_questions","survey-likert","540","1780065","0.0-6.0-2.76","2975860","co38620","norming","","","{""curiosity"":5,""confidence"":2}","[0,1]","../img/tt/1116tt.jpg","",""
"3213.7950000001583","","","recognition","survey-text","541","1783281","0.0-6.0-3.76","2975860","co38620","norming","","","{""guess"":""roeien""}","","../img/tt/1116tt.jpg","",""
"null","../img/gs/1116gs.jpg","null","reveal","image-keyboard-response","542","1785288","0.0-6.0-4.76","2975860","co38620","norming","","","","","","",""
"null","../img/tt/1116tt.jpg","null","mooney2","image-keyboard-response","543","1787300","0.0-6.0-5.76","2975860","co38620","norming","","","","","","",""
"2545.399999999907","","","post_reveal_questions","survey-likert","544","1789849","0.0-6.0-6.76","2975860","co38620","norming","","","{""aha"":5}","[0]","../img/tt/1116tt.jpg","",""
"null","<div style=""font-size:60px;""> </div>","null","fixation","html-keyboard-response","545","1790050","0.0-6.0-0.77","2975860","co38620","norming","","","","","","",""
"null","../img/tt/010tt.jpg","null","mooney1","image-keyboard-response","546","1793058","0.0-6.0-1.77","2975860","co38620","norming","","","","","","",""
"3811.3499999998603","","","post_mooney1_questions","survey-likert","547","1796864","0.0-6.0-2.77","2975860","co38620","norming","","","{""curiosity"":4,""confidence"":1}","[0,1]","../img/tt/010tt.jpg","",""
"1957.8999999999069","","","recognition","survey-text","548","1798824","0.0-6.0-3.77","2975860","co38620","norming","","","{""guess"":""hand""}","","../img/tt/010tt.jpg","",""
"null","../img/gs/010gs.jpg","null","reveal","image-keyboard-response","549","1800826","0.0-6.0-4.77","2975860","co38620","norming","","","","","","",""
"null","../img/tt/010tt.jpg","null","mooney2","image-keyboard-response","550","1802828","0.0-6.0-5.77","2975860","co38620","norming","","","","","","",""
"2281.8549999997485","","","post_reveal_questions","survey-likert","551","1805112","0.0-6.0-6.77","2975860","co38620","norming","","","{""aha"":6}","[0]","../img/tt/010tt.jpg","",""
"null","<div style=""font-size:60px;""> </div>","null","fixation","html-keyboard-response","552","1805315","0.0-6.0-0.78","2975860","co38620","norming","","","","","","",""
"null","../img/tt/135tt.jpg","null","mooney1","image-keyboard-response","553","1808317","0.0-6.0-1.78","2975860","co38620","norming","","","","","","",""
