"rt","stimulus","key_press","test_part","trial_type","trial_index","time_elapsed","internal_node_id","totalTime","subject","experiment_name","button_pressed","success","responses","question_order","currentStim","old","correct"
"6038.0649999999605","Welcome to the experiment. This is an online experiment so please don't close the tab/window until we say goodbye.  Press any key to begin.","32","instructions","html-keyboard-response","0","6054","0.0-0.0","2967491","co38515","norming","","","","","","",""
"50857.69500000015","<div style='word-wrap: break-word; width: 900px'><h3>Please consider this information carefully before deciding whether to participate in this research</h3><ul style='text-align: left; font-size: .8em;'><li><b>Purpose of the research</b>: To examine how people process images.</li><li><b>What you will do in this research</b>:  Stimuli (images) will be presented on the computer and you will be asked different questions about them.</li><li><b>Time required</b>: Participation will take between 45 and 60 minutes to complete.</li><li><b>Risks</b>:  There are no anticipated risks associated with participating in this study. The effects of participating should be comparable to those you would experience from viewing a computer monitor for 30 minutes and using a mouse or keyboard.</li><li><b>Benefits</b>:  This study provides no benefits to you individually except for the credit. The study provides important information about the nature of perception and learning.</li><li><b>Confidentiality</b>:  Your participation in this study will remain confidential. No personally identifiable information will be associated with your data. Your de-identified data may be shared with other researchers and used in future projects.</li><li><b>Participation and withdrawal</b>:  Your participation in this study is completely voluntary and you may refuse to participate or you may choose to withdraw at any time without penalty.</li><li><b>How to contact the researchers</b>: If you have questions or concerns about your participation or payment, or want to request a summary of research findings, please contact Sander Van de Cruys (KU Leuven), at sander.vandecruys@kuleuven.be.</li></ul><p>The nature and purpose of this research have been sufficiently explained and I agree to participate in this study.  I understand that I am free to withdraw at any time without incurring any penalty.</p><p>Please consent by clicking the button below to continue. Otherwise, please exit the study at this time.</p></div>","","instructions","html-button-response","1","56915","0.0-1.0","2967491","co38515","norming","0","","","","","",""
"","","","instructions","fullscreen","2","61763","0.0-2.0","2967491","co38515","norming","","true","","","","",""
"32748.659999999974","","","sona","survey-html-form","3","94515","0.0-3.0","2967491","co38515","norming","","","[{""name"":""sonaid"",""value"":""38515""},{""name"":""debrief"",""value"":""yes""},{""name"":""datajoin"",""value"":""yes""}]","","","",""
"71647.55500000001","<div style='word-wrap: break-word; width: 900px'><h3>Instructions</h3><p>This experiment will have 3 parts. In the first part you will see a series of distorted images like the one below on the left. As you can see in the righthand image, the distorted images are derived from actual photographs. In what follows, you will <strong>briefly</strong> be presented with <strong>only</strong> the distorted image.</p> <div style='float: left; margin-right: 20px;'><img src='../img/018tt.jpg' height='250' width='250'></img></div><div style='float: right; margin-left: 20px;'><img src='../img/018gs.jpg' height='250' width='250'></img></div><p>Subsequently you will be asked a few questions about the image: One question on how <strong>curious</strong> you are about the solution and one on how <strong>confident</strong> you are that you know the solution.</p>Next, we ask you to make a guess on what is in the image. Note that it is OK to name just the <strong>basic level category</strong>. For example when you see a parrot in the image, 'parrot' will obviously be a correct answer but also correct is 'bird'. However, 'animal' will <strong>not</strong> be counted as a correct response. For the example above, 'rose' would be correct or 'flower', but not 'plant'. When soccer players are depicted, 'soccer', 'football', 'soccer players' will be correct, but not 'humans', 'outdoors', or 'sports'. You do not need to describe the image in full, just name the main object in it <strong>in one or two words</strong>. All images depict objects from one of the following broad level categories: animals, inanimate objects, plants, sports, vehicles, and food. Recognizing means knowing <strong>more</strong> than these broad labels for a given image. But we always encourage you to <strong>make a guess</strong> if you can. Note that you are allowed to use <strong>Dutch and English</strong> in your answers, whatever comes easiest for you.</p><p>Press any key to continue.</p></div>","32","instructions","html-keyboard-response","4","166158","0.0-4.0","2967491","co38515","norming","","","","","","",""
"18478.135000000068","<div style='word-wrap: break-word; width: 900px'><h3>Instructions</h3> <p>Next, the solution image will be revealed to you and you'll be asked to indicate how strong your <strong>aha-experience</strong> was after seeing the solution. This describes the positive feeling of the 'click' you sometimes experience, when the pieces of the 'puzzle' fall together and you suddenly have 'insight' in the image.</p><img src='aha.jpg' height='188' width='250'></img><p>Note that there are no right or wrong answers. We are interested in what <strong>you</strong> see in the image and how <strong>you</strong> feel about it.</p><p>Press any key to start the experiment.</p></div>","32","instructions","html-keyboard-response","5","184638","0.0-5.0","2967491","co38515","norming","","","","","","",""
"null","<div style=""font-size:60px;""> </div>","null","fixation","html-keyboard-response","6","184841","0.0-6.0-0.0","2967491","co38515","norming","","","","","","",""
"null","../img/tt/405tt.jpg","null","mooney1","image-keyboard-response","7","187849","0.0-6.0-1.0","2967491","co38515","norming","","","","","","",""
"23999.72","","","post_mooney1_questions","survey-likert","8","211853","0.0-6.0-2.0","2967491","co38515","norming","","","{""curiosity"":3,""confidence"":6}","[0,1]","../img/tt/405tt.jpg","",""
"9213.24500000014","","","recognition","survey-text","9","221068","0.0-6.0-3.0","2967491","co38515","norming","","","{""guess"":""koala""}","","../img/tt/405tt.jpg","",""
"null","../img/gs/405gs.jpg","null","reveal","image-keyboard-response","10","223071","0.0-6.0-4.0","2967491","co38515","norming","","","","","","",""
"null","../img/tt/405tt.jpg","null","mooney2","image-keyboard-response","11","225082","0.0-6.0-5.0","2967491","co38515","norming","","","","","","",""
"5712.355000000127","","","post_reveal_questions","survey-likert","12","230801","0.0-6.0-6.0","2967491","co38515","norming","","","{""aha"":0}","[0]","../img/tt/405tt.jpg","",""
"null","<div style=""font-size:60px;""> </div>","null","fixation","html-keyboard-response","13","231006","0.0-6.0-0.1","2967491","co38515","norming","","","","","","",""
"null","../img/tt/318tt.jpg","null","mooney1","image-keyboard-response","14","234007","0.0-6.0-1.1","2967491","co38515","norming","","","","","","",""
"9383.559999999998","","","post_mooney1_questions","survey-likert","15","243393","0.0-6.0-2.1","2967491","co38515","norming","","","{""curiosity"":6,""confidence"":0}","[0,1]","../img/tt/318tt.jpg","",""
"2285.825000000157","","","recognition","survey-text","16","245680","0.0-6.0-3.1","2967491","co38515","norming","","","{""guess"":""""}","","../img/tt/318tt.jpg","",""
"null","../img/gs/318gs.jpg","null","reveal","image-keyboard-response","17","247689","0.0-6.0-4.1","2967491","co38515","norming","","","","","","",""
"null","../img/tt/318tt.jpg","null","mooney2","image-keyboard-response","18","249698","0.0-6.0-5.1","2967491","co38515","norming","","","","","","",""
"4092.6050000000396","","","post_reveal_questions","survey-likert","19","253792","0.0-6.0-6.1","2967491","co38515","norming","","","{""aha"":6}","[0]","../img/tt/318tt.jpg","",""
"null","<div style=""font-size:60px;""> </div>","null","fixation","html-keyboard-response","20","253996","0.0-6.0-0.2","2967491","co38515","norming","","","","","","",""
"null","../img/tt/1242tt.jpg","null","mooney1","image-keyboard-response","21","257000","0.0-6.0-1.2","2967491","co38515","norming","","","","","","",""
"8039.309999999881","","","post_mooney1_questions","survey-likert","22","265041","0.0-6.0-2.2","2967491","co38515","norming","","","{""curiosity"":5,""confidence"":5}","[0,1]","../img/tt/1242tt.jpg","",""
"3318.054999999935","","","recognition","survey-text","23","268360","0.0-6.0-3.2","2967491","co38515","norming","","","{""guess"":""vos""}","","../img/tt/1242tt.jpg","",""
"null","../img/gs/1242gs.jpg","null","reveal","image-keyboard-response","24","270368","0.0-6.0-4.2","2967491","co38515","norming","","","","","","",""
"null","../img/tt/1242tt.jpg","null","mooney2","image-keyboard-response","25","272371","0.0-6.0-5.2","2967491","co38515","norming","","","","","","",""
"5736.7050000000745","","","post_reveal_questions","survey-likert","26","278112","0.0-6.0-6.2","2967491","co38515","norming","","","{""aha"":1}","[0]","../img/tt/1242tt.jpg","",""
"null","<div style=""font-size:60px;""> </div>","null","fixation","html-keyboard-response","27","278313","0.0-6.0-0.3","2967491","co38515","norming","","","","","","",""
"null","../img/tt/580tt.jpg","null","mooney1","image-keyboard-response","28","281315","0.0-6.0-1.3","2967491","co38515","norming","","","","","","",""
"8498.799999999814","","","post_mooney1_questions","survey-likert","29","289816","0.0-6.0-2.3","2967491","co38515","norming","","","{""curiosity"":5,""confidence"":1}","[0,1]","../img/tt/580tt.jpg","",""
"4974.190000000119","","","recognition","survey-text","30","294791","0.0-6.0-3.3","2967491","co38515","norming","","","{""guess"":""""}","","../img/tt/580tt.jpg","",""
"null","../img/gs/580gs.jpg","null","reveal","image-keyboard-response","31","296802","0.0-6.0-4.3","2967491","co38515","norming","","","","","","",""
"null","../img/tt/580tt.jpg","null","mooney2","image-keyboard-response","32","298809","0.0-6.0-5.3","2967491","co38515","norming","","","","","","",""
"7724.765000000189","","","post_reveal_questions","survey-likert","33","306536","0.0-6.0-6.3","2967491","co38515","norming","","","{""aha"":4}","[0]","../img/tt/580tt.jpg","",""
"null","<div style=""font-size:60px;""> </div>","null","fixation","html-keyboard-response","34","306739","0.0-6.0-0.4","2967491","co38515","norming","","","","","","",""
"null","../img/tt/064tt.jpg","null","mooney1","image-keyboard-response","35","309746","0.0-6.0-1.4","2967491","co38515","norming","","","","","","",""
"7268.540000000037","","","post_mooney1_questions","survey-likert","36","317016","0.0-6.0-2.4","2967491","co38515","norming","","","{""curiosity"":5,""confidence"":4}","[0,1]","../img/tt/064tt.jpg","",""
"4182.334999999963","","","recognition","survey-text","37","321200","0.0-6.0-3.4","2967491","co38515","norming","","","{""guess"":""schildpad""}","","../img/tt/064tt.jpg","",""
"null","../img/gs/064gs.jpg","null","reveal","image-keyboard-response","38","323206","0.0-6.0-4.4","2967491","co38515","norming","","","","","","",""
"null","../img/tt/064tt.jpg","null","mooney2","image-keyboard-response","39","325215","0.0-6.0-5.4","2967491","co38515","norming","","","","","","",""
"2367.8800000000047","","","post_reveal_questions","survey-likert","40","327584","0.0-6.0-6.4","2967491","co38515","norming","","","{""aha"":2}","[0]","../img/tt/064tt.jpg","",""
"null","<div style=""font-size:60px;""> </div>","null","fixation","html-keyboard-response","41","327793","0.0-6.0-0.5","2967491","co38515","norming","","","","","","",""
"null","../img/tt/468tt.jpg","null","mooney1","image-keyboard-response","42","330797","0.0-6.0-1.5","2967491","co38515","norming","","","","","","",""
"7128.879999999946","","","post_mooney1_questions","survey-likert","43","337928","0.0-6.0-2.5","2967491","co38515","norming","","","{""curiosity"":5,""confidence"":1}","[0,1]","../img/tt/468tt.jpg","",""
"902.0749999999534","","","recognition","survey-text","44","338832","0.0-6.0-3.5","2967491","co38515","norming","","","{""guess"":""""}","","../img/tt/468tt.jpg","",""
"null","../img/gs/468gs.jpg","null","reveal","image-keyboard-response","45","340833","0.0-6.0-4.5","2967491","co38515","norming","","","","","","",""
"null","../img/tt/468tt.jpg","null","mooney2","image-keyboard-response","46","342836","0.0-6.0-5.5","2967491","co38515","norming","","","","","","",""
"3281.8749999998836","","","post_reveal_questions","survey-likert","47","346119","0.0-6.0-6.5","2967491","co38515","norming","","","{""aha"":4}","[0]","../img/tt/468tt.jpg","",""
"null","<div style=""font-size:60px;""> </div>","null","fixation","html-keyboard-response","48","346328","0.0-6.0-0.6","2967491","co38515","norming","","","","","","",""
"null","../img/tt/1151tt.jpg","null","mooney1","image-keyboard-response","49","349336","0.0-6.0-1.6","2967491","co38515","norming","","","","","","",""
"5581.615000000049","","","post_mooney1_questions","survey-likert","50","354926","0.0-6.0-2.6","2967491","co38515","norming","","","{""curiosity"":5,""confidence"":0}","[0,1]","../img/tt/1151tt.jpg","",""
"1021.9950000000536","","","recognition","survey-text","51","355949","0.0-6.0-3.6","2967491","co38515","norming","","","{""guess"":""""}","","../img/tt/1151tt.jpg","",""
"null","../img/gs/1151gs.jpg","null","reveal","image-keyboard-response","52","357958","0.0-6.0-4.6","2967491","co38515","norming","","","","","","",""
"null","../img/tt/1151tt.jpg","null","mooney2","image-keyboard-response","53","359961","0.0-6.0-5.6","2967491","co38515","norming","","","","","","",""
"3722.240000000049","","","post_reveal_questions","survey-likert","54","363685","0.0-6.0-6.6","2967491","co38515","norming","","","{""aha"":6}","[0]","../img/tt/1151tt.jpg","",""
"null","<div style=""font-size:60px;""> </div>","null","fixation","html-keyboard-response","55","363894","0.0-6.0-0.7","2967491","co38515","norming","","","","","","",""
"null","../img/tt/080tt.jpg","null","mooney1","image-keyboard-response","56","366901","0.0-6.0-1.7","2967491","co38515","norming","","","","","","",""
"4926.695000000123","","","post_mooney1_questions","survey-likert","57","371829","0.0-6.0-2.7","2967491","co38515","norming","","","{""curiosity"":5,""confidence"":1}","[0,1]","../img/tt/080tt.jpg","",""
"822.2550000000629","","","recognition","survey-text","58","372653","0.0-6.0-3.7","2967491","co38515","norming","","","{""guess"":""""}","","../img/tt/080tt.jpg","",""
"null","../img/gs/080gs.jpg","null","reveal","image-keyboard-response","59","374659","0.0-6.0-4.7","2967491","co38515","norming","","","","","","",""
"null","../img/tt/080tt.jpg","null","mooney2","image-keyboard-response","60","376665","0.0-6.0-5.7","2967491","co38515","norming","","","","","","",""
"3778.889999999781","","","post_reveal_questions","survey-likert","61","380445","0.0-6.0-6.7","2967491","co38515","norming","","","{""aha"":6}","[0]","../img/tt/080tt.jpg","",""
"null","<div style=""font-size:60px;""> </div>","null","fixation","html-keyboard-response","62","380651","0.0-6.0-0.8","2967491","co38515","norming","","","","","","",""
"null","../img/tt/1055tt.jpg","null","mooney1","image-keyboard-response","63","383662","0.0-6.0-1.8","2967491","co38515","norming","","","","","","",""
"5324.939999999944","","","post_mooney1_questions","survey-likert","64","388990","0.0-6.0-2.8","2967491","co38515","norming","","","{""curiosity"":5,""confidence"":1}","[0,1]","../img/tt/1055tt.jpg","",""
"998.0100000000093","","","recognition","survey-text","65","389989","0.0-6.0-3.8","2967491","co38515","norming","","","{""guess"":""""}","","../img/tt/1055tt.jpg","",""
"null","../img/gs/1055gs.jpg","null","reveal","image-keyboard-response","66","391992","0.0-6.0-4.8","2967491","co38515","norming","","","","","","",""
"null","../img/tt/1055tt.jpg","null","mooney2","image-keyboard-response","67","393995","0.0-6.0-5.8","2967491","co38515","norming","","","","","","",""
"2456.4600000001374","","","post_reveal_questions","survey-likert","68","396453","0.0-6.0-6.8","2967491","co38515","norming","","","{""aha"":6}","[0]","../img/tt/1055tt.jpg","",""
"null","<div style=""font-size:60px;""> </div>","null","fixation","html-keyboard-response","69","396657","0.0-6.0-0.9","2967491","co38515","norming","","","","","","",""
"null","../img/tt/300tt.jpg","null","mooney1","image-keyboard-response","70","399664","0.0-6.0-1.9","2967491","co38515","norming","","","","","","",""
"4339.059999999998","","","post_mooney1_questions","survey-likert","71","404005","0.0-6.0-2.9","2967491","co38515","norming","","","{""curiosity"":5,""confidence"":1}","[0,1]","../img/tt/300tt.jpg","",""
"1910.3299999998999","","","recognition","survey-text","72","405917","0.0-6.0-3.9","2967491","co38515","norming","","","{""guess"":""""}","","../img/tt/300tt.jpg","",""
"null","../img/gs/300gs.jpg","null","reveal","image-keyboard-response","73","407924","0.0-6.0-4.9","2967491","co38515","norming","","","","","","",""
"null","../img/tt/300tt.jpg","null","mooney2","image-keyboard-response","74","409927","0.0-6.0-5.9","2967491","co38515","norming","","","","","","",""
"3500.115000000049","","","post_reveal_questions","survey-likert","75","413428","0.0-6.0-6.9","2967491","co38515","norming","","","{""aha"":5}","[0]","../img/tt/300tt.jpg","",""
"null","<div style=""font-size:60px;""> </div>","null","fixation","html-keyboard-response","76","413632","0.0-6.0-0.10","2967491","co38515","norming","","","","","","",""
"null","../img/tt/1130tt.jpg","null","mooney1","image-keyboard-response","77","416636","0.0-6.0-1.10","2967491","co38515","norming","","","","","","",""
"5013.744999999937","","","post_mooney1_questions","survey-likert","78","421652","0.0-6.0-2.10","2967491","co38515","norming","","","{""curiosity"":1,""confidence"":5}","[0,1]","../img/tt/1130tt.jpg","",""
"6030.285000000033","","","recognition","survey-text","79","427684","0.0-6.0-3.10","2967491","co38515","norming","","","{""guess"":""wielrenner""}","","../img/tt/1130tt.jpg","",""
"null","../img/gs/1130gs.jpg","null","reveal","image-keyboard-response","80","429685","0.0-6.0-4.10","2967491","co38515","norming","","","","","","",""
"null","../img/tt/1130tt.jpg","null","mooney2","image-keyboard-response","81","431687","0.0-6.0-5.10","2967491","co38515","norming","","","","","","",""
"1810.554999999993","","","post_reveal_questions","survey-likert","82","433500","0.0-6.0-6.10","2967491","co38515","norming","","","{""aha"":1}","[0]","../img/tt/1130tt.jpg","",""
"null","<div style=""font-size:60px;""> </div>","null","fixation","html-keyboard-response","83","433711","0.0-6.0-0.11","2967491","co38515","norming","","","","","","",""
"null","../img/tt/1189tt.jpg","null","mooney1","image-keyboard-response","84","436713","0.0-6.0-1.11","2967491","co38515","norming","","","","","","",""
"5529.160000000033","","","post_mooney1_questions","survey-likert","85","442244","0.0-6.0-2.11","2967491","co38515","norming","","","{""curiosity"":4,""confidence"":4}","[0,1]","../img/tt/1189tt.jpg","",""
"3326.444999999949","","","recognition","survey-text","86","445572","0.0-6.0-3.11","2967491","co38515","norming","","","{""guess"":""zwemmer""}","","../img/tt/1189tt.jpg","",""
"null","../img/gs/1189gs.jpg","null","reveal","image-keyboard-response","87","447573","0.0-6.0-4.11","2967491","co38515","norming","","","","","","",""
"null","../img/tt/1189tt.jpg","null","mooney2","image-keyboard-response","88","449575","0.0-6.0-5.11","2967491","co38515","norming","","","","","","",""
"2363.4250000000466","","","post_reveal_questions","survey-likert","89","451940","0.0-6.0-6.11","2967491","co38515","norming","","","{""aha"":2}","[0]","../img/tt/1189tt.jpg","",""
"null","<div style=""font-size:60px;""> </div>","null","fixation","html-keyboard-response","90","452143","0.0-6.0-0.12","2967491","co38515","norming","","","","","","",""
"null","../img/tt/060tt.jpg","null","mooney1","image-keyboard-response","91","455153","0.0-6.0-1.12","2967491","co38515","norming","","","","","","",""
"4872.300000000221","","","post_mooney1_questions","survey-likert","92","460028","0.0-6.0-2.12","2967491","co38515","norming","","","{""curiosity"":6,""confidence"":0}","[0,1]","../img/tt/060tt.jpg","",""
"1013.9949999999953","","","recognition","survey-text","93","461044","0.0-6.0-3.12","2967491","co38515","norming","","","{""guess"":""""}","","../img/tt/060tt.jpg","",""
"null","../img/gs/060gs.jpg","null","reveal","image-keyboard-response","94","463046","0.0-6.0-4.12","2967491","co38515","norming","","","","","","",""
"null","../img/tt/060tt.jpg","null","mooney2","image-keyboard-response","95","465048","0.0-6.0-5.12","2967491","co38515","norming","","","","","","",""
"2394.430000000051","","","post_reveal_questions","survey-likert","96","467444","0.0-6.0-6.12","2967491","co38515","norming","","","{""aha"":5}","[0]","../img/tt/060tt.jpg","",""
"null","<div style=""font-size:60px;""> </div>","null","fixation","html-keyboard-response","97","467651","0.0-6.0-0.13","2967491","co38515","norming","","","","","","",""
"null","../img/tt/053tt.jpg","null","mooney1","image-keyboard-response","98","470659","0.0-6.0-1.13","2967491","co38515","norming","","","","","","",""
"3646.7999999999884","","","post_mooney1_questions","survey-likert","99","474303","0.0-6.0-2.13","2967491","co38515","norming","","","{""curiosity"":6,""confidence"":0}","[0,1]","../img/tt/053tt.jpg","",""
"1246.4199999999255","","","recognition","survey-text","100","475551","0.0-6.0-3.13","2967491","co38515","norming","","","{""guess"":""""}","","../img/tt/053tt.jpg","",""
"null","../img/gs/053gs.jpg","null","reveal","image-keyboard-response","101","477553","0.0-6.0-4.13","2967491","co38515","norming","","","","","","",""
"null","../img/tt/053tt.jpg","null","mooney2","image-keyboard-response","102","479557","0.0-6.0-5.13","2967491","co38515","norming","","","","","","",""
"2519.935000000056","","","post_reveal_questions","survey-likert","103","482079","0.0-6.0-6.13","2967491","co38515","norming","","","{""aha"":5}","[0]","../img/tt/053tt.jpg","",""
"null","<div style=""font-size:60px;""> </div>","null","fixation","html-keyboard-response","104","482287","0.0-6.0-0.14","2967491","co38515","norming","","","","","","",""
"null","../img/tt/507tt.jpg","null","mooney1","image-keyboard-response","105","485290","0.0-6.0-1.14","2967491","co38515","norming","","","","","","",""
"9132.199999999779","","","post_mooney1_questions","survey-likert","106","494423","0.0-6.0-2.14","2967491","co38515","norming","","","{""curiosity"":5,""confidence"":1}","[0,1]","../img/tt/507tt.jpg","",""
"2326.405000000028","","","recognition","survey-text","107","496751","0.0-6.0-3.14","2967491","co38515","norming","","","{""guess"":""mens""}","","../img/tt/507tt.jpg","",""
"null","../img/gs/507gs.jpg","null","reveal","image-keyboard-response","108","498753","0.0-6.0-4.14","2967491","co38515","norming","","","","","","",""
"null","../img/tt/507tt.jpg","null","mooney2","image-keyboard-response","109","500755","0.0-6.0-5.14","2967491","co38515","norming","","","","","","",""
"7034.715000000026","","","post_reveal_questions","survey-likert","110","507791","0.0-6.0-6.14","2967491","co38515","norming","","","{""aha"":4}","[0]","../img/tt/507tt.jpg","",""
"null","<div style=""font-size:60px;""> </div>","null","fixation","html-keyboard-response","111","507992","0.0-6.0-0.15","2967491","co38515","norming","","","","","","",""
"null","../img/tt/082tt.jpg","null","mooney1","image-keyboard-response","112","510993","0.0-6.0-1.15","2967491","co38515","norming","","","","","","",""
"3931.9800000000396","","","post_mooney1_questions","survey-likert","113","514928","0.0-6.0-2.15","2967491","co38515","norming","","","{""curiosity"":6,""confidence"":0}","[0,1]","../img/tt/082tt.jpg","",""
"918.1000000000931","","","recognition","survey-text","114","515847","0.0-6.0-3.15","2967491","co38515","norming","","","{""guess"":""""}","","../img/tt/082tt.jpg","",""
"null","../img/gs/082gs.jpg","null","reveal","image-keyboard-response","115","517857","0.0-6.0-4.15","2967491","co38515","norming","","","","","","",""
"null","../img/tt/082tt.jpg","null","mooney2","image-keyboard-response","116","519859","0.0-6.0-5.15","2967491","co38515","norming","","","","","","",""
"2138.069999999949","","","post_reveal_questions","survey-likert","117","521999","0.0-6.0-6.15","2967491","co38515","norming","","","{""aha"":6}","[0]","../img/tt/082tt.jpg","",""
"null","<div style=""font-size:60px;""> </div>","null","fixation","html-keyboard-response","118","522200","0.0-6.0-0.16","2967491","co38515","norming","","","","","","",""
"null","../img/tt/306tt.jpg","null","mooney1","image-keyboard-response","119","525209","0.0-6.0-1.16","2967491","co38515","norming","","","","","","",""
"6676.0449999999255","","","post_mooney1_questions","survey-likert","120","531888","0.0-6.0-2.16","2967491","co38515","norming","","","{""curiosity"":6,""confidence"":0}","[0,1]","../img/tt/306tt.jpg","",""
"1542.0899999999674","","","recognition","survey-text","121","533434","0.0-6.0-3.16","2967491","co38515","norming","","","{""guess"":""""}","","../img/tt/306tt.jpg","",""
"null","../img/gs/306gs.jpg","null","reveal","image-keyboard-response","122","535442","0.0-6.0-4.16","2967491","co38515","norming","","","","","","",""
"null","../img/tt/306tt.jpg","null","mooney2","image-keyboard-response","123","537443","0.0-6.0-5.16","2967491","co38515","norming","","","","","","",""
"1956.925000000163","","","post_reveal_questions","survey-likert","124","539402","0.0-6.0-6.16","2967491","co38515","norming","","","{""aha"":6}","[0]","../img/tt/306tt.jpg","",""
"null","<div style=""font-size:60px;""> </div>","null","fixation","html-keyboard-response","125","539611","0.0-6.0-0.17","2967491","co38515","norming","","","","","","",""
"null","../img/tt/1053tt.jpg","null","mooney1","image-keyboard-response","126","542617","0.0-6.0-1.17","2967491","co38515","norming","","","","","","",""
"4655.0299999999115","","","post_mooney1_questions","survey-likert","127","547274","0.0-6.0-2.17","2967491","co38515","norming","","","{""curiosity"":6,""confidence"":1}","[0,1]","../img/tt/1053tt.jpg","",""
"6053.935000000172","","","recognition","survey-text","128","553330","0.0-6.0-3.17","2967491","co38515","norming","","","{""guess"":""koeien""}","","../img/tt/1053tt.jpg","",""
"null","../img/gs/1053gs.jpg","null","reveal","image-keyboard-response","129","555332","0.0-6.0-4.17","2967491","co38515","norming","","","","","","",""
"null","../img/tt/1053tt.jpg","null","mooney2","image-keyboard-response","130","557334","0.0-6.0-5.17","2967491","co38515","norming","","","","","","",""
"2690.1399999998976","","","post_reveal_questions","survey-likert","131","560026","0.0-6.0-6.17","2967491","co38515","norming","","","{""aha"":2}","[0]","../img/tt/1053tt.jpg","",""
"null","<div style=""font-size:60px;""> </div>","null","fixation","html-keyboard-response","132","560227","0.0-6.0-0.18","2967491","co38515","norming","","","","","","",""
"null","../img/tt/1283tt.jpg","null","mooney1","image-keyboard-response","133","563236","0.0-6.0-1.18","2967491","co38515","norming","","","","","","",""
"3779.3850000000093","","","post_mooney1_questions","survey-likert","134","567018","0.0-6.0-2.18","2967491","co38515","norming","","","{""curiosity"":6,""confidence"":0}","[0,1]","../img/tt/1283tt.jpg","",""
"686.0700000000652","","","recognition","survey-text","135","567706","0.0-6.0-3.18","2967491","co38515","norming","","","{""guess"":""""}","","../img/tt/1283tt.jpg","",""
"null","../img/gs/1283gs.jpg","null","reveal","image-keyboard-response","136","569707","0.0-6.0-4.18","2967491","co38515","norming","","","","","","",""
"null","../img/tt/1283tt.jpg","null","mooney2","image-keyboard-response","137","571710","0.0-6.0-5.18","2967491","co38515","norming","","","","","","",""
"4882.764999999781","","","post_reveal_questions","survey-likert","138","576594","0.0-6.0-6.18","2967491","co38515","norming","","","{""aha"":2}","[0]","../img/tt/1283tt.jpg","",""
"null","<div style=""font-size:60px;""> </div>","null","fixation","html-keyboard-response","139","576797","0.0-6.0-0.19","2967491","co38515","norming","","","","","","",""
"null","../img/tt/1239tt.jpg","null","mooney1","image-keyboard-response","140","579802","0.0-6.0-1.19","2967491","co38515","norming","","","","","","",""
"4709.539999999804","","","post_mooney1_questions","survey-likert","141","584514","0.0-6.0-2.19","2967491","co38515","norming","","","{""curiosity"":5,""confidence"":2}","[0,1]","../img/tt/1239tt.jpg","",""
"3870.5200000000186","","","recognition","survey-text","142","588386","0.0-6.0-3.19","2967491","co38515","norming","","","{""guess"":""hond""}","","../img/tt/1239tt.jpg","",""
"null","../img/gs/1239gs.jpg","null","reveal","image-keyboard-response","143","590390","0.0-6.0-4.19","2967491","co38515","norming","","","","","","",""
"null","../img/tt/1239tt.jpg","null","mooney2","image-keyboard-response","144","592392","0.0-6.0-5.19","2967491","co38515","norming","","","","","","",""
"2625.125","","","post_reveal_questions","survey-likert","145","595015","0.0-6.0-6.19","2967491","co38515","norming","","","{""aha"":1}","[0]","../img/tt/1239tt.jpg","",""
"null","<div style=""font-size:60px;""> </div>","null","fixation","html-keyboard-response","146","595217","0.0-6.0-0.20","2967491","co38515","norming","","","","","","",""
"null","../img/tt/1126tt.jpg","null","mooney1","image-keyboard-response","147","598224","0.0-6.0-1.20","2967491","co38515","norming","","","","","","",""
"6772.179999999935","","","post_mooney1_questions","survey-likert","148","604999","0.0-6.0-2.20","2967491","co38515","norming","","","{""curiosity"":3,""confidence"":4}","[0,1]","../img/tt/1126tt.jpg","",""
"5790.030000000144","","","recognition","survey-text","149","610790","0.0-6.0-3.20","2967491","co38515","norming","","","{""guess"":""bergbeklimmer""}","","../img/tt/1126tt.jpg","",""
"null","../img/gs/1126gs.jpg","null","reveal","image-keyboard-response","150","612801","0.0-6.0-4.20","2967491","co38515","norming","","","","","","",""
"null","../img/tt/1126tt.jpg","null","mooney2","image-keyboard-response","151","614803","0.0-6.0-5.20","2967491","co38515","norming","","","","","","",""
"2314.984999999986","","","post_reveal_questions","survey-likert","152","617119","0.0-6.0-6.20","2967491","co38515","norming","","","{""aha"":1}","[0]","../img/tt/1126tt.jpg","",""
"null","<div style=""font-size:60px;""> </div>","null","fixation","html-keyboard-response","153","617325","0.0-6.0-0.21","2967491","co38515","norming","","","","","","",""
"null","../img/tt/123tt.jpg","null","mooney1","image-keyboard-response","154","620330","0.0-6.0-1.21","2967491","co38515","norming","","","","","","",""
"6019.600000000093","","","post_mooney1_questions","survey-likert","155","626351","0.0-6.0-2.21","2967491","co38515","norming","","","{""curiosity"":5,""confidence"":1}","[0,1]","../img/tt/123tt.jpg","",""
"798.3550000000978","","","recognition","survey-text","156","627150","0.0-6.0-3.21","2967491","co38515","norming","","","{""guess"":""""}","","../img/tt/123tt.jpg","",""
"null","../img/gs/123gs.jpg","null","reveal","image-keyboard-response","157","629161","0.0-6.0-4.21","2967491","co38515","norming","","","","","","",""
"null","../img/tt/123tt.jpg","null","mooney2","image-keyboard-response","158","631166","0.0-6.0-5.21","2967491","co38515","norming","","","","","","",""
"1966.7099999999627","","","post_reveal_questions","survey-likert","159","633135","0.0-6.0-6.21","2967491","co38515","norming","","","{""aha"":6}","[0]","../img/tt/123tt.jpg","",""
"null","<div style=""font-size:60px;""> </div>","null","fixation","html-keyboard-response","160","633341","0.0-6.0-0.22","2967491","co38515","norming","","","","","","",""
"null","../img/tt/1125tt.jpg","null","mooney1","image-keyboard-response","161","636349","0.0-6.0-1.22","2967491","co38515","norming","","","","","","",""
"4121.274999999907","","","post_mooney1_questions","survey-likert","162","640471","0.0-6.0-2.22","2967491","co38515","norming","","","{""curiosity"":5,""confidence"":1}","[0,1]","../img/tt/1125tt.jpg","",""
"3061.6500000001397","","","recognition","survey-text","163","643534","0.0-6.0-3.22","2967491","co38515","norming","","","{""guess"":""mens""}","","../img/tt/1125tt.jpg","",""
"null","../img/gs/1125gs.jpg","null","reveal","image-keyboard-response","164","645535","0.0-6.0-4.22","2967491","co38515","norming","","","","","","",""
"null","../img/tt/1125tt.jpg","null","mooney2","image-keyboard-response","165","647537","0.0-6.0-5.22","2967491","co38515","norming","","","","","","",""
"3627.319999999949","","","post_reveal_questions","survey-likert","166","651167","0.0-6.0-6.22","2967491","co38515","norming","","","{""aha"":5}","[0]","../img/tt/1125tt.jpg","",""
"null","<div style=""font-size:60px;""> </div>","null","fixation","html-keyboard-response","167","651368","0.0-6.0-0.23","2967491","co38515","norming","","","","","","",""
"null","../img/tt/076tt.jpg","null","mooney1","image-keyboard-response","168","654384","0.0-6.0-1.23","2967491","co38515","norming","","","","","","",""
"5358.765000000014","","","post_mooney1_questions","survey-likert","169","659744","0.0-6.0-2.23","2967491","co38515","norming","","","{""curiosity"":5,""confidence"":2}","[0,1]","../img/tt/076tt.jpg","",""
"3782.1149999999907","","","recognition","survey-text","170","663527","0.0-6.0-3.23","2967491","co38515","norming","","","{""guess"":""rolschaats""}","","../img/tt/076tt.jpg","",""
"null","../img/gs/076gs.jpg","null","reveal","image-keyboard-response","171","665534","0.0-6.0-4.23","2967491","co38515","norming","","","","","","",""
"null","../img/tt/076tt.jpg","null","mooney2","image-keyboard-response","172","667537","0.0-6.0-5.23","2967491","co38515","norming","","","","","","",""
"1588.2850000000326","","","post_reveal_questions","survey-likert","173","669127","0.0-6.0-6.23","2967491","co38515","norming","","","{""aha"":1}","[0]","../img/tt/076tt.jpg","",""
"null","<div style=""font-size:60px;""> </div>","null","fixation","html-keyboard-response","174","669328","0.0-6.0-0.24","2967491","co38515","norming","","","","","","",""
"null","../img/tt/040tt.jpg","null","mooney1","image-keyboard-response","175","672335","0.0-6.0-1.24","2967491","co38515","norming","","","","","","",""
"4215.229999999981","","","post_mooney1_questions","survey-likert","176","676552","0.0-6.0-2.24","2967491","co38515","norming","","","{""curiosity"":6,""confidence"":0}","[0,1]","../img/tt/040tt.jpg","",""
"742.1500000000233","","","recognition","survey-text","177","677295","0.0-6.0-3.24","2967491","co38515","norming","","","{""guess"":""""}","","../img/tt/040tt.jpg","",""
"null","../img/gs/040gs.jpg","null","reveal","image-keyboard-response","178","679304","0.0-6.0-4.24","2967491","co38515","norming","","","","","","",""
"null","../img/tt/040tt.jpg","null","mooney2","image-keyboard-response","179","681306","0.0-6.0-5.24","2967491","co38515","norming","","","","","","",""
"1508.479999999865","","","post_reveal_questions","survey-likert","180","682815","0.0-6.0-6.24","2967491","co38515","norming","","","{""aha"":6}","[0]","../img/tt/040tt.jpg","",""
"null","<div style=""font-size:60px;""> </div>","null","fixation","html-keyboard-response","181","683023","0.0-6.0-0.25","2967491","co38515","norming","","","","","","",""
"null","../img/tt/1159tt.jpg","null","mooney1","image-keyboard-response","182","686026","0.0-6.0-1.25","2967491","co38515","norming","","","","","","",""
"3146.8649999999907","","","post_mooney1_questions","survey-likert","183","689176","0.0-6.0-2.25","2967491","co38515","norming","","","{""curiosity"":6,""confidence"":0}","[0,1]","../img/tt/1159tt.jpg","",""
"854.0549999999348","","","recognition","survey-text","184","690031","0.0-6.0-3.25","2967491","co38515","norming","","","{""guess"":""""}","","../img/tt/1159tt.jpg","",""
"null","../img/gs/1159gs.jpg","null","reveal","image-keyboard-response","185","692041","0.0-6.0-4.25","2967491","co38515","norming","","","","","","",""
"null","../img/tt/1159tt.jpg","null","mooney2","image-keyboard-response","186","694052","0.0-6.0-5.25","2967491","co38515","norming","","","","","","",""
"3008.6699999999255","","","post_reveal_questions","survey-likert","187","697063","0.0-6.0-6.25","2967491","co38515","norming","","","{""aha"":4}","[0]","../img/tt/1159tt.jpg","",""
"null","<div style=""font-size:60px;""> </div>","null","fixation","html-keyboard-response","188","697269","0.0-6.0-0.26","2967491","co38515","norming","","","","","","",""
"null","../img/tt/1211tt.jpg","null","mooney1","image-keyboard-response","189","700279","0.0-6.0-1.26","2967491","co38515","norming","","","","","","",""
"3941.984999999986","","","post_mooney1_questions","survey-likert","190","704224","0.0-6.0-2.26","2967491","co38515","norming","","","{""curiosity"":6,""confidence"":0}","[0,1]","../img/tt/1211tt.jpg","",""
"1117.9449999999488","","","recognition","survey-text","191","705343","0.0-6.0-3.26","2967491","co38515","norming","","","{""guess"":""""}","","../img/tt/1211tt.jpg","",""
"null","../img/gs/1211gs.jpg","null","reveal","image-keyboard-response","192","707355","0.0-6.0-4.26","2967491","co38515","norming","","","","","","",""
"null","../img/tt/1211tt.jpg","null","mooney2","image-keyboard-response","193","709356","0.0-6.0-5.26","2967491","co38515","norming","","","","","","",""
"3145.4350000001723","","","post_reveal_questions","survey-likert","194","712503","0.0-6.0-6.26","2967491","co38515","norming","","","{""aha"":5}","[0]","../img/tt/1211tt.jpg","",""
"null","<div style=""font-size:60px;""> </div>","null","fixation","html-keyboard-response","195","712711","0.0-6.0-0.27","2967491","co38515","norming","","","","","","",""
"null","../img/tt/329tt.jpg","null","mooney1","image-keyboard-response","196","715723","0.0-6.0-1.27","2967491","co38515","norming","","","","","","",""
"3986.0849999999627","","","post_mooney1_questions","survey-likert","197","719712","0.0-6.0-2.27","2967491","co38515","norming","","","{""curiosity"":6,""confidence"":0}","[0,1]","../img/tt/329tt.jpg","",""
"838.1150000001071","","","recognition","survey-text","198","720551","0.0-6.0-3.27","2967491","co38515","norming","","","{""guess"":""""}","","../img/tt/329tt.jpg","",""
"null","../img/gs/329gs.jpg","null","reveal","image-keyboard-response","199","722557","0.0-6.0-4.27","2967491","co38515","norming","","","","","","",""
"null","../img/tt/329tt.jpg","null","mooney2","image-keyboard-response","200","724559","0.0-6.0-5.27","2967491","co38515","norming","","","","","","",""
"1774.2650000001304","","","post_reveal_questions","survey-likert","201","726335","0.0-6.0-6.27","2967491","co38515","norming","","","{""aha"":6}","[0]","../img/tt/329tt.jpg","",""
"null","<div style=""font-size:60px;""> </div>","null","fixation","html-keyboard-response","202","726542","0.0-6.0-0.28","2967491","co38515","norming","","","","","","",""
"null","../img/tt/1224tt.jpg","null","mooney1","image-keyboard-response","203","729546","0.0-6.0-1.28","2967491","co38515","norming","","","","","","",""
"7155.23499999987","","","post_mooney1_questions","survey-likert","204","736703","0.0-6.0-2.28","2967491","co38515","norming","","","{""curiosity"":4,""confidence"":2}","[0,1]","../img/tt/1224tt.jpg","",""
"2342.0849999999627","","","recognition","survey-text","205","739047","0.0-6.0-3.28","2967491","co38515","norming","","","{""guess"":""mens""}","","../img/tt/1224tt.jpg","",""
"null","../img/gs/1224gs.jpg","null","reveal","image-keyboard-response","206","741052","0.0-6.0-4.28","2967491","co38515","norming","","","","","","",""
"null","../img/tt/1224tt.jpg","null","mooney2","image-keyboard-response","207","743055","0.0-6.0-5.28","2967491","co38515","norming","","","","","","",""
"3630.265000000014","","","post_reveal_questions","survey-likert","208","746687","0.0-6.0-6.28","2967491","co38515","norming","","","{""aha"":5}","[0]","../img/tt/1224tt.jpg","",""
"null","<div style=""font-size:60px;""> </div>","null","fixation","html-keyboard-response","209","746898","0.0-6.0-0.29","2967491","co38515","norming","","","","","","",""
"null","../img/tt/1002tt.jpg","null","mooney1","image-keyboard-response","210","749903","0.0-6.0-1.29","2967491","co38515","norming","","","","","","",""
"4927.174999999814","","","post_mooney1_questions","survey-likert","211","754832","0.0-6.0-2.29","2967491","co38515","norming","","","{""curiosity"":5,""confidence"":1}","[0,1]","../img/tt/1002tt.jpg","",""
"958.0100000000093","","","recognition","survey-text","212","755791","0.0-6.0-3.29","2967491","co38515","norming","","","{""guess"":""""}","","../img/tt/1002tt.jpg","",""
"null","../img/gs/1002gs.jpg","null","reveal","image-keyboard-response","213","757799","0.0-6.0-4.29","2967491","co38515","norming","","","","","","",""
"null","../img/tt/1002tt.jpg","null","mooney2","image-keyboard-response","214","759803","0.0-6.0-5.29","2967491","co38515","norming","","","","","","",""
"1714.5350000000326","","","post_reveal_questions","survey-likert","215","761519","0.0-6.0-6.29","2967491","co38515","norming","","","{""aha"":6}","[0]","../img/tt/1002tt.jpg","",""
"null","<div style=""font-size:60px;""> </div>","null","fixation","html-keyboard-response","216","761721","0.0-6.0-0.30","2967491","co38515","norming","","","","","","",""
"null","../img/tt/1061tt.jpg","null","mooney1","image-keyboard-response","217","764732","0.0-6.0-1.30","2967491","co38515","norming","","","","","","",""
"5369.165000000154","","","post_mooney1_questions","survey-likert","218","770104","0.0-6.0-2.30","2967491","co38515","norming","","","{""curiosity"":5,""confidence"":1}","[0,1]","../img/tt/1061tt.jpg","",""
"3797.9000000000233","","","recognition","survey-text","219","773903","0.0-6.0-3.30","2967491","co38515","norming","","","{""guess"":""mensen""}","","../img/tt/1061tt.jpg","",""
"null","../img/gs/1061gs.jpg","null","reveal","image-keyboard-response","220","775904","0.0-6.0-4.30","2967491","co38515","norming","","","","","","",""
"null","../img/tt/1061tt.jpg","null","mooney2","image-keyboard-response","221","777909","0.0-6.0-5.30","2967491","co38515","norming","","","","","","",""
"2848.2450000001118","","","post_reveal_questions","survey-likert","222","780760","0.0-6.0-6.30","2967491","co38515","norming","","","{""aha"":4}","[0]","../img/tt/1061tt.jpg","",""
"null","<div style=""font-size:60px;""> </div>","null","fixation","html-keyboard-response","223","780962","0.0-6.0-0.31","2967491","co38515","norming","","","","","","",""
"null","../img/tt/442tt.jpg","null","mooney1","image-keyboard-response","224","783967","0.0-6.0-1.31","2967491","co38515","norming","","","","","","",""
"4093.7700000000186","","","post_mooney1_questions","survey-likert","225","788064","0.0-6.0-2.31","2967491","co38515","norming","","","{""curiosity"":6,""confidence"":0}","[0,1]","../img/tt/442tt.jpg","",""
"1173.984999999986","","","recognition","survey-text","226","789239","0.0-6.0-3.31","2967491","co38515","norming","","","{""guess"":""""}","","../img/tt/442tt.jpg","",""
"null","../img/gs/442gs.jpg","null","reveal","image-keyboard-response","227","791242","0.0-6.0-4.31","2967491","co38515","norming","","","","","","",""
"null","../img/tt/442tt.jpg","null","mooney2","image-keyboard-response","228","793246","0.0-6.0-5.31","2967491","co38515","norming","","","","","","",""
"1959.1299999998882","","","post_reveal_questions","survey-likert","229","795207","0.0-6.0-6.31","2967491","co38515","norming","","","{""aha"":6}","[0]","../img/tt/442tt.jpg","",""
"null","<div style=""font-size:60px;""> </div>","null","fixation","html-keyboard-response","230","795408","0.0-6.0-0.32","2967491","co38515","norming","","","","","","",""
"null","../img/tt/1063tt.jpg","null","mooney1","image-keyboard-response","231","798419","0.0-6.0-1.32","2967491","co38515","norming","","","","","","",""
"5659.754999999888","","","post_mooney1_questions","survey-likert","232","804080","0.0-6.0-2.32","2967491","co38515","norming","","","{""curiosity"":6,""confidence"":6}","[0,1]","../img/tt/1063tt.jpg","",""
"3878.0449999999255","","","recognition","survey-text","233","807959","0.0-6.0-3.32","2967491","co38515","norming","","","{""guess"":""paarden""}","","../img/tt/1063tt.jpg","",""
"null","../img/gs/1063gs.jpg","null","reveal","image-keyboard-response","234","809967","0.0-6.0-4.32","2967491","co38515","norming","","","","","","",""
"null","../img/tt/1063tt.jpg","null","mooney2","image-keyboard-response","235","811971","0.0-6.0-5.32","2967491","co38515","norming","","","","","","",""
"3105.770000000135","","","post_reveal_questions","survey-likert","236","815079","0.0-6.0-6.32","2967491","co38515","norming","","","{""aha"":0}","[0]","../img/tt/1063tt.jpg","",""
"null","<div style=""font-size:60px;""> </div>","null","fixation","html-keyboard-response","237","815284","0.0-6.0-0.33","2967491","co38515","norming","","","","","","",""
"null","../img/tt/1101tt.jpg","null","mooney1","image-keyboard-response","238","818288","0.0-6.0-1.33","2967491","co38515","norming","","","","","","",""
"4749.179999999935","","","post_mooney1_questions","survey-likert","239","823040","0.0-6.0-2.33","2967491","co38515","norming","","","{""curiosity"":3,""confidence"":5}","[0,1]","../img/tt/1101tt.jpg","",""
"4566.180000000051","","","recognition","survey-text","240","827607","0.0-6.0-3.33","2967491","co38515","norming","","","{""guess"":""voetballer""}","","../img/tt/1101tt.jpg","",""
"null","../img/gs/1101gs.jpg","null","reveal","image-keyboard-response","241","829612","0.0-6.0-4.33","2967491","co38515","norming","","","","","","",""
"null","../img/tt/1101tt.jpg","null","mooney2","image-keyboard-response","242","831613","0.0-6.0-5.33","2967491","co38515","norming","","","","","","",""
"3583.944999999949","","","post_reveal_questions","survey-likert","243","835199","0.0-6.0-6.33","2967491","co38515","norming","","","{""aha"":1}","[0]","../img/tt/1101tt.jpg","",""
"null","<div style=""font-size:60px;""> </div>","null","fixation","html-keyboard-response","244","835407","0.0-6.0-0.34","2967491","co38515","norming","","","","","","",""
"null","../img/tt/1046tt.jpg","null","mooney1","image-keyboard-response","245","838414","0.0-6.0-1.34","2967491","co38515","norming","","","","","","",""
"5161.070000000065","","","post_mooney1_questions","survey-likert","246","843576","0.0-6.0-2.34","2967491","co38515","norming","","","{""curiosity"":5,""confidence"":1}","[0,1]","../img/tt/1046tt.jpg","",""
"3229.8449999998556","","","recognition","survey-text","247","846807","0.0-6.0-3.34","2967491","co38515","norming","","","{""guess"":""eten""}","","../img/tt/1046tt.jpg","",""
"null","../img/gs/1046gs.jpg","null","reveal","image-keyboard-response","248","848811","0.0-6.0-4.34","2967491","co38515","norming","","","","","","",""
"null","../img/tt/1046tt.jpg","null","mooney2","image-keyboard-response","249","850813","0.0-6.0-5.34","2967491","co38515","norming","","","","","","",""
"4624.640000000014","","","post_reveal_questions","survey-likert","250","855440","0.0-6.0-6.34","2967491","co38515","norming","","","{""aha"":4}","[0]","../img/tt/1046tt.jpg","",""
"null","<div style=""font-size:60px;""> </div>","null","fixation","html-keyboard-response","251","855641","0.0-6.0-0.35","2967491","co38515","norming","","","","","","",""
"null","../img/tt/1175tt.jpg","null","mooney1","image-keyboard-response","252","858645","0.0-6.0-1.35","2967491","co38515","norming","","","","","","",""
"3344.25","","","post_mooney1_questions","survey-likert","253","861992","0.0-6.0-2.35","2967491","co38515","norming","","","{""curiosity"":6,""confidence"":0}","[0,1]","../img/tt/1175tt.jpg","",""
"1173.9550000000745","","","recognition","survey-text","254","863168","0.0-6.0-3.35","2967491","co38515","norming","","","{""guess"":""""}","","../img/tt/1175tt.jpg","",""
"null","../img/gs/1175gs.jpg","null","reveal","image-keyboard-response","255","865175","0.0-6.0-4.35","2967491","co38515","norming","","","","","","",""
"null","../img/tt/1175tt.jpg","null","mooney2","image-keyboard-response","256","867183","0.0-6.0-5.35","2967491","co38515","norming","","","","","","",""
"2030.704999999958","","","post_reveal_questions","survey-likert","257","869216","0.0-6.0-6.35","2967491","co38515","norming","","","{""aha"":5}","[0]","../img/tt/1175tt.jpg","",""
"null","<div style=""font-size:60px;""> </div>","null","fixation","html-keyboard-response","258","869417","0.0-6.0-0.36","2967491","co38515","norming","","","","","","",""
"null","../img/tt/1066tt.jpg","null","mooney1","image-keyboard-response","259","872420","0.0-6.0-1.36","2967491","co38515","norming","","","","","","",""
"4330.09999999986","","","post_mooney1_questions","survey-likert","260","876752","0.0-6.0-2.36","2967491","co38515","norming","","","{""curiosity"":6,""confidence"":0}","[0,1]","../img/tt/1066tt.jpg","",""
"1093.3999999999069","","","recognition","survey-text","261","877847","0.0-6.0-3.36","2967491","co38515","norming","","","{""guess"":""""}","","../img/tt/1066tt.jpg","",""
"null","../img/gs/1066gs.jpg","null","reveal","image-keyboard-response","262","879854","0.0-6.0-4.36","2967491","co38515","norming","","","","","","",""
"null","../img/tt/1066tt.jpg","null","mooney2","image-keyboard-response","263","881855","0.0-6.0-5.36","2967491","co38515","norming","","","","","","",""
"2207.765000000014","","","post_reveal_questions","survey-likert","264","884063","0.0-6.0-6.36","2967491","co38515","norming","","","{""aha"":6}","[0]","../img/tt/1066tt.jpg","",""
"null","<div style=""font-size:60px;""> </div>","null","fixation","html-keyboard-response","265","884265","0.0-6.0-0.37","2967491","co38515","norming","","","","","","",""
"null","../img/tt/1279tt.jpg","null","mooney1","image-keyboard-response","266","887266","0.0-6.0-1.37","2967491","co38515","norming","","","","","","",""
"2964.439999999944","","","post_mooney1_questions","survey-likert","267","890232","0.0-6.0-2.37","2967491","co38515","norming","","","{""curiosity"":6,""confidence"":0}","[0,1]","../img/tt/1279tt.jpg","",""
"717.9399999999441","","","recognition","survey-text","268","890951","0.0-6.0-3.37","2967491","co38515","norming","","","{""guess"":""""}","","../img/tt/1279tt.jpg","",""
"null","../img/gs/1279gs.jpg","null","reveal","image-keyboard-response","269","892960","0.0-6.0-4.37","2967491","co38515","norming","","","","","","",""
"null","../img/tt/1279tt.jpg","null","mooney2","image-keyboard-response","270","894970","0.0-6.0-5.37","2967491","co38515","norming","","","","","","",""
"2315.7750000000233","","","post_reveal_questions","survey-likert","271","897287","0.0-6.0-6.37","2967491","co38515","norming","","","{""aha"":4}","[0]","../img/tt/1279tt.jpg","",""
"null","<div style=""font-size:60px;""> </div>","null","fixation","html-keyboard-response","272","897496","0.0-6.0-0.38","2967491","co38515","norming","","","","","","",""
"null","../img/tt/052tt.jpg","null","mooney1","image-keyboard-response","273","900507","0.0-6.0-1.38","2967491","co38515","norming","","","","","","",""
"4932.105000000098","","","post_mooney1_questions","survey-likert","274","905440","0.0-6.0-2.38","2967491","co38515","norming","","","{""curiosity"":5,""confidence"":1}","[0,1]","../img/tt/052tt.jpg","",""
"925.8000000000466","","","recognition","survey-text","275","906367","0.0-6.0-3.38","2967491","co38515","norming","","","{""guess"":""""}","","../img/tt/052tt.jpg","",""
"null","../img/gs/052gs.jpg","null","reveal","image-keyboard-response","276","908376","0.0-6.0-4.38","2967491","co38515","norming","","","","","","",""
"null","../img/tt/052tt.jpg","null","mooney2","image-keyboard-response","277","910377","0.0-6.0-5.38","2967491","co38515","norming","","","","","","",""
"2517.569999999949","","","post_reveal_questions","survey-likert","278","912896","0.0-6.0-6.38","2967491","co38515","norming","","","{""aha"":5}","[0]","../img/tt/052tt.jpg","",""
"null","<div style=""font-size:60px;""> </div>","null","fixation","html-keyboard-response","279","913097","0.0-6.0-0.39","2967491","co38515","norming","","","","","","",""
"null","../img/tt/307tt.jpg","null","mooney1","image-keyboard-response","280","916105","0.0-6.0-1.39","2967491","co38515","norming","","","","","","",""
"4507.525000000023","","","post_mooney1_questions","survey-likert","281","920616","0.0-6.0-2.39","2967491","co38515","norming","","","{""curiosity"":5,""confidence"":1}","[0,1]","../img/tt/307tt.jpg","",""
"4581.810000000172","","","recognition","survey-text","282","925199","0.0-6.0-3.39","2967491","co38515","norming","","","{""guess"":""schoen""}","","../img/tt/307tt.jpg","",""
"null","../img/gs/307gs.jpg","null","reveal","image-keyboard-response","283","927201","0.0-6.0-4.39","2967491","co38515","norming","","","","","","",""
"null","../img/tt/307tt.jpg","null","mooney2","image-keyboard-response","284","929208","0.0-6.0-5.39","2967491","co38515","norming","","","","","","",""
"2101.210000000079","","","post_reveal_questions","survey-likert","285","931312","0.0-6.0-6.39","2967491","co38515","norming","","","{""aha"":6}","[0]","../img/tt/307tt.jpg","",""
"null","<div style=""font-size:60px;""> </div>","null","fixation","html-keyboard-response","286","931515","0.0-6.0-0.40","2967491","co38515","norming","","","","","","",""
"null","../img/tt/1148tt.jpg","null","mooney1","image-keyboard-response","287","934523","0.0-6.0-1.40","2967491","co38515","norming","","","","","","",""
"3337.70000000007","","","post_mooney1_questions","survey-likert","288","937864","0.0-6.0-2.40","2967491","co38515","norming","","","{""curiosity"":6,""confidence"":0}","[0,1]","../img/tt/1148tt.jpg","",""
"758.0550000000512","","","recognition","survey-text","289","938624","0.0-6.0-3.40","2967491","co38515","norming","","","{""guess"":""""}","","../img/tt/1148tt.jpg","",""
"null","../img/gs/1148gs.jpg","null","reveal","image-keyboard-response","290","940631","0.0-6.0-4.40","2967491","co38515","norming","","","","","","",""
"null","../img/tt/1148tt.jpg","null","mooney2","image-keyboard-response","291","942632","0.0-6.0-5.40","2967491","co38515","norming","","","","","","",""
"2029.3349999998463","","","post_reveal_questions","survey-likert","292","944664","0.0-6.0-6.40","2967491","co38515","norming","","","{""aha"":5}","[0]","../img/tt/1148tt.jpg","",""
"null","<div style=""font-size:60px;""> </div>","null","fixation","html-keyboard-response","293","944865","0.0-6.0-0.41","2967491","co38515","norming","","","","","","",""
"null","../img/tt/007tt.jpg","null","mooney1","image-keyboard-response","294","947870","0.0-6.0-1.41","2967491","co38515","norming","","","","","","",""
"5726.895000000019","","","post_mooney1_questions","survey-likert","295","953600","0.0-6.0-2.41","2967491","co38515","norming","","","{""curiosity"":6,""confidence"":0}","[0,1]","../img/tt/007tt.jpg","",""
"845.7150000002002","","","recognition","survey-text","296","954447","0.0-6.0-3.41","2967491","co38515","norming","","","{""guess"":""""}","","../img/tt/007tt.jpg","",""
"null","../img/gs/007gs.jpg","null","reveal","image-keyboard-response","297","956456","0.0-6.0-4.41","2967491","co38515","norming","","","","","","",""
"null","../img/tt/007tt.jpg","null","mooney2","image-keyboard-response","298","958461","0.0-6.0-5.41","2967491","co38515","norming","","","","","","",""
"2306.0749999999534","","","post_reveal_questions","survey-likert","299","960762","0.0-6.0-6.41","2967491","co38515","norming","","","{""aha"":5}","[0]","../img/tt/007tt.jpg","",""
"null","<div style=""font-size:60px;""> </div>","null","fixation","html-keyboard-response","300","960965","0.0-6.0-0.42","2967491","co38515","norming","","","","","","",""
"null","../img/tt/078tt.jpg","null","mooney1","image-keyboard-response","301","963971","0.0-6.0-1.42","2967491","co38515","norming","","","","","","",""
"5763.994999999995","","","post_mooney1_questions","survey-likert","302","969738","0.0-6.0-2.42","2967491","co38515","norming","","","{""curiosity"":5,""confidence"":0}","[0,1]","../img/tt/078tt.jpg","",""
"1342.2150000002002","","","recognition","survey-text","303","971081","0.0-6.0-3.42","2967491","co38515","norming","","","{""guess"":""""}","","../img/tt/078tt.jpg","",""
"null","../img/gs/078gs.jpg","null","reveal","image-keyboard-response","304","973090","0.0-6.0-4.42","2967491","co38515","norming","","","","","","",""
"null","../img/tt/078tt.jpg","null","mooney2","image-keyboard-response","305","975098","0.0-6.0-5.42","2967491","co38515","norming","","","","","","",""
"2709.504999999772","","","post_reveal_questions","survey-likert","306","977810","0.0-6.0-6.42","2967491","co38515","norming","","","{""aha"":5}","[0]","../img/tt/078tt.jpg","",""
"null","<div style=""font-size:60px;""> </div>","null","fixation","html-keyboard-response","307","978012","0.0-6.0-0.43","2967491","co38515","norming","","","","","","",""
"null","../img/tt/085tt.jpg","null","mooney1","image-keyboard-response","308","981023","0.0-6.0-1.43","2967491","co38515","norming","","","","","","",""
"7823.339999999967","","","post_mooney1_questions","survey-likert","309","988850","0.0-6.0-2.43","2967491","co38515","norming","","","{""curiosity"":4,""confidence"":4}","[0,1]","../img/tt/085tt.jpg","",""
"8222.17500000028","","","recognition","survey-text","310","997074","0.0-6.0-3.43","2967491","co38515","norming","","","{""guess"":""bidsprinkhaan""}","","../img/tt/085tt.jpg","",""
"null","../img/gs/085gs.jpg","null","reveal","image-keyboard-response","311","999079","0.0-6.0-4.43","2967491","co38515","norming","","","","","","",""
"null","../img/tt/085tt.jpg","null","mooney2","image-keyboard-response","312","1001087","0.0-6.0-5.43","2967491","co38515","norming","","","","","","",""
"3310.6899999997113","","","post_reveal_questions","survey-likert","313","1004401","0.0-6.0-6.43","2967491","co38515","norming","","","{""aha"":0}","[0]","../img/tt/085tt.jpg","",""
"null","<div style=""font-size:60px;""> </div>","null","fixation","html-keyboard-response","314","1004603","0.0-6.0-0.44","2967491","co38515","norming","","","","","","",""
"null","../img/tt/094tt.jpg","null","mooney1","image-keyboard-response","315","1007610","0.0-6.0-1.44","2967491","co38515","norming","","","","","","",""
"5815.090000000084","","","post_mooney1_questions","survey-likert","316","1013426","0.0-6.0-2.44","2967491","co38515","norming","","","{""curiosity"":5,""confidence"":1}","[0,1]","../img/tt/094tt.jpg","",""
"2701.9799999997485","","","recognition","survey-text","317","1016130","0.0-6.0-3.44","2967491","co38515","norming","","","{""guess"":""dier""}","","../img/tt/094tt.jpg","",""
"null","../img/gs/094gs.jpg","null","reveal","image-keyboard-response","318","1018132","0.0-6.0-4.44","2967491","co38515","norming","","","","","","",""
"null","../img/tt/094tt.jpg","null","mooney2","image-keyboard-response","319","1020143","0.0-6.0-5.44","2967491","co38515","norming","","","","","","",""
"4064.309999999823","","","post_reveal_questions","survey-likert","320","1024209","0.0-6.0-6.44","2967491","co38515","norming","","","{""aha"":4}","[0]","../img/tt/094tt.jpg","",""
"null","<div style=""font-size:60px;""> </div>","null","fixation","html-keyboard-response","321","1024416","0.0-6.0-0.45","2967491","co38515","norming","","","","","","",""
"null","../img/tt/1097tt.jpg","null","mooney1","image-keyboard-response","322","1027425","0.0-6.0-1.45","2967491","co38515","norming","","","","","","",""
"5380.515000000247","","","post_mooney1_questions","survey-likert","323","1032809","0.0-6.0-2.45","2967491","co38515","norming","","","{""curiosity"":4,""confidence"":2}","[0,1]","../img/tt/1097tt.jpg","",""
"2054.160000000149","","","recognition","survey-text","324","1034865","0.0-6.0-3.45","2967491","co38515","norming","","","{""guess"":""mens""}","","../img/tt/1097tt.jpg","",""
"null","../img/gs/1097gs.jpg","null","reveal","image-keyboard-response","325","1036867","0.0-6.0-4.45","2967491","co38515","norming","","","","","","",""
"null","../img/tt/1097tt.jpg","null","mooney2","image-keyboard-response","326","1038876","0.0-6.0-5.45","2967491","co38515","norming","","","","","","",""
"1714.4350000002887","","","post_reveal_questions","survey-likert","327","1040593","0.0-6.0-6.45","2967491","co38515","norming","","","{""aha"":5}","[0]","../img/tt/1097tt.jpg","",""
"null","<div style=""font-size:60px;""> </div>","null","fixation","html-keyboard-response","328","1040798","0.0-6.0-0.46","2967491","co38515","norming","","","","","","",""
"null","../img/tt/1226tt.jpg","null","mooney1","image-keyboard-response","329","1043804","0.0-6.0-1.46","2967491","co38515","norming","","","","","","",""
"7068.119999999879","","","post_mooney1_questions","survey-likert","330","1050873","0.0-6.0-2.46","2967491","co38515","norming","","","{""curiosity"":5,""confidence"":2}","[0,1]","../img/tt/1226tt.jpg","",""
"3341.8450000004377","","","recognition","survey-text","331","1054217","0.0-6.0-3.46","2967491","co38515","norming","","","{""guess"":""vogels""}","","../img/tt/1226tt.jpg","",""
"null","../img/gs/1226gs.jpg","null","reveal","image-keyboard-response","332","1056220","0.0-6.0-4.46","2967491","co38515","norming","","","","","","",""
"null","../img/tt/1226tt.jpg","null","mooney2","image-keyboard-response","333","1058223","0.0-6.0-5.46","2967491","co38515","norming","","","","","","",""
"4199.975000000093","","","post_reveal_questions","survey-likert","334","1062425","0.0-6.0-6.46","2967491","co38515","norming","","","{""aha"":4}","[0]","../img/tt/1226tt.jpg","",""
"null","<div style=""font-size:60px;""> </div>","null","fixation","html-keyboard-response","335","1062630","0.0-6.0-0.47","2967491","co38515","norming","","","","","","",""
"null","../img/tt/036tt.jpg","null","mooney1","image-keyboard-response","336","1065634","0.0-6.0-1.47","2967491","co38515","norming","","","","","","",""
"3875.3900000001304","","","post_mooney1_questions","survey-likert","337","1069513","0.0-6.0-2.47","2967491","co38515","norming","","","{""curiosity"":6,""confidence"":1}","[0,1]","../img/tt/036tt.jpg","",""
"1005.945000000298","","","recognition","survey-text","338","1070521","0.0-6.0-3.47","2967491","co38515","norming","","","{""guess"":""""}","","../img/tt/036tt.jpg","",""
"null","../img/gs/036gs.jpg","null","reveal","image-keyboard-response","339","1072528","0.0-6.0-4.47","2967491","co38515","norming","","","","","","",""
"null","../img/tt/036tt.jpg","null","mooney2","image-keyboard-response","340","1074531","0.0-6.0-5.47","2967491","co38515","norming","","","","","","",""
"5739.529999999795","","","post_reveal_questions","survey-likert","341","1080273","0.0-6.0-6.47","2967491","co38515","norming","","","{""aha"":2}","[0]","../img/tt/036tt.jpg","",""
"null","<div style=""font-size:60px;""> </div>","null","fixation","html-keyboard-response","342","1080482","0.0-6.0-0.48","2967491","co38515","norming","","","","","","",""
"null","../img/tt/406tt.jpg","null","mooney1","image-keyboard-response","343","1083493","0.0-6.0-1.48","2967491","co38515","norming","","","","","","",""
"3425.565000000177","","","post_mooney1_questions","survey-likert","344","1086921","0.0-6.0-2.48","2967491","co38515","norming","","","{""curiosity"":6,""confidence"":1}","[0,1]","../img/tt/406tt.jpg","",""
"678.0750000001863","","","recognition","survey-text","345","1087601","0.0-6.0-3.48","2967491","co38515","norming","","","{""guess"":""""}","","../img/tt/406tt.jpg","",""
"null","../img/gs/406gs.jpg","null","reveal","image-keyboard-response","346","1089604","0.0-6.0-4.48","2967491","co38515","norming","","","","","","",""
"null","../img/tt/406tt.jpg","null","mooney2","image-keyboard-response","347","1091607","0.0-6.0-5.48","2967491","co38515","norming","","","","","","",""
"2503.774999999674","","","post_reveal_questions","survey-likert","348","1094113","0.0-6.0-6.48","2967491","co38515","norming","","","{""aha"":5}","[0]","../img/tt/406tt.jpg","",""
"null","<div style=""font-size:60px;""> </div>","null","fixation","html-keyboard-response","349","1094314","0.0-6.0-0.49","2967491","co38515","norming","","","","","","",""
"null","../img/tt/1044tt.jpg","null","mooney1","image-keyboard-response","350","1097317","0.0-6.0-1.49","2967491","co38515","norming","","","","","","",""
"4968.524999999674","","","post_mooney1_questions","survey-likert","351","1102289","0.0-6.0-2.49","2967491","co38515","norming","","","{""curiosity"":4,""confidence"":3}","[0,1]","../img/tt/1044tt.jpg","",""
"6677.905000000028","","","recognition","survey-text","352","1108969","0.0-6.0-3.49","2967491","co38515","norming","","","{""guess"":""giraf""}","","../img/tt/1044tt.jpg","",""
"null","../img/gs/1044gs.jpg","null","reveal","image-keyboard-response","353","1110976","0.0-6.0-4.49","2967491","co38515","norming","","","","","","",""
"null","../img/tt/1044tt.jpg","null","mooney2","image-keyboard-response","354","1112978","0.0-6.0-5.49","2967491","co38515","norming","","","","","","",""
"1756.7950000003912","","","post_reveal_questions","survey-likert","355","1114737","0.0-6.0-6.49","2967491","co38515","norming","","","{""aha"":1}","[0]","../img/tt/1044tt.jpg","",""
"null","<div style=""font-size:60px;""> </div>","null","fixation","html-keyboard-response","356","1114938","0.0-6.0-0.50","2967491","co38515","norming","","","","","","",""
"null","../img/tt/517tt.jpg","null","mooney1","image-keyboard-response","357","1117945","0.0-6.0-1.50","2967491","co38515","norming","","","","","","",""
"4413.09999999986","","","post_mooney1_questions","survey-likert","358","1122361","0.0-6.0-2.50","2967491","co38515","norming","","","{""curiosity"":6,""confidence"":0}","[0,1]","../img/tt/517tt.jpg","",""
"902.1950000000652","","","recognition","survey-text","359","1123265","0.0-6.0-3.50","2967491","co38515","norming","","","{""guess"":""""}","","../img/tt/517tt.jpg","",""
"null","../img/gs/517gs.jpg","null","reveal","image-keyboard-response","360","1125267","0.0-6.0-4.50","2967491","co38515","norming","","","","","","",""
"null","../img/tt/517tt.jpg","null","mooney2","image-keyboard-response","361","1127268","0.0-6.0-5.50","2967491","co38515","norming","","","","","","",""
"3026.315000000177","","","post_reveal_questions","survey-likert","362","1130297","0.0-6.0-6.50","2967491","co38515","norming","","","{""aha"":5}","[0]","../img/tt/517tt.jpg","",""
"null","<div style=""font-size:60px;""> </div>","null","fixation","html-keyboard-response","363","1130505","0.0-6.0-0.51","2967491","co38515","norming","","","","","","",""
"null","../img/tt/1202tt.jpg","null","mooney1","image-keyboard-response","364","1133508","0.0-6.0-1.51","2967491","co38515","norming","","","","","","",""
"3922.2349999998696","","","post_mooney1_questions","survey-likert","365","1137433","0.0-6.0-2.51","2967491","co38515","norming","","","{""curiosity"":6,""confidence"":0}","[0,1]","../img/tt/1202tt.jpg","",""
"1029.7649999996647","","","recognition","survey-text","366","1138465","0.0-6.0-3.51","2967491","co38515","norming","","","{""guess"":""""}","","../img/tt/1202tt.jpg","",""
"null","../img/gs/1202gs.jpg","null","reveal","image-keyboard-response","367","1140467","0.0-6.0-4.51","2967491","co38515","norming","","","","","","",""
"null","../img/tt/1202tt.jpg","null","mooney2","image-keyboard-response","368","1142468","0.0-6.0-5.51","2967491","co38515","norming","","","","","","",""
"2796.159999999916","","","post_reveal_questions","survey-likert","369","1145261","0.0-6.0-6.51","2967491","co38515","norming","","","{""aha"":5}","[0]","../img/tt/1202tt.jpg","",""
"null","<div style=""font-size:60px;""> </div>","null","fixation","html-keyboard-response","370","1145465","0.0-6.0-0.52","2967491","co38515","norming","","","","","","",""
"null","../img/tt/163tt.jpg","null","mooney1","image-keyboard-response","371","1148468","0.0-6.0-1.52","2967491","co38515","norming","","","","","","",""
"4311.744999999879","","","post_mooney1_questions","survey-likert","372","1152781","0.0-6.0-2.52","2967491","co38515","norming","","","{""curiosity"":5,""confidence"":0}","[0,1]","../img/tt/163tt.jpg","",""
"862.1250000002328","","","recognition","survey-text","373","1153645","0.0-6.0-3.52","2967491","co38515","norming","","","{""guess"":""""}","","../img/tt/163tt.jpg","",""
"null","../img/gs/163gs.jpg","null","reveal","image-keyboard-response","374","1155655","0.0-6.0-4.52","2967491","co38515","norming","","","","","","",""
"null","../img/tt/163tt.jpg","null","mooney2","image-keyboard-response","375","1157657","0.0-6.0-5.52","2967491","co38515","norming","","","","","","",""
"2929.5850000004284","","","post_reveal_questions","survey-likert","376","1160589","0.0-6.0-6.52","2967491","co38515","norming","","","{""aha"":4}","[0]","../img/tt/163tt.jpg","",""
"null","<div style=""font-size:60px;""> </div>","null","fixation","html-keyboard-response","377","1160797","0.0-6.0-0.53","2967491","co38515","norming","","","","","","",""
"null","../img/tt/301tt.jpg","null","mooney1","image-keyboard-response","378","1163803","0.0-6.0-1.53","2967491","co38515","norming","","","","","","",""
"4886.549999999814","","","post_mooney1_questions","survey-likert","379","1168693","0.0-6.0-2.53","2967491","co38515","norming","","","{""curiosity"":5,""confidence"":0}","[0,1]","../img/tt/301tt.jpg","",""
"605.8449999999721","","","recognition","survey-text","380","1169301","0.0-6.0-3.53","2967491","co38515","norming","","","{""guess"":""""}","","../img/tt/301tt.jpg","",""
"null","../img/gs/301gs.jpg","null","reveal","image-keyboard-response","381","1171307","0.0-6.0-4.53","2967491","co38515","norming","","","","","","",""
"null","../img/tt/301tt.jpg","null","mooney2","image-keyboard-response","382","1173309","0.0-6.0-5.53","2967491","co38515","norming","","","","","","",""
"3613.2600000000093","","","post_reveal_questions","survey-likert","383","1176925","0.0-6.0-6.53","2967491","co38515","norming","","","{""aha"":2}","[0]","../img/tt/301tt.jpg","",""
"null","<div style=""font-size:60px;""> </div>","null","fixation","html-keyboard-response","384","1177129","0.0-6.0-0.54","2967491","co38515","norming","","","","","","",""
"null","../img/tt/1205tt.jpg","null","mooney1","image-keyboard-response","385","1180139","0.0-6.0-1.54","2967491","co38515","norming","","","","","","",""
"4006.4849999998696","","","post_mooney1_questions","survey-likert","386","1184149","0.0-6.0-2.54","2967491","co38515","norming","","","{""curiosity"":5,""confidence"":2}","[0,1]","../img/tt/1205tt.jpg","",""
"4573.625","","","recognition","survey-text","387","1188725","0.0-6.0-3.54","2967491","co38515","norming","","","{""guess"":""mensen""}","","../img/tt/1205tt.jpg","",""
"null","../img/gs/1205gs.jpg","null","reveal","image-keyboard-response","388","1190735","0.0-6.0-4.54","2967491","co38515","norming","","","","","","",""
"null","../img/tt/1205tt.jpg","null","mooney2","image-keyboard-response","389","1192739","0.0-6.0-5.54","2967491","co38515","norming","","","","","","",""
"1839.850000000326","","","post_reveal_questions","survey-likert","390","1194581","0.0-6.0-6.54","2967491","co38515","norming","","","{""aha"":4}","[0]","../img/tt/1205tt.jpg","",""
"null","<div style=""font-size:60px;""> </div>","null","fixation","html-keyboard-response","391","1194791","0.0-6.0-0.55","2967491","co38515","norming","","","","","","",""
"null","../img/tt/124tt.jpg","null","mooney1","image-keyboard-response","392","1197803","0.0-6.0-1.55","2967491","co38515","norming","","","","","","",""
"6071.230000000214","","","post_mooney1_questions","survey-likert","393","1203877","0.0-6.0-2.55","2967491","co38515","norming","","","{""curiosity"":3,""confidence"":4}","[0,1]","../img/tt/124tt.jpg","",""
"3166.0800000000745","","","recognition","survey-text","394","1207045","0.0-6.0-3.55","2967491","co38515","norming","","","{""guess"":""gorilla""}","","../img/tt/124tt.jpg","",""
"null","../img/gs/124gs.jpg","null","reveal","image-keyboard-response","395","1209054","0.0-6.0-4.55","2967491","co38515","norming","","","","","","",""
"null","../img/tt/124tt.jpg","null","mooney2","image-keyboard-response","396","1211063","0.0-6.0-5.55","2967491","co38515","norming","","","","","","",""
"3218.9600000001956","","","post_reveal_questions","survey-likert","397","1214285","0.0-6.0-6.55","2967491","co38515","norming","","","{""aha"":1}","[0]","../img/tt/124tt.jpg","",""
"null","<div style=""font-size:60px;""> </div>","null","fixation","html-keyboard-response","398","1214489","0.0-6.0-0.56","2967491","co38515","norming","","","","","","",""
"null","../img/tt/140tt.jpg","null","mooney1","image-keyboard-response","399","1217499","0.0-6.0-1.56","2967491","co38515","norming","","","","","","",""
"5567.045000000391","","","post_mooney1_questions","survey-likert","400","1223069","0.0-6.0-2.56","2967491","co38515","norming","","","{""curiosity"":4,""confidence"":3}","[0,1]","../img/tt/140tt.jpg","",""
"2870.1400000001304","","","recognition","survey-text","401","1225941","0.0-6.0-3.56","2967491","co38515","norming","","","{""guess"":""vorken""}","","../img/tt/140tt.jpg","",""
"null","../img/gs/140gs.jpg","null","reveal","image-keyboard-response","402","1227946","0.0-6.0-4.56","2967491","co38515","norming","","","","","","",""
"null","../img/tt/140tt.jpg","null","mooney2","image-keyboard-response","403","1229949","0.0-6.0-5.56","2967491","co38515","norming","","","","","","",""
"2581.579999999609","","","post_reveal_questions","survey-likert","404","1232533","0.0-6.0-6.56","2967491","co38515","norming","","","{""aha"":1}","[0]","../img/tt/140tt.jpg","",""
"null","<div style=""font-size:60px;""> </div>","null","fixation","html-keyboard-response","405","1232741","0.0-6.0-0.57","2967491","co38515","norming","","","","","","",""
"null","../img/tt/1128tt.jpg","null","mooney1","image-keyboard-response","406","1235750","0.0-6.0-1.57","2967491","co38515","norming","","","","","","",""
"5595.989999999758","","","post_mooney1_questions","survey-likert","407","1241349","0.0-6.0-2.57","2967491","co38515","norming","","","{""curiosity"":5,""confidence"":2}","[0,1]","../img/tt/1128tt.jpg","",""
"757.9999999997672","","","recognition","survey-text","408","1242109","0.0-6.0-3.57","2967491","co38515","norming","","","{""guess"":""""}","","../img/tt/1128tt.jpg","",""
"null","../img/gs/1128gs.jpg","null","reveal","image-keyboard-response","409","1244114","0.0-6.0-4.57","2967491","co38515","norming","","","","","","",""
"null","../img/tt/1128tt.jpg","null","mooney2","image-keyboard-response","410","1246124","0.0-6.0-5.57","2967491","co38515","norming","","","","","","",""
"1925.9950000001118","","","post_reveal_questions","survey-likert","411","1248053","0.0-6.0-6.57","2967491","co38515","norming","","","{""aha"":5}","[0]","../img/tt/1128tt.jpg","",""
"null","<div style=""font-size:60px;""> </div>","null","fixation","html-keyboard-response","412","1248260","0.0-6.0-0.58","2967491","co38515","norming","","","","","","",""
"null","../img/tt/1096tt.jpg","null","mooney1","image-keyboard-response","413","1251265","0.0-6.0-1.58","2967491","co38515","norming","","","","","","",""
"6336.780000000028","","","post_mooney1_questions","survey-likert","414","1257605","0.0-6.0-2.58","2967491","co38515","norming","","","{""curiosity"":6,""confidence"":1}","[0,1]","../img/tt/1096tt.jpg","",""
"933.8549999997485","","","recognition","survey-text","415","1258540","0.0-6.0-3.58","2967491","co38515","norming","","","{""guess"":""""}","","../img/tt/1096tt.jpg","",""
"null","../img/gs/1096gs.jpg","null","reveal","image-keyboard-response","416","1260548","0.0-6.0-4.58","2967491","co38515","norming","","","","","","",""
"null","../img/tt/1096tt.jpg","null","mooney2","image-keyboard-response","417","1262551","0.0-6.0-5.58","2967491","co38515","norming","","","","","","",""
"2219.6450000000186","","","post_reveal_questions","survey-likert","418","1264773","0.0-6.0-6.58","2967491","co38515","norming","","","{""aha"":6}","[0]","../img/tt/1096tt.jpg","",""
"null","<div style=""font-size:60px;""> </div>","null","fixation","html-keyboard-response","419","1264990","0.0-6.0-0.59","2967491","co38515","norming","","","","","","",""
"null","../img/tt/1237tt.jpg","null","mooney1","image-keyboard-response","420","1267993","0.0-6.0-1.59","2967491","co38515","norming","","","","","","",""
"6295.64000000013","","","post_mooney1_questions","survey-likert","421","1274294","0.0-6.0-2.59","2967491","co38515","norming","","","{""curiosity"":2,""confidence"":5}","[0,1]","../img/tt/1237tt.jpg","",""
"2022.0599999995902","","","recognition","survey-text","422","1276318","0.0-6.0-3.59","2967491","co38515","norming","","","{""guess"":""eend""}","","../img/tt/1237tt.jpg","",""
"null","../img/gs/1237gs.jpg","null","reveal","image-keyboard-response","423","1278327","0.0-6.0-4.59","2967491","co38515","norming","","","","","","",""
"null","../img/tt/1237tt.jpg","null","mooney2","image-keyboard-response","424","1280330","0.0-6.0-5.59","2967491","co38515","norming","","","","","","",""
"2905.359999999637","","","post_reveal_questions","survey-likert","425","1283238","0.0-6.0-6.59","2967491","co38515","norming","","","{""aha"":0}","[0]","../img/tt/1237tt.jpg","",""
"null","<div style=""font-size:60px;""> </div>","null","fixation","html-keyboard-response","426","1283446","0.0-6.0-0.60","2967491","co38515","norming","","","","","","",""
"null","../img/tt/1250tt.jpg","null","mooney1","image-keyboard-response","427","1286455","0.0-6.0-1.60","2967491","co38515","norming","","","","","","",""
"2781.875","","","post_mooney1_questions","survey-likert","428","1289238","0.0-6.0-2.60","2967491","co38515","norming","","","{""curiosity"":6,""confidence"":1}","[0,1]","../img/tt/1250tt.jpg","",""
"814.0149999998976","","","recognition","survey-text","429","1290053","0.0-6.0-3.60","2967491","co38515","norming","","","{""guess"":""""}","","../img/tt/1250tt.jpg","",""
"null","../img/gs/1250gs.jpg","null","reveal","image-keyboard-response","430","1292061","0.0-6.0-4.60","2967491","co38515","norming","","","","","","",""
"null","../img/tt/1250tt.jpg","null","mooney2","image-keyboard-response","431","1294063","0.0-6.0-5.60","2967491","co38515","norming","","","","","","",""
"2516.1349999997765","","","post_reveal_questions","survey-likert","432","1296582","0.0-6.0-6.60","2967491","co38515","norming","","","{""aha"":5}","[0]","../img/tt/1250tt.jpg","",""
"null","<div style=""font-size:60px;""> </div>","null","fixation","html-keyboard-response","433","1296788","0.0-6.0-0.61","2967491","co38515","norming","","","","","","",""
"null","../img/tt/1217tt.jpg","null","mooney1","image-keyboard-response","434","1299793","0.0-6.0-1.61","2967491","co38515","norming","","","","","","",""
"4795.550000000279","","","post_mooney1_questions","survey-likert","435","1304590","0.0-6.0-2.61","2967491","co38515","norming","","","{""curiosity"":6,""confidence"":0}","[0,1]","../img/tt/1217tt.jpg","",""
"1630.035000000149","","","recognition","survey-text","436","1306221","0.0-6.0-3.61","2967491","co38515","norming","","","{""guess"":""""}","","../img/tt/1217tt.jpg","",""
"null","../img/gs/1217gs.jpg","null","reveal","image-keyboard-response","437","1308226","0.0-6.0-4.61","2967491","co38515","norming","","","","","","",""
"null","../img/tt/1217tt.jpg","null","mooney2","image-keyboard-response","438","1310235","0.0-6.0-5.61","2967491","co38515","norming","","","","","","",""
"1808.219999999972","","","post_reveal_questions","survey-likert","439","1312045","0.0-6.0-6.61","2967491","co38515","norming","","","{""aha"":2}","[0]","../img/tt/1217tt.jpg","",""
"null","<div style=""font-size:60px;""> </div>","null","fixation","html-keyboard-response","440","1312254","0.0-6.0-0.62","2967491","co38515","norming","","","","","","",""
"null","../img/tt/1080tt.jpg","null","mooney1","image-keyboard-response","441","1315262","0.0-6.0-1.62","2967491","co38515","norming","","","","","","",""
"3716.0250000001397","","","post_mooney1_questions","survey-likert","442","1318982","0.0-6.0-2.62","2967491","co38515","norming","","","{""curiosity"":5,""confidence"":0}","[0,1]","../img/tt/1080tt.jpg","",""
"1245.880000000354","","","recognition","survey-text","443","1320229","0.0-6.0-3.62","2967491","co38515","norming","","","{""guess"":""""}","","../img/tt/1080tt.jpg","",""
"null","../img/gs/1080gs.jpg","null","reveal","image-keyboard-response","444","1322234","0.0-6.0-4.62","2967491","co38515","norming","","","","","","",""
"null","../img/tt/1080tt.jpg","null","mooney2","image-keyboard-response","445","1324236","0.0-6.0-5.62","2967491","co38515","norming","","","","","","",""
"2663.2299999999814","","","post_reveal_questions","survey-likert","446","1326895","0.0-6.0-6.62","2967491","co38515","norming","","","{""aha"":5}","[0]","../img/tt/1080tt.jpg","",""
"null","<div style=""font-size:60px;""> </div>","null","fixation","html-keyboard-response","447","1327105","0.0-6.0-0.63","2967491","co38515","norming","","","","","","",""
"null","../img/tt/1156tt.jpg","null","mooney1","image-keyboard-response","448","1330109","0.0-6.0-1.63","2967491","co38515","norming","","","","","","",""
"10551.199999999953","","","post_mooney1_questions","survey-likert","449","1340664","0.0-6.0-2.63","2967491","co38515","norming","","","{""curiosity"":2,""confidence"":5}","[0,1]","../img/tt/1156tt.jpg","",""
"5373.95999999973","","","recognition","survey-text","450","1346040","0.0-6.0-3.63","2967491","co38515","norming","","","{""guess"":""mens in water""}","","../img/tt/1156tt.jpg","",""
"null","../img/gs/1156gs.jpg","null","reveal","image-keyboard-response","451","1348047","0.0-6.0-4.63","2967491","co38515","norming","","","","","","",""
"null","../img/tt/1156tt.jpg","null","mooney2","image-keyboard-response","452","1350057","0.0-6.0-5.63","2967491","co38515","norming","","","","","","",""
"4682.7249999996275","","","post_reveal_questions","survey-likert","453","1354743","0.0-6.0-6.63","2967491","co38515","norming","","","{""aha"":0}","[0]","../img/tt/1156tt.jpg","",""
"null","<div style=""font-size:60px;""> </div>","null","fixation","html-keyboard-response","454","1354946","0.0-6.0-0.64","2967491","co38515","norming","","","","","","",""
"null","../img/tt/1027tt.jpg","null","mooney1","image-keyboard-response","455","1357960","0.0-6.0-1.64","2967491","co38515","norming","","","","","","",""
"4094.4899999999907","","","post_mooney1_questions","survey-likert","456","1362056","0.0-6.0-2.64","2967491","co38515","norming","","","{""curiosity"":5,""confidence"":1}","[0,1]","../img/tt/1027tt.jpg","",""
"1790.1049999999814","","","recognition","survey-text","457","1363848","0.0-6.0-3.64","2967491","co38515","norming","","","{""guess"":""koe""}","","../img/tt/1027tt.jpg","",""
"null","../img/gs/1027gs.jpg","null","reveal","image-keyboard-response","458","1365856","0.0-6.0-4.64","2967491","co38515","norming","","","","","","",""
"null","../img/tt/1027tt.jpg","null","mooney2","image-keyboard-response","459","1367857","0.0-6.0-5.64","2967491","co38515","norming","","","","","","",""
"2988.1500000001397","","","post_reveal_questions","survey-likert","460","1370848","0.0-6.0-6.64","2967491","co38515","norming","","","{""aha"":2}","[0]","../img/tt/1027tt.jpg","",""
"null","<div style=""font-size:60px;""> </div>","null","fixation","html-keyboard-response","461","1371055","0.0-6.0-0.65","2967491","co38515","norming","","","","","","",""
"null","../img/tt/1272tt.jpg","null","mooney1","image-keyboard-response","462","1374059","0.0-6.0-1.65","2967491","co38515","norming","","","","","","",""
"5497.269999999786","","","post_mooney1_questions","survey-likert","463","1379560","0.0-6.0-2.65","2967491","co38515","norming","","","{""curiosity"":6,""confidence"":1}","[0,1]","../img/tt/1272tt.jpg","",""
"3942.0550000001676","","","recognition","survey-text","464","1383503","0.0-6.0-3.65","2967491","co38515","norming","","","{""guess"":""varken""}","","../img/tt/1272tt.jpg","",""
"null","../img/gs/1272gs.jpg","null","reveal","image-keyboard-response","465","1385508","0.0-6.0-4.65","2967491","co38515","norming","","","","","","",""
"null","../img/tt/1272tt.jpg","null","mooney2","image-keyboard-response","466","1387524","0.0-6.0-5.65","2967491","co38515","norming","","","","","","",""
"2200.945000000065","","","post_reveal_questions","survey-likert","467","1389727","0.0-6.0-6.65","2967491","co38515","norming","","","{""aha"":5}","[0]","../img/tt/1272tt.jpg","",""
"null","<div style=""font-size:60px;""> </div>","null","fixation","html-keyboard-response","468","1389931","0.0-6.0-0.66","2967491","co38515","norming","","","","","","",""
"null","../img/tt/013tt.jpg","null","mooney1","image-keyboard-response","469","1392937","0.0-6.0-1.66","2967491","co38515","norming","","","","","","",""
"4634.935000000056","","","post_mooney1_questions","survey-likert","470","1397575","0.0-6.0-2.66","2967491","co38515","norming","","","{""curiosity"":6,""confidence"":0}","[0,1]","../img/tt/013tt.jpg","",""
"982.0299999997951","","","recognition","survey-text","471","1398559","0.0-6.0-3.66","2967491","co38515","norming","","","{""guess"":""""}","","../img/tt/013tt.jpg","",""
"null","../img/gs/013gs.jpg","null","reveal","image-keyboard-response","472","1400563","0.0-6.0-4.66","2967491","co38515","norming","","","","","","",""
"null","../img/tt/013tt.jpg","null","mooney2","image-keyboard-response","473","1402565","0.0-6.0-5.66","2967491","co38515","norming","","","","","","",""
"2127.6399999996647","","","post_reveal_questions","survey-likert","474","1404695","0.0-6.0-6.66","2967491","co38515","norming","","","{""aha"":6}","[0]","../img/tt/013tt.jpg","",""
"null","<div style=""font-size:60px;""> </div>","null","fixation","html-keyboard-response","475","1404903","0.0-6.0-0.67","2967491","co38515","norming","","","","","","",""
"null","../img/tt/1173tt.jpg","null","mooney1","image-keyboard-response","476","1407911","0.0-6.0-1.67","2967491","co38515","norming","","","","","","",""
"9876.955000000307","","","post_mooney1_questions","survey-likert","477","1417791","0.0-6.0-2.67","2967491","co38515","norming","","","{""curiosity"":2,""confidence"":4}","[0,1]","../img/tt/1173tt.jpg","",""
"2782.1149999999907","","","recognition","survey-text","478","1420575","0.0-6.0-3.67","2967491","co38515","norming","","","{""guess"":""mensen""}","","../img/tt/1173tt.jpg","",""
"null","../img/gs/1173gs.jpg","null","reveal","image-keyboard-response","479","1422577","0.0-6.0-4.67","2967491","co38515","norming","","","","","","",""
"null","../img/tt/1173tt.jpg","null","mooney2","image-keyboard-response","480","1424582","0.0-6.0-5.67","2967491","co38515","norming","","","","","","",""
"3134.714999999851","","","post_reveal_questions","survey-likert","481","1427719","0.0-6.0-6.67","2967491","co38515","norming","","","{""aha"":5}","[0]","../img/tt/1173tt.jpg","",""
"null","<div style=""font-size:60px;""> </div>","null","fixation","html-keyboard-response","482","1427929","0.0-6.0-0.68","2967491","co38515","norming","","","","","","",""
"null","../img/tt/189tt.jpg","null","mooney1","image-keyboard-response","483","1430942","0.0-6.0-1.68","2967491","co38515","norming","","","","","","",""
"4997.600000000093","","","post_mooney1_questions","survey-likert","484","1435943","0.0-6.0-2.68","2967491","co38515","norming","","","{""curiosity"":5,""confidence"":1}","[0,1]","../img/tt/189tt.jpg","",""
"2246.0999999998603","","","recognition","survey-text","485","1438191","0.0-6.0-3.68","2967491","co38515","norming","","","{""guess"":""mens""}","","../img/tt/189tt.jpg","",""
"null","../img/gs/189gs.jpg","null","reveal","image-keyboard-response","486","1440197","0.0-6.0-4.68","2967491","co38515","norming","","","","","","",""
"null","../img/tt/189tt.jpg","null","mooney2","image-keyboard-response","487","1442199","0.0-6.0-5.68","2967491","co38515","norming","","","","","","",""
"2358.0849999999627","","","post_reveal_questions","survey-likert","488","1444559","0.0-6.0-6.68","2967491","co38515","norming","","","{""aha"":5}","[0]","../img/tt/189tt.jpg","",""
"null","<div style=""font-size:60px;""> </div>","null","fixation","html-keyboard-response","489","1444762","0.0-6.0-0.69","2967491","co38515","norming","","","","","","",""
"null","../img/tt/1261tt.jpg","null","mooney1","image-keyboard-response","490","1447768","0.0-6.0-1.69","2967491","co38515","norming","","","","","","",""
"5596.410000000149","","","post_mooney1_questions","survey-likert","491","1453367","0.0-6.0-2.69","2967491","co38515","norming","","","{""curiosity"":5,""confidence"":1}","[0,1]","../img/tt/1261tt.jpg","",""
"838.054999999702","","","recognition","survey-text","492","1454207","0.0-6.0-3.69","2967491","co38515","norming","","","{""guess"":""""}","","../img/tt/1261tt.jpg","",""
"null","../img/gs/1261gs.jpg","null","reveal","image-keyboard-response","493","1456213","0.0-6.0-4.69","2967491","co38515","norming","","","","","","",""
"null","../img/tt/1261tt.jpg","null","mooney2","image-keyboard-response","494","1458219","0.0-6.0-5.69","2967491","co38515","norming","","","","","","",""
"1585.2000000001863","","","post_reveal_questions","survey-likert","495","1459808","0.0-6.0-6.69","2967491","co38515","norming","","","{""aha"":2}","[0]","../img/tt/1261tt.jpg","",""
"null","<div style=""font-size:60px;""> </div>","null","fixation","html-keyboard-response","496","1460017","0.0-6.0-0.70","2967491","co38515","norming","","","","","","",""
"null","../img/tt/1123tt.jpg","null","mooney1","image-keyboard-response","497","1463029","0.0-6.0-1.70","2967491","co38515","norming","","","","","","",""
"4486.855000000214","","","post_mooney1_questions","survey-likert","498","1467520","0.0-6.0-2.70","2967491","co38515","norming","","","{""curiosity"":4,""confidence"":2}","[0,1]","../img/tt/1123tt.jpg","",""
"4830.050000000047","","","recognition","survey-text","499","1472351","0.0-6.0-3.70","2967491","co38515","norming","","","{""guess"":""mens met bal""}","","../img/tt/1123tt.jpg","",""
"null","../img/gs/1123gs.jpg","null","reveal","image-keyboard-response","500","1474353","0.0-6.0-4.70","2967491","co38515","norming","","","","","","",""
"null","../img/tt/1123tt.jpg","null","mooney2","image-keyboard-response","501","1476355","0.0-6.0-5.70","2967491","co38515","norming","","","","","","",""
"3979.429999999702","","","post_reveal_questions","survey-likert","502","1480335","0.0-6.0-6.70","2967491","co38515","norming","","","{""aha"":4}","[0]","../img/tt/1123tt.jpg","",""
"null","<div style=""font-size:60px;""> </div>","null","fixation","html-keyboard-response","503","1480536","0.0-6.0-0.71","2967491","co38515","norming","","","","","","",""
"null","../img/tt/1122tt.jpg","null","mooney1","image-keyboard-response","504","1483542","0.0-6.0-1.71","2967491","co38515","norming","","","","","","",""
"4646.65000000014","","","post_mooney1_questions","survey-likert","505","1488192","0.0-6.0-2.71","2967491","co38515","norming","","","{""curiosity"":5,""confidence"":1}","[0,1]","../img/tt/1122tt.jpg","",""
"1021.9000000001397","","","recognition","survey-text","506","1489215","0.0-6.0-3.71","2967491","co38515","norming","","","{""guess"":""""}","","../img/tt/1122tt.jpg","",""
"null","../img/gs/1122gs.jpg","null","reveal","image-keyboard-response","507","1491226","0.0-6.0-4.71","2967491","co38515","norming","","","","","","",""
"null","../img/tt/1122tt.jpg","null","mooney2","image-keyboard-response","508","1493229","0.0-6.0-5.71","2967491","co38515","norming","","","","","","",""
"1703.9300000001676","","","post_reveal_questions","survey-likert","509","1494935","0.0-6.0-6.71","2967491","co38515","norming","","","{""aha"":4}","[0]","../img/tt/1122tt.jpg","",""
"null","<div style=""font-size:60px;""> </div>","null","fixation","html-keyboard-response","510","1495138","0.0-6.0-0.72","2967491","co38515","norming","","","","","","",""
"null","../img/tt/1227tt.jpg","null","mooney1","image-keyboard-response","511","1498142","0.0-6.0-1.72","2967491","co38515","norming","","","","","","",""
"5205.16500000027","","","post_mooney1_questions","survey-likert","512","1503351","0.0-6.0-2.72","2967491","co38515","norming","","","{""curiosity"":4,""confidence"":2}","[0,1]","../img/tt/1227tt.jpg","",""
"2598.195000000065","","","recognition","survey-text","513","1505951","0.0-6.0-3.72","2967491","co38515","norming","","","{""guess"":""kippen""}","","../img/tt/1227tt.jpg","",""
"null","../img/gs/1227gs.jpg","null","reveal","image-keyboard-response","514","1507957","0.0-6.0-4.72","2967491","co38515","norming","","","","","","",""
"null","../img/tt/1227tt.jpg","null","mooney2","image-keyboard-response","515","1509963","0.0-6.0-5.72","2967491","co38515","norming","","","","","","",""
"6441.73499999987","","","post_reveal_questions","survey-likert","516","1516407","0.0-6.0-6.72","2967491","co38515","norming","","","{""aha"":1}","[0]","../img/tt/1227tt.jpg","",""
"null","<div style=""font-size:60px;""> </div>","null","fixation","html-keyboard-response","517","1516615","0.0-6.0-0.73","2967491","co38515","norming","","","","","","",""
"null","../img/tt/135tt.jpg","null","mooney1","image-keyboard-response","518","1519619","0.0-6.0-1.73","2967491","co38515","norming","","","","","","",""
"4472.6450000002515","","","post_mooney1_questions","survey-likert","519","1524095","0.0-6.0-2.73","2967491","co38515","norming","","","{""curiosity"":1,""confidence"":5}","[0,1]","../img/tt/135tt.jpg","",""
"3118.119999999646","","","recognition","survey-text","520","1527215","0.0-6.0-3.73","2967491","co38515","norming","","","{""guess"":""toilet""}","","../img/tt/135tt.jpg","",""
"null","../img/gs/135gs.jpg","null","reveal","image-keyboard-response","521","1529218","0.0-6.0-4.73","2967491","co38515","norming","","","","","","",""
"null","../img/tt/135tt.jpg","null","mooney2","image-keyboard-response","522","1531226","0.0-6.0-5.73","2967491","co38515","norming","","","","","","",""
"2986.105000000447","","","post_reveal_questions","survey-likert","523","1534215","0.0-6.0-6.73","2967491","co38515","norming","","","{""aha"":0}","[0]","../img/tt/135tt.jpg","",""
"null","<div style=""font-size:60px;""> </div>","null","fixation","html-keyboard-response","524","1534424","0.0-6.0-0.74","2967491","co38515","norming","","","","","","",""
"null","../img/tt/1254tt.jpg","null","mooney1","image-keyboard-response","525","1537426","0.0-6.0-1.74","2967491","co38515","norming","","","","","","",""
"6842.135000000242","","","post_mooney1_questions","survey-likert","526","1544271","0.0-6.0-2.74","2967491","co38515","norming","","","{""curiosity"":3,""confidence"":5}","[0,1]","../img/tt/1254tt.jpg","",""
"2926.005000000354","","","recognition","survey-text","527","1547199","0.0-6.0-3.74","2967491","co38515","norming","","","{""guess"":""konijn""}","","../img/tt/1254tt.jpg","",""
"null","../img/gs/1254gs.jpg","null","reveal","image-keyboard-response","528","1549201","0.0-6.0-4.74","2967491","co38515","norming","","","","","","",""
"null","../img/tt/1254tt.jpg","null","mooney2","image-keyboard-response","529","1551205","0.0-6.0-5.74","2967491","co38515","norming","","","","","","",""
"2974.885000000242","","","post_reveal_questions","survey-likert","530","1554183","0.0-6.0-6.74","2967491","co38515","norming","","","{""aha"":1}","[0]","../img/tt/1254tt.jpg","",""
"null","<div style=""font-size:60px;""> </div>","null","fixation","html-keyboard-response","531","1554392","0.0-6.0-0.75","2967491","co38515","norming","","","","","","",""
"null","../img/tt/1004tt.jpg","null","mooney1","image-keyboard-response","532","1557399","0.0-6.0-1.75","2967491","co38515","norming","","","","","","",""
"4884.489999999758","","","post_mooney1_questions","survey-likert","533","1562287","0.0-6.0-2.75","2967491","co38515","norming","","","{""curiosity"":6,""confidence"":2}","[0,1]","../img/tt/1004tt.jpg","",""
"1981.804999999702","","","recognition","survey-text","534","1564271","0.0-6.0-3.75","2967491","co38515","norming","","","{""guess"":""dier""}","","../img/tt/1004tt.jpg","",""
"null","../img/gs/1004gs.jpg","null","reveal","image-keyboard-response","535","1566272","0.0-6.0-4.75","2967491","co38515","norming","","","","","","",""
"null","../img/tt/1004tt.jpg","null","mooney2","image-keyboard-response","536","1568275","0.0-6.0-5.75","2967491","co38515","norming","","","","","","",""
"2961.635000000242","","","post_reveal_questions","survey-likert","537","1571240","0.0-6.0-6.75","2967491","co38515","norming","","","{""aha"":5}","[0]","../img/tt/1004tt.jpg","",""
"null","<div style=""font-size:60px;""> </div>","null","fixation","html-keyboard-response","538","1571441","0.0-6.0-0.76","2967491","co38515","norming","","","","","","",""
"null","../img/tt/353tt.jpg","null","mooney1","image-keyboard-response","539","1574444","0.0-6.0-1.76","2967491","co38515","norming","","","","","","",""
"4393.594999999972","","","post_mooney1_questions","survey-likert","540","1578840","0.0-6.0-2.76","2967491","co38515","norming","","","{""curiosity"":4,""confidence"":4}","[0,1]","../img/tt/353tt.jpg","",""
"3526.1800000004005","","","recognition","survey-text","541","1582368","0.0-6.0-3.76","2967491","co38515","norming","","","{""guess"":""pinguin""}","","../img/tt/353tt.jpg","",""
"null","../img/gs/353gs.jpg","null","reveal","image-keyboard-response","542","1584375","0.0-6.0-4.76","2967491","co38515","norming","","","","","","",""
"null","../img/tt/353tt.jpg","null","mooney2","image-keyboard-response","543","1586377","0.0-6.0-5.76","2967491","co38515","norming","","","","","","",""
"1971.809999999823","","","post_reveal_questions","survey-likert","544","1588352","0.0-6.0-6.76","2967491","co38515","norming","","","{""aha"":1}","[0]","../img/tt/353tt.jpg","",""
"null","<div style=""font-size:60px;""> </div>","null","fixation","html-keyboard-response","545","1588559","0.0-6.0-0.77","2967491","co38515","norming","","","","","","",""
"null","../img/tt/1024tt.jpg","null","mooney1","image-keyboard-response","546","1591569","0.0-6.0-1.77","2967491","co38515","norming","","","","","","",""
"6475.254999999888","","","post_mooney1_questions","survey-likert","547","1598048","0.0-6.0-2.77","2967491","co38515","norming","","","{""curiosity"":2,""confidence"":4}","[0,1]","../img/tt/1024tt.jpg","",""
"10661.904999999795","","","recognition","survey-text","548","1608711","0.0-6.0-3.77","2967491","co38515","norming","","","{""guess"":""tennis""}","","../img/tt/1024tt.jpg","",""
"null","../img/gs/1024gs.jpg","null","reveal","image-keyboard-response","549","1610719","0.0-6.0-4.77","2967491","co38515","norming","","","","","","",""
"null","../img/tt/1024tt.jpg","null","mooney2","image-keyboard-response","550","1612721","0.0-6.0-5.77","2967491","co38515","norming","","","","","","",""
"5011.804999999469","","","post_reveal_questions","survey-likert","551","1617736","0.0-6.0-6.77","2967491","co38515","norming","","","{""aha"":0}","[0]","../img/tt/1024tt.jpg","",""
"null","<div style=""font-size:60px;""> </div>","null","fixation","html-keyboard-response","552","1617939","0.0-6.0-0.78","2967491","co38515","norming","","","","","","",""
"null","../img/tt/1072tt.jpg","null","mooney1","image-keyboard-response","553","1620945","0.0-6.0-1.78","2967491","co38515","norming","","","","","","",""
