"rt","stimulus","key_press","test_part","trial_type","trial_index","time_elapsed","internal_node_id","totalTime","subject","experiment_name","button_pressed","success","responses","question_order","currentStim","old","correct"
"12497.380000000006","Welcome to the experiment. This is an online experiment so please don't close the tab/window until we say goodbye.  Press any key to begin.","13","instructions","html-keyboard-response","0","12511","0.0-0.0","2810186","co38422","norming","","","","","","",""
"28422.209999999992","<div style='word-wrap: break-word; width: 900px'><h3>Please consider this information carefully before deciding whether to participate in this research</h3><ul style='text-align: left; font-size: .8em;'><li><b>Purpose of the research</b>: To examine how people process images.</li><li><b>What you will do in this research</b>:  Stimuli (images) will be presented on the computer and you will be asked different questions about them.</li><li><b>Time required</b>: Participation will take between 45 and 60 minutes to complete.</li><li><b>Risks</b>:  There are no anticipated risks associated with participating in this study. The effects of participating should be comparable to those you would experience from viewing a computer monitor for 30 minutes and using a mouse or keyboard.</li><li><b>Benefits</b>:  This study provides no benefits to you individually except for the credit. The study provides important information about the nature of perception and learning.</li><li><b>Confidentiality</b>:  Your participation in this study will remain confidential. No personally identifiable information will be associated with your data. Your de-identified data may be shared with other researchers and used in future projects.</li><li><b>Participation and withdrawal</b>:  Your participation in this study is completely voluntary and you may refuse to participate or you may choose to withdraw at any time without penalty.</li><li><b>How to contact the researchers</b>: If you have questions or concerns about your participation or payment, or want to request a summary of research findings, please contact Sander Van de Cruys (KU Leuven), at sander.vandecruys@kuleuven.be.</li></ul><p>The nature and purpose of this research have been sufficiently explained and I agree to participate in this study.  I understand that I am free to withdraw at any time without incurring any penalty.</p><p>Please consent by clicking the button below to continue. Otherwise, please exit the study at this time.</p></div>","","instructions","html-button-response","1","40931","0.0-1.0","2810186","co38422","norming","0","","","","","",""
"","","","instructions","fullscreen","2","45485","0.0-2.0","2810186","co38422","norming","","true","","","","",""
"31908.694999999992","","","sona","survey-html-form","3","77399","0.0-3.0","2810186","co38422","norming","","","[{""name"":""sonaid"",""value"":""38422""},{""name"":""debrief"",""value"":""no""},{""name"":""datajoin"",""value"":""yes""}]","","","",""
"117554.49000000005","<div style='word-wrap: break-word; width: 900px'><h3>Instructions</h3><p>This experiment will have 3 parts. In the first part you will see a series of distorted images like the one below on the left. As you can see in the righthand image, the distorted images are derived from actual photographs. In what follows, you will <strong>briefly</strong> be presented with <strong>only</strong> the distorted image.</p> <div style='float: left; margin-right: 20px;'><img src='../img/018tt.jpg' height='250' width='250'></img></div><div style='float: right; margin-left: 20px;'><img src='../img/018gs.jpg' height='250' width='250'></img></div><p>Subsequently you will be asked a few questions about the image: One question on how <strong>curious</strong> you are about the solution and one on how <strong>confident</strong> you are that you know the solution.</p>Next, we ask you to make a guess on what is in the image. Note that it is OK to name just the <strong>basic level category</strong>. For example when you see a parrot in the image, 'parrot' will obviously be a correct answer but also correct is 'bird'. However, 'animal' will <strong>not</strong> be counted as a correct response. For the example above, 'rose' would be correct or 'flower', but not 'plant'. When soccer players are depicted, 'soccer', 'football', 'soccer players' will be correct, but not 'humans', 'outdoors', or 'sports'. You do not need to describe the image in full, just name the main object in it <strong>in one or two words</strong>. All images depict objects from one of the following broad level categories: animals, inanimate objects, plants, sports, vehicles, and food. Recognizing means knowing <strong>more</strong> than these broad labels for a given image. But we always encourage you to <strong>make a guess</strong> if you can. Note that you are allowed to use <strong>Dutch and English</strong> in your answers, whatever comes easiest for you.</p><p>Press any key to continue.</p></div>","13","instructions","html-keyboard-response","4","194955","0.0-4.0","2810186","co38422","norming","","","","","","",""
"24431.005000000034","<div style='word-wrap: break-word; width: 900px'><h3>Instructions</h3> <p>Next, the solution image will be revealed to you and you'll be asked to indicate how strong your <strong>aha-experience</strong> was after seeing the solution. This describes the positive feeling of the 'click' you sometimes experience, when the pieces of the 'puzzle' fall together and you suddenly have 'insight' in the image.</p><img src='aha.jpg' height='188' width='250'></img><p>Note that there are no right or wrong answers. We are interested in what <strong>you</strong> see in the image and how <strong>you</strong> feel about it.</p><p>Press any key to start the experiment.</p></div>","13","instructions","html-keyboard-response","5","219387","0.0-5.0","2810186","co38422","norming","","","","","","",""
"null","<div style=""font-size:60px;""> </div>","null","fixation","html-keyboard-response","6","219597","0.0-6.0-0.0","2810186","co38422","norming","","","","","","",""
"null","../img/tt/584tt.jpg","null","mooney1","image-keyboard-response","7","222602","0.0-6.0-1.0","2810186","co38422","norming","","","","","","",""
"5807.360000000015","","","post_mooney1_questions","survey-likert","8","228411","0.0-6.0-2.0","2810186","co38422","norming","","","{""curiosity"":6,""confidence"":1}","[0,1]","../img/tt/584tt.jpg","",""
"4717.455000000016","","","recognition","survey-text","9","233131","0.0-6.0-3.0","2810186","co38422","norming","","","{""guess"":""""}","","../img/tt/584tt.jpg","",""
"null","../img/gs/584gs.jpg","null","reveal","image-keyboard-response","10","235133","0.0-6.0-4.0","2810186","co38422","norming","","","","","","",""
"null","../img/tt/584tt.jpg","null","mooney2","image-keyboard-response","11","237134","0.0-6.0-5.0","2810186","co38422","norming","","","","","","",""
"4331.524999999994","","","post_reveal_questions","survey-likert","12","241467","0.0-6.0-6.0","2810186","co38422","norming","","","{""aha"":4}","[0]","../img/tt/584tt.jpg","",""
"null","<div style=""font-size:60px;""> </div>","null","fixation","html-keyboard-response","13","241678","0.0-6.0-0.1","2810186","co38422","norming","","","","","","",""
"null","../img/tt/522tt.jpg","null","mooney1","image-keyboard-response","14","244686","0.0-6.0-1.1","2810186","co38422","norming","","","","","","",""
"3956.404999999999","","","post_mooney1_questions","survey-likert","15","248643","0.0-6.0-2.1","2810186","co38422","norming","","","{""curiosity"":4,""confidence"":1}","[0,1]","../img/tt/522tt.jpg","",""
"1429.8949999999895","","","recognition","survey-text","16","250075","0.0-6.0-3.1","2810186","co38422","norming","","","{""guess"":""""}","","../img/tt/522tt.jpg","",""
"null","../img/gs/522gs.jpg","null","reveal","image-keyboard-response","17","252085","0.0-6.0-4.1","2810186","co38422","norming","","","","","","",""
"null","../img/tt/522tt.jpg","null","mooney2","image-keyboard-response","18","254094","0.0-6.0-5.1","2810186","co38422","norming","","","","","","",""
"2460.2600000000093","","","post_reveal_questions","survey-likert","19","256532","0.0-6.0-6.1","2810186","co38422","norming","","","{""aha"":6}","[0]","../img/tt/522tt.jpg","",""
"null","<div style=""font-size:60px;""> </div>","null","fixation","html-keyboard-response","20","256734","0.0-6.0-0.2","2810186","co38422","norming","","","","","","",""
"null","../img/tt/1202tt.jpg","null","mooney1","image-keyboard-response","21","259737","0.0-6.0-1.2","2810186","co38422","norming","","","","","","",""
"3856.8399999999965","","","post_mooney1_questions","survey-likert","22","263596","0.0-6.0-2.2","2810186","co38422","norming","","","{""curiosity"":5,""confidence"":0}","[0,1]","../img/tt/1202tt.jpg","",""
"701.9900000000489","","","recognition","survey-text","23","264300","0.0-6.0-3.2","2810186","co38422","norming","","","{""guess"":""""}","","../img/tt/1202tt.jpg","",""
"null","../img/gs/1202gs.jpg","null","reveal","image-keyboard-response","24","266308","0.0-6.0-4.2","2810186","co38422","norming","","","","","","",""
"null","../img/tt/1202tt.jpg","null","mooney2","image-keyboard-response","25","268309","0.0-6.0-5.2","2810186","co38422","norming","","","","","","",""
"2533.1350000000093","","","post_reveal_questions","survey-likert","26","270844","0.0-6.0-6.2","2810186","co38422","norming","","","{""aha"":6}","[0]","../img/tt/1202tt.jpg","",""
"null","<div style=""font-size:60px;""> </div>","null","fixation","html-keyboard-response","27","271048","0.0-6.0-0.3","2810186","co38422","norming","","","","","","",""
"null","../img/tt/1012tt.jpg","null","mooney1","image-keyboard-response","28","274052","0.0-6.0-1.3","2810186","co38422","norming","","","","","","",""
"6511.030000000028","","","post_mooney1_questions","survey-likert","29","280564","0.0-6.0-2.3","2810186","co38422","norming","","","{""curiosity"":5,""confidence"":2}","[0,1]","../img/tt/1012tt.jpg","",""
"2366.2700000000186","","","recognition","survey-text","30","282932","0.0-6.0-3.3","2810186","co38422","norming","","","{""guess"":""paard""}","","../img/tt/1012tt.jpg","",""
"null","../img/gs/1012gs.jpg","null","reveal","image-keyboard-response","31","284935","0.0-6.0-4.3","2810186","co38422","norming","","","","","","",""
"null","../img/tt/1012tt.jpg","null","mooney2","image-keyboard-response","32","286940","0.0-6.0-5.3","2810186","co38422","norming","","","","","","",""
"4022.2699999999604","","","post_reveal_questions","survey-likert","33","290964","0.0-6.0-6.3","2810186","co38422","norming","","","{""aha"":4}","[0]","../img/tt/1012tt.jpg","",""
"null","<div style=""font-size:60px;""> </div>","null","fixation","html-keyboard-response","34","291170","0.0-6.0-0.4","2810186","co38422","norming","","","","","","",""
"null","../img/tt/435tt.jpg","null","mooney1","image-keyboard-response","35","294178","0.0-6.0-1.4","2810186","co38422","norming","","","","","","",""
"4295.709999999963","","","post_mooney1_questions","survey-likert","36","298476","0.0-6.0-2.4","2810186","co38422","norming","","","{""curiosity"":5,""confidence"":0}","[0,1]","../img/tt/435tt.jpg","",""
"1405.984999999986","","","recognition","survey-text","37","299884","0.0-6.0-3.4","2810186","co38422","norming","","","{""guess"":""""}","","../img/tt/435tt.jpg","",""
"null","../img/gs/435gs.jpg","null","reveal","image-keyboard-response","38","301885","0.0-6.0-4.4","2810186","co38422","norming","","","","","","",""
"null","../img/tt/435tt.jpg","null","mooney2","image-keyboard-response","39","303897","0.0-6.0-5.4","2810186","co38422","norming","","","","","","",""
"2505.320000000065","","","post_reveal_questions","survey-likert","40","306404","0.0-6.0-6.4","2810186","co38422","norming","","","{""aha"":6}","[0]","../img/tt/435tt.jpg","",""
"null","<div style=""font-size:60px;""> </div>","null","fixation","html-keyboard-response","41","306608","0.0-6.0-0.5","2810186","co38422","norming","","","","","","",""
"null","../img/tt/598tt.jpg","null","mooney1","image-keyboard-response","42","309613","0.0-6.0-1.5","2810186","co38422","norming","","","","","","",""
"4460.5800000000745","","","post_mooney1_questions","survey-likert","43","314076","0.0-6.0-2.5","2810186","co38422","norming","","","{""curiosity"":4,""confidence"":2}","[0,1]","../img/tt/598tt.jpg","",""
"2486.125","","","recognition","survey-text","44","316472","0.0-6.0-3.5","2810186","co38422","norming","","","{""guess"":""zoogdier""}","","../img/tt/598tt.jpg","",""
"null","../img/gs/598gs.jpg","null","reveal","image-keyboard-response","45","318476","0.0-6.0-4.5","2810186","co38422","norming","","","","","","",""
"null","../img/tt/598tt.jpg","null","mooney2","image-keyboard-response","46","320484","0.0-6.0-5.5","2810186","co38422","norming","","","","","","",""
"2601.585000000021","","","post_reveal_questions","survey-likert","47","323088","0.0-6.0-6.5","2810186","co38422","norming","","","{""aha"":5}","[0]","../img/tt/598tt.jpg","",""
"null","<div style=""font-size:60px;""> </div>","null","fixation","html-keyboard-response","48","323291","0.0-6.0-0.6","2810186","co38422","norming","","","","","","",""
"null","../img/tt/1116tt.jpg","null","mooney1","image-keyboard-response","49","326297","0.0-6.0-1.6","2810186","co38422","norming","","","","","","",""
"5244.510000000009","","","post_mooney1_questions","survey-likert","50","331544","0.0-6.0-2.6","2810186","co38422","norming","","","{""curiosity"":3,""confidence"":2}","[0,1]","../img/tt/1116tt.jpg","",""
"1598.0449999999837","","","recognition","survey-text","51","333144","0.0-6.0-3.6","2810186","co38422","norming","","","{""guess"":""auto""}","","../img/tt/1116tt.jpg","",""
"null","../img/gs/1116gs.jpg","null","reveal","image-keyboard-response","52","335151","0.0-6.0-4.6","2810186","co38422","norming","","","","","","",""
"null","../img/tt/1116tt.jpg","null","mooney2","image-keyboard-response","53","337160","0.0-6.0-5.6","2810186","co38422","norming","","","","","","",""
"2663.1199999999953","","","post_reveal_questions","survey-likert","54","339824","0.0-6.0-6.6","2810186","co38422","norming","","","{""aha"":4}","[0]","../img/tt/1116tt.jpg","",""
"null","<div style=""font-size:60px;""> </div>","null","fixation","html-keyboard-response","55","340033","0.0-6.0-0.7","2810186","co38422","norming","","","","","","",""
"null","../img/tt/1196tt.jpg","null","mooney1","image-keyboard-response","56","343042","0.0-6.0-1.7","2810186","co38422","norming","","","","","","",""
"4564.820000000007","","","post_mooney1_questions","survey-likert","57","347608","0.0-6.0-2.7","2810186","co38422","norming","","","{""curiosity"":5,""confidence"":0}","[0,1]","../img/tt/1196tt.jpg","",""
"990.070000000007","","","recognition","survey-text","58","348600","0.0-6.0-3.7","2810186","co38422","norming","","","{""guess"":""""}","","../img/tt/1196tt.jpg","",""
"null","../img/gs/1196gs.jpg","null","reveal","image-keyboard-response","59","350608","0.0-6.0-4.7","2810186","co38422","norming","","","","","","",""
"null","../img/tt/1196tt.jpg","null","mooney2","image-keyboard-response","60","352616","0.0-6.0-5.7","2810186","co38422","norming","","","","","","",""
"3630.695000000007","","","post_reveal_questions","survey-likert","61","356248","0.0-6.0-6.7","2810186","co38422","norming","","","{""aha"":5}","[0]","../img/tt/1196tt.jpg","",""
"null","<div style=""font-size:60px;""> </div>","null","fixation","html-keyboard-response","62","356450","0.0-6.0-0.8","2810186","co38422","norming","","","","","","",""
"null","../img/tt/1087tt.jpg","null","mooney1","image-keyboard-response","63","359458","0.0-6.0-1.8","2810186","co38422","norming","","","","","","",""
"3323.6199999999953","","","post_mooney1_questions","survey-likert","64","362784","0.0-6.0-2.8","2810186","co38422","norming","","","{""curiosity"":5,""confidence"":0}","[0,1]","../img/tt/1087tt.jpg","",""
"622.1000000000349","","","recognition","survey-text","65","363408","0.0-6.0-3.8","2810186","co38422","norming","","","{""guess"":""""}","","../img/tt/1087tt.jpg","",""
"null","../img/gs/1087gs.jpg","null","reveal","image-keyboard-response","66","365410","0.0-6.0-4.8","2810186","co38422","norming","","","","","","",""
"null","../img/tt/1087tt.jpg","null","mooney2","image-keyboard-response","67","367412","0.0-6.0-5.8","2810186","co38422","norming","","","","","","",""
"3113.6300000000047","","","post_reveal_questions","survey-likert","68","370528","0.0-6.0-6.8","2810186","co38422","norming","","","{""aha"":4}","[0]","../img/tt/1087tt.jpg","",""
"null","<div style=""font-size:60px;""> </div>","null","fixation","html-keyboard-response","69","370736","0.0-6.0-0.9","2810186","co38422","norming","","","","","","",""
"null","../img/tt/301tt.jpg","null","mooney1","image-keyboard-response","70","373740","0.0-6.0-1.9","2810186","co38422","norming","","","","","","",""
"3209.304999999993","","","post_mooney1_questions","survey-likert","71","376873","0.0-6.0-2.9","2810186","co38422","norming","","","{""curiosity"":5,""confidence"":0}","[0,1]","../img/tt/301tt.jpg","",""
"3326.1100000000442","","","recognition","survey-text","72","380201","0.0-6.0-3.9","2810186","co38422","norming","","","{""guess"":""""}","","../img/tt/301tt.jpg","",""
"null","../img/gs/301gs.jpg","null","reveal","image-keyboard-response","73","382203","0.0-6.0-4.9","2810186","co38422","norming","","","","","","",""
"null","../img/tt/301tt.jpg","null","mooney2","image-keyboard-response","74","384213","0.0-6.0-5.9","2810186","co38422","norming","","","","","","",""
"14385.575000000012","","","post_reveal_questions","survey-likert","75","398601","0.0-6.0-6.9","2810186","co38422","norming","","","{""aha"":2}","[0]","../img/tt/301tt.jpg","",""
"null","<div style=""font-size:60px;""> </div>","null","fixation","html-keyboard-response","76","398810","0.0-6.0-0.10","2810186","co38422","norming","","","","","","",""
"null","../img/tt/1066tt.jpg","null","mooney1","image-keyboard-response","77","401813","0.0-6.0-1.10","2810186","co38422","norming","","","","","","",""
"4417.775000000023","","","post_mooney1_questions","survey-likert","78","406233","0.0-6.0-2.10","2810186","co38422","norming","","","{""curiosity"":2,""confidence"":5}","[0,1]","../img/tt/1066tt.jpg","",""
"2030.0349999999744","","","recognition","survey-text","79","408265","0.0-6.0-3.10","2810186","co38422","norming","","","{""guess"":""bus""}","","../img/tt/1066tt.jpg","",""
"null","../img/gs/1066gs.jpg","null","reveal","image-keyboard-response","80","410268","0.0-6.0-4.10","2810186","co38422","norming","","","","","","",""
"null","../img/tt/1066tt.jpg","null","mooney2","image-keyboard-response","81","412271","0.0-6.0-5.10","2810186","co38422","norming","","","","","","",""
"4480.0299999999115","","","post_reveal_questions","survey-likert","82","416753","0.0-6.0-6.10","2810186","co38422","norming","","","{""aha"":1}","[0]","../img/tt/1066tt.jpg","",""
"null","<div style=""font-size:60px;""> </div>","null","fixation","html-keyboard-response","83","416962","0.0-6.0-0.11","2810186","co38422","norming","","","","","","",""
"null","../img/tt/1080tt.jpg","null","mooney1","image-keyboard-response","84","419968","0.0-6.0-1.11","2810186","co38422","norming","","","","","","",""
"4429.844999999972","","","post_mooney1_questions","survey-likert","85","424401","0.0-6.0-2.11","2810186","co38422","norming","","","{""curiosity"":5,""confidence"":1}","[0,1]","../img/tt/1080tt.jpg","",""
"902.5299999999697","","","recognition","survey-text","86","425305","0.0-6.0-3.11","2810186","co38422","norming","","","{""guess"":""""}","","../img/tt/1080tt.jpg","",""
"null","../img/gs/1080gs.jpg","null","reveal","image-keyboard-response","87","427308","0.0-6.0-4.11","2810186","co38422","norming","","","","","","",""
"null","../img/tt/1080tt.jpg","null","mooney2","image-keyboard-response","88","429312","0.0-6.0-5.11","2810186","co38422","norming","","","","","","",""
"2055.155000000028","","","post_reveal_questions","survey-likert","89","431369","0.0-6.0-6.11","2810186","co38422","norming","","","{""aha"":4}","[0]","../img/tt/1080tt.jpg","",""
"null","<div style=""font-size:60px;""> </div>","null","fixation","html-keyboard-response","90","431576","0.0-6.0-0.12","2810186","co38422","norming","","","","","","",""
"null","../img/tt/1188tt.jpg","null","mooney1","image-keyboard-response","91","434582","0.0-6.0-1.12","2810186","co38422","norming","","","","","","",""
"6097.119999999995","","","post_mooney1_questions","survey-likert","92","440583","0.0-6.0-2.12","2810186","co38422","norming","","","{""curiosity"":4,""confidence"":2}","[0,1]","../img/tt/1188tt.jpg","",""
"1326.1599999999744","","","recognition","survey-text","93","441910","0.0-6.0-3.12","2810186","co38422","norming","","","{""guess"":""mens""}","","../img/tt/1188tt.jpg","",""
"null","../img/gs/1188gs.jpg","null","reveal","image-keyboard-response","94","443913","0.0-6.0-4.12","2810186","co38422","norming","","","","","","",""
"null","../img/tt/1188tt.jpg","null","mooney2","image-keyboard-response","95","445922","0.0-6.0-5.12","2810186","co38422","norming","","","","","","",""
"1866.3699999999953","","","post_reveal_questions","survey-likert","96","447790","0.0-6.0-6.12","2810186","co38422","norming","","","{""aha"":4}","[0]","../img/tt/1188tt.jpg","",""
"null","<div style=""font-size:60px;""> </div>","null","fixation","html-keyboard-response","97","447993","0.0-6.0-0.13","2810186","co38422","norming","","","","","","",""
"null","../img/tt/1123tt.jpg","null","mooney1","image-keyboard-response","98","451001","0.0-6.0-1.13","2810186","co38422","norming","","","","","","",""
"3772.865000000049","","","post_mooney1_questions","survey-likert","99","454775","0.0-6.0-2.13","2810186","co38422","norming","","","{""curiosity"":4,""confidence"":3}","[0,1]","../img/tt/1123tt.jpg","",""
"1230.2499999999418","","","recognition","survey-text","100","456006","0.0-6.0-3.13","2810186","co38422","norming","","","{""guess"":""hond""}","","../img/tt/1123tt.jpg","",""
"null","../img/gs/1123gs.jpg","null","reveal","image-keyboard-response","101","458017","0.0-6.0-4.13","2810186","co38422","norming","","","","","","",""
"null","../img/tt/1123tt.jpg","null","mooney2","image-keyboard-response","102","460019","0.0-6.0-5.13","2810186","co38422","norming","","","","","","",""
"6841.764999999956","","","post_reveal_questions","survey-likert","103","466862","0.0-6.0-6.13","2810186","co38422","norming","","","{""aha"":3}","[0]","../img/tt/1123tt.jpg","",""
"null","<div style=""font-size:60px;""> </div>","null","fixation","html-keyboard-response","104","467069","0.0-6.0-0.14","2810186","co38422","norming","","","","","","",""
"null","../img/tt/055tt.jpg","null","mooney1","image-keyboard-response","105","470072","0.0-6.0-1.14","2810186","co38422","norming","","","","","","",""
"3916.4250000000466","","","post_mooney1_questions","survey-likert","106","473991","0.0-6.0-2.14","2810186","co38422","norming","","","{""curiosity"":5,""confidence"":1}","[0,1]","../img/tt/055tt.jpg","",""
"1589.5400000000373","","","recognition","survey-text","107","475582","0.0-6.0-3.14","2810186","co38422","norming","","","{""guess"":""""}","","../img/tt/055tt.jpg","",""
"null","../img/gs/055gs.jpg","null","reveal","image-keyboard-response","108","477590","0.0-6.0-4.14","2810186","co38422","norming","","","","","","",""
"null","../img/tt/055tt.jpg","null","mooney2","image-keyboard-response","109","479598","0.0-6.0-5.14","2810186","co38422","norming","","","","","","",""
"2694.640000000072","","","post_reveal_questions","survey-likert","110","482294","0.0-6.0-6.14","2810186","co38422","norming","","","{""aha"":3}","[0]","../img/tt/055tt.jpg","",""
"null","<div style=""font-size:60px;""> </div>","null","fixation","html-keyboard-response","111","482495","0.0-6.0-0.15","2810186","co38422","norming","","","","","","",""
"null","../img/tt/064tt.jpg","null","mooney1","image-keyboard-response","112","485500","0.0-6.0-1.15","2810186","co38422","norming","","","","","","",""
"5137.444999999949","","","post_mooney1_questions","survey-likert","113","490639","0.0-6.0-2.15","2810186","co38422","norming","","","{""curiosity"":3,""confidence"":2}","[0,1]","../img/tt/064tt.jpg","",""
"4390.099999999977","","","recognition","survey-text","114","495030","0.0-6.0-3.15","2810186","co38422","norming","","","{""guess"":""salamander""}","","../img/tt/064tt.jpg","",""
"null","../img/gs/064gs.jpg","null","reveal","image-keyboard-response","115","497038","0.0-6.0-4.15","2810186","co38422","norming","","","","","","",""
"null","../img/tt/064tt.jpg","null","mooney2","image-keyboard-response","116","498961","0.0-6.0-5.15","2810186","co38422","norming","","","","","","",""
"6373.304999999935","","","post_reveal_questions","survey-likert","117","505335","0.0-6.0-6.15","2810186","co38422","norming","","","{""aha"":3}","[0]","../img/tt/064tt.jpg","",""
"null","<div style=""font-size:60px;""> </div>","null","fixation","html-keyboard-response","118","505537","0.0-6.0-0.16","2810186","co38422","norming","","","","","","",""
"null","../img/tt/001tt.jpg","null","mooney1","image-keyboard-response","119","508538","0.0-6.0-1.16","2810186","co38422","norming","","","","","","",""
"6195.304999999877","","","post_mooney1_questions","survey-likert","120","514736","0.0-6.0-2.16","2810186","co38422","norming","","","{""curiosity"":5,""confidence"":2}","[0,1]","../img/tt/001tt.jpg","",""
"4870.234999999986","","","recognition","survey-text","121","519608","0.0-6.0-3.16","2810186","co38422","norming","","","{""guess"":""plant""}","","../img/tt/001tt.jpg","",""
"null","../img/gs/001gs.jpg","null","reveal","image-keyboard-response","122","521616","0.0-6.0-4.16","2810186","co38422","norming","","","","","","",""
"null","../img/tt/001tt.jpg","null","mooney2","image-keyboard-response","123","523620","0.0-6.0-5.16","2810186","co38422","norming","","","","","","",""
"9554.869999999995","","","post_reveal_questions","survey-likert","124","533176","0.0-6.0-6.16","2810186","co38422","norming","","","{""aha"":5}","[0]","../img/tt/001tt.jpg","",""
"null","<div style=""font-size:60px;""> </div>","null","fixation","html-keyboard-response","125","533380","0.0-6.0-0.17","2810186","co38422","norming","","","","","","",""
"null","../img/tt/468tt.jpg","null","mooney1","image-keyboard-response","126","536391","0.0-6.0-1.17","2810186","co38422","norming","","","","","","",""
"3421.895000000135","","","post_mooney1_questions","survey-likert","127","539815","0.0-6.0-2.17","2810186","co38422","norming","","","{""curiosity"":4,""confidence"":3}","[0,1]","../img/tt/468tt.jpg","",""
"3086.6049999999814","","","recognition","survey-text","128","542904","0.0-6.0-3.17","2810186","co38422","norming","","","{""guess"":""paard""}","","../img/tt/468tt.jpg","",""
"null","../img/gs/468gs.jpg","null","reveal","image-keyboard-response","129","544905","0.0-6.0-4.17","2810186","co38422","norming","","","","","","",""
"null","../img/tt/468tt.jpg","null","mooney2","image-keyboard-response","130","546911","0.0-6.0-5.17","2810186","co38422","norming","","","","","","",""
"2863.289999999921","","","post_reveal_questions","survey-likert","131","549776","0.0-6.0-6.17","2810186","co38422","norming","","","{""aha"":4}","[0]","../img/tt/468tt.jpg","",""
"null","<div style=""font-size:60px;""> </div>","null","fixation","html-keyboard-response","132","549980","0.0-6.0-0.18","2810186","co38422","norming","","","","","","",""
"null","../img/tt/1097tt.jpg","null","mooney1","image-keyboard-response","133","552983","0.0-6.0-1.18","2810186","co38422","norming","","","","","","",""
"13630.780000000028","","","post_mooney1_questions","survey-likert","134","566548","0.0-6.0-2.18","2810186","co38422","norming","","","{""curiosity"":4,""confidence"":1}","[0,1]","../img/tt/1097tt.jpg","",""
"2270.0100000000093","","","recognition","survey-text","135","568819","0.0-6.0-3.18","2810186","co38422","norming","","","{""guess"":""roeier""}","","../img/tt/1097tt.jpg","",""
"null","../img/gs/1097gs.jpg","null","reveal","image-keyboard-response","136","570829","0.0-6.0-4.18","2810186","co38422","norming","","","","","","",""
"null","../img/tt/1097tt.jpg","null","mooney2","image-keyboard-response","137","572837","0.0-6.0-5.18","2810186","co38422","norming","","","","","","",""
"4165.195000000065","","","post_reveal_questions","survey-likert","138","577003","0.0-6.0-6.18","2810186","co38422","norming","","","{""aha"":2}","[0]","../img/tt/1097tt.jpg","",""
"null","<div style=""font-size:60px;""> </div>","null","fixation","html-keyboard-response","139","577208","0.0-6.0-0.19","2810186","co38422","norming","","","","","","",""
"null","../img/tt/020tt.jpg","null","mooney1","image-keyboard-response","140","580211","0.0-6.0-1.19","2810186","co38422","norming","","","","","","",""
"3501.734999999986","","","post_mooney1_questions","survey-likert","141","583715","0.0-6.0-2.19","2810186","co38422","norming","","","{""curiosity"":5,""confidence"":0}","[0,1]","../img/tt/020tt.jpg","",""
"710.2099999999627","","","recognition","survey-text","142","584427","0.0-6.0-3.19","2810186","co38422","norming","","","{""guess"":""""}","","../img/tt/020tt.jpg","",""
"null","../img/gs/020gs.jpg","null","reveal","image-keyboard-response","143","586436","0.0-6.0-4.19","2810186","co38422","norming","","","","","","",""
"null","../img/tt/020tt.jpg","null","mooney2","image-keyboard-response","144","588438","0.0-6.0-5.19","2810186","co38422","norming","","","","","","",""
"3811.2299999999814","","","post_reveal_questions","survey-likert","145","592251","0.0-6.0-6.19","2810186","co38422","norming","","","{""aha"":4}","[0]","../img/tt/020tt.jpg","",""
"null","<div style=""font-size:60px;""> </div>","null","fixation","html-keyboard-response","146","592453","0.0-6.0-0.20","2810186","co38422","norming","","","","","","",""
"null","../img/tt/1125tt.jpg","null","mooney1","image-keyboard-response","147","595457","0.0-6.0-1.20","2810186","co38422","norming","","","","","","",""
"4615.959999999963","","","post_mooney1_questions","survey-likert","148","600075","0.0-6.0-2.20","2810186","co38422","norming","","","{""curiosity"":4,""confidence"":1}","[0,1]","../img/tt/1125tt.jpg","",""
"1558.2700000000186","","","recognition","survey-text","149","601635","0.0-6.0-3.20","2810186","co38422","norming","","","{""guess"":""mens""}","","../img/tt/1125tt.jpg","",""
"null","../img/gs/1125gs.jpg","null","reveal","image-keyboard-response","150","603643","0.0-6.0-4.20","2810186","co38422","norming","","","","","","",""
"null","../img/tt/1125tt.jpg","null","mooney2","image-keyboard-response","151","605652","0.0-6.0-5.20","2810186","co38422","norming","","","","","","",""
"2062.42499999993","","","post_reveal_questions","survey-likert","152","607715","0.0-6.0-6.20","2810186","co38422","norming","","","{""aha"":3}","[0]","../img/tt/1125tt.jpg","",""
"null","<div style=""font-size:60px;""> </div>","null","fixation","html-keyboard-response","153","607919","0.0-6.0-0.21","2810186","co38422","norming","","","","","","",""
"null","../img/tt/060tt.jpg","null","mooney1","image-keyboard-response","154","610929","0.0-6.0-1.21","2810186","co38422","norming","","","","","","",""
"4743.574999999953","","","post_mooney1_questions","survey-likert","155","615676","0.0-6.0-2.21","2810186","co38422","norming","","","{""curiosity"":4,""confidence"":1}","[0,1]","../img/tt/060tt.jpg","",""
"1238.0899999999674","","","recognition","survey-text","156","616915","0.0-6.0-3.21","2810186","co38422","norming","","","{""guess"":""eten""}","","../img/tt/060tt.jpg","",""
"null","../img/gs/060gs.jpg","null","reveal","image-keyboard-response","157","618917","0.0-6.0-4.21","2810186","co38422","norming","","","","","","",""
"null","../img/tt/060tt.jpg","null","mooney2","image-keyboard-response","158","620927","0.0-6.0-5.21","2810186","co38422","norming","","","","","","",""
"2586.70000000007","","","post_reveal_questions","survey-likert","159","623515","0.0-6.0-6.21","2810186","co38422","norming","","","{""aha"":2}","[0]","../img/tt/060tt.jpg","",""
"null","<div style=""font-size:60px;""> </div>","null","fixation","html-keyboard-response","160","623716","0.0-6.0-0.22","2810186","co38422","norming","","","","","","",""
"null","../img/tt/1191tt.jpg","null","mooney1","image-keyboard-response","161","626728","0.0-6.0-1.22","2810186","co38422","norming","","","","","","",""
"5064.7799999999115","","","post_mooney1_questions","survey-likert","162","631796","0.0-6.0-2.22","2810186","co38422","norming","","","{""curiosity"":5,""confidence"":2}","[0,1]","../img/tt/1191tt.jpg","",""
"1654.1450000000186","","","recognition","survey-text","163","633452","0.0-6.0-3.22","2810186","co38422","norming","","","{""guess"":""dansers""}","","../img/tt/1191tt.jpg","",""
"null","../img/gs/1191gs.jpg","null","reveal","image-keyboard-response","164","635460","0.0-6.0-4.22","2810186","co38422","norming","","","","","","",""
"null","../img/tt/1191tt.jpg","null","mooney2","image-keyboard-response","165","637462","0.0-6.0-5.22","2810186","co38422","norming","","","","","","",""
"2811.1699999999255","","","post_reveal_questions","survey-likert","166","640276","0.0-6.0-6.22","2810186","co38422","norming","","","{""aha"":5}","[0]","../img/tt/1191tt.jpg","",""
"null","<div style=""font-size:60px;""> </div>","null","fixation","html-keyboard-response","167","640481","0.0-6.0-0.23","2810186","co38422","norming","","","","","","",""
"null","../img/tt/1186tt.jpg","null","mooney1","image-keyboard-response","168","643489","0.0-6.0-1.23","2810186","co38422","norming","","","","","","",""
"3167.890000000014","","","post_mooney1_questions","survey-likert","169","646660","0.0-6.0-2.23","2810186","co38422","norming","","","{""curiosity"":5,""confidence"":1}","[0,1]","../img/tt/1186tt.jpg","",""
"1006.3149999999441","","","recognition","survey-text","170","647668","0.0-6.0-3.23","2810186","co38422","norming","","","{""guess"":""""}","","../img/tt/1186tt.jpg","",""
"null","../img/gs/1186gs.jpg","null","reveal","image-keyboard-response","171","649674","0.0-6.0-4.23","2810186","co38422","norming","","","","","","",""
"null","../img/tt/1186tt.jpg","null","mooney2","image-keyboard-response","172","651675","0.0-6.0-5.23","2810186","co38422","norming","","","","","","",""
"2374.094999999972","","","post_reveal_questions","survey-likert","173","654052","0.0-6.0-6.23","2810186","co38422","norming","","","{""aha"":5}","[0]","../img/tt/1186tt.jpg","",""
"null","<div style=""font-size:60px;""> </div>","null","fixation","html-keyboard-response","174","654253","0.0-6.0-0.24","2810186","co38422","norming","","","","","","",""
"null","../img/tt/559tt.jpg","null","mooney1","image-keyboard-response","175","657258","0.0-6.0-1.24","2810186","co38422","norming","","","","","","",""
"4175.354999999981","","","post_mooney1_questions","survey-likert","176","661436","0.0-6.0-2.24","2810186","co38422","norming","","","{""curiosity"":5,""confidence"":1}","[0,1]","../img/tt/559tt.jpg","",""
"1709.905000000028","","","recognition","survey-text","177","663147","0.0-6.0-3.24","2810186","co38422","norming","","","{""guess"":""hoed""}","","../img/tt/559tt.jpg","",""
"null","../img/gs/559gs.jpg","null","reveal","image-keyboard-response","178","665151","0.0-6.0-4.24","2810186","co38422","norming","","","","","","",""
"null","../img/tt/559tt.jpg","null","mooney2","image-keyboard-response","179","667160","0.0-6.0-5.24","2810186","co38422","norming","","","","","","",""
"9026.125","","","post_reveal_questions","survey-likert","180","676188","0.0-6.0-6.24","2810186","co38422","norming","","","{""aha"":4}","[0]","../img/tt/559tt.jpg","",""
"null","<div style=""font-size:60px;""> </div>","null","fixation","html-keyboard-response","181","676393","0.0-6.0-0.25","2810186","co38422","norming","","","","","","",""
"null","../img/tt/091tt.jpg","null","mooney1","image-keyboard-response","182","679400","0.0-6.0-1.25","2810186","co38422","norming","","","","","","",""
"3417.429999999935","","","post_mooney1_questions","survey-likert","183","682820","0.0-6.0-2.25","2810186","co38422","norming","","","{""curiosity"":5,""confidence"":0}","[0,1]","../img/tt/091tt.jpg","",""
"990.0699999999488","","","recognition","survey-text","184","683811","0.0-6.0-3.25","2810186","co38422","norming","","","{""guess"":""""}","","../img/tt/091tt.jpg","",""
"null","../img/gs/091gs.jpg","null","reveal","image-keyboard-response","185","685819","0.0-6.0-4.25","2810186","co38422","norming","","","","","","",""
"null","../img/tt/091tt.jpg","null","mooney2","image-keyboard-response","186","687828","0.0-6.0-5.25","2810186","co38422","norming","","","","","","",""
"3397.3499999999767","","","post_reveal_questions","survey-likert","187","691228","0.0-6.0-6.25","2810186","co38422","norming","","","{""aha"":5}","[0]","../img/tt/091tt.jpg","",""
"null","<div style=""font-size:60px;""> </div>","null","fixation","html-keyboard-response","188","691431","0.0-6.0-0.26","2810186","co38422","norming","","","","","","",""
"null","../img/tt/044tt.jpg","null","mooney1","image-keyboard-response","189","694434","0.0-6.0-1.26","2810186","co38422","norming","","","","","","",""
"5135.304999999935","","","post_mooney1_questions","survey-likert","190","699572","0.0-6.0-2.26","2810186","co38422","norming","","","{""curiosity"":4,""confidence"":2}","[0,1]","../img/tt/044tt.jpg","",""
"3142.1900000000605","","","recognition","survey-text","191","702716","0.0-6.0-3.26","2810186","co38422","norming","","","{""guess"":""laptop""}","","../img/tt/044tt.jpg","",""
"null","../img/gs/044gs.jpg","null","reveal","image-keyboard-response","192","704725","0.0-6.0-4.26","2810186","co38422","norming","","","","","","",""
"null","../img/tt/044tt.jpg","null","mooney2","image-keyboard-response","193","706736","0.0-6.0-5.26","2810186","co38422","norming","","","","","","",""
"3665.8099999999395","","","post_reveal_questions","survey-likert","194","710404","0.0-6.0-6.26","2810186","co38422","norming","","","{""aha"":4}","[0]","../img/tt/044tt.jpg","",""
"null","<div style=""font-size:60px;""> </div>","null","fixation","html-keyboard-response","195","710605","0.0-6.0-0.27","2810186","co38422","norming","","","","","","",""
"null","../img/tt/406tt.jpg","null","mooney1","image-keyboard-response","196","713609","0.0-6.0-1.27","2810186","co38422","norming","","","","","","",""
"2832.225000000093","","","post_mooney1_questions","survey-likert","197","716444","0.0-6.0-2.27","2810186","co38422","norming","","","{""curiosity"":4,""confidence"":1}","[0,1]","../img/tt/406tt.jpg","",""
"1854.3399999999674","","","recognition","survey-text","198","718300","0.0-6.0-3.27","2810186","co38422","norming","","","{""guess"":""vleermuis""}","","../img/tt/406tt.jpg","",""
"null","../img/gs/406gs.jpg","null","reveal","image-keyboard-response","199","720306","0.0-6.0-4.27","2810186","co38422","norming","","","","","","",""
"null","../img/tt/406tt.jpg","null","mooney2","image-keyboard-response","200","722308","0.0-6.0-5.27","2810186","co38422","norming","","","","","","",""
"3621.5999999999767","","","post_reveal_questions","survey-likert","201","725932","0.0-6.0-6.27","2810186","co38422","norming","","","{""aha"":2}","[0]","../img/tt/406tt.jpg","",""
"null","<div style=""font-size:60px;""> </div>","null","fixation","html-keyboard-response","202","726140","0.0-6.0-0.28","2810186","co38422","norming","","","","","","",""
"null","../img/tt/1242tt.jpg","null","mooney1","image-keyboard-response","203","729143","0.0-6.0-1.28","2810186","co38422","norming","","","","","","",""
"3370.0599999999395","","","post_mooney1_questions","survey-likert","204","732516","0.0-6.0-2.28","2810186","co38422","norming","","","{""curiosity"":4,""confidence"":3}","[0,1]","../img/tt/1242tt.jpg","",""
"1686.280000000028","","","recognition","survey-text","205","734204","0.0-6.0-3.28","2810186","co38422","norming","","","{""guess"":""insect""}","","../img/tt/1242tt.jpg","",""
"null","../img/gs/1242gs.jpg","null","reveal","image-keyboard-response","206","736214","0.0-6.0-4.28","2810186","co38422","norming","","","","","","",""
"null","../img/tt/1242tt.jpg","null","mooney2","image-keyboard-response","207","738217","0.0-6.0-5.28","2810186","co38422","norming","","","","","","",""
"2144.4000000000233","","","post_reveal_questions","survey-likert","208","740364","0.0-6.0-6.28","2810186","co38422","norming","","","{""aha"":3}","[0]","../img/tt/1242tt.jpg","",""
"null","<div style=""font-size:60px;""> </div>","null","fixation","html-keyboard-response","209","740565","0.0-6.0-0.29","2810186","co38422","norming","","","","","","",""
"null","../img/tt/515tt.jpg","null","mooney1","image-keyboard-response","210","743569","0.0-6.0-1.29","2810186","co38422","norming","","","","","","",""
"4288.5599999999395","","","post_mooney1_questions","survey-likert","211","747856","0.0-6.0-2.29","2810186","co38422","norming","","","{""curiosity"":5,""confidence"":1}","[0,1]","../img/tt/515tt.jpg","",""
"1350.1650000000373","","","recognition","survey-text","212","749208","0.0-6.0-3.29","2810186","co38422","norming","","","{""guess"":""kip""}","","../img/tt/515tt.jpg","",""
"null","../img/gs/515gs.jpg","null","reveal","image-keyboard-response","213","751215","0.0-6.0-4.29","2810186","co38422","norming","","","","","","",""
"null","../img/tt/515tt.jpg","null","mooney2","image-keyboard-response","214","753217","0.0-6.0-5.29","2810186","co38422","norming","","","","","","",""
"2019.9199999999255","","","post_reveal_questions","survey-likert","215","755239","0.0-6.0-6.29","2810186","co38422","norming","","","{""aha"":3}","[0]","../img/tt/515tt.jpg","",""
"null","<div style=""font-size:60px;""> </div>","null","fixation","html-keyboard-response","216","755448","0.0-6.0-0.30","2810186","co38422","norming","","","","","","",""
"null","../img/tt/1309tt.jpg","null","mooney1","image-keyboard-response","217","758452","0.0-6.0-1.30","2810186","co38422","norming","","","","","","",""
"20817.094999999972","","","post_mooney1_questions","survey-likert","218","779272","0.0-6.0-2.30","2810186","co38422","norming","","","{""curiosity"":4,""confidence"":2}","[0,1]","../img/tt/1309tt.jpg","",""
"5310.145000000135","","","recognition","survey-text","219","784584","0.0-6.0-3.30","2810186","co38422","norming","","","{""guess"":""woud""}","","../img/tt/1309tt.jpg","",""
"null","../img/gs/1309gs.jpg","null","reveal","image-keyboard-response","220","786592","0.0-6.0-4.30","2810186","co38422","norming","","","","","","",""
"null","../img/tt/1309tt.jpg","null","mooney2","image-keyboard-response","221","788594","0.0-6.0-5.30","2810186","co38422","norming","","","","","","",""
"2491.5999999999767","","","post_reveal_questions","survey-likert","222","791088","0.0-6.0-6.30","2810186","co38422","norming","","","{""aha"":4}","[0]","../img/tt/1309tt.jpg","",""
"null","<div style=""font-size:60px;""> </div>","null","fixation","html-keyboard-response","223","791289","0.0-6.0-0.31","2810186","co38422","norming","","","","","","",""
"null","../img/tt/1142tt.jpg","null","mooney1","image-keyboard-response","224","794297","0.0-6.0-1.31","2810186","co38422","norming","","","","","","",""
"4435.630000000121","","","post_mooney1_questions","survey-likert","225","798736","0.0-6.0-2.31","2810186","co38422","norming","","","{""curiosity"":3,""confidence"":3}","[0,1]","../img/tt/1142tt.jpg","",""
"4102.0800000000745","","","recognition","survey-text","226","802840","0.0-6.0-3.31","2810186","co38422","norming","","","{""guess"":""sportmens""}","","../img/tt/1142tt.jpg","",""
"null","../img/gs/1142gs.jpg","null","reveal","image-keyboard-response","227","804841","0.0-6.0-4.31","2810186","co38422","norming","","","","","","",""
"null","../img/tt/1142tt.jpg","null","mooney2","image-keyboard-response","228","806848","0.0-6.0-5.31","2810186","co38422","norming","","","","","","",""
"2134.7750000000233","","","post_reveal_questions","survey-likert","229","808987","0.0-6.0-6.31","2810186","co38422","norming","","","{""aha"":2}","[0]","../img/tt/1142tt.jpg","",""
"null","<div style=""font-size:60px;""> </div>","null","fixation","html-keyboard-response","230","809190","0.0-6.0-0.32","2810186","co38422","norming","","","","","","",""
"null","../img/tt/081tt.jpg","null","mooney1","image-keyboard-response","231","812197","0.0-6.0-1.32","2810186","co38422","norming","","","","","","",""
"3172.3000000000466","","","post_mooney1_questions","survey-likert","232","815371","0.0-6.0-2.32","2810186","co38422","norming","","","{""curiosity"":1,""confidence"":5}","[0,1]","../img/tt/081tt.jpg","",""
"2846.460000000079","","","recognition","survey-text","233","818219","0.0-6.0-3.32","2810186","co38422","norming","","","{""guess"":""kikker""}","","../img/tt/081tt.jpg","",""
"null","../img/gs/081gs.jpg","null","reveal","image-keyboard-response","234","820223","0.0-6.0-4.32","2810186","co38422","norming","","","","","","",""
"null","../img/tt/081tt.jpg","null","mooney2","image-keyboard-response","235","822233","0.0-6.0-5.32","2810186","co38422","norming","","","","","","",""
"5280.875","","","post_reveal_questions","survey-likert","236","827515","0.0-6.0-6.32","2810186","co38422","norming","","","{""aha"":0}","[0]","../img/tt/081tt.jpg","",""
"null","<div style=""font-size:60px;""> </div>","null","fixation","html-keyboard-response","237","827716","0.0-6.0-0.33","2810186","co38422","norming","","","","","","",""
"null","../img/tt/300tt.jpg","null","mooney1","image-keyboard-response","238","830722","0.0-6.0-1.33","2810186","co38422","norming","","","","","","",""
"5960.739999999991","","","post_mooney1_questions","survey-likert","239","836683","0.0-6.0-2.33","2810186","co38422","norming","","","{""curiosity"":4,""confidence"":2}","[0,1]","../img/tt/300tt.jpg","",""
"4413.744999999995","","","recognition","survey-text","240","841099","0.0-6.0-3.33","2810186","co38422","norming","","","{""guess"":""koppeltje""}","","../img/tt/300tt.jpg","",""
"null","../img/gs/300gs.jpg","null","reveal","image-keyboard-response","241","843100","0.0-6.0-4.33","2810186","co38422","norming","","","","","","",""
"null","../img/tt/300tt.jpg","null","mooney2","image-keyboard-response","242","845104","0.0-6.0-5.33","2810186","co38422","norming","","","","","","",""
"3346.6500000000233","","","post_reveal_questions","survey-likert","243","848451","0.0-6.0-6.33","2810186","co38422","norming","","","{""aha"":3}","[0]","../img/tt/300tt.jpg","",""
"null","<div style=""font-size:60px;""> </div>","null","fixation","html-keyboard-response","244","848662","0.0-6.0-0.34","2810186","co38422","norming","","","","","","",""
"null","../img/tt/306tt.jpg","null","mooney1","image-keyboard-response","245","851663","0.0-6.0-1.34","2810186","co38422","norming","","","","","","",""
"2307.5849999999627","","","post_mooney1_questions","survey-likert","246","853971","0.0-6.0-2.34","2810186","co38422","norming","","","{""curiosity"":5,""confidence"":0}","[0,1]","../img/tt/306tt.jpg","",""
"1029.4749999999767","","","recognition","survey-text","247","855003","0.0-6.0-3.34","2810186","co38422","norming","","","{""guess"":""""}","","../img/tt/306tt.jpg","",""
"null","../img/gs/306gs.jpg","null","reveal","image-keyboard-response","248","857005","0.0-6.0-4.34","2810186","co38422","norming","","","","","","",""
"null","../img/tt/306tt.jpg","null","mooney2","image-keyboard-response","249","859010","0.0-6.0-5.34","2810186","co38422","norming","","","","","","",""
"1976.5149999998976","","","post_reveal_questions","survey-likert","250","860987","0.0-6.0-6.34","2810186","co38422","norming","","","{""aha"":6}","[0]","../img/tt/306tt.jpg","",""
"null","<div style=""font-size:60px;""> </div>","null","fixation","html-keyboard-response","251","861197","0.0-6.0-0.35","2810186","co38422","norming","","","","","","",""
"null","../img/tt/1006tt.jpg","null","mooney1","image-keyboard-response","252","864203","0.0-6.0-1.35","2810186","co38422","norming","","","","","","",""
"5063.234999999986","","","post_mooney1_questions","survey-likert","253","869267","0.0-6.0-2.35","2810186","co38422","norming","","","{""curiosity"":2,""confidence"":2}","[0,1]","../img/tt/1006tt.jpg","",""
"1893.9949999999953","","","recognition","survey-text","254","871163","0.0-6.0-3.35","2810186","co38422","norming","","","{""guess"":""planten""}","","../img/tt/1006tt.jpg","",""
"null","../img/gs/1006gs.jpg","null","reveal","image-keyboard-response","255","873169","0.0-6.0-4.35","2810186","co38422","norming","","","","","","",""
"null","../img/tt/1006tt.jpg","null","mooney2","image-keyboard-response","256","875175","0.0-6.0-5.35","2810186","co38422","norming","","","","","","",""
"4059.204999999958","","","post_reveal_questions","survey-likert","257","879236","0.0-6.0-6.35","2810186","co38422","norming","","","{""aha"":3}","[0]","../img/tt/1006tt.jpg","",""
"null","<div style=""font-size:60px;""> </div>","null","fixation","html-keyboard-response","258","879438","0.0-6.0-0.36","2810186","co38422","norming","","","","","","",""
"null","../img/tt/1161tt.jpg","null","mooney1","image-keyboard-response","259","882440","0.0-6.0-1.36","2810186","co38422","norming","","","","","","",""
"4754.175000000047","","","post_mooney1_questions","survey-likert","260","887196","0.0-6.0-2.36","2810186","co38422","norming","","","{""curiosity"":3,""confidence"":2}","[0,1]","../img/tt/1161tt.jpg","",""
"1165.9700000000885","","","recognition","survey-text","261","888363","0.0-6.0-3.36","2810186","co38422","norming","","","{""guess"":""wolf""}","","../img/tt/1161tt.jpg","",""
"null","../img/gs/1161gs.jpg","null","reveal","image-keyboard-response","262","890370","0.0-6.0-4.36","2810186","co38422","norming","","","","","","",""
"null","../img/tt/1161tt.jpg","null","mooney2","image-keyboard-response","263","892374","0.0-6.0-5.36","2810186","co38422","norming","","","","","","",""
"5125","","","post_reveal_questions","survey-likert","264","897499","0.0-6.0-6.36","2810186","co38422","norming","","","{""aha"":3}","[0]","../img/tt/1161tt.jpg","",""
"null","<div style=""font-size:60px;""> </div>","null","fixation","html-keyboard-response","265","897706","0.0-6.0-0.37","2810186","co38422","norming","","","","","","",""
"null","../img/tt/1228tt.jpg","null","mooney1","image-keyboard-response","266","900707","0.0-6.0-1.37","2810186","co38422","norming","","","","","","",""
"3591.1600000000326","","","post_mooney1_questions","survey-likert","267","904300","0.0-6.0-2.37","2810186","co38422","norming","","","{""curiosity"":6,""confidence"":0}","[0,1]","../img/tt/1228tt.jpg","",""
"1030.079999999958","","","recognition","survey-text","268","905331","0.0-6.0-3.37","2810186","co38422","norming","","","{""guess"":""""}","","../img/tt/1228tt.jpg","",""
"null","../img/gs/1228gs.jpg","null","reveal","image-keyboard-response","269","907341","0.0-6.0-4.37","2810186","co38422","norming","","","","","","",""
"null","../img/tt/1228tt.jpg","null","mooney2","image-keyboard-response","270","909344","0.0-6.0-5.37","2810186","co38422","norming","","","","","","",""
"1681.9749999998603","","","post_reveal_questions","survey-likert","271","911027","0.0-6.0-6.37","2810186","co38422","norming","","","{""aha"":4}","[0]","../img/tt/1228tt.jpg","",""
"null","<div style=""font-size:60px;""> </div>","null","fixation","html-keyboard-response","272","911236","0.0-6.0-0.38","2810186","co38422","norming","","","","","","",""
"null","../img/tt/329tt.jpg","null","mooney1","image-keyboard-response","273","914245","0.0-6.0-1.38","2810186","co38422","norming","","","","","","",""
"3629.894999999786","","","post_mooney1_questions","survey-likert","274","917876","0.0-6.0-2.38","2810186","co38422","norming","","","{""curiosity"":6,""confidence"":0}","[0,1]","../img/tt/329tt.jpg","",""
"589.5550000000512","","","recognition","survey-text","275","918467","0.0-6.0-3.38","2810186","co38422","norming","","","{""guess"":""""}","","../img/tt/329tt.jpg","",""
"null","../img/gs/329gs.jpg","null","reveal","image-keyboard-response","276","920469","0.0-6.0-4.38","2810186","co38422","norming","","","","","","",""
"null","../img/tt/329tt.jpg","null","mooney2","image-keyboard-response","277","922477","0.0-6.0-5.38","2810186","co38422","norming","","","","","","",""
"1677.155000000028","","","post_reveal_questions","survey-likert","278","924155","0.0-6.0-6.38","2810186","co38422","norming","","","{""aha"":5}","[0]","../img/tt/329tt.jpg","",""
"null","<div style=""font-size:60px;""> </div>","null","fixation","html-keyboard-response","279","924366","0.0-6.0-0.39","2810186","co38422","norming","","","","","","",""
"null","../img/tt/279tt.jpg","null","mooney1","image-keyboard-response","280","927371","0.0-6.0-1.39","2810186","co38422","norming","","","","","","",""
"6159.245000000112","","","post_mooney1_questions","survey-likert","281","933527","0.0-6.0-2.39","2810186","co38422","norming","","","{""curiosity"":4,""confidence"":1}","[0,1]","../img/tt/279tt.jpg","",""
"2333.9749999999767","","","recognition","survey-text","282","935863","0.0-6.0-3.39","2810186","co38422","norming","","","{""guess"":""pompoen""}","","../img/tt/279tt.jpg","",""
"null","../img/gs/279gs.jpg","null","reveal","image-keyboard-response","283","937873","0.0-6.0-4.39","2810186","co38422","norming","","","","","","",""
"null","../img/tt/279tt.jpg","null","mooney2","image-keyboard-response","284","939883","0.0-6.0-5.39","2810186","co38422","norming","","","","","","",""
"2251.1350000000093","","","post_reveal_questions","survey-likert","285","942135","0.0-6.0-6.39","2810186","co38422","norming","","","{""aha"":4}","[0]","../img/tt/279tt.jpg","",""
"null","<div style=""font-size:60px;""> </div>","null","fixation","html-keyboard-response","286","942345","0.0-6.0-0.40","2810186","co38422","norming","","","","","","",""
"null","../img/tt/1362tt.jpg","null","mooney1","image-keyboard-response","287","945356","0.0-6.0-1.40","2810186","co38422","norming","","","","","","",""
"4162.994999999879","","","post_mooney1_questions","survey-likert","288","949520","0.0-6.0-2.40","2810186","co38422","norming","","","{""curiosity"":5,""confidence"":0}","[0,1]","../img/tt/1362tt.jpg","",""
"565.7050000000745","","","recognition","survey-text","289","950087","0.0-6.0-3.40","2810186","co38422","norming","","","{""guess"":""""}","","../img/tt/1362tt.jpg","",""
"null","../img/gs/1362gs.jpg","null","reveal","image-keyboard-response","290","952097","0.0-6.0-4.40","2810186","co38422","norming","","","","","","",""
"null","../img/tt/1362tt.jpg","null","mooney2","image-keyboard-response","291","954106","0.0-6.0-5.40","2810186","co38422","norming","","","","","","",""
"1748.9749999999767","","","post_reveal_questions","survey-likert","292","955855","0.0-6.0-6.40","2810186","co38422","norming","","","{""aha"":3}","[0]","../img/tt/1362tt.jpg","",""
"null","<div style=""font-size:60px;""> </div>","null","fixation","html-keyboard-response","293","956060","0.0-6.0-0.41","2810186","co38422","norming","","","","","","",""
"null","../img/tt/1122tt.jpg","null","mooney1","image-keyboard-response","294","959068","0.0-6.0-1.41","2810186","co38422","norming","","","","","","",""
"5329.489999999991","","","post_mooney1_questions","survey-likert","295","964399","0.0-6.0-2.41","2810186","co38422","norming","","","{""curiosity"":6,""confidence"":0}","[0,1]","../img/tt/1122tt.jpg","",""
"1429.6999999999534","","","recognition","survey-text","296","965831","0.0-6.0-3.41","2810186","co38422","norming","","","{""guess"":""""}","","../img/tt/1122tt.jpg","",""
"null","../img/gs/1122gs.jpg","null","reveal","image-keyboard-response","297","967834","0.0-6.0-4.41","2810186","co38422","norming","","","","","","",""
"null","../img/tt/1122tt.jpg","null","mooney2","image-keyboard-response","298","969839","0.0-6.0-5.41","2810186","co38422","norming","","","","","","",""
"2518.9699999998556","","","post_reveal_questions","survey-likert","299","972360","0.0-6.0-6.41","2810186","co38422","norming","","","{""aha"":6}","[0]","../img/tt/1122tt.jpg","",""
"null","<div style=""font-size:60px;""> </div>","null","fixation","html-keyboard-response","300","972561","0.0-6.0-0.42","2810186","co38422","norming","","","","","","",""
"null","../img/tt/1002tt.jpg","null","mooney1","image-keyboard-response","301","975570","0.0-6.0-1.42","2810186","co38422","norming","","","","","","",""
"3771.5849999999627","","","post_mooney1_questions","survey-likert","302","979344","0.0-6.0-2.42","2810186","co38422","norming","","","{""curiosity"":4,""confidence"":1}","[0,1]","../img/tt/1002tt.jpg","",""
"1845.6300000000047","","","recognition","survey-text","303","981191","0.0-6.0-3.42","2810186","co38422","norming","","","{""guess"":""neushoorn""}","","../img/tt/1002tt.jpg","",""
"null","../img/gs/1002gs.jpg","null","reveal","image-keyboard-response","304","983201","0.0-6.0-4.42","2810186","co38422","norming","","","","","","",""
"null","../img/tt/1002tt.jpg","null","mooney2","image-keyboard-response","305","985211","0.0-6.0-5.42","2810186","co38422","norming","","","","","","",""
"1971.3199999999488","","","post_reveal_questions","survey-likert","306","987184","0.0-6.0-6.42","2810186","co38422","norming","","","{""aha"":3}","[0]","../img/tt/1002tt.jpg","",""
"null","<div style=""font-size:60px;""> </div>","null","fixation","html-keyboard-response","307","987387","0.0-6.0-0.43","2810186","co38422","norming","","","","","","",""
"null","../img/tt/1171tt.jpg","null","mooney1","image-keyboard-response","308","990402","0.0-6.0-1.43","2810186","co38422","norming","","","","","","",""
"3778.074999999837","","","post_mooney1_questions","survey-likert","309","994181","0.0-6.0-2.43","2810186","co38422","norming","","","{""curiosity"":4,""confidence"":1}","[0,1]","../img/tt/1171tt.jpg","",""
"1205.9000000001397","","","recognition","survey-text","310","995389","0.0-6.0-3.43","2810186","co38422","norming","","","{""guess"":""panda""}","","../img/tt/1171tt.jpg","",""
"null","../img/gs/1171gs.jpg","null","reveal","image-keyboard-response","311","997393","0.0-6.0-4.43","2810186","co38422","norming","","","","","","",""
"null","../img/tt/1171tt.jpg","null","mooney2","image-keyboard-response","312","999404","0.0-6.0-5.43","2810186","co38422","norming","","","","","","",""
"17863.040000000037","","","post_reveal_questions","survey-likert","313","1017269","0.0-6.0-6.43","2810186","co38422","norming","","","{""aha"":4}","[0]","../img/tt/1171tt.jpg","",""
"null","<div style=""font-size:60px;""> </div>","null","fixation","html-keyboard-response","314","1017478","0.0-6.0-0.44","2810186","co38422","norming","","","","","","",""
"null","../img/tt/053tt.jpg","null","mooney1","image-keyboard-response","315","1020483","0.0-6.0-1.44","2810186","co38422","norming","","","","","","",""
"4273.175000000163","","","post_mooney1_questions","survey-likert","316","1024757","0.0-6.0-2.44","2810186","co38422","norming","","","{""curiosity"":5,""confidence"":0}","[0,1]","../img/tt/053tt.jpg","",""
"813.9749999997439","","","recognition","survey-text","317","1025573","0.0-6.0-3.44","2810186","co38422","norming","","","{""guess"":""""}","","../img/tt/053tt.jpg","",""
"null","../img/gs/053gs.jpg","null","reveal","image-keyboard-response","318","1027581","0.0-6.0-4.44","2810186","co38422","norming","","","","","","",""
"null","../img/tt/053tt.jpg","null","mooney2","image-keyboard-response","319","1029585","0.0-6.0-5.44","2810186","co38422","norming","","","","","","",""
"2473.9199999999255","","","post_reveal_questions","survey-likert","320","1032061","0.0-6.0-6.44","2810186","co38422","norming","","","{""aha"":2}","[0]","../img/tt/053tt.jpg","",""
"null","<div style=""font-size:60px;""> </div>","null","fixation","html-keyboard-response","321","1032262","0.0-6.0-0.45","2810186","co38422","norming","","","","","","",""
"null","../img/tt/1027tt.jpg","null","mooney1","image-keyboard-response","322","1035266","0.0-6.0-1.45","2810186","co38422","norming","","","","","","",""
"3176.024999999907","","","post_mooney1_questions","survey-likert","323","1038445","0.0-6.0-2.45","2810186","co38422","norming","","","{""curiosity"":1,""confidence"":5}","[0,1]","../img/tt/1027tt.jpg","",""
"3214.2600000000093","","","recognition","survey-text","324","1041661","0.0-6.0-3.45","2810186","co38422","norming","","","{""guess"":""koe""}","","../img/tt/1027tt.jpg","",""
"null","../img/gs/1027gs.jpg","null","reveal","image-keyboard-response","325","1043662","0.0-6.0-4.45","2810186","co38422","norming","","","","","","",""
"null","../img/tt/1027tt.jpg","null","mooney2","image-keyboard-response","326","1045669","0.0-6.0-5.45","2810186","co38422","norming","","","","","","",""
"2941.524999999907","","","post_reveal_questions","survey-likert","327","1048613","0.0-6.0-6.45","2810186","co38422","norming","","","{""aha"":1}","[0]","../img/tt/1027tt.jpg","",""
"null","<div style=""font-size:60px;""> </div>","null","fixation","html-keyboard-response","328","1048815","0.0-6.0-0.46","2810186","co38422","norming","","","","","","",""
"null","../img/tt/1250tt.jpg","null","mooney1","image-keyboard-response","329","1051818","0.0-6.0-1.46","2810186","co38422","norming","","","","","","",""
"4145.0800000000745","","","post_mooney1_questions","survey-likert","330","1055966","0.0-6.0-2.46","2810186","co38422","norming","","","{""curiosity"":4,""confidence"":2}","[0,1]","../img/tt/1250tt.jpg","",""
"2493.9499999999534","","","recognition","survey-text","331","1058462","0.0-6.0-3.46","2810186","co38422","norming","","","{""guess"":""pinguin""}","","../img/tt/1250tt.jpg","",""
"null","../img/gs/1250gs.jpg","null","reveal","image-keyboard-response","332","1060464","0.0-6.0-4.46","2810186","co38422","norming","","","","","","",""
"null","../img/tt/1250tt.jpg","null","mooney2","image-keyboard-response","333","1062475","0.0-6.0-5.46","2810186","co38422","norming","","","","","","",""
"2072.7100000001956","","","post_reveal_questions","survey-likert","334","1064550","0.0-6.0-6.46","2810186","co38422","norming","","","{""aha"":4}","[0]","../img/tt/1250tt.jpg","",""
"null","<div style=""font-size:60px;""> </div>","null","fixation","html-keyboard-response","335","1064757","0.0-6.0-0.47","2810186","co38422","norming","","","","","","",""
"null","../img/tt/1353tt.jpg","null","mooney1","image-keyboard-response","336","1067762","0.0-6.0-1.47","2810186","co38422","norming","","","","","","",""
"3898.725000000093","","","post_mooney1_questions","survey-likert","337","1071662","0.0-6.0-2.47","2810186","co38422","norming","","","{""curiosity"":3,""confidence"":1}","[0,1]","../img/tt/1353tt.jpg","",""
"2445.8249999999534","","","recognition","survey-text","338","1074110","0.0-6.0-3.47","2810186","co38422","norming","","","{""guess"":""hand""}","","../img/tt/1353tt.jpg","",""
"null","../img/gs/1353gs.jpg","null","reveal","image-keyboard-response","339","1076112","0.0-6.0-4.47","2810186","co38422","norming","","","","","","",""
"null","../img/tt/1353tt.jpg","null","mooney2","image-keyboard-response","340","1078115","0.0-6.0-5.47","2810186","co38422","norming","","","","","","",""
"6528.260000000009","","","post_reveal_questions","survey-likert","341","1084646","0.0-6.0-6.47","2810186","co38422","norming","","","{""aha"":3}","[0]","../img/tt/1353tt.jpg","",""
"null","<div style=""font-size:60px;""> </div>","null","fixation","html-keyboard-response","342","1084847","0.0-6.0-0.48","2810186","co38422","norming","","","","","","",""
"null","../img/tt/517tt.jpg","null","mooney1","image-keyboard-response","343","1087849","0.0-6.0-1.48","2810186","co38422","norming","","","","","","",""
"3906.094999999972","","","post_mooney1_questions","survey-likert","344","1091758","0.0-6.0-2.48","2810186","co38422","norming","","","{""curiosity"":4,""confidence"":2}","[0,1]","../img/tt/517tt.jpg","",""
"2190.1099999998696","","","recognition","survey-text","345","1093950","0.0-6.0-3.48","2810186","co38422","norming","","","{""guess"":""stokstaartje""}","","../img/tt/517tt.jpg","",""
"null","../img/gs/517gs.jpg","null","reveal","image-keyboard-response","346","1095959","0.0-6.0-4.48","2810186","co38422","norming","","","","","","",""
"null","../img/tt/517tt.jpg","null","mooney2","image-keyboard-response","347","1097962","0.0-6.0-5.48","2810186","co38422","norming","","","","","","",""
"2161.4599999999627","","","post_reveal_questions","survey-likert","348","1100126","0.0-6.0-6.48","2810186","co38422","norming","","","{""aha"":3}","[0]","../img/tt/517tt.jpg","",""
"null","<div style=""font-size:60px;""> </div>","null","fixation","html-keyboard-response","349","1100333","0.0-6.0-0.49","2810186","co38422","norming","","","","","","",""
"null","../img/tt/032tt.jpg","null","mooney1","image-keyboard-response","350","1103344","0.0-6.0-1.49","2810186","co38422","norming","","","","","","",""
"4124.564999999944","","","post_mooney1_questions","survey-likert","351","1107470","0.0-6.0-2.49","2810186","co38422","norming","","","{""curiosity"":4,""confidence"":0}","[0,1]","../img/tt/032tt.jpg","",""
"741.910000000149","","","recognition","survey-text","352","1108214","0.0-6.0-3.49","2810186","co38422","norming","","","{""guess"":""""}","","../img/tt/032tt.jpg","",""
"null","../img/gs/032gs.jpg","null","reveal","image-keyboard-response","353","1110222","0.0-6.0-4.49","2810186","co38422","norming","","","","","","",""
"null","../img/tt/032tt.jpg","null","mooney2","image-keyboard-response","354","1112231","0.0-6.0-5.49","2810186","co38422","norming","","","","","","",""
"2213.435000000056","","","post_reveal_questions","survey-likert","355","1114447","0.0-6.0-6.49","2810186","co38422","norming","","","{""aha"":2}","[0]","../img/tt/032tt.jpg","",""
"null","<div style=""font-size:60px;""> </div>","null","fixation","html-keyboard-response","356","1114655","0.0-6.0-0.50","2810186","co38422","norming","","","","","","",""
"null","../img/tt/184tt.jpg","null","mooney1","image-keyboard-response","357","1117663","0.0-6.0-1.50","2810186","co38422","norming","","","","","","",""
"3620.524999999674","","","post_mooney1_questions","survey-likert","358","1121287","0.0-6.0-2.50","2810186","co38422","norming","","","{""curiosity"":4,""confidence"":0}","[0,1]","../img/tt/184tt.jpg","",""
"613.8449999997392","","","recognition","survey-text","359","1121903","0.0-6.0-3.50","2810186","co38422","norming","","","{""guess"":""""}","","../img/tt/184tt.jpg","",""
"null","../img/gs/184gs.jpg","null","reveal","image-keyboard-response","360","1123906","0.0-6.0-4.50","2810186","co38422","norming","","","","","","",""
"null","../img/tt/184tt.jpg","null","mooney2","image-keyboard-response","361","1125909","0.0-6.0-5.50","2810186","co38422","norming","","","","","","",""
"2759.905000000028","","","post_reveal_questions","survey-likert","362","1128671","0.0-6.0-6.50","2810186","co38422","norming","","","{""aha"":2}","[0]","../img/tt/184tt.jpg","",""
"null","<div style=""font-size:60px;""> </div>","null","fixation","html-keyboard-response","363","1128875","0.0-6.0-0.51","2810186","co38422","norming","","","","","","",""
"null","../img/tt/1118tt.jpg","null","mooney1","image-keyboard-response","364","1131885","0.0-6.0-1.51","2810186","co38422","norming","","","","","","",""
"3400.899999999907","","","post_mooney1_questions","survey-likert","365","1135287","0.0-6.0-2.51","2810186","co38422","norming","","","{""curiosity"":3,""confidence"":2}","[0,1]","../img/tt/1118tt.jpg","",""
"2261.8549999999814","","","recognition","survey-text","366","1137551","0.0-6.0-3.51","2810186","co38422","norming","","","{""guess"":""rivier""}","","../img/tt/1118tt.jpg","",""
"null","../img/gs/1118gs.jpg","null","reveal","image-keyboard-response","367","1139558","0.0-6.0-4.51","2810186","co38422","norming","","","","","","",""
"null","../img/tt/1118tt.jpg","null","mooney2","image-keyboard-response","368","1141567","0.0-6.0-5.51","2810186","co38422","norming","","","","","","",""
"2557.475000000093","","","post_reveal_questions","survey-likert","369","1144127","0.0-6.0-6.51","2810186","co38422","norming","","","{""aha"":3}","[0]","../img/tt/1118tt.jpg","",""
"null","<div style=""font-size:60px;""> </div>","null","fixation","html-keyboard-response","370","1144336","0.0-6.0-0.52","2810186","co38422","norming","","","","","","",""
"null","../img/tt/096tt.jpg","null","mooney1","image-keyboard-response","371","1147341","0.0-6.0-1.52","2810186","co38422","norming","","","","","","",""
"4511.229999999981","","","post_mooney1_questions","survey-likert","372","1151855","0.0-6.0-2.52","2810186","co38422","norming","","","{""curiosity"":2,""confidence"":4}","[0,1]","../img/tt/096tt.jpg","",""
"1326.1350000000093","","","recognition","survey-text","373","1153183","0.0-6.0-3.52","2810186","co38422","norming","","","{""guess"":""piano""}","","../img/tt/096tt.jpg","",""
"null","../img/gs/096gs.jpg","null","reveal","image-keyboard-response","374","1155191","0.0-6.0-4.52","2810186","co38422","norming","","","","","","",""
"null","../img/tt/096tt.jpg","null","mooney2","image-keyboard-response","375","1157193","0.0-6.0-5.52","2810186","co38422","norming","","","","","","",""
"1619.7750000001397","","","post_reveal_questions","survey-likert","376","1158815","0.0-6.0-6.52","2810186","co38422","norming","","","{""aha"":0}","[0]","../img/tt/096tt.jpg","",""
"null","<div style=""font-size:60px;""> </div>","null","fixation","html-keyboard-response","377","1159016","0.0-6.0-0.53","2810186","co38422","norming","","","","","","",""
"null","../img/tt/1040tt.jpg","null","mooney1","image-keyboard-response","378","1162024","0.0-6.0-1.53","2810186","co38422","norming","","","","","","",""
"4499.875","","","post_mooney1_questions","survey-likert","379","1166527","0.0-6.0-2.53","2810186","co38422","norming","","","{""curiosity"":3,""confidence"":3}","[0,1]","../img/tt/1040tt.jpg","",""
"2958.149999999907","","","recognition","survey-text","380","1169487","0.0-6.0-3.53","2810186","co38422","norming","","","{""guess"":""krokodil""}","","../img/tt/1040tt.jpg","",""
"null","../img/gs/1040gs.jpg","null","reveal","image-keyboard-response","381","1171491","0.0-6.0-4.53","2810186","co38422","norming","","","","","","",""
"null","../img/tt/1040tt.jpg","null","mooney2","image-keyboard-response","382","1173496","0.0-6.0-5.53","2810186","co38422","norming","","","","","","",""
"2102.684999999823","","","post_reveal_questions","survey-likert","383","1175601","0.0-6.0-6.53","2810186","co38422","norming","","","{""aha"":2}","[0]","../img/tt/1040tt.jpg","",""
"null","<div style=""font-size:60px;""> </div>","null","fixation","html-keyboard-response","384","1175811","0.0-6.0-0.54","2810186","co38422","norming","","","","","","",""
"null","../img/tt/1143tt.jpg","null","mooney1","image-keyboard-response","385","1178814","0.0-6.0-1.54","2810186","co38422","norming","","","","","","",""
"2737.8600000001024","","","post_mooney1_questions","survey-likert","386","1181553","0.0-6.0-2.54","2810186","co38422","norming","","","{""curiosity"":5,""confidence"":0}","[0,1]","../img/tt/1143tt.jpg","",""
"726.0700000000652","","","recognition","survey-text","387","1182281","0.0-6.0-3.54","2810186","co38422","norming","","","{""guess"":""""}","","../img/tt/1143tt.jpg","",""
"null","../img/gs/1143gs.jpg","null","reveal","image-keyboard-response","388","1184288","0.0-6.0-4.54","2810186","co38422","norming","","","","","","",""
"null","../img/tt/1143tt.jpg","null","mooney2","image-keyboard-response","389","1186296","0.0-6.0-5.54","2810186","co38422","norming","","","","","","",""
"2421.9849999998696","","","post_reveal_questions","survey-likert","390","1188721","0.0-6.0-6.54","2810186","co38422","norming","","","{""aha"":2}","[0]","../img/tt/1143tt.jpg","",""
"null","<div style=""font-size:60px;""> </div>","null","fixation","html-keyboard-response","391","1188923","0.0-6.0-0.55","2810186","co38422","norming","","","","","","",""
"null","../img/tt/1235tt.jpg","null","mooney1","image-keyboard-response","392","1191934","0.0-6.0-1.55","2810186","co38422","norming","","","","","","",""
"3078.719999999972","","","post_mooney1_questions","survey-likert","393","1195017","0.0-6.0-2.55","2810186","co38422","norming","","","{""curiosity"":6,""confidence"":0}","[0,1]","../img/tt/1235tt.jpg","",""
"814.0550000001676","","","recognition","survey-text","394","1195833","0.0-6.0-3.55","2810186","co38422","norming","","","{""guess"":""""}","","../img/tt/1235tt.jpg","",""
"null","../img/gs/1235gs.jpg","null","reveal","image-keyboard-response","395","1197835","0.0-6.0-4.55","2810186","co38422","norming","","","","","","",""
"null","../img/tt/1235tt.jpg","null","mooney2","image-keyboard-response","396","1199841","0.0-6.0-5.55","2810186","co38422","norming","","","","","","",""
"2429.070000000298","","","post_reveal_questions","survey-likert","397","1202273","0.0-6.0-6.55","2810186","co38422","norming","","","{""aha"":4}","[0]","../img/tt/1235tt.jpg","",""
"null","<div style=""font-size:60px;""> </div>","null","fixation","html-keyboard-response","398","1202474","0.0-6.0-0.56","2810186","co38422","norming","","","","","","",""
"null","../img/tt/1254tt.jpg","null","mooney1","image-keyboard-response","399","1205478","0.0-6.0-1.56","2810186","co38422","norming","","","","","","",""
"3224.2299999999814","","","post_mooney1_questions","survey-likert","400","1208705","0.0-6.0-2.56","2810186","co38422","norming","","","{""curiosity"":4,""confidence"":3}","[0,1]","../img/tt/1254tt.jpg","",""
"1646.280000000028","","","recognition","survey-text","401","1210353","0.0-6.0-3.56","2810186","co38422","norming","","","{""guess"":""luiaard""}","","../img/tt/1254tt.jpg","",""
"null","../img/gs/1254gs.jpg","null","reveal","image-keyboard-response","402","1212364","0.0-6.0-4.56","2810186","co38422","norming","","","","","","",""
"null","../img/tt/1254tt.jpg","null","mooney2","image-keyboard-response","403","1214373","0.0-6.0-5.56","2810186","co38422","norming","","","","","","",""
"2985.1099999998696","","","post_reveal_questions","survey-likert","404","1217361","0.0-6.0-6.56","2810186","co38422","norming","","","{""aha"":4}","[0]","../img/tt/1254tt.jpg","",""
"null","<div style=""font-size:60px;""> </div>","null","fixation","html-keyboard-response","405","1217563","0.0-6.0-0.57","2810186","co38422","norming","","","","","","",""
"null","../img/tt/1049tt.jpg","null","mooney1","image-keyboard-response","406","1220575","0.0-6.0-1.57","2810186","co38422","norming","","","","","","",""
"3350.559999999823","","","post_mooney1_questions","survey-likert","407","1223929","0.0-6.0-2.57","2810186","co38422","norming","","","{""curiosity"":4,""confidence"":0}","[0,1]","../img/tt/1049tt.jpg","",""
"949.8349999997299","","","recognition","survey-text","408","1224881","0.0-6.0-3.57","2810186","co38422","norming","","","{""guess"":""""}","","../img/tt/1049tt.jpg","",""
"null","../img/gs/1049gs.jpg","null","reveal","image-keyboard-response","409","1226889","0.0-6.0-4.57","2810186","co38422","norming","","","","","","",""
"null","../img/tt/1049tt.jpg","null","mooney2","image-keyboard-response","410","1228889","0.0-6.0-5.57","2810186","co38422","norming","","","","","","",""
"6550.429999999935","","","post_reveal_questions","survey-likert","411","1235436","0.0-6.0-6.57","2810186","co38422","norming","","","{""aha"":2}","[0]","../img/tt/1049tt.jpg","",""
"null","<div style=""font-size:60px;""> </div>","null","fixation","html-keyboard-response","412","1235637","0.0-6.0-0.58","2810186","co38422","norming","","","","","","",""
"null","../img/tt/1261tt.jpg","null","mooney1","image-keyboard-response","413","1238646","0.0-6.0-1.58","2810186","co38422","norming","","","","","","",""
"3059.125","","","post_mooney1_questions","survey-likert","414","1241708","0.0-6.0-2.58","2810186","co38422","norming","","","{""curiosity"":3,""confidence"":2}","[0,1]","../img/tt/1261tt.jpg","",""
"926.1550000002608","","","recognition","survey-text","415","1242636","0.0-6.0-3.58","2810186","co38422","norming","","","{""guess"":""geit""}","","../img/tt/1261tt.jpg","",""
"null","../img/gs/1261gs.jpg","null","reveal","image-keyboard-response","416","1244643","0.0-6.0-4.58","2810186","co38422","norming","","","","","","",""
"null","../img/tt/1261tt.jpg","null","mooney2","image-keyboard-response","417","1246652","0.0-6.0-5.58","2810186","co38422","norming","","","","","","",""
"2380.9000000001397","","","post_reveal_questions","survey-likert","418","1249036","0.0-6.0-6.58","2810186","co38422","norming","","","{""aha"":3}","[0]","../img/tt/1261tt.jpg","",""
"null","<div style=""font-size:60px;""> </div>","null","fixation","html-keyboard-response","419","1249237","0.0-6.0-0.59","2810186","co38422","norming","","","","","","",""
"null","../img/tt/1307tt.jpg","null","mooney1","image-keyboard-response","420","1252243","0.0-6.0-1.59","2810186","co38422","norming","","","","","","",""
"3918.1049999999814","","","post_mooney1_questions","survey-likert","421","1256164","0.0-6.0-2.59","2810186","co38422","norming","","","{""curiosity"":2,""confidence"":3}","[0,1]","../img/tt/1307tt.jpg","",""
"1174.125","","","recognition","survey-text","422","1257340","0.0-6.0-3.59","2810186","co38422","norming","","","{""guess"":""pauw""}","","../img/tt/1307tt.jpg","",""
"null","../img/gs/1307gs.jpg","null","reveal","image-keyboard-response","423","1259344","0.0-6.0-4.59","2810186","co38422","norming","","","","","","",""
"null","../img/tt/1307tt.jpg","null","mooney2","image-keyboard-response","424","1261347","0.0-6.0-5.59","2810186","co38422","norming","","","","","","",""
"1725.9650000000838","","","post_reveal_questions","survey-likert","425","1263076","0.0-6.0-6.59","2810186","co38422","norming","","","{""aha"":2}","[0]","../img/tt/1307tt.jpg","",""
"null","<div style=""font-size:60px;""> </div>","null","fixation","html-keyboard-response","426","1263279","0.0-6.0-0.60","2810186","co38422","norming","","","","","","",""
"null","../img/tt/567tt.jpg","null","mooney1","image-keyboard-response","427","1266284","0.0-6.0-1.60","2810186","co38422","norming","","","","","","",""
"5030.149999999907","","","post_mooney1_questions","survey-likert","428","1271316","0.0-6.0-2.60","2810186","co38422","norming","","","{""curiosity"":1,""confidence"":6}","[0,1]","../img/tt/567tt.jpg","",""
"2278.0400000000373","","","recognition","survey-text","429","1273596","0.0-6.0-3.60","2810186","co38422","norming","","","{""guess"":""broodrooster""}","","../img/tt/567tt.jpg","",""
"null","../img/gs/567gs.jpg","null","reveal","image-keyboard-response","430","1275604","0.0-6.0-4.60","2810186","co38422","norming","","","","","","",""
"null","../img/tt/567tt.jpg","null","mooney2","image-keyboard-response","431","1277607","0.0-6.0-5.60","2810186","co38422","norming","","","","","","",""
"4154.039999999804","","","post_reveal_questions","survey-likert","432","1281764","0.0-6.0-6.60","2810186","co38422","norming","","","{""aha"":0}","[0]","../img/tt/567tt.jpg","",""
"null","<div style=""font-size:60px;""> </div>","null","fixation","html-keyboard-response","433","1281971","0.0-6.0-0.61","2810186","co38422","norming","","","","","","",""
"null","../img/tt/1151tt.jpg","null","mooney1","image-keyboard-response","434","1284978","0.0-6.0-1.61","2810186","co38422","norming","","","","","","",""
"3486.4849999998696","","","post_mooney1_questions","survey-likert","435","1288468","0.0-6.0-2.61","2810186","co38422","norming","","","{""curiosity"":5,""confidence"":0}","[0,1]","../img/tt/1151tt.jpg","",""
"997.9250000000466","","","recognition","survey-text","436","1289467","0.0-6.0-3.61","2810186","co38422","norming","","","{""guess"":""""}","","../img/tt/1151tt.jpg","",""
"null","../img/gs/1151gs.jpg","null","reveal","image-keyboard-response","437","1291469","0.0-6.0-4.61","2810186","co38422","norming","","","","","","",""
"null","../img/tt/1151tt.jpg","null","mooney2","image-keyboard-response","438","1293479","0.0-6.0-5.61","2810186","co38422","norming","","","","","","",""
"1761.9699999997392","","","post_reveal_questions","survey-likert","439","1295251","0.0-6.0-6.61","2810186","co38422","norming","","","{""aha"":2}","[0]","../img/tt/1151tt.jpg","",""
"null","<div style=""font-size:60px;""> </div>","null","fixation","html-keyboard-response","440","1295456","0.0-6.0-0.62","2810186","co38422","norming","","","","","","",""
"null","../img/tt/1061tt.jpg","null","mooney1","image-keyboard-response","441","1298469","0.0-6.0-1.62","2810186","co38422","norming","","","","","","",""
"4650.944999999832","","","post_mooney1_questions","survey-likert","442","1303123","0.0-6.0-2.62","2810186","co38422","norming","","","{""curiosity"":2,""confidence"":2}","[0,1]","../img/tt/1061tt.jpg","",""
"1198.3049999999348","","","recognition","survey-text","443","1304323","0.0-6.0-3.62","2810186","co38422","norming","","","{""guess"":""park""}","","../img/tt/1061tt.jpg","",""
"null","../img/gs/1061gs.jpg","null","reveal","image-keyboard-response","444","1306331","0.0-6.0-4.62","2810186","co38422","norming","","","","","","",""
"null","../img/tt/1061tt.jpg","null","mooney2","image-keyboard-response","445","1308337","0.0-6.0-5.62","2810186","co38422","norming","","","","","","",""
"2958.905000000028","","","post_reveal_questions","survey-likert","446","1311299","0.0-6.0-6.62","2810186","co38422","norming","","","{""aha"":2}","[0]","../img/tt/1061tt.jpg","",""
"null","<div style=""font-size:60px;""> </div>","null","fixation","html-keyboard-response","447","1311509","0.0-6.0-0.63","2810186","co38422","norming","","","","","","",""
"null","../img/tt/112tt.jpg","null","mooney1","image-keyboard-response","448","1314520","0.0-6.0-1.63","2810186","co38422","norming","","","","","","",""
"3311.9599999999627","","","post_mooney1_questions","survey-likert","449","1317835","0.0-6.0-2.63","2810186","co38422","norming","","","{""curiosity"":1,""confidence"":0}","[0,1]","../img/tt/112tt.jpg","",""
"526.0149999998976","","","recognition","survey-text","450","1318363","0.0-6.0-3.63","2810186","co38422","norming","","","{""guess"":""""}","","../img/tt/112tt.jpg","",""
"null","../img/gs/112gs.jpg","null","reveal","image-keyboard-response","451","1320371","0.0-6.0-4.63","2810186","co38422","norming","","","","","","",""
"null","../img/tt/112tt.jpg","null","mooney2","image-keyboard-response","452","1322382","0.0-6.0-5.63","2810186","co38422","norming","","","","","","",""
"3418.159999999916","","","post_reveal_questions","survey-likert","453","1325803","0.0-6.0-6.63","2810186","co38422","norming","","","{""aha"":6}","[0]","../img/tt/112tt.jpg","",""
"null","<div style=""font-size:60px;""> </div>","null","fixation","html-keyboard-response","454","1326014","0.0-6.0-0.64","2810186","co38422","norming","","","","","","",""
"null","../img/tt/1127tt.jpg","null","mooney1","image-keyboard-response","455","1329020","0.0-6.0-1.64","2810186","co38422","norming","","","","","","",""
"2581.9849999998696","","","post_mooney1_questions","survey-likert","456","1331603","0.0-6.0-2.64","2810186","co38422","norming","","","{""curiosity"":2,""confidence"":3}","[0,1]","../img/tt/1127tt.jpg","",""
"1358.0699999998324","","","recognition","survey-text","457","1332963","0.0-6.0-3.64","2810186","co38422","norming","","","{""guess"":""school""}","","../img/tt/1127tt.jpg","",""
"null","../img/gs/1127gs.jpg","null","reveal","image-keyboard-response","458","1334964","0.0-6.0-4.64","2810186","co38422","norming","","","","","","",""
"null","../img/tt/1127tt.jpg","null","mooney2","image-keyboard-response","459","1336968","0.0-6.0-5.64","2810186","co38422","norming","","","","","","",""
"4128.620000000112","","","post_reveal_questions","survey-likert","460","1341099","0.0-6.0-6.64","2810186","co38422","norming","","","{""aha"":3}","[0]","../img/tt/1127tt.jpg","",""
"null","<div style=""font-size:60px;""> </div>","null","fixation","html-keyboard-response","461","1341301","0.0-6.0-0.65","2810186","co38422","norming","","","","","","",""
"null","../img/tt/1283tt.jpg","null","mooney1","image-keyboard-response","462","1344308","0.0-6.0-1.65","2810186","co38422","norming","","","","","","",""
"2835.410000000149","","","post_mooney1_questions","survey-likert","463","1347147","0.0-6.0-2.65","2810186","co38422","norming","","","{""curiosity"":4,""confidence"":3}","[0,1]","../img/tt/1283tt.jpg","",""
"1669.8950000000186","","","recognition","survey-text","464","1348819","0.0-6.0-3.65","2810186","co38422","norming","","","{""guess"":""wasbeer""}","","../img/tt/1283tt.jpg","",""
"null","../img/gs/1283gs.jpg","null","reveal","image-keyboard-response","465","1350820","0.0-6.0-4.65","2810186","co38422","norming","","","","","","",""
"null","../img/tt/1283tt.jpg","null","mooney2","image-keyboard-response","466","1352822","0.0-6.0-5.65","2810186","co38422","norming","","","","","","",""
"1740.1899999999441","","","post_reveal_questions","survey-likert","467","1354563","0.0-6.0-6.65","2810186","co38422","norming","","","{""aha"":2}","[0]","../img/tt/1283tt.jpg","",""
"null","<div style=""font-size:60px;""> </div>","null","fixation","html-keyboard-response","468","1354775","0.0-6.0-0.66","2810186","co38422","norming","","","","","","",""
"null","../img/tt/481tt.jpg","null","mooney1","image-keyboard-response","469","1357778","0.0-6.0-1.66","2810186","co38422","norming","","","","","","",""
"3229.8350000001956","","","post_mooney1_questions","survey-likert","470","1361011","0.0-6.0-2.66","2810186","co38422","norming","","","{""curiosity"":3,""confidence"":0}","[0,1]","../img/tt/481tt.jpg","",""
"958.0450000001583","","","recognition","survey-text","471","1361971","0.0-6.0-3.66","2810186","co38422","norming","","","{""guess"":""""}","","../img/tt/481tt.jpg","",""
"null","../img/gs/481gs.jpg","null","reveal","image-keyboard-response","472","1363978","0.0-6.0-4.66","2810186","co38422","norming","","","","","","",""
"null","../img/tt/481tt.jpg","null","mooney2","image-keyboard-response","473","1365988","0.0-6.0-5.66","2810186","co38422","norming","","","","","","",""
"2692.83499999973","","","post_reveal_questions","survey-likert","474","1368683","0.0-6.0-6.66","2810186","co38422","norming","","","{""aha"":6}","[0]","../img/tt/481tt.jpg","",""
"null","<div style=""font-size:60px;""> </div>","null","fixation","html-keyboard-response","475","1368884","0.0-6.0-0.67","2810186","co38422","norming","","","","","","",""
"null","../img/tt/380tt.jpg","null","mooney1","image-keyboard-response","476","1371893","0.0-6.0-1.67","2810186","co38422","norming","","","","","","",""
"3706.8249999999534","","","post_mooney1_questions","survey-likert","477","1375603","0.0-6.0-2.67","2810186","co38422","norming","","","{""curiosity"":3,""confidence"":2}","[0,1]","../img/tt/380tt.jpg","",""
"1134.1299999998882","","","recognition","survey-text","478","1376739","0.0-6.0-3.67","2810186","co38422","norming","","","{""guess"":""slak""}","","../img/tt/380tt.jpg","",""
"null","../img/gs/380gs.jpg","null","reveal","image-keyboard-response","479","1378745","0.0-6.0-4.67","2810186","co38422","norming","","","","","","",""
"null","../img/tt/380tt.jpg","null","mooney2","image-keyboard-response","480","1380755","0.0-6.0-5.67","2810186","co38422","norming","","","","","","",""
"2981.470000000205","","","post_reveal_questions","survey-likert","481","1383739","0.0-6.0-6.67","2810186","co38422","norming","","","{""aha"":2}","[0]","../img/tt/380tt.jpg","",""
"null","<div style=""font-size:60px;""> </div>","null","fixation","html-keyboard-response","482","1383942","0.0-6.0-0.68","2810186","co38422","norming","","","","","","",""
"null","../img/tt/123tt.jpg","null","mooney1","image-keyboard-response","483","1386952","0.0-6.0-1.68","2810186","co38422","norming","","","","","","",""
"2921.1299999998882","","","post_mooney1_questions","survey-likert","484","1389875","0.0-6.0-2.68","2810186","co38422","norming","","","{""curiosity"":3,""confidence"":2}","[0,1]","../img/tt/123tt.jpg","",""
"1374.030000000028","","","recognition","survey-text","485","1391251","0.0-6.0-3.68","2810186","co38422","norming","","","{""guess"":""koffer""}","","../img/tt/123tt.jpg","",""
"null","../img/gs/123gs.jpg","null","reveal","image-keyboard-response","486","1393259","0.0-6.0-4.68","2810186","co38422","norming","","","","","","",""
"null","../img/tt/123tt.jpg","null","mooney2","image-keyboard-response","487","1395264","0.0-6.0-5.68","2810186","co38422","norming","","","","","","",""
"1721.1950000000652","","","post_reveal_questions","survey-likert","488","1396987","0.0-6.0-6.68","2810186","co38422","norming","","","{""aha"":2}","[0]","../img/tt/123tt.jpg","",""
"null","<div style=""font-size:60px;""> </div>","null","fixation","html-keyboard-response","489","1397194","0.0-6.0-0.69","2810186","co38422","norming","","","","","","",""
"null","../img/tt/1270tt.jpg","null","mooney1","image-keyboard-response","490","1400200","0.0-6.0-1.69","2810186","co38422","norming","","","","","","",""
"3248.304999999935","","","post_mooney1_questions","survey-likert","491","1403451","0.0-6.0-2.69","2810186","co38422","norming","","","{""curiosity"":1,""confidence"":1}","[0,1]","../img/tt/1270tt.jpg","",""
"1781.9650000000838","","","recognition","survey-text","492","1405235","0.0-6.0-3.69","2810186","co38422","norming","","","{""guess"":""schoen""}","","../img/tt/1270tt.jpg","",""
"null","../img/gs/1270gs.jpg","null","reveal","image-keyboard-response","493","1407243","0.0-6.0-4.69","2810186","co38422","norming","","","","","","",""
"null","../img/tt/1270tt.jpg","null","mooney2","image-keyboard-response","494","1409244","0.0-6.0-5.69","2810186","co38422","norming","","","","","","",""
"1644.2099999999627","","","post_reveal_questions","survey-likert","495","1410891","0.0-6.0-6.69","2810186","co38422","norming","","","{""aha"":2}","[0]","../img/tt/1270tt.jpg","",""
"null","<div style=""font-size:60px;""> </div>","null","fixation","html-keyboard-response","496","1411092","0.0-6.0-0.70","2810186","co38422","norming","","","","","","",""
"null","../img/tt/1181tt.jpg","null","mooney1","image-keyboard-response","497","1414102","0.0-6.0-1.70","2810186","co38422","norming","","","","","","",""
"4649.530000000028","","","post_mooney1_questions","survey-likert","498","1418747","0.0-6.0-2.70","2810186","co38422","norming","","","{""curiosity"":2,""confidence"":2}","[0,1]","../img/tt/1181tt.jpg","",""
"3758.0300000002608","","","recognition","survey-text","499","1422507","0.0-6.0-3.70","2810186","co38422","norming","","","{""guess"":""vrienden""}","","../img/tt/1181tt.jpg","",""
"null","../img/gs/1181gs.jpg","null","reveal","image-keyboard-response","500","1424509","0.0-6.0-4.70","2810186","co38422","norming","","","","","","",""
"null","../img/tt/1181tt.jpg","null","mooney2","image-keyboard-response","501","1426515","0.0-6.0-5.70","2810186","co38422","norming","","","","","","",""
"3965.715000000084","","","post_reveal_questions","survey-likert","502","1430483","0.0-6.0-6.70","2810186","co38422","norming","","","{""aha"":1}","[0]","../img/tt/1181tt.jpg","",""
"null","<div style=""font-size:60px;""> </div>","null","fixation","html-keyboard-response","503","1430685","0.0-6.0-0.71","2810186","co38422","norming","","","","","","",""
"null","../img/tt/412tt.jpg","null","mooney1","image-keyboard-response","504","1433695","0.0-6.0-1.71","2810186","co38422","norming","","","","","","",""
"4320.97499999986","","","post_mooney1_questions","survey-likert","505","1438019","0.0-6.0-2.71","2810186","co38422","norming","","","{""curiosity"":2,""confidence"":2}","[0,1]","../img/tt/412tt.jpg","",""
"7126.129999999888","","","recognition","survey-text","506","1445147","0.0-6.0-3.71","2810186","co38422","norming","","","{""guess"":""pompje""}","","../img/tt/412tt.jpg","",""
"null","../img/gs/412gs.jpg","null","reveal","image-keyboard-response","507","1447153","0.0-6.0-4.71","2810186","co38422","norming","","","","","","",""
"null","../img/tt/412tt.jpg","null","mooney2","image-keyboard-response","508","1449155","0.0-6.0-5.71","2810186","co38422","norming","","","","","","",""
"2853.8499999998603","","","post_reveal_questions","survey-likert","509","1452011","0.0-6.0-6.71","2810186","co38422","norming","","","{""aha"":2}","[0]","../img/tt/412tt.jpg","",""
"null","<div style=""font-size:60px;""> </div>","null","fixation","html-keyboard-response","510","1452213","0.0-6.0-0.72","2810186","co38422","norming","","","","","","",""
"null","../img/tt/063tt.jpg","null","mooney1","image-keyboard-response","511","1455215","0.0-6.0-1.72","2810186","co38422","norming","","","","","","",""
"3488.9199999999255","","","post_mooney1_questions","survey-likert","512","1458707","0.0-6.0-2.72","2810186","co38422","norming","","","{""curiosity"":1,""confidence"":0}","[0,1]","../img/tt/063tt.jpg","",""
"814.0949999997392","","","recognition","survey-text","513","1459523","0.0-6.0-3.72","2810186","co38422","norming","","","{""guess"":""""}","","../img/tt/063tt.jpg","",""
"null","../img/gs/063gs.jpg","null","reveal","image-keyboard-response","514","1461526","0.0-6.0-4.72","2810186","co38422","norming","","","","","","",""
"null","../img/tt/063tt.jpg","null","mooney2","image-keyboard-response","515","1463537","0.0-6.0-5.72","2810186","co38422","norming","","","","","","",""
"2295.0100000000093","","","post_reveal_questions","survey-likert","516","1465835","0.0-6.0-6.72","2810186","co38422","norming","","","{""aha"":2}","[0]","../img/tt/063tt.jpg","",""
"null","<div style=""font-size:60px;""> </div>","null","fixation","html-keyboard-response","517","1466037","0.0-6.0-0.73","2810186","co38422","norming","","","","","","",""
"null","../img/tt/094tt.jpg","null","mooney1","image-keyboard-response","518","1469044","0.0-6.0-1.73","2810186","co38422","norming","","","","","","",""
"4307.51500000013","","","post_mooney1_questions","survey-likert","519","1473355","0.0-6.0-2.73","2810186","co38422","norming","","","{""curiosity"":2,""confidence"":0}","[0,1]","../img/tt/094tt.jpg","",""
"6565.965000000084","","","recognition","survey-text","520","1479930","0.0-6.0-3.73","2810186","co38422","norming","","","{""guess"":""""}","","../img/tt/094tt.jpg","",""
"null","../img/gs/094gs.jpg","null","reveal","image-keyboard-response","521","1481932","0.0-6.0-4.73","2810186","co38422","norming","","","","","","",""
"null","../img/tt/094tt.jpg","null","mooney2","image-keyboard-response","522","1483935","0.0-6.0-5.73","2810186","co38422","norming","","","","","","",""
"1968.8049999999348","","","post_reveal_questions","survey-likert","523","1485906","0.0-6.0-6.73","2810186","co38422","norming","","","{""aha"":0}","[0]","../img/tt/094tt.jpg","",""
"null","<div style=""font-size:60px;""> </div>","null","fixation","html-keyboard-response","524","1486115","0.0-6.0-0.74","2810186","co38422","norming","","","","","","",""
"null","../img/tt/315tt.jpg","null","mooney1","image-keyboard-response","525","1489125","0.0-6.0-1.74","2810186","co38422","norming","","","","","","",""
"2913.480000000214","","","post_mooney1_questions","survey-likert","526","1492043","0.0-6.0-2.74","2810186","co38422","norming","","","{""curiosity"":3,""confidence"":2}","[0,1]","../img/tt/315tt.jpg","",""
"1286.030000000028","","","recognition","survey-text","527","1493330","0.0-6.0-3.74","2810186","co38422","norming","","","{""guess"":""uil""}","","../img/tt/315tt.jpg","",""
"null","../img/gs/315gs.jpg","null","reveal","image-keyboard-response","528","1495341","0.0-6.0-4.74","2810186","co38422","norming","","","","","","",""
"null","../img/tt/315tt.jpg","null","mooney2","image-keyboard-response","529","1497353","0.0-6.0-5.74","2810186","co38422","norming","","","","","","",""
"11110.959999999963","","","post_reveal_questions","survey-likert","530","1508466","0.0-6.0-6.74","2810186","co38422","norming","","","{""aha"":0}","[0]","../img/tt/315tt.jpg","",""
"null","<div style=""font-size:60px;""> </div>","null","fixation","html-keyboard-response","531","1508668","0.0-6.0-0.75","2810186","co38422","norming","","","","","","",""
"null","../img/tt/1269tt.jpg","null","mooney1","image-keyboard-response","532","1511672","0.0-6.0-1.75","2810186","co38422","norming","","","","","","",""
"3919.100000000093","","","post_mooney1_questions","survey-likert","533","1515594","0.0-6.0-2.75","2810186","co38422","norming","","","{""curiosity"":2,""confidence"":1}","[0,1]","../img/tt/1269tt.jpg","",""
"2278.220000000205","","","recognition","survey-text","534","1517874","0.0-6.0-3.75","2810186","co38422","norming","","","{""guess"":""vos""}","","../img/tt/1269tt.jpg","",""
"null","../img/gs/1269gs.jpg","null","reveal","image-keyboard-response","535","1519882","0.0-6.0-4.75","2810186","co38422","norming","","","","","","",""
"null","../img/tt/1269tt.jpg","null","mooney2","image-keyboard-response","536","1521884","0.0-6.0-5.75","2810186","co38422","norming","","","","","","",""
"2260.0999999998603","","","post_reveal_questions","survey-likert","537","1524146","0.0-6.0-6.75","2810186","co38422","norming","","","{""aha"":2}","[0]","../img/tt/1269tt.jpg","",""
"null","<div style=""font-size:60px;""> </div>","null","fixation","html-keyboard-response","538","1524348","0.0-6.0-0.76","2810186","co38422","norming","","","","","","",""
"null","../img/tt/010tt.jpg","null","mooney1","image-keyboard-response","539","1527352","0.0-6.0-1.76","2810186","co38422","norming","","","","","","",""
"2863.6299999998882","","","post_mooney1_questions","survey-likert","540","1530219","0.0-6.0-2.76","2810186","co38422","norming","","","{""curiosity"":5,""confidence"":0}","[0,1]","../img/tt/010tt.jpg","",""
"629.6350000000093","","","recognition","survey-text","541","1530850","0.0-6.0-3.76","2810186","co38422","norming","","","{""guess"":""""}","","../img/tt/010tt.jpg","",""
"null","../img/gs/010gs.jpg","null","reveal","image-keyboard-response","542","1532853","0.0-6.0-4.76","2810186","co38422","norming","","","","","","",""
"null","../img/tt/010tt.jpg","null","mooney2","image-keyboard-response","543","1534856","0.0-6.0-5.76","2810186","co38422","norming","","","","","","",""
"1585.3700000001118","","","post_reveal_questions","survey-likert","544","1536442","0.0-6.0-6.76","2810186","co38422","norming","","","{""aha"":0}","[0]","../img/tt/010tt.jpg","",""
"null","<div style=""font-size:60px;""> </div>","null","fixation","html-keyboard-response","545","1536644","0.0-6.0-0.77","2810186","co38422","norming","","","","","","",""
"null","../img/tt/534tt.jpg","null","mooney1","image-keyboard-response","546","1539648","0.0-6.0-1.77","2810186","co38422","norming","","","","","","",""
"3230.654999999795","","","post_mooney1_questions","survey-likert","547","1542877","0.0-6.0-2.77","2810186","co38422","norming","","","{""curiosity"":1,""confidence"":0}","[0,1]","../img/tt/534tt.jpg","",""
"517.8800000001211","","","recognition","survey-text","548","1543396","0.0-6.0-3.77","2810186","co38422","norming","","","{""guess"":""""}","","../img/tt/534tt.jpg","",""
"null","../img/gs/534gs.jpg","null","reveal","image-keyboard-response","549","1545399","0.0-6.0-4.77","2810186","co38422","norming","","","","","","",""
"null","../img/tt/534tt.jpg","null","mooney2","image-keyboard-response","550","1547409","0.0-6.0-5.77","2810186","co38422","norming","","","","","","",""
"3041.149999999907","","","post_reveal_questions","survey-likert","551","1550453","0.0-6.0-6.77","2810186","co38422","norming","","","{""aha"":0}","[0]","../img/tt/534tt.jpg","",""
"null","<div style=""font-size:60px;""> </div>","null","fixation","html-keyboard-response","552","1550659","0.0-6.0-0.78","2810186","co38422","norming","","","","","","",""
"null","../img/tt/189tt.jpg","null","mooney1","image-keyboard-response","553","1553665","0.0-6.0-1.78","2810186","co38422","norming","","","","","","",""
