"rt","stimulus","key_press","test_part","trial_type","trial_index","time_elapsed","internal_node_id","totalTime","subject","experiment_name","button_pressed","success","responses","question_order","currentStim","old","correct"
"13604.289999999994","Welcome to the experiment. This is an online experiment so please don't close the tab/window until we say goodbye.  Press any key to begin.","32","instructions","html-keyboard-response","0","13606","0.0-0.0","2857414","co38326","norming","","","","","","",""
"17494.449999999997","<div style='word-wrap: break-word; width: 900px'><h3>Please consider this information carefully before deciding whether to participate in this research</h3><ul style='text-align: left; font-size: .8em;'><li><b>Purpose of the research</b>: To examine how people process images.</li><li><b>What you will do in this research</b>:  Stimuli (images) will be presented on the computer and you will be asked different questions about them.</li><li><b>Time required</b>: Participation will take between 45 and 60 minutes to complete.</li><li><b>Risks</b>:  There are no anticipated risks associated with participating in this study. The effects of participating should be comparable to those you would experience from viewing a computer monitor for 30 minutes and using a mouse or keyboard.</li><li><b>Benefits</b>:  This study provides no benefits to you individually except for the credit. The study provides important information about the nature of perception and learning.</li><li><b>Confidentiality</b>:  Your participation in this study will remain confidential. No personally identifiable information will be associated with your data. Your de-identified data may be shared with other researchers and used in future projects.</li><li><b>Participation and withdrawal</b>:  Your participation in this study is completely voluntary and you may refuse to participate or you may choose to withdraw at any time without penalty.</li><li><b>How to contact the researchers</b>: If you have questions or concerns about your participation or payment, or want to request a summary of research findings, please contact Sander Van de Cruys (KU Leuven), at sander.vandecruys@kuleuven.be.</li></ul><p>The nature and purpose of this research have been sufficiently explained and I agree to participate in this study.  I understand that I am free to withdraw at any time without incurring any penalty.</p><p>Please consent by clicking the button below to continue. Otherwise, please exit the study at this time.</p></div>","","instructions","html-button-response","1","31103","0.0-1.0","2857414","co38326","norming","0","","","","","",""
"","","","instructions","fullscreen","2","36095","0.0-2.0","2857414","co38326","norming","","true","","","","",""
"18838.46500000001","","","sona","survey-html-form","3","54935","0.0-3.0","2857414","co38326","norming","","","[{""name"":""sonaid"",""value"":""38326""},{""name"":""debrief"",""value"":""no""},{""name"":""datajoin"",""value"":""yes""}]","","","",""
"84254.7","<div style='word-wrap: break-word; width: 900px'><h3>Instructions</h3><p>This experiment will have 3 parts. In the first part you will see a series of distorted images like the one below on the left. As you can see in the righthand image, the distorted images are derived from actual photographs. In what follows, you will <strong>briefly</strong> be presented with <strong>only</strong> the distorted image.</p> <div style='float: left; margin-right: 20px;'><img src='../img/018tt.jpg' height='250' width='250'></img></div><div style='float: right; margin-left: 20px;'><img src='../img/018gs.jpg' height='250' width='250'></img></div><p>Subsequently you will be asked a few questions about the image: One question on how <strong>curious</strong> you are about the solution and one on how <strong>confident</strong> you are that you know the solution.</p>Next, we ask you to make a guess on what is in the image. Note that it is OK to name just the <strong>basic level category</strong>. For example when you see a parrot in the image, 'parrot' will obviously be a correct answer but also correct is 'bird'. However, 'animal' will <strong>not</strong> be counted as a correct response. For the example above, 'rose' would be correct or 'flower', but not 'plant'. When soccer players are depicted, 'soccer', 'football', 'soccer players' will be correct, but not 'humans', 'outdoors', or 'sports'. You do not need to describe the image in full, just name the main object in it <strong>in one or two words</strong>. All images depict objects from one of the following broad level categories: animals, inanimate objects, plants, sports, vehicles, and food. Recognizing means knowing <strong>more</strong> than these broad labels for a given image. But we always encourage you to <strong>make a guess</strong> if you can. Note that you are allowed to use <strong>Dutch and English</strong> in your answers, whatever comes easiest for you.</p><p>Press any key to continue.</p></div>","32","instructions","html-keyboard-response","4","139193","0.0-4.0","2857414","co38326","norming","","","","","","",""
"91217.375","<div style='word-wrap: break-word; width: 900px'><h3>Instructions</h3> <p>Next, the solution image will be revealed to you and you'll be asked to indicate how strong your <strong>aha-experience</strong> was after seeing the solution. This describes the positive feeling of the 'click' you sometimes experience, when the pieces of the 'puzzle' fall together and you suddenly have 'insight' in the image.</p><img src='aha.jpg' height='188' width='250'></img><p>Note that there are no right or wrong answers. We are interested in what <strong>you</strong> see in the image and how <strong>you</strong> feel about it.</p><p>Press any key to start the experiment.</p></div>","32","instructions","html-keyboard-response","5","230439","0.0-5.0","2857414","co38326","norming","","","","","","",""
"null","<div style=""font-size:60px;""> </div>","null","fixation","html-keyboard-response","6","230649","0.0-6.0-0.0","2857414","co38326","norming","","","","","","",""
"null","../img/tt/1190tt.jpg","null","mooney1","image-keyboard-response","7","233655","0.0-6.0-1.0","2857414","co38326","norming","","","","","","",""
"13245.87500000003","","","post_mooney1_questions","survey-likert","8","246902","0.0-6.0-2.0","2857414","co38326","norming","","","{""curiosity"":3,""confidence"":0}","[0,1]","../img/tt/1190tt.jpg","",""
"4509.580000000016","","","recognition","survey-text","9","251414","0.0-6.0-3.0","2857414","co38326","norming","","","{""guess"":""koe""}","","../img/tt/1190tt.jpg","",""
"null","../img/gs/1190gs.jpg","null","reveal","image-keyboard-response","10","253422","0.0-6.0-4.0","2857414","co38326","norming","","","","","","",""
"null","../img/tt/1190tt.jpg","null","mooney2","image-keyboard-response","11","255431","0.0-6.0-5.0","2857414","co38326","norming","","","","","","",""
"4507.954999999987","","","post_reveal_questions","survey-likert","12","259941","0.0-6.0-6.0","2857414","co38326","norming","","","{""aha"":5}","[0]","../img/tt/1190tt.jpg","",""
"null","<div style=""font-size:60px;""> </div>","null","fixation","html-keyboard-response","13","260145","0.0-6.0-0.1","2857414","co38326","norming","","","","","","",""
"null","../img/tt/435tt.jpg","null","mooney1","image-keyboard-response","14","263152","0.0-6.0-1.1","2857414","co38326","norming","","","","","","",""
"6995.494999999995","","","post_mooney1_questions","survey-likert","15","270149","0.0-6.0-2.1","2857414","co38326","norming","","","{""curiosity"":5,""confidence"":0}","[0,1]","../img/tt/435tt.jpg","",""
"4446.235000000044","","","recognition","survey-text","16","274597","0.0-6.0-3.1","2857414","co38326","norming","","","{""guess"":""woonkamer""}","","../img/tt/435tt.jpg","",""
"null","../img/gs/435gs.jpg","null","reveal","image-keyboard-response","17","276598","0.0-6.0-4.1","2857414","co38326","norming","","","","","","",""
"null","../img/tt/435tt.jpg","null","mooney2","image-keyboard-response","18","278602","0.0-6.0-5.1","2857414","co38326","norming","","","","","","",""
"2241.5500000000466","","","post_reveal_questions","survey-likert","19","280845","0.0-6.0-6.1","2857414","co38326","norming","","","{""aha"":5}","[0]","../img/tt/435tt.jpg","",""
"null","<div style=""font-size:60px;""> </div>","null","fixation","html-keyboard-response","20","281047","0.0-6.0-0.2","2857414","co38326","norming","","","","","","",""
"null","../img/tt/112tt.jpg","null","mooney1","image-keyboard-response","21","284053","0.0-6.0-1.2","2857414","co38326","norming","","","","","","",""
"3950.2249999999767","","","post_mooney1_questions","survey-likert","22","288005","0.0-6.0-2.2","2857414","co38326","norming","","","{""curiosity"":5,""confidence"":0}","[0,1]","../img/tt/112tt.jpg","",""
"2814.4199999999837","","","recognition","survey-text","23","290892","0.0-6.0-3.2","2857414","co38326","norming","","","{""guess"":""mier""}","","../img/tt/112tt.jpg","",""
"null","../img/gs/112gs.jpg","null","reveal","image-keyboard-response","24","292899","0.0-6.0-4.2","2857414","co38326","norming","","","","","","",""
"null","../img/tt/112tt.jpg","null","mooney2","image-keyboard-response","25","294903","0.0-6.0-5.2","2857414","co38326","norming","","","","","","",""
"3075.5250000000233","","","post_reveal_questions","survey-likert","26","297980","0.0-6.0-6.2","2857414","co38326","norming","","","{""aha"":5}","[0]","../img/tt/112tt.jpg","",""
"null","<div style=""font-size:60px;""> </div>","null","fixation","html-keyboard-response","27","298186","0.0-6.0-0.3","2857414","co38326","norming","","","","","","",""
"null","../img/tt/001tt.jpg","null","mooney1","image-keyboard-response","28","301191","0.0-6.0-1.3","2857414","co38326","norming","","","","","","",""
"3954.4500000000116","","","post_mooney1_questions","survey-likert","29","305148","0.0-6.0-2.3","2857414","co38326","norming","","","{""curiosity"":5,""confidence"":0}","[0,1]","../img/tt/001tt.jpg","",""
"2029.8950000000186","","","recognition","survey-text","30","307180","0.0-6.0-3.3","2857414","co38326","norming","","","{""guess"":""koe""}","","../img/tt/001tt.jpg","",""
"null","../img/gs/001gs.jpg","null","reveal","image-keyboard-response","31","309181","0.0-6.0-4.3","2857414","co38326","norming","","","","","","",""
"null","../img/tt/001tt.jpg","null","mooney2","image-keyboard-response","32","311183","0.0-6.0-5.3","2857414","co38326","norming","","","","","","",""
"1707.4349999999977","","","post_reveal_questions","survey-likert","33","312892","0.0-6.0-6.3","2857414","co38326","norming","","","{""aha"":4}","[0]","../img/tt/001tt.jpg","",""
"null","<div style=""font-size:60px;""> </div>","null","fixation","html-keyboard-response","34","313098","0.0-6.0-0.4","2857414","co38326","norming","","","","","","",""
"null","../img/tt/060tt.jpg","null","mooney1","image-keyboard-response","35","316107","0.0-6.0-1.4","2857414","co38326","norming","","","","","","",""
"5607.325000000012","","","post_mooney1_questions","survey-likert","36","321716","0.0-6.0-2.4","2857414","co38326","norming","","","{""curiosity"":5,""confidence"":0}","[0,1]","../img/tt/060tt.jpg","",""
"6950.204999999958","","","recognition","survey-text","37","328668","0.0-6.0-3.4","2857414","co38326","norming","","","{""guess"":""lieveheersbeestje""}","","../img/tt/060tt.jpg","",""
"null","../img/gs/060gs.jpg","null","reveal","image-keyboard-response","38","330678","0.0-6.0-4.4","2857414","co38326","norming","","","","","","",""
"null","../img/tt/060tt.jpg","null","mooney2","image-keyboard-response","39","332694","0.0-6.0-5.4","2857414","co38326","norming","","","","","","",""
"3796.5500000000466","","","post_reveal_questions","survey-likert","40","336492","0.0-6.0-6.4","2857414","co38326","norming","","","{""aha"":5}","[0]","../img/tt/060tt.jpg","",""
"null","<div style=""font-size:60px;""> </div>","null","fixation","html-keyboard-response","41","336695","0.0-6.0-0.5","2857414","co38326","norming","","","","","","",""
"null","../img/tt/1069tt.jpg","null","mooney1","image-keyboard-response","42","339701","0.0-6.0-1.5","2857414","co38326","norming","","","","","","",""
"3997.7449999999953","","","post_mooney1_questions","survey-likert","43","343700","0.0-6.0-2.5","2857414","co38326","norming","","","{""curiosity"":5,""confidence"":0}","[0,1]","../img/tt/1069tt.jpg","",""
"7670.594999999972","","","recognition","survey-text","44","351444","0.0-6.0-3.5","2857414","co38326","norming","","","{""guess"":""motorrijder""}","","../img/tt/1069tt.jpg","",""
"null","../img/gs/1069gs.jpg","null","reveal","image-keyboard-response","45","353447","0.0-6.0-4.5","2857414","co38326","norming","","","","","","",""
"null","../img/tt/1069tt.jpg","null","mooney2","image-keyboard-response","46","355449","0.0-6.0-5.5","2857414","co38326","norming","","","","","","",""
"2552.655000000028","","","post_reveal_questions","survey-likert","47","358003","0.0-6.0-6.5","2857414","co38326","norming","","","{""aha"":5}","[0]","../img/tt/1069tt.jpg","",""
"null","<div style=""font-size:60px;""> </div>","null","fixation","html-keyboard-response","48","358213","0.0-6.0-0.6","2857414","co38326","norming","","","","","","",""
"null","../img/tt/436tt.jpg","null","mooney1","image-keyboard-response","49","361220","0.0-6.0-1.6","2857414","co38326","norming","","","","","","",""
"4708.539999999979","","","post_mooney1_questions","survey-likert","50","365931","0.0-6.0-2.6","2857414","co38326","norming","","","{""curiosity"":5,""confidence"":0}","[0,1]","../img/tt/436tt.jpg","",""
"5926.284999999974","","","recognition","survey-text","51","371859","0.0-6.0-3.6","2857414","co38326","norming","","","{""guess"":""ezel""}","","../img/tt/436tt.jpg","",""
"null","../img/gs/436gs.jpg","null","reveal","image-keyboard-response","52","373866","0.0-6.0-4.6","2857414","co38326","norming","","","","","","",""
"null","../img/tt/436tt.jpg","null","mooney2","image-keyboard-response","53","375870","0.0-6.0-5.6","2857414","co38326","norming","","","","","","",""
"5372.015000000072","","","post_reveal_questions","survey-likert","54","381243","0.0-6.0-6.6","2857414","co38326","norming","","","{""aha"":5}","[0]","../img/tt/436tt.jpg","",""
"null","<div style=""font-size:60px;""> </div>","null","fixation","html-keyboard-response","55","381451","0.0-6.0-0.7","2857414","co38326","norming","","","","","","",""
"null","../img/tt/1072tt.jpg","null","mooney1","image-keyboard-response","56","384458","0.0-6.0-1.7","2857414","co38326","norming","","","","","","",""
"4263.975000000093","","","post_mooney1_questions","survey-likert","57","388723","0.0-6.0-2.7","2857414","co38326","norming","","","{""curiosity"":5,""confidence"":0}","[0,1]","../img/tt/1072tt.jpg","",""
"13678.359999999986","","","recognition","survey-text","58","402403","0.0-6.0-3.7","2857414","co38326","norming","","","{""guess"":""tvkamer""}","","../img/tt/1072tt.jpg","",""
"null","../img/gs/1072gs.jpg","null","reveal","image-keyboard-response","59","404414","0.0-6.0-4.7","2857414","co38326","norming","","","","","","",""
"null","../img/tt/1072tt.jpg","null","mooney2","image-keyboard-response","60","406425","0.0-6.0-5.7","2857414","co38326","norming","","","","","","",""
"3096.460000000079","","","post_reveal_questions","survey-likert","61","409523","0.0-6.0-6.7","2857414","co38326","norming","","","{""aha"":6}","[0]","../img/tt/1072tt.jpg","",""
"null","<div style=""font-size:60px;""> </div>","null","fixation","html-keyboard-response","62","409728","0.0-6.0-0.8","2857414","co38326","norming","","","","","","",""
"null","../img/tt/1089tt.jpg","null","mooney1","image-keyboard-response","63","412808","0.0-6.0-1.8","2857414","co38326","norming","","","","","","",""
"4623.164999999979","","","post_mooney1_questions","survey-likert","64","417433","0.0-6.0-2.8","2857414","co38326","norming","","","{""curiosity"":5,""confidence"":1}","[0,1]","../img/tt/1089tt.jpg","",""
"2453.9899999999907","","","recognition","survey-text","65","419889","0.0-6.0-3.8","2857414","co38326","norming","","","{""guess"":""paard""}","","../img/tt/1089tt.jpg","",""
"null","../img/gs/1089gs.jpg","null","reveal","image-keyboard-response","66","421895","0.0-6.0-4.8","2857414","co38326","norming","","","","","","",""
"null","../img/tt/1089tt.jpg","null","mooney2","image-keyboard-response","67","423896","0.0-6.0-5.8","2857414","co38326","norming","","","","","","",""
"4703.7399999999325","","","post_reveal_questions","survey-likert","68","428601","0.0-6.0-6.8","2857414","co38326","norming","","","{""aha"":5}","[0]","../img/tt/1089tt.jpg","",""
"null","<div style=""font-size:60px;""> </div>","null","fixation","html-keyboard-response","69","428808","0.0-6.0-0.9","2857414","co38326","norming","","","","","","",""
"null","../img/tt/559tt.jpg","null","mooney1","image-keyboard-response","70","431813","0.0-6.0-1.9","2857414","co38326","norming","","","","","","",""
"5675.084999999963","","","post_mooney1_questions","survey-likert","71","437489","0.0-6.0-2.9","2857414","co38326","norming","","","{""curiosity"":5,""confidence"":1}","[0,1]","../img/tt/559tt.jpg","",""
"3438.1300000000047","","","recognition","survey-text","72","440929","0.0-6.0-3.9","2857414","co38326","norming","","","{""guess"":""naaimachine""}","","../img/tt/559tt.jpg","",""
"null","../img/gs/559gs.jpg","null","reveal","image-keyboard-response","73","442931","0.0-6.0-4.9","2857414","co38326","norming","","","","","","",""
"null","../img/tt/559tt.jpg","null","mooney2","image-keyboard-response","74","444935","0.0-6.0-5.9","2857414","co38326","norming","","","","","","",""
"2703.125","","","post_reveal_questions","survey-likert","75","447641","0.0-6.0-6.9","2857414","co38326","norming","","","{""aha"":4}","[0]","../img/tt/559tt.jpg","",""
"null","<div style=""font-size:60px;""> </div>","null","fixation","html-keyboard-response","76","447851","0.0-6.0-0.10","2857414","co38326","norming","","","","","","",""
"null","../img/tt/140tt.jpg","null","mooney1","image-keyboard-response","77","450860","0.0-6.0-1.10","2857414","co38326","norming","","","","","","",""
"4113.835000000021","","","post_mooney1_questions","survey-likert","78","454977","0.0-6.0-2.10","2857414","co38326","norming","","","{""curiosity"":5,""confidence"":1}","[0,1]","../img/tt/140tt.jpg","",""
"2653.3000000000466","","","recognition","survey-text","79","457633","0.0-6.0-3.10","2857414","co38326","norming","","","{""guess"":""vork""}","","../img/tt/140tt.jpg","",""
"null","../img/gs/140gs.jpg","null","reveal","image-keyboard-response","80","459639","0.0-6.0-4.10","2857414","co38326","norming","","","","","","",""
"null","../img/tt/140tt.jpg","null","mooney2","image-keyboard-response","81","461643","0.0-6.0-5.10","2857414","co38326","norming","","","","","","",""
"6667.494999999937","","","post_reveal_questions","survey-likert","82","468313","0.0-6.0-6.10","2857414","co38326","norming","","","{""aha"":2}","[0]","../img/tt/140tt.jpg","",""
"null","<div style=""font-size:60px;""> </div>","null","fixation","html-keyboard-response","83","468518","0.0-6.0-0.11","2857414","co38326","norming","","","","","","",""
"null","../img/tt/019tt.jpg","null","mooney1","image-keyboard-response","84","471527","0.0-6.0-1.11","2857414","co38326","norming","","","","","","",""
"5878.999999999884","","","post_mooney1_questions","survey-likert","85","477477","0.0-6.0-2.11","2857414","co38326","norming","","","{""curiosity"":4,""confidence"":4}","[0,1]","../img/tt/019tt.jpg","",""
"4574.125","","","recognition","survey-text","86","482053","0.0-6.0-3.11","2857414","co38326","norming","","","{""guess"":""knijptang""}","","../img/tt/019tt.jpg","",""
"null","../img/gs/019gs.jpg","null","reveal","image-keyboard-response","87","484054","0.0-6.0-4.11","2857414","co38326","norming","","","","","","",""
"null","../img/tt/019tt.jpg","null","mooney2","image-keyboard-response","88","486060","0.0-6.0-5.11","2857414","co38326","norming","","","","","","",""
"4071.8699999999953","","","post_reveal_questions","survey-likert","89","490133","0.0-6.0-6.11","2857414","co38326","norming","","","{""aha"":0}","[0]","../img/tt/019tt.jpg","",""
"null","<div style=""font-size:60px;""> </div>","null","fixation","html-keyboard-response","90","490341","0.0-6.0-0.12","2857414","co38326","norming","","","","","","",""
"null","../img/tt/1066tt.jpg","null","mooney1","image-keyboard-response","91","493349","0.0-6.0-1.12","2857414","co38326","norming","","","","","","",""
"4445.195000000007","","","post_mooney1_questions","survey-likert","92","497797","0.0-6.0-2.12","2857414","co38326","norming","","","{""curiosity"":4,""confidence"":5}","[0,1]","../img/tt/1066tt.jpg","",""
"4157.774999999907","","","recognition","survey-text","93","501956","0.0-6.0-3.12","2857414","co38326","norming","","","{""guess"":""stapelbed""}","","../img/tt/1066tt.jpg","",""
"null","../img/gs/1066gs.jpg","null","reveal","image-keyboard-response","94","503959","0.0-6.0-4.12","2857414","co38326","norming","","","","","","",""
"null","../img/tt/1066tt.jpg","null","mooney2","image-keyboard-response","95","505961","0.0-6.0-5.12","2857414","co38326","norming","","","","","","",""
"2635.054999999935","","","post_reveal_questions","survey-likert","96","508597","0.0-6.0-6.12","2857414","co38326","norming","","","{""aha"":6}","[0]","../img/tt/1066tt.jpg","",""
"null","<div style=""font-size:60px;""> </div>","null","fixation","html-keyboard-response","97","508799","0.0-6.0-0.13","2857414","co38326","norming","","","","","","",""
"null","../img/tt/1224tt.jpg","null","mooney1","image-keyboard-response","98","511808","0.0-6.0-1.13","2857414","co38326","norming","","","","","","",""
"5122.734999999928","","","post_mooney1_questions","survey-likert","99","516933","0.0-6.0-2.13","2857414","co38326","norming","","","{""curiosity"":6,""confidence"":0}","[0,1]","../img/tt/1224tt.jpg","",""
"6062.465000000084","","","recognition","survey-text","100","522997","0.0-6.0-3.13","2857414","co38326","norming","","","{""guess"":""monnik""}","","../img/tt/1224tt.jpg","",""
"null","../img/gs/1224gs.jpg","null","reveal","image-keyboard-response","101","525000","0.0-6.0-4.13","2857414","co38326","norming","","","","","","",""
"null","../img/tt/1224tt.jpg","null","mooney2","image-keyboard-response","102","527009","0.0-6.0-5.13","2857414","co38326","norming","","","","","","",""
"3001.3249999999534","","","post_reveal_questions","survey-likert","103","530013","0.0-6.0-6.13","2857414","co38326","norming","","","{""aha"":5}","[0]","../img/tt/1224tt.jpg","",""
"null","<div style=""font-size:60px;""> </div>","null","fixation","html-keyboard-response","104","530218","0.0-6.0-0.14","2857414","co38326","norming","","","","","","",""
"null","../img/tt/189tt.jpg","null","mooney1","image-keyboard-response","105","533228","0.0-6.0-1.14","2857414","co38326","norming","","","","","","",""
"4448.295000000042","","","post_mooney1_questions","survey-likert","106","537717","0.0-6.0-2.14","2857414","co38326","norming","","","{""curiosity"":6,""confidence"":0}","[0,1]","../img/tt/189tt.jpg","",""
"9222.115000000107","","","recognition","survey-text","107","546941","0.0-6.0-3.14","2857414","co38326","norming","","","{""guess"":""papegaai""}","","../img/tt/189tt.jpg","",""
"null","../img/gs/189gs.jpg","null","reveal","image-keyboard-response","108","548942","0.0-6.0-4.14","2857414","co38326","norming","","","","","","",""
"null","../img/tt/189tt.jpg","null","mooney2","image-keyboard-response","109","550945","0.0-6.0-5.14","2857414","co38326","norming","","","","","","",""
"2426.0500000000466","","","post_reveal_questions","survey-likert","110","553373","0.0-6.0-6.14","2857414","co38326","norming","","","{""aha"":6}","[0]","../img/tt/189tt.jpg","",""
"null","<div style=""font-size:60px;""> </div>","null","fixation","html-keyboard-response","111","553578","0.0-6.0-0.15","2857414","co38326","norming","","","","","","",""
"null","../img/tt/301tt.jpg","null","mooney1","image-keyboard-response","112","556587","0.0-6.0-1.15","2857414","co38326","norming","","","","","","",""
"4423.599999999977","","","post_mooney1_questions","survey-likert","113","561013","0.0-6.0-2.15","2857414","co38326","norming","","","{""curiosity"":5,""confidence"":0}","[0,1]","../img/tt/301tt.jpg","",""
"2118.3399999999674","","","recognition","survey-text","114","563133","0.0-6.0-3.15","2857414","co38326","norming","","","{""guess"":""klok""}","","../img/tt/301tt.jpg","",""
"null","../img/gs/301gs.jpg","null","reveal","image-keyboard-response","115","565134","0.0-6.0-4.15","2857414","co38326","norming","","","","","","",""
"null","../img/tt/301tt.jpg","null","mooney2","image-keyboard-response","116","567139","0.0-6.0-5.15","2857414","co38326","norming","","","","","","",""
"3392.2350000001024","","","post_reveal_questions","survey-likert","117","570533","0.0-6.0-6.15","2857414","co38326","norming","","","{""aha"":1}","[0]","../img/tt/301tt.jpg","",""
"null","<div style=""font-size:60px;""> </div>","null","fixation","html-keyboard-response","118","570744","0.0-6.0-0.16","2857414","co38326","norming","","","","","","",""
"null","../img/tt/296tt.jpg","null","mooney1","image-keyboard-response","119","573754","0.0-6.0-1.16","2857414","co38326","norming","","","","","","",""
"4385.375000000116","","","post_mooney1_questions","survey-likert","120","578141","0.0-6.0-2.16","2857414","co38326","norming","","","{""curiosity"":4,""confidence"":1}","[0,1]","../img/tt/296tt.jpg","",""
"5790.2799999999115","","","recognition","survey-text","121","583933","0.0-6.0-3.16","2857414","co38326","norming","","","{""guess"":""ziekenhuisbed""}","","../img/tt/296tt.jpg","",""
"null","../img/gs/296gs.jpg","null","reveal","image-keyboard-response","122","585935","0.0-6.0-4.16","2857414","co38326","norming","","","","","","",""
"null","../img/tt/296tt.jpg","null","mooney2","image-keyboard-response","123","587941","0.0-6.0-5.16","2857414","co38326","norming","","","","","","",""
"3853.399999999907","","","post_reveal_questions","survey-likert","124","591797","0.0-6.0-6.16","2857414","co38326","norming","","","{""aha"":0}","[0]","../img/tt/296tt.jpg","",""
"null","<div style=""font-size:60px;""> </div>","null","fixation","html-keyboard-response","125","592004","0.0-6.0-0.17","2857414","co38326","norming","","","","","","",""
"null","../img/tt/1250tt.jpg","null","mooney1","image-keyboard-response","126","595014","0.0-6.0-1.17","2857414","co38326","norming","","","","","","",""
"5756.304999999935","","","post_mooney1_questions","survey-likert","127","600771","0.0-6.0-2.17","2857414","co38326","norming","","","{""curiosity"":3,""confidence"":5}","[0,1]","../img/tt/1250tt.jpg","",""
"2326.070000000065","","","recognition","survey-text","128","603098","0.0-6.0-3.17","2857414","co38326","norming","","","{""guess"":""beer""}","","../img/tt/1250tt.jpg","",""
"null","../img/gs/1250gs.jpg","null","reveal","image-keyboard-response","129","605099","0.0-6.0-4.17","2857414","co38326","norming","","","","","","",""
"null","../img/tt/1250tt.jpg","null","mooney2","image-keyboard-response","130","607102","0.0-6.0-5.17","2857414","co38326","norming","","","","","","",""
"1962.7699999999022","","","post_reveal_questions","survey-likert","131","609066","0.0-6.0-6.17","2857414","co38326","norming","","","{""aha"":0}","[0]","../img/tt/1250tt.jpg","",""
"null","<div style=""font-size:60px;""> </div>","null","fixation","html-keyboard-response","132","609267","0.0-6.0-0.18","2857414","co38326","norming","","","","","","",""
"null","../img/tt/1191tt.jpg","null","mooney1","image-keyboard-response","133","612279","0.0-6.0-1.18","2857414","co38326","norming","","","","","","",""
"5001.290000000037","","","post_mooney1_questions","survey-likert","134","617283","0.0-6.0-2.18","2857414","co38326","norming","","","{""curiosity"":5,""confidence"":1}","[0,1]","../img/tt/1191tt.jpg","",""
"2901.8950000000186","","","recognition","survey-text","135","620186","0.0-6.0-3.18","2857414","co38326","norming","","","{""guess"":""elanden""}","","../img/tt/1191tt.jpg","",""
"null","../img/gs/1191gs.jpg","null","reveal","image-keyboard-response","136","622189","0.0-6.0-4.18","2857414","co38326","norming","","","","","","",""
"null","../img/tt/1191tt.jpg","null","mooney2","image-keyboard-response","137","624200","0.0-6.0-5.18","2857414","co38326","norming","","","","","","",""
"3783.6450000000186","","","post_reveal_questions","survey-likert","138","627986","0.0-6.0-6.18","2857414","co38326","norming","","","{""aha"":5}","[0]","../img/tt/1191tt.jpg","",""
"null","<div style=""font-size:60px;""> </div>","null","fixation","html-keyboard-response","139","628191","0.0-6.0-0.19","2857414","co38326","norming","","","","","","",""
"null","../img/tt/1156tt.jpg","null","mooney1","image-keyboard-response","140","631195","0.0-6.0-1.19","2857414","co38326","norming","","","","","","",""
"4700.984999999986","","","post_mooney1_questions","survey-likert","141","635899","0.0-6.0-2.19","2857414","co38326","norming","","","{""curiosity"":6,""confidence"":1}","[0,1]","../img/tt/1156tt.jpg","",""
"6157.875","","","recognition","survey-text","142","642058","0.0-6.0-3.19","2857414","co38326","norming","","","{""guess"":""vrouw in bikini""}","","../img/tt/1156tt.jpg","",""
"null","../img/gs/1156gs.jpg","null","reveal","image-keyboard-response","143","644061","0.0-6.0-4.19","2857414","co38326","norming","","","","","","",""
"null","../img/tt/1156tt.jpg","null","mooney2","image-keyboard-response","144","646066","0.0-6.0-5.19","2857414","co38326","norming","","","","","","",""
"2543.954999999958","","","post_reveal_questions","survey-likert","145","648611","0.0-6.0-6.19","2857414","co38326","norming","","","{""aha"":0}","[0]","../img/tt/1156tt.jpg","",""
"null","<div style=""font-size:60px;""> </div>","null","fixation","html-keyboard-response","146","648816","0.0-6.0-0.20","2857414","co38326","norming","","","","","","",""
"null","../img/tt/124tt.jpg","null","mooney1","image-keyboard-response","147","651826","0.0-6.0-1.20","2857414","co38326","norming","","","","","","",""
"4367.360000000102","","","post_mooney1_questions","survey-likert","148","656195","0.0-6.0-2.20","2857414","co38326","norming","","","{""curiosity"":6,""confidence"":0}","[0,1]","../img/tt/124tt.jpg","",""
"5094.089999999967","","","recognition","survey-text","149","661297","0.0-6.0-3.20","2857414","co38326","norming","","","{""guess"":""grote eend""}","","../img/tt/124tt.jpg","",""
"null","../img/gs/124gs.jpg","null","reveal","image-keyboard-response","150","663298","0.0-6.0-4.20","2857414","co38326","norming","","","","","","",""
"null","../img/tt/124tt.jpg","null","mooney2","image-keyboard-response","151","665309","0.0-6.0-5.20","2857414","co38326","norming","","","","","","",""
"3963.0350000000326","","","post_reveal_questions","survey-likert","152","669273","0.0-6.0-6.20","2857414","co38326","norming","","","{""aha"":5}","[0]","../img/tt/124tt.jpg","",""
"null","<div style=""font-size:60px;""> </div>","null","fixation","html-keyboard-response","153","669482","0.0-6.0-0.21","2857414","co38326","norming","","","","","","",""
"null","../img/tt/1070tt.jpg","null","mooney1","image-keyboard-response","154","672486","0.0-6.0-1.21","2857414","co38326","norming","","","","","","",""
"4223.819999999949","","","post_mooney1_questions","survey-likert","155","676713","0.0-6.0-2.21","2857414","co38326","norming","","","{""curiosity"":5,""confidence"":0}","[0,1]","../img/tt/1070tt.jpg","",""
"2566.0400000000373","","","recognition","survey-text","156","679281","0.0-6.0-3.21","2857414","co38326","norming","","","{""guess"":""taart""}","","../img/tt/1070tt.jpg","",""
"null","../img/gs/1070gs.jpg","null","reveal","image-keyboard-response","157","681288","0.0-6.0-4.21","2857414","co38326","norming","","","","","","",""
"null","../img/tt/1070tt.jpg","null","mooney2","image-keyboard-response","158","683297","0.0-6.0-5.21","2857414","co38326","norming","","","","","","",""
"1717.9400000000605","","","post_reveal_questions","survey-likert","159","685017","0.0-6.0-6.21","2857414","co38326","norming","","","{""aha"":1}","[0]","../img/tt/1070tt.jpg","",""
"null","<div style=""font-size:60px;""> </div>","null","fixation","html-keyboard-response","160","685220","0.0-6.0-0.22","2857414","co38326","norming","","","","","","",""
"null","../img/tt/1189tt.jpg","null","mooney1","image-keyboard-response","161","688226","0.0-6.0-1.22","2857414","co38326","norming","","","","","","",""
"4235.869999999995","","","post_mooney1_questions","survey-likert","162","692465","0.0-6.0-2.22","2857414","co38326","norming","","","{""curiosity"":6,""confidence"":0}","[0,1]","../img/tt/1189tt.jpg","",""
"2798.109999999986","","","recognition","survey-text","163","695265","0.0-6.0-3.22","2857414","co38326","norming","","","{""guess"":""penguin""}","","../img/tt/1189tt.jpg","",""
"null","../img/gs/1189gs.jpg","null","reveal","image-keyboard-response","164","697274","0.0-6.0-4.22","2857414","co38326","norming","","","","","","",""
"null","../img/tt/1189tt.jpg","null","mooney2","image-keyboard-response","165","699282","0.0-6.0-5.22","2857414","co38326","norming","","","","","","",""
"2196.0500000000466","","","post_reveal_questions","survey-likert","166","701481","0.0-6.0-6.22","2857414","co38326","norming","","","{""aha"":6}","[0]","../img/tt/1189tt.jpg","",""
"null","<div style=""font-size:60px;""> </div>","null","fixation","html-keyboard-response","167","701686","0.0-6.0-0.23","2857414","co38326","norming","","","","","","",""
"null","../img/tt/1159tt.jpg","null","mooney1","image-keyboard-response","168","704689","0.0-6.0-1.23","2857414","co38326","norming","","","","","","",""
"4469.9199999999255","","","post_mooney1_questions","survey-likert","169","709161","0.0-6.0-2.23","2857414","co38326","norming","","","{""curiosity"":5,""confidence"":1}","[0,1]","../img/tt/1159tt.jpg","",""
"4742.144999999902","","","recognition","survey-text","170","713905","0.0-6.0-3.23","2857414","co38326","norming","","","{""guess"":""skateboarder""}","","../img/tt/1159tt.jpg","",""
"null","../img/gs/1159gs.jpg","null","reveal","image-keyboard-response","171","715906","0.0-6.0-4.23","2857414","co38326","norming","","","","","","",""
"null","../img/tt/1159tt.jpg","null","mooney2","image-keyboard-response","172","717913","0.0-6.0-5.23","2857414","co38326","norming","","","","","","",""
"1597.6450000000186","","","post_reveal_questions","survey-likert","173","719513","0.0-6.0-6.23","2857414","co38326","norming","","","{""aha"":0}","[0]","../img/tt/1159tt.jpg","",""
"null","<div style=""font-size:60px;""> </div>","null","fixation","html-keyboard-response","174","719723","0.0-6.0-0.24","2857414","co38326","norming","","","","","","",""
"null","../img/tt/1279tt.jpg","null","mooney1","image-keyboard-response","175","722734","0.0-6.0-1.24","2857414","co38326","norming","","","","","","",""
"3705.0800000000745","","","post_mooney1_questions","survey-likert","176","726441","0.0-6.0-2.24","2857414","co38326","norming","","","{""curiosity"":6,""confidence"":0}","[0,1]","../img/tt/1279tt.jpg","",""
"3062.1750000000466","","","recognition","survey-text","177","729505","0.0-6.0-3.24","2857414","co38326","norming","","","{""guess"":""spook""}","","../img/tt/1279tt.jpg","",""
"null","../img/gs/1279gs.jpg","null","reveal","image-keyboard-response","178","731514","0.0-6.0-4.24","2857414","co38326","norming","","","","","","",""
"null","../img/tt/1279tt.jpg","null","mooney2","image-keyboard-response","179","733517","0.0-6.0-5.24","2857414","co38326","norming","","","","","","",""
"2050.445000000065","","","post_reveal_questions","survey-likert","180","735569","0.0-6.0-6.24","2857414","co38326","norming","","","{""aha"":6}","[0]","../img/tt/1279tt.jpg","",""
"null","<div style=""font-size:60px;""> </div>","null","fixation","html-keyboard-response","181","735777","0.0-6.0-0.25","2857414","co38326","norming","","","","","","",""
"null","../img/tt/406tt.jpg","null","mooney1","image-keyboard-response","182","738783","0.0-6.0-1.25","2857414","co38326","norming","","","","","","",""
"4615.069999999949","","","post_mooney1_questions","survey-likert","183","743401","0.0-6.0-2.25","2857414","co38326","norming","","","{""curiosity"":6,""confidence"":0}","[0,1]","../img/tt/406tt.jpg","",""
"3558.155000000028","","","recognition","survey-text","184","746961","0.0-6.0-3.25","2857414","co38326","norming","","","{""guess"":""schilderij""}","","../img/tt/406tt.jpg","",""
"null","../img/gs/406gs.jpg","null","reveal","image-keyboard-response","185","748970","0.0-6.0-4.25","2857414","co38326","norming","","","","","","",""
"null","../img/tt/406tt.jpg","null","mooney2","image-keyboard-response","186","750973","0.0-6.0-5.25","2857414","co38326","norming","","","","","","",""
"2410.215000000084","","","post_reveal_questions","survey-likert","187","753385","0.0-6.0-6.25","2857414","co38326","norming","","","{""aha"":6}","[0]","../img/tt/406tt.jpg","",""
"null","<div style=""font-size:60px;""> </div>","null","fixation","html-keyboard-response","188","753588","0.0-6.0-0.26","2857414","co38326","norming","","","","","","",""
"null","../img/tt/1232tt.jpg","null","mooney1","image-keyboard-response","189","756592","0.0-6.0-1.26","2857414","co38326","norming","","","","","","",""
"4437.92499999993","","","post_mooney1_questions","survey-likert","190","761033","0.0-6.0-2.26","2857414","co38326","norming","","","{""curiosity"":5,""confidence"":0}","[0,1]","../img/tt/1232tt.jpg","",""
"8038.439999999828","","","recognition","survey-text","191","769073","0.0-6.0-3.26","2857414","co38326","norming","","","{""guess"":""poort""}","","../img/tt/1232tt.jpg","",""
"null","../img/gs/1232gs.jpg","null","reveal","image-keyboard-response","192","771077","0.0-6.0-4.26","2857414","co38326","norming","","","","","","",""
"null","../img/tt/1232tt.jpg","null","mooney2","image-keyboard-response","193","773086","0.0-6.0-5.26","2857414","co38326","norming","","","","","","",""
"6536.694999999949","","","post_reveal_questions","survey-likert","194","779621","0.0-6.0-6.26","2857414","co38326","norming","","","{""aha"":6}","[0]","../img/tt/1232tt.jpg","",""
"null","<div style=""font-size:60px;""> </div>","null","fixation","html-keyboard-response","195","779832","0.0-6.0-0.27","2857414","co38326","norming","","","","","","",""
"null","../img/tt/1227tt.jpg","null","mooney1","image-keyboard-response","196","782835","0.0-6.0-1.27","2857414","co38326","norming","","","","","","",""
"4536.105000000098","","","post_mooney1_questions","survey-likert","197","787373","0.0-6.0-2.27","2857414","co38326","norming","","","{""curiosity"":3,""confidence"":4}","[0,1]","../img/tt/1227tt.jpg","",""
"2222.3099999999395","","","recognition","survey-text","198","789597","0.0-6.0-3.27","2857414","co38326","norming","","","{""guess"":""kippen""}","","../img/tt/1227tt.jpg","",""
"null","../img/gs/1227gs.jpg","null","reveal","image-keyboard-response","199","791600","0.0-6.0-4.27","2857414","co38326","norming","","","","","","",""
"null","../img/tt/1227tt.jpg","null","mooney2","image-keyboard-response","200","793603","0.0-6.0-5.27","2857414","co38326","norming","","","","","","",""
"2247.649999999907","","","post_reveal_questions","survey-likert","201","795853","0.0-6.0-6.27","2857414","co38326","norming","","","{""aha"":0}","[0]","../img/tt/1227tt.jpg","",""
"null","<div style=""font-size:60px;""> </div>","null","fixation","html-keyboard-response","202","796054","0.0-6.0-0.28","2857414","co38326","norming","","","","","","",""
"null","../img/tt/1148tt.jpg","null","mooney1","image-keyboard-response","203","799059","0.0-6.0-1.28","2857414","co38326","norming","","","","","","",""
"4655.5299999999115","","","post_mooney1_questions","survey-likert","204","803717","0.0-6.0-2.28","2857414","co38326","norming","","","{""curiosity"":5,""confidence"":0}","[0,1]","../img/tt/1148tt.jpg","",""
"2054.164999999921","","","recognition","survey-text","205","805773","0.0-6.0-3.28","2857414","co38326","norming","","","{""guess"":""ezel""}","","../img/tt/1148tt.jpg","",""
"null","../img/gs/1148gs.jpg","null","reveal","image-keyboard-response","206","807775","0.0-6.0-4.28","2857414","co38326","norming","","","","","","",""
"null","../img/tt/1148tt.jpg","null","mooney2","image-keyboard-response","207","809783","0.0-6.0-5.28","2857414","co38326","norming","","","","","","",""
"5316.47499999986","","","post_reveal_questions","survey-likert","208","815101","0.0-6.0-6.28","2857414","co38326","norming","","","{""aha"":6}","[0]","../img/tt/1148tt.jpg","",""
"null","<div style=""font-size:60px;""> </div>","null","fixation","html-keyboard-response","209","815310","0.0-6.0-0.29","2857414","co38326","norming","","","","","","",""
"null","../img/tt/1200tt.jpg","null","mooney1","image-keyboard-response","210","818322","0.0-6.0-1.29","2857414","co38326","norming","","","","","","",""
"10585.83500000008","","","post_mooney1_questions","survey-likert","211","828910","0.0-6.0-2.29","2857414","co38326","norming","","","{""curiosity"":5,""confidence"":0}","[0,1]","../img/tt/1200tt.jpg","",""
"14742.035000000033","","","recognition","survey-text","212","843657","0.0-6.0-3.29","2857414","co38326","norming","","","{""guess"":""""}","","../img/tt/1200tt.jpg","",""
"null","../img/gs/1200gs.jpg","null","reveal","image-keyboard-response","213","845658","0.0-6.0-4.29","2857414","co38326","norming","","","","","","",""
"null","../img/tt/1200tt.jpg","null","mooney2","image-keyboard-response","214","847661","0.0-6.0-5.29","2857414","co38326","norming","","","","","","",""
"3976.5849999999627","","","post_reveal_questions","survey-likert","215","851641","0.0-6.0-6.29","2857414","co38326","norming","","","{""aha"":6}","[0]","../img/tt/1200tt.jpg","",""
"null","<div style=""font-size:60px;""> </div>","null","fixation","html-keyboard-response","216","851850","0.0-6.0-0.30","2857414","co38326","norming","","","","","","",""
"null","../img/tt/1123tt.jpg","null","mooney1","image-keyboard-response","217","854856","0.0-6.0-1.30","2857414","co38326","norming","","","","","","",""
"5638.680000000051","","","post_mooney1_questions","survey-likert","218","860498","0.0-6.0-2.30","2857414","co38326","norming","","","{""curiosity"":4,""confidence"":4}","[0,1]","../img/tt/1123tt.jpg","",""
"4238.239999999991","","","recognition","survey-text","219","864737","0.0-6.0-3.30","2857414","co38326","norming","","","{""guess"":""basketbal""}","","../img/tt/1123tt.jpg","",""
"null","../img/gs/1123gs.jpg","null","reveal","image-keyboard-response","220","866739","0.0-6.0-4.30","2857414","co38326","norming","","","","","","",""
"null","../img/tt/1123tt.jpg","null","mooney2","image-keyboard-response","221","868741","0.0-6.0-5.30","2857414","co38326","norming","","","","","","",""
"2633.8649999998743","","","post_reveal_questions","survey-likert","222","871377","0.0-6.0-6.30","2857414","co38326","norming","","","{""aha"":4}","[0]","../img/tt/1123tt.jpg","",""
"null","<div style=""font-size:60px;""> </div>","null","fixation","html-keyboard-response","223","871581","0.0-6.0-0.31","2857414","co38326","norming","","","","","","",""
"null","../img/tt/1241tt.jpg","null","mooney1","image-keyboard-response","224","874585","0.0-6.0-1.31","2857414","co38326","norming","","","","","","",""
"3471.359999999986","","","post_mooney1_questions","survey-likert","225","878057","0.0-6.0-2.31","2857414","co38326","norming","","","{""curiosity"":5,""confidence"":0}","[0,1]","../img/tt/1241tt.jpg","",""
"5493.824999999953","","","recognition","survey-text","226","883553","0.0-6.0-3.31","2857414","co38326","norming","","","{""guess"":""muilpaard""}","","../img/tt/1241tt.jpg","",""
"null","../img/gs/1241gs.jpg","null","reveal","image-keyboard-response","227","885556","0.0-6.0-4.31","2857414","co38326","norming","","","","","","",""
"null","../img/tt/1241tt.jpg","null","mooney2","image-keyboard-response","228","887566","0.0-6.0-5.31","2857414","co38326","norming","","","","","","",""
"2346.640000000014","","","post_reveal_questions","survey-likert","229","889913","0.0-6.0-6.31","2857414","co38326","norming","","","{""aha"":5}","[0]","../img/tt/1241tt.jpg","",""
"null","<div style=""font-size:60px;""> </div>","null","fixation","html-keyboard-response","230","890116","0.0-6.0-0.32","2857414","co38326","norming","","","","","","",""
"null","../img/tt/1171tt.jpg","null","mooney1","image-keyboard-response","231","893122","0.0-6.0-1.32","2857414","co38326","norming","","","","","","",""
"7582.1849999999395","","","post_mooney1_questions","survey-likert","232","900705","0.0-6.0-2.32","2857414","co38326","norming","","","{""curiosity"":5,""confidence"":1}","[0,1]","../img/tt/1171tt.jpg","",""
"4525.4349999999395","","","recognition","survey-text","233","905225","0.0-6.0-3.32","2857414","co38326","norming","","","{""guess"":""skully""}","","../img/tt/1171tt.jpg","",""
"null","../img/gs/1171gs.jpg","null","reveal","image-keyboard-response","234","907232","0.0-6.0-4.32","2857414","co38326","norming","","","","","","",""
"null","../img/tt/1171tt.jpg","null","mooney2","image-keyboard-response","235","909241","0.0-6.0-5.32","2857414","co38326","norming","","","","","","",""
"2615.465000000084","","","post_reveal_questions","survey-likert","236","911858","0.0-6.0-6.32","2857414","co38326","norming","","","{""aha"":6}","[0]","../img/tt/1171tt.jpg","",""
"null","<div style=""font-size:60px;""> </div>","null","fixation","html-keyboard-response","237","912061","0.0-6.0-0.33","2857414","co38326","norming","","","","","","",""
"null","../img/tt/442tt.jpg","null","mooney1","image-keyboard-response","238","915070","0.0-6.0-1.33","2857414","co38326","norming","","","","","","",""
"4690.640000000014","","","post_mooney1_questions","survey-likert","239","919762","0.0-6.0-2.33","2857414","co38326","norming","","","{""curiosity"":6,""confidence"":0}","[0,1]","../img/tt/442tt.jpg","",""
"717.0749999999534","","","recognition","survey-text","240","920482","0.0-6.0-3.33","2857414","co38326","norming","","","{""guess"":""""}","","../img/tt/442tt.jpg","",""
"null","../img/gs/442gs.jpg","null","reveal","image-keyboard-response","241","922488","0.0-6.0-4.33","2857414","co38326","norming","","","","","","",""
"null","../img/tt/442tt.jpg","null","mooney2","image-keyboard-response","242","924498","0.0-6.0-5.33","2857414","co38326","norming","","","","","","",""
"4358.889999999898","","","post_reveal_questions","survey-likert","243","928858","0.0-6.0-6.33","2857414","co38326","norming","","","{""aha"":6}","[0]","../img/tt/442tt.jpg","",""
"null","<div style=""font-size:60px;""> </div>","null","fixation","html-keyboard-response","244","929061","0.0-6.0-0.34","2857414","co38326","norming","","","","","","",""
"null","../img/tt/078tt.jpg","null","mooney1","image-keyboard-response","245","932067","0.0-6.0-1.34","2857414","co38326","norming","","","","","","",""
"6821.2799999999115","","","post_mooney1_questions","survey-likert","246","938890","0.0-6.0-2.34","2857414","co38326","norming","","","{""curiosity"":4,""confidence"":5}","[0,1]","../img/tt/078tt.jpg","",""
"3758.1849999999395","","","recognition","survey-text","247","942650","0.0-6.0-3.34","2857414","co38326","norming","","","{""guess"":""tros druiven""}","","../img/tt/078tt.jpg","",""
"null","../img/gs/078gs.jpg","null","reveal","image-keyboard-response","248","944658","0.0-6.0-4.34","2857414","co38326","norming","","","","","","",""
"null","../img/tt/078tt.jpg","null","mooney2","image-keyboard-response","249","946661","0.0-6.0-5.34","2857414","co38326","norming","","","","","","",""
"4820.310000000056","","","post_reveal_questions","survey-likert","250","951482","0.0-6.0-6.34","2857414","co38326","norming","","","{""aha"":0}","[0]","../img/tt/078tt.jpg","",""
"null","<div style=""font-size:60px;""> </div>","null","fixation","html-keyboard-response","251","951693","0.0-6.0-0.35","2857414","co38326","norming","","","","","","",""
"null","../img/tt/1247tt.jpg","null","mooney1","image-keyboard-response","252","954703","0.0-6.0-1.35","2857414","co38326","norming","","","","","","",""
"6169.869999999995","","","post_mooney1_questions","survey-likert","253","960874","0.0-6.0-2.35","2857414","co38326","norming","","","{""curiosity"":5,""confidence"":0}","[0,1]","../img/tt/1247tt.jpg","",""
"2685.5250000001397","","","recognition","survey-text","254","963566","0.0-6.0-3.35","2857414","co38326","norming","","","{""guess"":""aardbei""}","","../img/tt/1247tt.jpg","",""
"null","../img/gs/1247gs.jpg","null","reveal","image-keyboard-response","255","965572","0.0-6.0-4.35","2857414","co38326","norming","","","","","","",""
"null","../img/tt/1247tt.jpg","null","mooney2","image-keyboard-response","256","967581","0.0-6.0-5.35","2857414","co38326","norming","","","","","","",""
"2904.3800000000047","","","post_reveal_questions","survey-likert","257","970486","0.0-6.0-6.35","2857414","co38326","norming","","","{""aha"":5}","[0]","../img/tt/1247tt.jpg","",""
"null","<div style=""font-size:60px;""> </div>","null","fixation","html-keyboard-response","258","970693","0.0-6.0-0.36","2857414","co38326","norming","","","","","","",""
"null","../img/tt/1116tt.jpg","null","mooney1","image-keyboard-response","259","973699","0.0-6.0-1.36","2857414","co38326","norming","","","","","","",""
"3499.1450000000186","","","post_mooney1_questions","survey-likert","260","977199","0.0-6.0-2.36","2857414","co38326","norming","","","{""curiosity"":5,""confidence"":0}","[0,1]","../img/tt/1116tt.jpg","",""
"2286.1300000000047","","","recognition","survey-text","261","979487","0.0-6.0-3.36","2857414","co38326","norming","","","{""guess"":""auto""}","","../img/tt/1116tt.jpg","",""
"null","../img/gs/1116gs.jpg","null","reveal","image-keyboard-response","262","981489","0.0-6.0-4.36","2857414","co38326","norming","","","","","","",""
"null","../img/tt/1116tt.jpg","null","mooney2","image-keyboard-response","263","983500","0.0-6.0-5.36","2857414","co38326","norming","","","","","","",""
"2249.9000000000233","","","post_reveal_questions","survey-likert","264","985750","0.0-6.0-6.36","2857414","co38326","norming","","","{""aha"":5}","[0]","../img/tt/1116tt.jpg","",""
"null","<div style=""font-size:60px;""> </div>","null","fixation","html-keyboard-response","265","985953","0.0-6.0-0.37","2857414","co38326","norming","","","","","","",""
"null","../img/tt/1033tt.jpg","null","mooney1","image-keyboard-response","266","988955","0.0-6.0-1.37","2857414","co38326","norming","","","","","","",""
"3849.3000000000466","","","post_mooney1_questions","survey-likert","267","992807","0.0-6.0-2.37","2857414","co38326","norming","","","{""curiosity"":5,""confidence"":0}","[0,1]","../img/tt/1033tt.jpg","",""
"2982.5149999998976","","","recognition","survey-text","268","995791","0.0-6.0-3.37","2857414","co38326","norming","","","{""guess"":""""}","","../img/tt/1033tt.jpg","",""
"null","../img/gs/1033gs.jpg","null","reveal","image-keyboard-response","269","997799","0.0-6.0-4.37","2857414","co38326","norming","","","","","","",""
"null","../img/tt/1033tt.jpg","null","mooney2","image-keyboard-response","270","999809","0.0-6.0-5.37","2857414","co38326","norming","","","","","","",""
"2539.5800000000745","","","post_reveal_questions","survey-likert","271","1002351","0.0-6.0-6.37","2857414","co38326","norming","","","{""aha"":6}","[0]","../img/tt/1033tt.jpg","",""
"null","<div style=""font-size:60px;""> </div>","null","fixation","html-keyboard-response","272","1002553","0.0-6.0-0.38","2857414","co38326","norming","","","","","","",""
"null","../img/tt/1270tt.jpg","null","mooney1","image-keyboard-response","273","1005560","0.0-6.0-1.38","2857414","co38326","norming","","","","","","",""
"4147.9349999999395","","","post_mooney1_questions","survey-likert","274","1009711","0.0-6.0-2.38","2857414","co38326","norming","","","{""curiosity"":6,""confidence"":0}","[0,1]","../img/tt/1270tt.jpg","",""
"1093.9749999999767","","","recognition","survey-text","275","1010807","0.0-6.0-3.38","2857414","co38326","norming","","","{""guess"":""""}","","../img/tt/1270tt.jpg","",""
"null","../img/gs/1270gs.jpg","null","reveal","image-keyboard-response","276","1012811","0.0-6.0-4.38","2857414","co38326","norming","","","","","","",""
"null","../img/tt/1270tt.jpg","null","mooney2","image-keyboard-response","277","1014822","0.0-6.0-5.38","2857414","co38326","norming","","","","","","",""
"1870.6649999999208","","","post_reveal_questions","survey-likert","278","1016695","0.0-6.0-6.38","2857414","co38326","norming","","","{""aha"":6}","[0]","../img/tt/1270tt.jpg","",""
"null","<div style=""font-size:60px;""> </div>","null","fixation","html-keyboard-response","279","1016899","0.0-6.0-0.39","2857414","co38326","norming","","","","","","",""
"null","../img/tt/584tt.jpg","null","mooney1","image-keyboard-response","280","1019911","0.0-6.0-1.39","2857414","co38326","norming","","","","","","",""
"5909.040000000037","","","post_mooney1_questions","survey-likert","281","1025823","0.0-6.0-2.39","2857414","co38326","norming","","","{""curiosity"":6,""confidence"":0}","[0,1]","../img/tt/584tt.jpg","",""
"2478.109999999986","","","recognition","survey-text","282","1028303","0.0-6.0-3.39","2857414","co38326","norming","","","{""guess"":""vuur""}","","../img/tt/584tt.jpg","",""
"null","../img/gs/584gs.jpg","null","reveal","image-keyboard-response","283","1030310","0.0-6.0-4.39","2857414","co38326","norming","","","","","","",""
"null","../img/tt/584tt.jpg","null","mooney2","image-keyboard-response","284","1032313","0.0-6.0-5.39","2857414","co38326","norming","","","","","","",""
"3147.780000000028","","","post_reveal_questions","survey-likert","285","1035463","0.0-6.0-6.39","2857414","co38326","norming","","","{""aha"":6}","[0]","../img/tt/584tt.jpg","",""
"null","<div style=""font-size:60px;""> </div>","null","fixation","html-keyboard-response","286","1035668","0.0-6.0-0.40","2857414","co38326","norming","","","","","","",""
"null","../img/tt/1186tt.jpg","null","mooney1","image-keyboard-response","287","1038680","0.0-6.0-1.40","2857414","co38326","norming","","","","","","",""
"5564.385000000126","","","post_mooney1_questions","survey-likert","288","1044247","0.0-6.0-2.40","2857414","co38326","norming","","","{""curiosity"":4,""confidence"":4}","[0,1]","../img/tt/1186tt.jpg","",""
"4230.1049999997485","","","recognition","survey-text","289","1048479","0.0-6.0-3.40","2857414","co38326","norming","","","{""guess"":""rolschaatser""}","","../img/tt/1186tt.jpg","",""
"null","../img/gs/1186gs.jpg","null","reveal","image-keyboard-response","290","1050481","0.0-6.0-4.40","2857414","co38326","norming","","","","","","",""
"null","../img/tt/1186tt.jpg","null","mooney2","image-keyboard-response","291","1052483","0.0-6.0-5.40","2857414","co38326","norming","","","","","","",""
"3193.4499999999534","","","post_reveal_questions","survey-likert","292","1055679","0.0-6.0-6.40","2857414","co38326","norming","","","{""aha"":0}","[0]","../img/tt/1186tt.jpg","",""
"null","<div style=""font-size:60px;""> </div>","null","fixation","html-keyboard-response","293","1055883","0.0-6.0-0.41","2857414","co38326","norming","","","","","","",""
"null","../img/tt/1078tt.jpg","null","mooney1","image-keyboard-response","294","1058891","0.0-6.0-1.41","2857414","co38326","norming","","","","","","",""
"4504.764999999898","","","post_mooney1_questions","survey-likert","295","1063399","0.0-6.0-2.41","2857414","co38326","norming","","","{""curiosity"":1,""confidence"":5}","[0,1]","../img/tt/1078tt.jpg","",""
"2774.0800000000745","","","recognition","survey-text","296","1066175","0.0-6.0-3.41","2857414","co38326","norming","","","{""guess"":""skater""}","","../img/tt/1078tt.jpg","",""
"null","../img/gs/1078gs.jpg","null","reveal","image-keyboard-response","297","1068178","0.0-6.0-4.41","2857414","co38326","norming","","","","","","",""
"null","../img/tt/1078tt.jpg","null","mooney2","image-keyboard-response","298","1070180","0.0-6.0-5.41","2857414","co38326","norming","","","","","","",""
"2192.1750000000466","","","post_reveal_questions","survey-likert","299","1072375","0.0-6.0-6.41","2857414","co38326","norming","","","{""aha"":0}","[0]","../img/tt/1078tt.jpg","",""
"null","<div style=""font-size:60px;""> </div>","null","fixation","html-keyboard-response","300","1072583","0.0-6.0-0.42","2857414","co38326","norming","","","","","","",""
"null","../img/tt/1362tt.jpg","null","mooney1","image-keyboard-response","301","1075595","0.0-6.0-1.42","2857414","co38326","norming","","","","","","",""
"5752.880000000121","","","post_mooney1_questions","survey-likert","302","1081351","0.0-6.0-2.42","2857414","co38326","norming","","","{""curiosity"":3,""confidence"":3}","[0,1]","../img/tt/1362tt.jpg","",""
"4310.094999999972","","","recognition","survey-text","303","1085666","0.0-6.0-3.42","2857414","co38326","norming","","","{""guess"":""kookpotten""}","","../img/tt/1362tt.jpg","",""
"null","../img/gs/1362gs.jpg","null","reveal","image-keyboard-response","304","1087667","0.0-6.0-4.42","2857414","co38326","norming","","","","","","",""
"null","../img/tt/1362tt.jpg","null","mooney2","image-keyboard-response","305","1089679","0.0-6.0-5.42","2857414","co38326","norming","","","","","","",""
"1942.0999999998603","","","post_reveal_questions","survey-likert","306","1091626","0.0-6.0-6.42","2857414","co38326","norming","","","{""aha"":0}","[0]","../img/tt/1362tt.jpg","",""
"null","<div style=""font-size:60px;""> </div>","null","fixation","html-keyboard-response","307","1091835","0.0-6.0-0.43","2857414","co38326","norming","","","","","","",""
"null","../img/tt/279tt.jpg","null","mooney1","image-keyboard-response","308","1094841","0.0-6.0-1.43","2857414","co38326","norming","","","","","","",""
"12711.23999999999","","","post_mooney1_questions","survey-likert","309","1107555","0.0-6.0-2.43","2857414","co38326","norming","","","{""curiosity"":2,""confidence"":5}","[0,1]","../img/tt/279tt.jpg","",""
"1918.094999999972","","","recognition","survey-text","310","1109474","0.0-6.0-3.43","2857414","co38326","norming","","","{""guess"":""koala""}","","../img/tt/279tt.jpg","",""
"null","../img/gs/279gs.jpg","null","reveal","image-keyboard-response","311","1111476","0.0-6.0-4.43","2857414","co38326","norming","","","","","","",""
"null","../img/tt/279tt.jpg","null","mooney2","image-keyboard-response","312","1113478","0.0-6.0-5.43","2857414","co38326","norming","","","","","","",""
"2098.439999999944","","","post_reveal_questions","survey-likert","313","1115578","0.0-6.0-6.43","2857414","co38326","norming","","","{""aha"":5}","[0]","../img/tt/279tt.jpg","",""
"null","<div style=""font-size:60px;""> </div>","null","fixation","html-keyboard-response","314","1115781","0.0-6.0-0.44","2857414","co38326","norming","","","","","","",""
"null","../img/tt/603tt.jpg","null","mooney1","image-keyboard-response","315","1118790","0.0-6.0-1.44","2857414","co38326","norming","","","","","","",""
"4177.529999999795","","","post_mooney1_questions","survey-likert","316","1122970","0.0-6.0-2.44","2857414","co38326","norming","","","{""curiosity"":5,""confidence"":1}","[0,1]","../img/tt/603tt.jpg","",""
"1830.4200000001583","","","recognition","survey-text","317","1124802","0.0-6.0-3.44","2857414","co38326","norming","","","{""guess"":""uil""}","","../img/tt/603tt.jpg","",""
"null","../img/gs/603gs.jpg","null","reveal","image-keyboard-response","318","1126811","0.0-6.0-4.44","2857414","co38326","norming","","","","","","",""
"null","../img/tt/603tt.jpg","null","mooney2","image-keyboard-response","319","1128815","0.0-6.0-5.44","2857414","co38326","norming","","","","","","",""
"3256.844999999972","","","post_reveal_questions","survey-likert","320","1132074","0.0-6.0-6.44","2857414","co38326","norming","","","{""aha"":5}","[0]","../img/tt/603tt.jpg","",""
"null","<div style=""font-size:60px;""> </div>","null","fixation","html-keyboard-response","321","1132283","0.0-6.0-0.45","2857414","co38326","norming","","","","","","",""
"null","../img/tt/515tt.jpg","null","mooney1","image-keyboard-response","322","1135294","0.0-6.0-1.45","2857414","co38326","norming","","","","","","",""
"6392.885000000009","","","post_mooney1_questions","survey-likert","323","1141690","0.0-6.0-2.45","2857414","co38326","norming","","","{""curiosity"":5,""confidence"":0}","[0,1]","../img/tt/515tt.jpg","",""
"3158.33499999973","","","recognition","survey-text","324","1144847","0.0-6.0-3.45","2857414","co38326","norming","","","{""guess"":""zonnebril""}","","../img/tt/515tt.jpg","",""
"null","../img/gs/515gs.jpg","null","reveal","image-keyboard-response","325","1146850","0.0-6.0-4.45","2857414","co38326","norming","","","","","","",""
"null","../img/tt/515tt.jpg","null","mooney2","image-keyboard-response","326","1148861","0.0-6.0-5.45","2857414","co38326","norming","","","","","","",""
"2927.3599999998696","","","post_reveal_questions","survey-likert","327","1151791","0.0-6.0-6.45","2857414","co38326","norming","","","{""aha"":6}","[0]","../img/tt/515tt.jpg","",""
"null","<div style=""font-size:60px;""> </div>","null","fixation","html-keyboard-response","328","1151993","0.0-6.0-0.46","2857414","co38326","norming","","","","","","",""
"null","../img/tt/1002tt.jpg","null","mooney1","image-keyboard-response","329","1154997","0.0-6.0-1.46","2857414","co38326","norming","","","","","","",""
"3687.2950000001583","","","post_mooney1_questions","survey-likert","330","1158687","0.0-6.0-2.46","2857414","co38326","norming","","","{""curiosity"":5,""confidence"":1}","[0,1]","../img/tt/1002tt.jpg","",""
"3070.435000000056","","","recognition","survey-text","331","1161759","0.0-6.0-3.46","2857414","co38326","norming","","","{""guess"":""olifant""}","","../img/tt/1002tt.jpg","",""
"null","../img/gs/1002gs.jpg","null","reveal","image-keyboard-response","332","1163765","0.0-6.0-4.46","2857414","co38326","norming","","","","","","",""
"null","../img/tt/1002tt.jpg","null","mooney2","image-keyboard-response","333","1165776","0.0-6.0-5.46","2857414","co38326","norming","","","","","","",""
"3524.4200000001583","","","post_reveal_questions","survey-likert","334","1169303","0.0-6.0-6.46","2857414","co38326","norming","","","{""aha"":5}","[0]","../img/tt/1002tt.jpg","",""
"null","<div style=""font-size:60px;""> </div>","null","fixation","html-keyboard-response","335","1169505","0.0-6.0-0.47","2857414","co38326","norming","","","","","","",""
"null","../img/tt/105tt.jpg","null","mooney1","image-keyboard-response","336","1172508","0.0-6.0-1.47","2857414","co38326","norming","","","","","","",""
"5560.444999999832","","","post_mooney1_questions","survey-likert","337","1178071","0.0-6.0-2.47","2857414","co38326","norming","","","{""curiosity"":1,""confidence"":6}","[0,1]","../img/tt/105tt.jpg","",""
"3621.4900000002235","","","recognition","survey-text","338","1181695","0.0-6.0-3.47","2857414","co38326","norming","","","{""guess"":""paperclips""}","","../img/tt/105tt.jpg","",""
"null","../img/gs/105gs.jpg","null","reveal","image-keyboard-response","339","1183705","0.0-6.0-4.47","2857414","co38326","norming","","","","","","",""
"null","../img/tt/105tt.jpg","null","mooney2","image-keyboard-response","340","1185713","0.0-6.0-5.47","2857414","co38326","norming","","","","","","",""
"10947.664999999804","","","post_reveal_questions","survey-likert","341","1196663","0.0-6.0-6.47","2857414","co38326","norming","","","{""aha"":0}","[0]","../img/tt/105tt.jpg","",""
"null","<div style=""font-size:60px;""> </div>","null","fixation","html-keyboard-response","342","1196864","0.0-6.0-0.48","2857414","co38326","norming","","","","","","",""
"null","../img/tt/096tt.jpg","null","mooney1","image-keyboard-response","343","1199866","0.0-6.0-1.48","2857414","co38326","norming","","","","","","",""
"4136.73499999987","","","post_mooney1_questions","survey-likert","344","1204014","0.0-6.0-2.48","2857414","co38326","norming","","","{""curiosity"":4,""confidence"":1}","[0,1]","../img/tt/096tt.jpg","",""
"2246.5900000003166","","","recognition","survey-text","345","1206263","0.0-6.0-3.48","2857414","co38326","norming","","","{""guess"":""piano""}","","../img/tt/096tt.jpg","",""
"null","../img/gs/096gs.jpg","null","reveal","image-keyboard-response","346","1208268","0.0-6.0-4.48","2857414","co38326","norming","","","","","","",""
"null","../img/tt/096tt.jpg","null","mooney2","image-keyboard-response","347","1210271","0.0-6.0-5.48","2857414","co38326","norming","","","","","","",""
"3764.4950000001118","","","post_reveal_questions","survey-likert","348","1214038","0.0-6.0-6.48","2857414","co38326","norming","","","{""aha"":1}","[0]","../img/tt/096tt.jpg","",""
"null","<div style=""font-size:60px;""> </div>","null","fixation","html-keyboard-response","349","1214240","0.0-6.0-0.49","2857414","co38326","norming","","","","","","",""
"null","../img/tt/1268tt.jpg","null","mooney1","image-keyboard-response","350","1217246","0.0-6.0-1.49","2857414","co38326","norming","","","","","","",""
"5509.764999999898","","","post_mooney1_questions","survey-likert","351","1222759","0.0-6.0-2.49","2857414","co38326","norming","","","{""curiosity"":6,""confidence"":0}","[0,1]","../img/tt/1268tt.jpg","",""
"4254.074999999953","","","recognition","survey-text","352","1227015","0.0-6.0-3.49","2857414","co38326","norming","","","{""guess"":""golfer""}","","../img/tt/1268tt.jpg","",""
"null","../img/gs/1268gs.jpg","null","reveal","image-keyboard-response","353","1229017","0.0-6.0-4.49","2857414","co38326","norming","","","","","","",""
"null","../img/tt/1268tt.jpg","null","mooney2","image-keyboard-response","354","1231024","0.0-6.0-5.49","2857414","co38326","norming","","","","","","",""
"3363.685000000056","","","post_reveal_questions","survey-likert","355","1234391","0.0-6.0-6.49","2857414","co38326","norming","","","{""aha"":6}","[0]","../img/tt/1268tt.jpg","",""
"null","<div style=""font-size:60px;""> </div>","null","fixation","html-keyboard-response","356","1234592","0.0-6.0-0.50","2857414","co38326","norming","","","","","","",""
"null","../img/tt/481tt.jpg","null","mooney1","image-keyboard-response","357","1237604","0.0-6.0-1.50","2857414","co38326","norming","","","","","","",""
"3992.2950000001583","","","post_mooney1_questions","survey-likert","358","1241599","0.0-6.0-2.50","2857414","co38326","norming","","","{""curiosity"":4,""confidence"":2}","[0,1]","../img/tt/481tt.jpg","",""
"1942.219999999972","","","recognition","survey-text","359","1243543","0.0-6.0-3.50","2857414","co38326","norming","","","{""guess"":""hond""}","","../img/tt/481tt.jpg","",""
"null","../img/gs/481gs.jpg","null","reveal","image-keyboard-response","360","1245550","0.0-6.0-4.50","2857414","co38326","norming","","","","","","",""
"null","../img/tt/481tt.jpg","null","mooney2","image-keyboard-response","361","1247557","0.0-6.0-5.50","2857414","co38326","norming","","","","","","",""
"3159.7999999998137","","","post_reveal_questions","survey-likert","362","1250719","0.0-6.0-6.50","2857414","co38326","norming","","","{""aha"":4}","[0]","../img/tt/481tt.jpg","",""
"null","<div style=""font-size:60px;""> </div>","null","fixation","html-keyboard-response","363","1250924","0.0-6.0-0.51","2857414","co38326","norming","","","","","","",""
"null","../img/tt/082tt.jpg","null","mooney1","image-keyboard-response","364","1253936","0.0-6.0-1.51","2857414","co38326","norming","","","","","","",""
"5483.590000000084","","","post_mooney1_questions","survey-likert","365","1259423","0.0-6.0-2.51","2857414","co38326","norming","","","{""curiosity"":5,""confidence"":0}","[0,1]","../img/tt/082tt.jpg","",""
"2149.905000000028","","","recognition","survey-text","366","1261575","0.0-6.0-3.51","2857414","co38326","norming","","","{""guess"":""trap""}","","../img/tt/082tt.jpg","",""
"null","../img/gs/082gs.jpg","null","reveal","image-keyboard-response","367","1263578","0.0-6.0-4.51","2857414","co38326","norming","","","","","","",""
"null","../img/tt/082tt.jpg","null","mooney2","image-keyboard-response","368","1265580","0.0-6.0-5.51","2857414","co38326","norming","","","","","","",""
"2473.8050000001676","","","post_reveal_questions","survey-likert","369","1268057","0.0-6.0-6.51","2857414","co38326","norming","","","{""aha"":6}","[0]","../img/tt/082tt.jpg","",""
"null","<div style=""font-size:60px;""> </div>","null","fixation","html-keyboard-response","370","1268260","0.0-6.0-0.52","2857414","co38326","norming","","","","","","",""
"null","../img/tt/1363tt.jpg","null","mooney1","image-keyboard-response","371","1271266","0.0-6.0-1.52","2857414","co38326","norming","","","","","","",""
"5628.379999999888","","","post_mooney1_questions","survey-likert","372","1276897","0.0-6.0-2.52","2857414","co38326","norming","","","{""curiosity"":4,""confidence"":1}","[0,1]","../img/tt/1363tt.jpg","",""
"4998.130000000121","","","recognition","survey-text","373","1281897","0.0-6.0-3.52","2857414","co38326","norming","","","{""guess"":""kan met chocolade""}","","../img/tt/1363tt.jpg","",""
"null","../img/gs/1363gs.jpg","null","reveal","image-keyboard-response","374","1283906","0.0-6.0-4.52","2857414","co38326","norming","","","","","","",""
"null","../img/tt/1363tt.jpg","null","mooney2","image-keyboard-response","375","1285908","0.0-6.0-5.52","2857414","co38326","norming","","","","","","",""
"1698.6049999997485","","","post_reveal_questions","survey-likert","376","1287609","0.0-6.0-6.52","2857414","co38326","norming","","","{""aha"":0}","[0]","../img/tt/1363tt.jpg","",""
"null","<div style=""font-size:60px;""> </div>","null","fixation","html-keyboard-response","377","1287810","0.0-6.0-0.53","2857414","co38326","norming","","","","","","",""
"null","../img/tt/044tt.jpg","null","mooney1","image-keyboard-response","378","1290813","0.0-6.0-1.53","2857414","co38326","norming","","","","","","",""
"3457.5699999995995","","","post_mooney1_questions","survey-likert","379","1294273","0.0-6.0-2.53","2857414","co38326","norming","","","{""curiosity"":5,""confidence"":0}","[0,1]","../img/tt/044tt.jpg","",""
"1669.8300000000745","","","recognition","survey-text","380","1295945","0.0-6.0-3.53","2857414","co38326","norming","","","{""guess"":""bed""}","","../img/tt/044tt.jpg","",""
"null","../img/gs/044gs.jpg","null","reveal","image-keyboard-response","381","1297952","0.0-6.0-4.53","2857414","co38326","norming","","","","","","",""
"null","../img/tt/044tt.jpg","null","mooney2","image-keyboard-response","382","1299954","0.0-6.0-5.53","2857414","co38326","norming","","","","","","",""
"7156.514999999898","","","post_reveal_questions","survey-likert","383","1307113","0.0-6.0-6.53","2857414","co38326","norming","","","{""aha"":6}","[0]","../img/tt/044tt.jpg","",""
"null","<div style=""font-size:60px;""> </div>","null","fixation","html-keyboard-response","384","1307319","0.0-6.0-0.54","2857414","co38326","norming","","","","","","",""
"null","../img/tt/1143tt.jpg","null","mooney1","image-keyboard-response","385","1310331","0.0-6.0-1.54","2857414","co38326","norming","","","","","","",""
"3842.79000000027","","","post_mooney1_questions","survey-likert","386","1314177","0.0-6.0-2.54","2857414","co38326","norming","","","{""curiosity"":3,""confidence"":5}","[0,1]","../img/tt/1143tt.jpg","",""
"15813.88500000001","","","recognition","survey-text","387","1329993","0.0-6.0-3.54","2857414","co38326","norming","","","{""guess"":""fitnessfietsen""}","","../img/tt/1143tt.jpg","",""
"null","../img/gs/1143gs.jpg","null","reveal","image-keyboard-response","388","1331996","0.0-6.0-4.54","2857414","co38326","norming","","","","","","",""
"null","../img/tt/1143tt.jpg","null","mooney2","image-keyboard-response","389","1334004","0.0-6.0-5.54","2857414","co38326","norming","","","","","","",""
"2772.0749999999534","","","post_reveal_questions","survey-likert","390","1336777","0.0-6.0-6.54","2857414","co38326","norming","","","{""aha"":0}","[0]","../img/tt/1143tt.jpg","",""
"null","<div style=""font-size:60px;""> </div>","null","fixation","html-keyboard-response","391","1336982","0.0-6.0-0.55","2857414","co38326","norming","","","","","","",""
"null","../img/tt/032tt.jpg","null","mooney1","image-keyboard-response","392","1339986","0.0-6.0-1.55","2857414","co38326","norming","","","","","","",""
"4476.5800000000745","","","post_mooney1_questions","survey-likert","393","1344465","0.0-6.0-2.55","2857414","co38326","norming","","","{""curiosity"":5,""confidence"":1}","[0,1]","../img/tt/032tt.jpg","",""
"2198.0149999998976","","","recognition","survey-text","394","1346665","0.0-6.0-3.55","2857414","co38326","norming","","","{""guess"":""bever""}","","../img/tt/032tt.jpg","",""
"null","../img/gs/032gs.jpg","null","reveal","image-keyboard-response","395","1348668","0.0-6.0-4.55","2857414","co38326","norming","","","","","","",""
"null","../img/tt/032tt.jpg","null","mooney2","image-keyboard-response","396","1350679","0.0-6.0-5.55","2857414","co38326","norming","","","","","","",""
"3631.6599999996834","","","post_reveal_questions","survey-likert","397","1354313","0.0-6.0-6.55","2857414","co38326","norming","","","{""aha"":6}","[0]","../img/tt/032tt.jpg","",""
"null","<div style=""font-size:60px;""> </div>","null","fixation","html-keyboard-response","398","1354515","0.0-6.0-0.56","2857414","co38326","norming","","","","","","",""
"null","../img/tt/497tt.jpg","null","mooney1","image-keyboard-response","399","1357523","0.0-6.0-1.56","2857414","co38326","norming","","","","","","",""
"3403.3850000000093","","","post_mooney1_questions","survey-likert","400","1360929","0.0-6.0-2.56","2857414","co38326","norming","","","{""curiosity"":6,""confidence"":0}","[0,1]","../img/tt/497tt.jpg","",""
"3766.2000000001863","","","recognition","survey-text","401","1364697","0.0-6.0-3.56","2857414","co38326","norming","","","{""guess"":""kaas""}","","../img/tt/497tt.jpg","",""
"null","../img/gs/497gs.jpg","null","reveal","image-keyboard-response","402","1366703","0.0-6.0-4.56","2857414","co38326","norming","","","","","","",""
"null","../img/tt/497tt.jpg","null","mooney2","image-keyboard-response","403","1368705","0.0-6.0-5.56","2857414","co38326","norming","","","","","","",""
"2301.220000000205","","","post_reveal_questions","survey-likert","404","1371009","0.0-6.0-6.56","2857414","co38326","norming","","","{""aha"":5}","[0]","../img/tt/497tt.jpg","",""
"null","<div style=""font-size:60px;""> </div>","null","fixation","html-keyboard-response","405","1371217","0.0-6.0-0.57","2857414","co38326","norming","","","","","","",""
"null","../img/tt/194tt.jpg","null","mooney1","image-keyboard-response","406","1374221","0.0-6.0-1.57","2857414","co38326","norming","","","","","","",""
"5401.030000000028","","","post_mooney1_questions","survey-likert","407","1379625","0.0-6.0-2.57","2857414","co38326","norming","","","{""curiosity"":3,""confidence"":4}","[0,1]","../img/tt/194tt.jpg","",""
"4429.715000000084","","","recognition","survey-text","408","1384055","0.0-6.0-3.57","2857414","co38326","norming","","","{""guess"":""harpspeler""}","","../img/tt/194tt.jpg","",""
"null","../img/gs/194gs.jpg","null","reveal","image-keyboard-response","409","1386058","0.0-6.0-4.57","2857414","co38326","norming","","","","","","",""
"null","../img/tt/194tt.jpg","null","mooney2","image-keyboard-response","410","1388058","0.0-6.0-5.57","2857414","co38326","norming","","","","","","",""
"2436.5399999998044","","","post_reveal_questions","survey-likert","411","1390495","0.0-6.0-6.57","2857414","co38326","norming","","","{""aha"":0}","[0]","../img/tt/194tt.jpg","",""
"null","<div style=""font-size:60px;""> </div>","null","fixation","html-keyboard-response","412","1390697","0.0-6.0-0.58","2857414","co38326","norming","","","","","","",""
"null","../img/tt/1125tt.jpg","null","mooney1","image-keyboard-response","413","1393706","0.0-6.0-1.58","2857414","co38326","norming","","","","","","",""
"4673.40000000014","","","post_mooney1_questions","survey-likert","414","1398384","0.0-6.0-2.58","2857414","co38326","norming","","","{""curiosity"":5,""confidence"":0}","[0,1]","../img/tt/1125tt.jpg","",""
"2717.9350000002887","","","recognition","survey-text","415","1401103","0.0-6.0-3.58","2857414","co38326","norming","","","{""guess"":""""}","","../img/tt/1125tt.jpg","",""
"null","../img/gs/1125gs.jpg","null","reveal","image-keyboard-response","416","1403104","0.0-6.0-4.58","2857414","co38326","norming","","","","","","",""
"null","../img/tt/1125tt.jpg","null","mooney2","image-keyboard-response","417","1405108","0.0-6.0-5.58","2857414","co38326","norming","","","","","","",""
"2704.9399999997113","","","post_reveal_questions","survey-likert","418","1407816","0.0-6.0-6.58","2857414","co38326","norming","","","{""aha"":6}","[0]","../img/tt/1125tt.jpg","",""
"null","<div style=""font-size:60px;""> </div>","null","fixation","html-keyboard-response","419","1408018","0.0-6.0-0.59","2857414","co38326","norming","","","","","","",""
"null","../img/tt/1275tt.jpg","null","mooney1","image-keyboard-response","420","1411025","0.0-6.0-1.59","2857414","co38326","norming","","","","","","",""
"11571.605000000214","","","post_mooney1_questions","survey-likert","421","1422600","0.0-6.0-2.59","2857414","co38326","norming","","","{""curiosity"":5,""confidence"":1}","[0,1]","../img/tt/1275tt.jpg","",""
"3854.1500000001397","","","recognition","survey-text","422","1426456","0.0-6.0-3.59","2857414","co38326","norming","","","{""guess"":""vlinder""}","","../img/tt/1275tt.jpg","",""
"null","../img/gs/1275gs.jpg","null","reveal","image-keyboard-response","423","1428466","0.0-6.0-4.59","2857414","co38326","norming","","","","","","",""
"null","../img/tt/1275tt.jpg","null","mooney2","image-keyboard-response","424","1430475","0.0-6.0-5.59","2857414","co38326","norming","","","","","","",""
"2369.5800000000745","","","post_reveal_questions","survey-likert","425","1432847","0.0-6.0-6.59","2857414","co38326","norming","","","{""aha"":6}","[0]","../img/tt/1275tt.jpg","",""
"null","<div style=""font-size:60px;""> </div>","null","fixation","html-keyboard-response","426","1433058","0.0-6.0-0.60","2857414","co38326","norming","","","","","","",""
"null","../img/tt/1107tt.jpg","null","mooney1","image-keyboard-response","427","1436062","0.0-6.0-1.60","2857414","co38326","norming","","","","","","",""
"4696.459999999963","","","post_mooney1_questions","survey-likert","428","1440760","0.0-6.0-2.60","2857414","co38326","norming","","","{""curiosity"":6,""confidence"":1}","[0,1]","../img/tt/1107tt.jpg","",""
"2862.149999999907","","","recognition","survey-text","429","1443624","0.0-6.0-3.60","2857414","co38326","norming","","","{""guess"":""katten""}","","../img/tt/1107tt.jpg","",""
"null","../img/gs/1107gs.jpg","null","reveal","image-keyboard-response","430","1445633","0.0-6.0-4.60","2857414","co38326","norming","","","","","","",""
"null","../img/tt/1107tt.jpg","null","mooney2","image-keyboard-response","431","1447636","0.0-6.0-5.60","2857414","co38326","norming","","","","","","",""
"2586.7700000002515","","","post_reveal_questions","survey-likert","432","1450225","0.0-6.0-6.60","2857414","co38326","norming","","","{""aha"":2}","[0]","../img/tt/1107tt.jpg","",""
"null","<div style=""font-size:60px;""> </div>","null","fixation","html-keyboard-response","433","1450428","0.0-6.0-0.61","2857414","co38326","norming","","","","","","",""
"null","../img/tt/416tt.jpg","null","mooney1","image-keyboard-response","434","1453432","0.0-6.0-1.61","2857414","co38326","norming","","","","","","",""
"4013.725000000093","","","post_mooney1_questions","survey-likert","435","1457449","0.0-6.0-2.61","2857414","co38326","norming","","","{""curiosity"":3,""confidence"":3}","[0,1]","../img/tt/416tt.jpg","",""
"2989.850000000093","","","recognition","survey-text","436","1460441","0.0-6.0-3.61","2857414","co38326","norming","","","{""guess"":""struisvogel""}","","../img/tt/416tt.jpg","",""
"null","../img/gs/416gs.jpg","null","reveal","image-keyboard-response","437","1462444","0.0-6.0-4.61","2857414","co38326","norming","","","","","","",""
"null","../img/tt/416tt.jpg","null","mooney2","image-keyboard-response","438","1464452","0.0-6.0-5.61","2857414","co38326","norming","","","","","","",""
"5170.6450000002515","","","post_reveal_questions","survey-likert","439","1469625","0.0-6.0-6.61","2857414","co38326","norming","","","{""aha"":0}","[0]","../img/tt/416tt.jpg","",""
"null","<div style=""font-size:60px;""> </div>","null","fixation","html-keyboard-response","440","1469835","0.0-6.0-0.62","2857414","co38326","norming","","","","","","",""
"null","../img/tt/270tt.jpg","null","mooney1","image-keyboard-response","441","1472839","0.0-6.0-1.62","2857414","co38326","norming","","","","","","",""
"3150.5150000001304","","","post_mooney1_questions","survey-likert","442","1475993","0.0-6.0-2.62","2857414","co38326","norming","","","{""curiosity"":5,""confidence"":1}","[0,1]","../img/tt/270tt.jpg","",""
"1822.3149999999441","","","recognition","survey-text","443","1477817","0.0-6.0-3.62","2857414","co38326","norming","","","{""guess"":""eland""}","","../img/tt/270tt.jpg","",""
"null","../img/gs/270gs.jpg","null","reveal","image-keyboard-response","444","1479826","0.0-6.0-4.62","2857414","co38326","norming","","","","","","",""
"null","../img/tt/270tt.jpg","null","mooney2","image-keyboard-response","445","1481827","0.0-6.0-5.62","2857414","co38326","norming","","","","","","",""
"1490.0500000000466","","","post_reveal_questions","survey-likert","446","1483321","0.0-6.0-6.62","2857414","co38326","norming","","","{""aha"":0}","[0]","../img/tt/270tt.jpg","",""
"null","<div style=""font-size:60px;""> </div>","null","fixation","html-keyboard-response","447","1483523","0.0-6.0-0.63","2857414","co38326","norming","","","","","","",""
"null","../img/tt/1278tt.jpg","null","mooney1","image-keyboard-response","448","1486533","0.0-6.0-1.63","2857414","co38326","norming","","","","","","",""
"4009.1350000000093","","","post_mooney1_questions","survey-likert","449","1490545","0.0-6.0-2.63","2857414","co38326","norming","","","{""curiosity"":4,""confidence"":2}","[0,1]","../img/tt/1278tt.jpg","",""
"1638.030000000028","","","recognition","survey-text","450","1492185","0.0-6.0-3.63","2857414","co38326","norming","","","{""guess"":""hond""}","","../img/tt/1278tt.jpg","",""
"null","../img/gs/1278gs.jpg","null","reveal","image-keyboard-response","451","1494187","0.0-6.0-4.63","2857414","co38326","norming","","","","","","",""
"null","../img/tt/1278tt.jpg","null","mooney2","image-keyboard-response","452","1496190","0.0-6.0-5.63","2857414","co38326","norming","","","","","","",""
"1913.2650000001304","","","post_reveal_questions","survey-likert","453","1498105","0.0-6.0-6.63","2857414","co38326","norming","","","{""aha"":6}","[0]","../img/tt/1278tt.jpg","",""
"null","<div style=""font-size:60px;""> </div>","null","fixation","html-keyboard-response","454","1498307","0.0-6.0-0.64","2857414","co38326","norming","","","","","","",""
"null","../img/tt/1235tt.jpg","null","mooney1","image-keyboard-response","455","1501319","0.0-6.0-1.64","2857414","co38326","norming","","","","","","",""
"5870.675000000047","","","post_mooney1_questions","survey-likert","456","1507194","0.0-6.0-2.64","2857414","co38326","norming","","","{""curiosity"":6,""confidence"":1}","[0,1]","../img/tt/1235tt.jpg","",""
"5134.14000000013","","","recognition","survey-text","457","1512330","0.0-6.0-3.64","2857414","co38326","norming","","","{""guess"":""haan""}","","../img/tt/1235tt.jpg","",""
"null","../img/gs/1235gs.jpg","null","reveal","image-keyboard-response","458","1514333","0.0-6.0-4.64","2857414","co38326","norming","","","","","","",""
"null","../img/tt/1235tt.jpg","null","mooney2","image-keyboard-response","459","1516337","0.0-6.0-5.64","2857414","co38326","norming","","","","","","",""
"1710.2099999999627","","","post_reveal_questions","survey-likert","460","1518049","0.0-6.0-6.64","2857414","co38326","norming","","","{""aha"":6}","[0]","../img/tt/1235tt.jpg","",""
"null","<div style=""font-size:60px;""> </div>","null","fixation","html-keyboard-response","461","1518255","0.0-6.0-0.65","2857414","co38326","norming","","","","","","",""
"null","../img/tt/118tt.jpg","null","mooney1","image-keyboard-response","462","1521260","0.0-6.0-1.65","2857414","co38326","norming","","","","","","",""
"7210.829999999842","","","post_mooney1_questions","survey-likert","463","1528474","0.0-6.0-2.65","2857414","co38326","norming","","","{""curiosity"":5,""confidence"":1}","[0,1]","../img/tt/118tt.jpg","",""
"1837.7350000001024","","","recognition","survey-text","464","1530313","0.0-6.0-3.65","2857414","co38326","norming","","","{""guess"":""stoel""}","","../img/tt/118tt.jpg","",""
"null","../img/gs/118gs.jpg","null","reveal","image-keyboard-response","465","1532314","0.0-6.0-4.65","2857414","co38326","norming","","","","","","",""
"null","../img/tt/118tt.jpg","null","mooney2","image-keyboard-response","466","1534318","0.0-6.0-5.65","2857414","co38326","norming","","","","","","",""
"5600.64000000013","","","post_reveal_questions","survey-likert","467","1539922","0.0-6.0-6.65","2857414","co38326","norming","","","{""aha"":0}","[0]","../img/tt/118tt.jpg","",""
"null","<div style=""font-size:60px;""> </div>","null","fixation","html-keyboard-response","468","1540124","0.0-6.0-0.66","2857414","co38326","norming","","","","","","",""
"null","../img/tt/405tt.jpg","null","mooney1","image-keyboard-response","469","1543126","0.0-6.0-1.66","2857414","co38326","norming","","","","","","",""
"3344.6550000002608","","","post_mooney1_questions","survey-likert","470","1546474","0.0-6.0-2.66","2857414","co38326","norming","","","{""curiosity"":5,""confidence"":1}","[0,1]","../img/tt/405tt.jpg","",""
"2686.0699999998324","","","recognition","survey-text","471","1549162","0.0-6.0-3.66","2857414","co38326","norming","","","{""guess"":""brood""}","","../img/tt/405tt.jpg","",""
"null","../img/gs/405gs.jpg","null","reveal","image-keyboard-response","472","1551167","0.0-6.0-4.66","2857414","co38326","norming","","","","","","",""
"null","../img/tt/405tt.jpg","null","mooney2","image-keyboard-response","473","1553169","0.0-6.0-5.66","2857414","co38326","norming","","","","","","",""
"3397.685000000056","","","post_reveal_questions","survey-likert","474","1556570","0.0-6.0-6.66","2857414","co38326","norming","","","{""aha"":6}","[0]","../img/tt/405tt.jpg","",""
"null","<div style=""font-size:60px;""> </div>","null","fixation","html-keyboard-response","475","1556778","0.0-6.0-0.67","2857414","co38326","norming","","","","","","",""
"null","../img/tt/084tt.jpg","null","mooney1","image-keyboard-response","476","1559787","0.0-6.0-1.67","2857414","co38326","norming","","","","","","",""
"4266.760000000009","","","post_mooney1_questions","survey-likert","477","1564058","0.0-6.0-2.67","2857414","co38326","norming","","","{""curiosity"":3,""confidence"":3}","[0,1]","../img/tt/084tt.jpg","",""
"3390.2900000000373","","","recognition","survey-text","478","1567449","0.0-6.0-3.67","2857414","co38326","norming","","","{""guess"":""vogel""}","","../img/tt/084tt.jpg","",""
"null","../img/gs/084gs.jpg","null","reveal","image-keyboard-response","479","1569460","0.0-6.0-4.67","2857414","co38326","norming","","","","","","",""
"null","../img/tt/084tt.jpg","null","mooney2","image-keyboard-response","480","1571465","0.0-6.0-5.67","2857414","co38326","norming","","","","","","",""
"3582.100000000093","","","post_reveal_questions","survey-likert","481","1575049","0.0-6.0-6.67","2857414","co38326","norming","","","{""aha"":1}","[0]","../img/tt/084tt.jpg","",""
"null","<div style=""font-size:60px;""> </div>","null","fixation","html-keyboard-response","482","1575251","0.0-6.0-0.68","2857414","co38326","norming","","","","","","",""
"null","../img/tt/091tt.jpg","null","mooney1","image-keyboard-response","483","1578261","0.0-6.0-1.68","2857414","co38326","norming","","","","","","",""
"5881.02500000014","","","post_mooney1_questions","survey-likert","484","1584146","0.0-6.0-2.68","2857414","co38326","norming","","","{""curiosity"":4,""confidence"":1}","[0,1]","../img/tt/091tt.jpg","",""
"2086.1099999998696","","","recognition","survey-text","485","1586234","0.0-6.0-3.68","2857414","co38326","norming","","","{""guess"":""hond""}","","../img/tt/091tt.jpg","",""
"null","../img/gs/091gs.jpg","null","reveal","image-keyboard-response","486","1588235","0.0-6.0-4.68","2857414","co38326","norming","","","","","","",""
"null","../img/tt/091tt.jpg","null","mooney2","image-keyboard-response","487","1590242","0.0-6.0-5.68","2857414","co38326","norming","","","","","","",""
"2780.6150000002235","","","post_reveal_questions","survey-likert","488","1593025","0.0-6.0-6.68","2857414","co38326","norming","","","{""aha"":6}","[0]","../img/tt/091tt.jpg","",""
"null","<div style=""font-size:60px;""> </div>","null","fixation","html-keyboard-response","489","1593232","0.0-6.0-0.69","2857414","co38326","norming","","","","","","",""
"null","../img/tt/1146tt.jpg","null","mooney1","image-keyboard-response","490","1596234","0.0-6.0-1.69","2857414","co38326","norming","","","","","","",""
"4940.120000000112","","","post_mooney1_questions","survey-likert","491","1601178","0.0-6.0-2.69","2857414","co38326","norming","","","{""curiosity"":6,""confidence"":0}","[0,1]","../img/tt/1146tt.jpg","",""
"845.815000000177","","","recognition","survey-text","492","1602025","0.0-6.0-3.69","2857414","co38326","norming","","","{""guess"":""""}","","../img/tt/1146tt.jpg","",""
"null","../img/gs/1146gs.jpg","null","reveal","image-keyboard-response","493","1604026","0.0-6.0-4.69","2857414","co38326","norming","","","","","","",""
"null","../img/tt/1146tt.jpg","null","mooney2","image-keyboard-response","494","1606030","0.0-6.0-5.69","2857414","co38326","norming","","","","","","",""
"2378.195000000065","","","post_reveal_questions","survey-likert","495","1608410","0.0-6.0-6.69","2857414","co38326","norming","","","{""aha"":6}","[0]","../img/tt/1146tt.jpg","",""
"null","<div style=""font-size:60px;""> </div>","null","fixation","html-keyboard-response","496","1608616","0.0-6.0-0.70","2857414","co38326","norming","","","","","","",""
"null","../img/tt/418tt.jpg","null","mooney1","image-keyboard-response","497","1611619","0.0-6.0-1.70","2857414","co38326","norming","","","","","","",""
"4875.1150000002235","","","post_mooney1_questions","survey-likert","498","1616497","0.0-6.0-2.70","2857414","co38326","norming","","","{""curiosity"":3,""confidence"":4}","[0,1]","../img/tt/418tt.jpg","",""
"4150.320000000065","","","recognition","survey-text","499","1620649","0.0-6.0-3.70","2857414","co38326","norming","","","{""guess"":""tomaten""}","","../img/tt/418tt.jpg","",""
"null","../img/gs/418gs.jpg","null","reveal","image-keyboard-response","500","1622658","0.0-6.0-4.70","2857414","co38326","norming","","","","","","",""
"null","../img/tt/418tt.jpg","null","mooney2","image-keyboard-response","501","1624669","0.0-6.0-5.70","2857414","co38326","norming","","","","","","",""
"1954.0349999999162","","","post_reveal_questions","survey-likert","502","1626626","0.0-6.0-6.70","2857414","co38326","norming","","","{""aha"":0}","[0]","../img/tt/418tt.jpg","",""
"null","<div style=""font-size:60px;""> </div>","null","fixation","html-keyboard-response","503","1626834","0.0-6.0-0.71","2857414","co38326","norming","","","","","","",""
"null","../img/tt/010tt.jpg","null","mooney1","image-keyboard-response","504","1629842","0.0-6.0-1.71","2857414","co38326","norming","","","","","","",""
"4330.975000000093","","","post_mooney1_questions","survey-likert","505","1634177","0.0-6.0-2.71","2857414","co38326","norming","","","{""curiosity"":5,""confidence"":1}","[0,1]","../img/tt/010tt.jpg","",""
"3222.149999999674","","","recognition","survey-text","506","1637401","0.0-6.0-3.71","2857414","co38326","norming","","","{""guess"":""trofee""}","","../img/tt/010tt.jpg","",""
"null","../img/gs/010gs.jpg","null","reveal","image-keyboard-response","507","1639402","0.0-6.0-4.71","2857414","co38326","norming","","","","","","",""
"null","../img/tt/010tt.jpg","null","mooney2","image-keyboard-response","508","1641411","0.0-6.0-5.71","2857414","co38326","norming","","","","","","",""
"3171.3599999998696","","","post_reveal_questions","survey-likert","509","1644585","0.0-6.0-6.71","2857414","co38326","norming","","","{""aha"":6}","[0]","../img/tt/010tt.jpg","",""
"null","<div style=""font-size:60px;""> </div>","null","fixation","html-keyboard-response","510","1644788","0.0-6.0-0.72","2857414","co38326","norming","","","","","","",""
"null","../img/tt/315tt.jpg","null","mooney1","image-keyboard-response","511","1647792","0.0-6.0-1.72","2857414","co38326","norming","","","","","","",""
"6054.209999999963","","","post_mooney1_questions","survey-likert","512","1653849","0.0-6.0-2.72","2857414","co38326","norming","","","{""curiosity"":6,""confidence"":0}","[0,1]","../img/tt/315tt.jpg","",""
"717.9299999999348","","","recognition","survey-text","513","1654569","0.0-6.0-3.72","2857414","co38326","norming","","","{""guess"":""""}","","../img/tt/315tt.jpg","",""
"null","../img/gs/315gs.jpg","null","reveal","image-keyboard-response","514","1656570","0.0-6.0-4.72","2857414","co38326","norming","","","","","","",""
"null","../img/tt/315tt.jpg","null","mooney2","image-keyboard-response","515","1658582","0.0-6.0-5.72","2857414","co38326","norming","","","","","","",""
"2512.8950000000186","","","post_reveal_questions","survey-likert","516","1661097","0.0-6.0-6.72","2857414","co38326","norming","","","{""aha"":6}","[0]","../img/tt/315tt.jpg","",""
"null","<div style=""font-size:60px;""> </div>","null","fixation","html-keyboard-response","517","1661306","0.0-6.0-0.73","2857414","co38326","norming","","","","","","",""
"null","../img/tt/358tt.jpg","null","mooney1","image-keyboard-response","518","1664315","0.0-6.0-1.73","2857414","co38326","norming","","","","","","",""
"4395.379999999888","","","post_mooney1_questions","survey-likert","519","1668714","0.0-6.0-2.73","2857414","co38326","norming","","","{""curiosity"":6,""confidence"":0}","[0,1]","../img/tt/358tt.jpg","",""
"2925.9500000001863","","","recognition","survey-text","520","1671641","0.0-6.0-3.73","2857414","co38326","norming","","","{""guess"":""vleermuis""}","","../img/tt/358tt.jpg","",""
"null","../img/gs/358gs.jpg","null","reveal","image-keyboard-response","521","1673648","0.0-6.0-4.73","2857414","co38326","norming","","","","","","",""
"null","../img/tt/358tt.jpg","null","mooney2","image-keyboard-response","522","1675656","0.0-6.0-5.73","2857414","co38326","norming","","","","","","",""
"6655.034999999916","","","post_reveal_questions","survey-likert","523","1682313","0.0-6.0-6.73","2857414","co38326","norming","","","{""aha"":6}","[0]","../img/tt/358tt.jpg","",""
"null","<div style=""font-size:60px;""> </div>","null","fixation","html-keyboard-response","524","1682514","0.0-6.0-0.74","2857414","co38326","norming","","","","","","",""
"null","../img/tt/013tt.jpg","null","mooney1","image-keyboard-response","525","1685518","0.0-6.0-1.74","2857414","co38326","norming","","","","","","",""
"4104.60999999987","","","post_mooney1_questions","survey-likert","526","1689625","0.0-6.0-2.74","2857414","co38326","norming","","","{""curiosity"":5,""confidence"":1}","[0,1]","../img/tt/013tt.jpg","",""
"2237.815000000177","","","recognition","survey-text","527","1691864","0.0-6.0-3.74","2857414","co38326","norming","","","{""guess"":""paard""}","","../img/tt/013tt.jpg","",""
"null","../img/gs/013gs.jpg","null","reveal","image-keyboard-response","528","1693866","0.0-6.0-4.74","2857414","co38326","norming","","","","","","",""
"null","../img/tt/013tt.jpg","null","mooney2","image-keyboard-response","529","1695868","0.0-6.0-5.74","2857414","co38326","norming","","","","","","",""
"2450.1450000000186","","","post_reveal_questions","survey-likert","530","1698320","0.0-6.0-6.74","2857414","co38326","norming","","","{""aha"":5}","[0]","../img/tt/013tt.jpg","",""
"null","<div style=""font-size:60px;""> </div>","null","fixation","html-keyboard-response","531","1698530","0.0-6.0-0.75","2857414","co38326","norming","","","","","","",""
"null","../img/tt/126tt.jpg","null","mooney1","image-keyboard-response","532","1701543","0.0-6.0-1.75","2857414","co38326","norming","","","","","","",""
"6196.744999999879","","","post_mooney1_questions","survey-likert","533","1707744","0.0-6.0-2.75","2857414","co38326","norming","","","{""curiosity"":2,""confidence"":5}","[0,1]","../img/tt/126tt.jpg","",""
"2742.1299999998882","","","recognition","survey-text","534","1710488","0.0-6.0-3.75","2857414","co38326","norming","","","{""guess"":""koe""}","","../img/tt/126tt.jpg","",""
"null","../img/gs/126gs.jpg","null","reveal","image-keyboard-response","535","1712495","0.0-6.0-4.75","2857414","co38326","norming","","","","","","",""
"null","../img/tt/126tt.jpg","null","mooney2","image-keyboard-response","536","1714505","0.0-6.0-5.75","2857414","co38326","norming","","","","","","",""
"2060.214999999851","","","post_reveal_questions","survey-likert","537","1716568","0.0-6.0-6.75","2857414","co38326","norming","","","{""aha"":0}","[0]","../img/tt/126tt.jpg","",""
"null","<div style=""font-size:60px;""> </div>","null","fixation","html-keyboard-response","538","1716770","0.0-6.0-0.76","2857414","co38326","norming","","","","","","",""
"null","../img/tt/1127tt.jpg","null","mooney1","image-keyboard-response","539","1719780","0.0-6.0-1.76","2857414","co38326","norming","","","","","","",""
"5208.684999999823","","","post_mooney1_questions","survey-likert","540","1724993","0.0-6.0-2.76","2857414","co38326","norming","","","{""curiosity"":5,""confidence"":1}","[0,1]","../img/tt/1127tt.jpg","",""
"5429.809999999823","","","recognition","survey-text","541","1730424","0.0-6.0-3.76","2857414","co38326","norming","","","{""guess"":""ober""}","","../img/tt/1127tt.jpg","",""
"null","../img/gs/1127gs.jpg","null","reveal","image-keyboard-response","542","1732432","0.0-6.0-4.76","2857414","co38326","norming","","","","","","",""
"null","../img/tt/1127tt.jpg","null","mooney2","image-keyboard-response","543","1734434","0.0-6.0-5.76","2857414","co38326","norming","","","","","","",""
"2483.964999999851","","","post_reveal_questions","survey-likert","544","1736920","0.0-6.0-6.76","2857414","co38326","norming","","","{""aha"":5}","[0]","../img/tt/1127tt.jpg","",""
"null","<div style=""font-size:60px;""> </div>","null","fixation","html-keyboard-response","545","1737128","0.0-6.0-0.77","2857414","co38326","norming","","","","","","",""
"null","../img/tt/1353tt.jpg","null","mooney1","image-keyboard-response","546","1740129","0.0-6.0-1.77","2857414","co38326","norming","","","","","","",""
"4806.739999999991","","","post_mooney1_questions","survey-likert","547","1744937","0.0-6.0-2.77","2857414","co38326","norming","","","{""curiosity"":5,""confidence"":0}","[0,1]","../img/tt/1353tt.jpg","",""
"573.934999999823","","","recognition","survey-text","548","1745512","0.0-6.0-3.77","2857414","co38326","norming","","","{""guess"":""""}","","../img/tt/1353tt.jpg","",""
"null","../img/gs/1353gs.jpg","null","reveal","image-keyboard-response","549","1747522","0.0-6.0-4.77","2857414","co38326","norming","","","","","","",""
"null","../img/tt/1353tt.jpg","null","mooney2","image-keyboard-response","550","1749533","0.0-6.0-5.77","2857414","co38326","norming","","","","","","",""
"6426.189999999711","","","post_reveal_questions","survey-likert","551","1755962","0.0-6.0-6.77","2857414","co38326","norming","","","{""aha"":6}","[0]","../img/tt/1353tt.jpg","",""
