"rt","stimulus","key_press","test_part","trial_type","trial_index","time_elapsed","internal_node_id","totalTime","subject","experiment_name","button_pressed","success","responses","question_order","currentStim","old","correct"
"14370.514999958687","Welcome to the experiment. This is an online experiment so please don't close the tab/window until we say goodbye.  Press any key to begin.","32","instructions","html-keyboard-response","0","14777","0.0-0.0","4219606","co38212","norming","","","","","","",""
"21414.23500003293","<div style='word-wrap: break-word; width: 900px'><h3>Please consider this information carefully before deciding whether to participate in this research</h3><ul style='text-align: left; font-size: .8em;'><li><b>Purpose of the research</b>: To examine how people process images.</li><li><b>What you will do in this research</b>:  Stimuli (images) will be presented on the computer and you will be asked different questions about them.</li><li><b>Time required</b>: Participation will take between 45 and 60 minutes to complete.</li><li><b>Risks</b>:  There are no anticipated risks associated with participating in this study. The effects of participating should be comparable to those you would experience from viewing a computer monitor for 30 minutes and using a mouse or keyboard.</li><li><b>Benefits</b>:  This study provides no benefits to you individually except for the credit. The study provides important information about the nature of perception and learning.</li><li><b>Confidentiality</b>:  Your participation in this study will remain confidential. No personally identifiable information will be associated with your data. Your de-identified data may be shared with other researchers and used in future projects.</li><li><b>Participation and withdrawal</b>:  Your participation in this study is completely voluntary and you may refuse to participate or you may choose to withdraw at any time without penalty.</li><li><b>How to contact the researchers</b>: If you have questions or concerns about your participation or payment, or want to request a summary of research findings, please contact Sander Van de Cruys (KU Leuven), at sander.vandecruys@kuleuven.be.</li></ul><p>The nature and purpose of this research have been sufficiently explained and I agree to participate in this study.  I understand that I am free to withdraw at any time without incurring any penalty.</p><p>Please consent by clicking the button below to continue. Otherwise, please exit the study at this time.</p></div>","","instructions","html-button-response","1","36195","0.0-1.0","4219606","co38212","norming","0","","","","","",""
"","","","instructions","fullscreen","2","40294","0.0-2.0","4219606","co38212","norming","","true","","","","",""
"61324.7749999864","","","sona","survey-html-form","3","101625","0.0-3.0","4219606","co38212","norming","","","[{""name"":""sonaid"",""value"":""38212""},{""name"":""debrief"",""value"":""yes""},{""name"":""datajoin"",""value"":""yes""}]","","","",""
"141265.80499997362","<div style='word-wrap: break-word; width: 900px'><h3>Instructions</h3><p>This experiment will have 3 parts. In the first part you will see a series of distorted images like the one below on the left. As you can see in the righthand image, the distorted images are derived from actual photographs. In what follows, you will <strong>briefly</strong> be presented with <strong>only</strong> the distorted image.</p> <div style='float: left; margin-right: 20px;'><img src='../img/018tt.jpg' height='250' width='250'></img></div><div style='float: right; margin-left: 20px;'><img src='../img/018gs.jpg' height='250' width='250'></img></div><p>Subsequently you will be asked a few questions about the image: One question on how <strong>curious</strong> you are about the solution and one on how <strong>confident</strong> you are that you know the solution.</p>Next, we ask you to make a guess on what is in the image. Note that it is OK to name just the <strong>basic level category</strong>. For example when you see a parrot in the image, 'parrot' will obviously be a correct answer but also correct is 'bird'. However, 'animal' will <strong>not</strong> be counted as a correct response. For the example above, 'rose' would be correct or 'flower', but not 'plant'. When soccer players are depicted, 'soccer', 'football', 'soccer players' will be correct, but not 'humans', 'outdoors', or 'sports'. You do not need to describe the image in full, just name the main object in it <strong>in one or two words</strong>. All images depict objects from one of the following broad level categories: animals, inanimate objects, plants, sports, vehicles, and food. Recognizing means knowing <strong>more</strong> than these broad labels for a given image. But we always encourage you to <strong>make a guess</strong> if you can. Note that you are allowed to use <strong>Dutch and English</strong> in your answers, whatever comes easiest for you.</p><p>Press any key to continue.</p></div>","32","instructions","html-keyboard-response","4","242895","0.0-4.0","4219606","co38212","norming","","","","","","",""
"19342.735000071116","<div style='word-wrap: break-word; width: 900px'><h3>Instructions</h3> <p>Next, the solution image will be revealed to you and you'll be asked to indicate how strong your <strong>aha-experience</strong> was after seeing the solution. This describes the positive feeling of the 'click' you sometimes experience, when the pieces of the 'puzzle' fall together and you suddenly have 'insight' in the image.</p><img src='aha.jpg' height='188' width='250'></img><p>Note that there are no right or wrong answers. We are interested in what <strong>you</strong> see in the image and how <strong>you</strong> feel about it.</p><p>Press any key to start the experiment.</p></div>","32","instructions","html-keyboard-response","5","262240","0.0-5.0","4219606","co38212","norming","","","","","","",""
"null","<div style=""font-size:60px;""> </div>","null","fixation","html-keyboard-response","6","262443","0.0-6.0-0.0","4219606","co38212","norming","","","","","","",""
"null","../img/tt/1101tt.jpg","null","mooney1","image-keyboard-response","7","265451","0.0-6.0-1.0","4219606","co38212","norming","","","","","","",""
"9530.335000017658","","","post_mooney1_questions","survey-likert","8","274984","0.0-6.0-2.0","4219606","co38212","norming","","","{""curiosity"":4,""confidence"":1}","[0,1]","../img/tt/1101tt.jpg","",""
"16562.455000006594","","","recognition","survey-text","9","291551","0.0-6.0-3.0","4219606","co38212","norming","","","{""guess"":""ruimtevaarder""}","","../img/tt/1101tt.jpg","",""
"null","../img/gs/1101gs.jpg","null","reveal","image-keyboard-response","10","293558","0.0-6.0-4.0","4219606","co38212","norming","","","","","","",""
"null","../img/tt/1101tt.jpg","null","mooney2","image-keyboard-response","11","295563","0.0-6.0-5.0","4219606","co38212","norming","","","","","","",""
"4309.70499990508","","","post_reveal_questions","survey-likert","12","299875","0.0-6.0-6.0","4219606","co38212","norming","","","{""aha"":5}","[0]","../img/tt/1101tt.jpg","",""
"null","<div style=""font-size:60px;""> </div>","null","fixation","html-keyboard-response","13","300084","0.0-6.0-0.1","4219606","co38212","norming","","","","","","",""
"null","../img/tt/1061tt.jpg","null","mooney1","image-keyboard-response","14","303086","0.0-6.0-1.1","4219606","co38212","norming","","","","","","",""
"11381.309999967925","","","post_mooney1_questions","survey-likert","15","314470","0.0-6.0-2.1","4219606","co38212","norming","","","{""curiosity"":4,""confidence"":2}","[0,1]","../img/tt/1061tt.jpg","",""
"4623.870000010356","","","recognition","survey-text","16","319098","0.0-6.0-3.1","4219606","co38212","norming","","","{""guess"":""oorlog""}","","../img/tt/1061tt.jpg","",""
"null","../img/gs/1061gs.jpg","null","reveal","image-keyboard-response","17","321104","0.0-6.0-4.1","4219606","co38212","norming","","","","","","",""
"null","../img/tt/1061tt.jpg","null","mooney2","image-keyboard-response","18","323109","0.0-6.0-5.1","4219606","co38212","norming","","","","","","",""
"3718.089999980293","","","post_reveal_questions","survey-likert","19","326829","0.0-6.0-6.1","4219606","co38212","norming","","","{""aha"":5}","[0]","../img/tt/1061tt.jpg","",""
"null","<div style=""font-size:60px;""> </div>","null","fixation","html-keyboard-response","20","327036","0.0-6.0-0.2","4219606","co38212","norming","","","","","","",""
"null","../img/tt/1072tt.jpg","null","mooney1","image-keyboard-response","21","330043","0.0-6.0-1.2","4219606","co38212","norming","","","","","","",""
"9096.045000012964","","","post_mooney1_questions","survey-likert","22","339141","0.0-6.0-2.2","4219606","co38212","norming","","","{""curiosity"":4,""confidence"":1}","[0,1]","../img/tt/1072tt.jpg","",""
"3484.9099999992177","","","recognition","survey-text","23","342629","0.0-6.0-3.2","4219606","co38212","norming","","","{""guess"":""bank""}","","../img/tt/1072tt.jpg","",""
"null","../img/gs/1072gs.jpg","null","reveal","image-keyboard-response","24","344632","0.0-6.0-4.2","4219606","co38212","norming","","","","","","",""
"null","../img/tt/1072tt.jpg","null","mooney2","image-keyboard-response","25","346634","0.0-6.0-5.2","4219606","co38212","norming","","","","","","",""
"4333.17499991972","","","post_reveal_questions","survey-likert","26","350970","0.0-6.0-6.2","4219606","co38212","norming","","","{""aha"":3}","[0]","../img/tt/1072tt.jpg","",""
"null","<div style=""font-size:60px;""> </div>","null","fixation","html-keyboard-response","27","351177","0.0-6.0-0.3","4219606","co38212","norming","","","","","","",""
"null","../img/tt/1089tt.jpg","null","mooney1","image-keyboard-response","28","354179","0.0-6.0-1.3","4219606","co38212","norming","","","","","","",""
"6305.339999962598","","","post_mooney1_questions","survey-likert","29","360488","0.0-6.0-2.3","4219606","co38212","norming","","","{""curiosity"":2,""confidence"":4}","[0,1]","../img/tt/1089tt.jpg","",""
"5250.325000029989","","","recognition","survey-text","30","365742","0.0-6.0-3.3","4219606","co38212","norming","","","{""guess"":""olifant""}","","../img/tt/1089tt.jpg","",""
"null","../img/gs/1089gs.jpg","null","reveal","image-keyboard-response","31","367748","0.0-6.0-4.3","4219606","co38212","norming","","","","","","",""
"null","../img/tt/1089tt.jpg","null","mooney2","image-keyboard-response","32","369749","0.0-6.0-5.3","4219606","co38212","norming","","","","","","",""
"3576.274999999441","","","post_reveal_questions","survey-likert","33","373328","0.0-6.0-6.3","4219606","co38212","norming","","","{""aha"":2}","[0]","../img/tt/1089tt.jpg","",""
"null","<div style=""font-size:60px;""> </div>","null","fixation","html-keyboard-response","34","373535","0.0-6.0-0.4","4219606","co38212","norming","","","","","","",""
"null","../img/tt/121tt.jpg","null","mooney1","image-keyboard-response","35","376542","0.0-6.0-1.4","4219606","co38212","norming","","","","","","",""
"5923.574999906123","","","post_mooney1_questions","survey-likert","36","382468","0.0-6.0-2.4","4219606","co38212","norming","","","{""curiosity"":2,""confidence"":2}","[0,1]","../img/tt/121tt.jpg","",""
"4672.439999994822","","","recognition","survey-text","37","387144","0.0-6.0-3.4","4219606","co38212","norming","","","{""guess"":""stier""}","","../img/tt/121tt.jpg","",""
"null","../img/gs/121gs.jpg","null","reveal","image-keyboard-response","38","389149","0.0-6.0-4.4","4219606","co38212","norming","","","","","","",""
"null","../img/tt/121tt.jpg","null","mooney2","image-keyboard-response","39","391156","0.0-6.0-5.4","4219606","co38212","norming","","","","","","",""
"2976.5400000615045","","","post_reveal_questions","survey-likert","40","394135","0.0-6.0-6.4","4219606","co38212","norming","","","{""aha"":4}","[0]","../img/tt/121tt.jpg","",""
"null","<div style=""font-size:60px;""> </div>","null","fixation","html-keyboard-response","41","394342","0.0-6.0-0.5","4219606","co38212","norming","","","","","","",""
"null","../img/tt/1307tt.jpg","null","mooney1","image-keyboard-response","42","397349","0.0-6.0-1.5","4219606","co38212","norming","","","","","","",""
"10677.905000047758","","","post_mooney1_questions","survey-likert","43","408030","0.0-6.0-2.5","4219606","co38212","norming","","","{""curiosity"":2,""confidence"":0}","[0,1]","../img/tt/1307tt.jpg","",""
"4762.895000050776","","","recognition","survey-text","44","412796","0.0-6.0-3.5","4219606","co38212","norming","","","{""guess"":""""}","","../img/tt/1307tt.jpg","",""
"null","../img/gs/1307gs.jpg","null","reveal","image-keyboard-response","45","414802","0.0-6.0-4.5","4219606","co38212","norming","","","","","","",""
"null","../img/tt/1307tt.jpg","null","mooney2","image-keyboard-response","46","416807","0.0-6.0-5.5","4219606","co38212","norming","","","","","","",""
"5604.25000009127","","","post_reveal_questions","survey-likert","47","422414","0.0-6.0-6.5","4219606","co38212","norming","","","{""aha"":4}","[0]","../img/tt/1307tt.jpg","",""
"null","<div style=""font-size:60px;""> </div>","null","fixation","html-keyboard-response","48","422618","0.0-6.0-0.6","4219606","co38212","norming","","","","","","",""
"null","../img/tt/1146tt.jpg","null","mooney1","image-keyboard-response","49","425625","0.0-6.0-1.6","4219606","co38212","norming","","","","","","",""
"6348.08000002522","","","post_mooney1_questions","survey-likert","50","431976","0.0-6.0-2.6","4219606","co38212","norming","","","{""curiosity"":3,""confidence"":1}","[0,1]","../img/tt/1146tt.jpg","",""
"3235.164999961853","","","recognition","survey-text","51","435215","0.0-6.0-3.6","4219606","co38212","norming","","","{""guess"":""brug""}","","../img/tt/1146tt.jpg","",""
"null","../img/gs/1146gs.jpg","null","reveal","image-keyboard-response","52","437222","0.0-6.0-4.6","4219606","co38212","norming","","","","","","",""
"null","../img/tt/1146tt.jpg","null","mooney2","image-keyboard-response","53","439228","0.0-6.0-5.6","4219606","co38212","norming","","","","","","",""
"2390.315000084229","","","post_reveal_questions","survey-likert","54","441621","0.0-6.0-6.6","4219606","co38212","norming","","","{""aha"":4}","[0]","../img/tt/1146tt.jpg","",""
"null","<div style=""font-size:60px;""> </div>","null","fixation","html-keyboard-response","55","441827","0.0-6.0-0.7","4219606","co38212","norming","","","","","","",""
"null","../img/tt/1122tt.jpg","null","mooney1","image-keyboard-response","56","444831","0.0-6.0-1.7","4219606","co38212","norming","","","","","","",""
"8633.805000106804","","","post_mooney1_questions","survey-likert","57","453467","0.0-6.0-2.7","4219606","co38212","norming","","","{""curiosity"":4,""confidence"":3}","[0,1]","../img/tt/1122tt.jpg","",""
"12397.03999995254","","","recognition","survey-text","58","465868","0.0-6.0-3.7","4219606","co38212","norming","","","{""guess"":""weapon""}","","../img/tt/1122tt.jpg","",""
"null","../img/gs/1122gs.jpg","null","reveal","image-keyboard-response","59","467870","0.0-6.0-4.7","4219606","co38212","norming","","","","","","",""
"null","../img/tt/1122tt.jpg","null","mooney2","image-keyboard-response","60","469875","0.0-6.0-5.7","4219606","co38212","norming","","","","","","",""
"2904.6799999196082","","","post_reveal_questions","survey-likert","61","472782","0.0-6.0-6.7","4219606","co38212","norming","","","{""aha"":5}","[0]","../img/tt/1122tt.jpg","",""
"null","<div style=""font-size:60px;""> </div>","null","fixation","html-keyboard-response","62","472989","0.0-6.0-0.8","4219606","co38212","norming","","","","","","",""
"null","../img/tt/1175tt.jpg","null","mooney1","image-keyboard-response","63","475996","0.0-6.0-1.8","4219606","co38212","norming","","","","","","",""
"4675.550000043586","","","post_mooney1_questions","survey-likert","64","480674","0.0-6.0-2.8","4219606","co38212","norming","","","{""curiosity"":4,""confidence"":0}","[0,1]","../img/tt/1175tt.jpg","",""
"787.7050000242889","","","recognition","survey-text","65","481466","0.0-6.0-3.8","4219606","co38212","norming","","","{""guess"":""""}","","../img/tt/1175tt.jpg","",""
"null","../img/gs/1175gs.jpg","null","reveal","image-keyboard-response","66","483473","0.0-6.0-4.8","4219606","co38212","norming","","","","","","",""
"null","../img/tt/1175tt.jpg","null","mooney2","image-keyboard-response","67","485475","0.0-6.0-5.8","4219606","co38212","norming","","","","","","",""
"3916.71999997925","","","post_reveal_questions","survey-likert","68","489394","0.0-6.0-6.8","4219606","co38212","norming","","","{""aha"":4}","[0]","../img/tt/1175tt.jpg","",""
"null","<div style=""font-size:60px;""> </div>","null","fixation","html-keyboard-response","69","489601","0.0-6.0-0.9","4219606","co38212","norming","","","","","","",""
"null","../img/tt/1084tt.jpg","null","mooney1","image-keyboard-response","70","492604","0.0-6.0-1.9","4219606","co38212","norming","","","","","","",""
"5611.289999913424","","","post_mooney1_questions","survey-likert","71","498217","0.0-6.0-2.9","4219606","co38212","norming","","","{""curiosity"":4,""confidence"":2}","[0,1]","../img/tt/1084tt.jpg","",""
"5447.075000032783","","","recognition","survey-text","72","503668","0.0-6.0-3.9","4219606","co38212","norming","","","{""guess"":""fruit""}","","../img/tt/1084tt.jpg","",""
"null","../img/gs/1084gs.jpg","null","reveal","image-keyboard-response","73","505673","0.0-6.0-4.9","4219606","co38212","norming","","","","","","",""
"null","../img/tt/1084tt.jpg","null","mooney2","image-keyboard-response","74","507678","0.0-6.0-5.9","4219606","co38212","norming","","","","","","",""
"3176.1000000406057","","","post_reveal_questions","survey-likert","75","510857","0.0-6.0-6.9","4219606","co38212","norming","","","{""aha"":4}","[0]","../img/tt/1084tt.jpg","",""
"null","<div style=""font-size:60px;""> </div>","null","fixation","html-keyboard-response","76","511063","0.0-6.0-0.10","4219606","co38212","norming","","","","","","",""
"null","../img/tt/1272tt.jpg","null","mooney1","image-keyboard-response","77","514070","0.0-6.0-1.10","4219606","co38212","norming","","","","","","",""
"5723.310000030324","","","post_mooney1_questions","survey-likert","78","519796","0.0-6.0-2.10","4219606","co38212","norming","","","{""curiosity"":2,""confidence"":2}","[0,1]","../img/tt/1272tt.jpg","",""
"2890.4299999121577","","","recognition","survey-text","79","522691","0.0-6.0-3.10","4219606","co38212","norming","","","{""guess"":""hek""}","","../img/tt/1272tt.jpg","",""
"null","../img/gs/1272gs.jpg","null","reveal","image-keyboard-response","80","524698","0.0-6.0-4.10","4219606","co38212","norming","","","","","","",""
"null","../img/tt/1272tt.jpg","null","mooney2","image-keyboard-response","81","526701","0.0-6.0-5.10","4219606","co38212","norming","","","","","","",""
"3081.2600000062957","","","post_reveal_questions","survey-likert","82","529785","0.0-6.0-6.10","4219606","co38212","norming","","","{""aha"":5}","[0]","../img/tt/1272tt.jpg","",""
"null","<div style=""font-size:60px;""> </div>","null","fixation","html-keyboard-response","83","529988","0.0-6.0-0.11","4219606","co38212","norming","","","","","","",""
"null","../img/tt/1232tt.jpg","null","mooney1","image-keyboard-response","84","532991","0.0-6.0-1.11","4219606","co38212","norming","","","","","","",""
"5464.899999904446","","","post_mooney1_questions","survey-likert","85","538458","0.0-6.0-2.11","4219606","co38212","norming","","","{""curiosity"":4,""confidence"":3}","[0,1]","../img/tt/1232tt.jpg","",""
"2527.0950000267476","","","recognition","survey-text","86","540989","0.0-6.0-3.11","4219606","co38212","norming","","","{""guess"":""vis""}","","../img/tt/1232tt.jpg","",""
"null","../img/gs/1232gs.jpg","null","reveal","image-keyboard-response","87","542995","0.0-6.0-4.11","4219606","co38212","norming","","","","","","",""
"null","../img/tt/1232tt.jpg","null","mooney2","image-keyboard-response","88","545003","0.0-6.0-5.11","4219606","co38212","norming","","","","","","",""
"3793.5099999886006","","","post_reveal_questions","survey-likert","89","548799","0.0-6.0-6.11","4219606","co38212","norming","","","{""aha"":5}","[0]","../img/tt/1232tt.jpg","",""
"null","<div style=""font-size:60px;""> </div>","null","fixation","html-keyboard-response","90","549006","0.0-6.0-0.12","4219606","co38212","norming","","","","","","",""
"null","../img/tt/140tt.jpg","null","mooney1","image-keyboard-response","91","552013","0.0-6.0-1.12","4219606","co38212","norming","","","","","","",""
"5158.419999992475","","","post_mooney1_questions","survey-likert","92","557174","0.0-6.0-2.12","4219606","co38212","norming","","","{""curiosity"":1,""confidence"":5}","[0,1]","../img/tt/140tt.jpg","",""
"2996.0399999981746","","","recognition","survey-text","93","560173","0.0-6.0-3.12","4219606","co38212","norming","","","{""guess"":""vork""}","","../img/tt/140tt.jpg","",""
"null","../img/gs/140gs.jpg","null","reveal","image-keyboard-response","94","562180","0.0-6.0-4.12","4219606","co38212","norming","","","","","","",""
"null","../img/tt/140tt.jpg","null","mooney2","image-keyboard-response","95","564182","0.0-6.0-5.12","4219606","co38212","norming","","","","","","",""
"3785.520000034012","","","post_reveal_questions","survey-likert","96","567970","0.0-6.0-6.12","4219606","co38212","norming","","","{""aha"":1}","[0]","../img/tt/140tt.jpg","",""
"null","<div style=""font-size:60px;""> </div>","null","fixation","html-keyboard-response","97","568176","0.0-6.0-0.13","4219606","co38212","norming","","","","","","",""
"null","../img/tt/1186tt.jpg","null","mooney1","image-keyboard-response","98","571182","0.0-6.0-1.13","4219606","co38212","norming","","","","","","",""
"12338.744999957271","","","post_mooney1_questions","survey-likert","99","583523","0.0-6.0-2.13","4219606","co38212","norming","","","{""curiosity"":2,""confidence"":0}","[0,1]","../img/tt/1186tt.jpg","",""
"1142.9249999346212","","","recognition","survey-text","100","584670","0.0-6.0-3.13","4219606","co38212","norming","","","{""guess"":""""}","","../img/tt/1186tt.jpg","",""
"null","../img/gs/1186gs.jpg","null","reveal","image-keyboard-response","101","586677","0.0-6.0-4.13","4219606","co38212","norming","","","","","","",""
"null","../img/tt/1186tt.jpg","null","mooney2","image-keyboard-response","102","588682","0.0-6.0-5.13","4219606","co38212","norming","","","","","","",""
"4020.3499998897314","","","post_reveal_questions","survey-likert","103","592705","0.0-6.0-6.13","4219606","co38212","norming","","","{""aha"":4}","[0]","../img/tt/1186tt.jpg","",""
"null","<div style=""font-size:60px;""> </div>","null","fixation","html-keyboard-response","104","592911","0.0-6.0-0.14","4219606","co38212","norming","","","","","","",""
"null","../img/tt/1261tt.jpg","null","mooney1","image-keyboard-response","105","595914","0.0-6.0-1.14","4219606","co38212","norming","","","","","","",""
"4978.9899999741465","","","post_mooney1_questions","survey-likert","106","600896","0.0-6.0-2.14","4219606","co38212","norming","","","{""curiosity"":2,""confidence"":1}","[0,1]","../img/tt/1261tt.jpg","",""
"2555.43999990914","","","recognition","survey-text","107","603455","0.0-6.0-3.14","4219606","co38212","norming","","","{""guess"":""koe""}","","../img/tt/1261tt.jpg","",""
"null","../img/gs/1261gs.jpg","null","reveal","image-keyboard-response","108","605458","0.0-6.0-4.14","4219606","co38212","norming","","","","","","",""
"null","../img/tt/1261tt.jpg","null","mooney2","image-keyboard-response","109","607464","0.0-6.0-5.14","4219606","co38212","norming","","","","","","",""
"3309.804999968037","","","post_reveal_questions","survey-likert","110","610776","0.0-6.0-6.14","4219606","co38212","norming","","","{""aha"":4}","[0]","../img/tt/1261tt.jpg","",""
"null","<div style=""font-size:60px;""> </div>","null","fixation","html-keyboard-response","111","610980","0.0-6.0-0.15","4219606","co38212","norming","","","","","","",""
"null","../img/tt/1173tt.jpg","null","mooney1","image-keyboard-response","112","613987","0.0-6.0-1.15","4219606","co38212","norming","","","","","","",""
"9300.924999988638","","","post_mooney1_questions","survey-likert","113","623290","0.0-6.0-2.15","4219606","co38212","norming","","","{""curiosity"":4,""confidence"":2}","[0,1]","../img/tt/1173tt.jpg","",""
"6388.430000049993","","","recognition","survey-text","114","629682","0.0-6.0-3.15","4219606","co38212","norming","","","{""guess"":""cheerleader""}","","../img/tt/1173tt.jpg","",""
"null","../img/gs/1173gs.jpg","null","reveal","image-keyboard-response","115","631688","0.0-6.0-4.15","4219606","co38212","norming","","","","","","",""
"null","../img/tt/1173tt.jpg","null","mooney2","image-keyboard-response","116","633694","0.0-6.0-5.15","4219606","co38212","norming","","","","","","",""
"2501.8050000071526","","","post_reveal_questions","survey-likert","117","636198","0.0-6.0-6.15","4219606","co38212","norming","","","{""aha"":4}","[0]","../img/tt/1173tt.jpg","",""
"null","<div style=""font-size:60px;""> </div>","null","fixation","html-keyboard-response","118","636404","0.0-6.0-0.16","4219606","co38212","norming","","","","","","",""
"null","../img/tt/1237tt.jpg","null","mooney1","image-keyboard-response","119","639407","0.0-6.0-1.16","4219606","co38212","norming","","","","","","",""
"4986.294999951497","","","post_mooney1_questions","survey-likert","120","644396","0.0-6.0-2.16","4219606","co38212","norming","","","{""curiosity"":3,""confidence"":4}","[0,1]","../img/tt/1237tt.jpg","",""
"2858.4500000579283","","","recognition","survey-text","121","647258","0.0-6.0-3.16","4219606","co38212","norming","","","{""guess"":""eend""}","","../img/tt/1237tt.jpg","",""
"null","../img/gs/1237gs.jpg","null","reveal","image-keyboard-response","122","649260","0.0-6.0-4.16","4219606","co38212","norming","","","","","","",""
"null","../img/tt/1237tt.jpg","null","mooney2","image-keyboard-response","123","651267","0.0-6.0-5.16","4219606","co38212","norming","","","","","","",""
"3667.740000062622","","","post_reveal_questions","survey-likert","124","654936","0.0-6.0-6.16","4219606","co38212","norming","","","{""aha"":2}","[0]","../img/tt/1237tt.jpg","",""
"null","<div style=""font-size:60px;""> </div>","null","fixation","html-keyboard-response","125","655143","0.0-6.0-0.17","4219606","co38212","norming","","","","","","",""
"null","../img/tt/279tt.jpg","null","mooney1","image-keyboard-response","126","658146","0.0-6.0-1.17","4219606","co38212","norming","","","","","","",""
"5070.049999980256","","","post_mooney1_questions","survey-likert","127","663219","0.0-6.0-2.17","4219606","co38212","norming","","","{""curiosity"":2,""confidence"":0}","[0,1]","../img/tt/279tt.jpg","",""
"757.7799999853596","","","recognition","survey-text","128","663980","0.0-6.0-3.17","4219606","co38212","norming","","","{""guess"":""""}","","../img/tt/279tt.jpg","",""
"null","../img/gs/279gs.jpg","null","reveal","image-keyboard-response","129","665984","0.0-6.0-4.17","4219606","co38212","norming","","","","","","",""
"null","../img/tt/279tt.jpg","null","mooney2","image-keyboard-response","130","667990","0.0-6.0-5.17","4219606","co38212","norming","","","","","","",""
"2740.7150000799447","","","post_reveal_questions","survey-likert","131","670733","0.0-6.0-6.17","4219606","co38212","norming","","","{""aha"":5}","[0]","../img/tt/279tt.jpg","",""
"null","<div style=""font-size:60px;""> </div>","null","fixation","html-keyboard-response","132","670935","0.0-6.0-0.18","4219606","co38212","norming","","","","","","",""
"null","../img/tt/456tt.jpg","null","mooney1","image-keyboard-response","133","673939","0.0-6.0-1.18","4219606","co38212","norming","","","","","","",""
"8257.525000022724","","","post_mooney1_questions","survey-likert","134","682199","0.0-6.0-2.18","4219606","co38212","norming","","","{""curiosity"":2,""confidence"":0}","[0,1]","../img/tt/456tt.jpg","",""
"764.4500000169501","","","recognition","survey-text","135","682967","0.0-6.0-3.18","4219606","co38212","norming","","","{""guess"":""""}","","../img/tt/456tt.jpg","",""
"null","../img/gs/456gs.jpg","null","reveal","image-keyboard-response","136","684969","0.0-6.0-4.18","4219606","co38212","norming","","","","","","",""
"null","../img/tt/456tt.jpg","null","mooney2","image-keyboard-response","137","686974","0.0-6.0-5.18","4219606","co38212","norming","","","","","","",""
"4149.424999952316","","","post_reveal_questions","survey-likert","138","691126","0.0-6.0-6.18","4219606","co38212","norming","","","{""aha"":2}","[0]","../img/tt/456tt.jpg","",""
"null","<div style=""font-size:60px;""> </div>","null","fixation","html-keyboard-response","139","691331","0.0-6.0-0.19","4219606","co38212","norming","","","","","","",""
"null","../img/tt/1126tt.jpg","null","mooney1","image-keyboard-response","140","694334","0.0-6.0-1.19","4219606","co38212","norming","","","","","","",""
"3986.464999965392","","","post_mooney1_questions","survey-likert","141","698323","0.0-6.0-2.19","4219606","co38212","norming","","","{""curiosity"":1,""confidence"":0}","[0,1]","../img/tt/1126tt.jpg","",""
"1561.1949999583885","","","recognition","survey-text","142","699888","0.0-6.0-3.19","4219606","co38212","norming","","","{""guess"":""""}","","../img/tt/1126tt.jpg","",""
"null","../img/gs/1126gs.jpg","null","reveal","image-keyboard-response","143","701891","0.0-6.0-4.19","4219606","co38212","norming","","","","","","",""
"null","../img/tt/1126tt.jpg","null","mooney2","image-keyboard-response","144","703897","0.0-6.0-5.19","4219606","co38212","norming","","","","","","",""
"2618.7449999852106","","","post_reveal_questions","survey-likert","145","706518","0.0-6.0-6.19","4219606","co38212","norming","","","{""aha"":4}","[0]","../img/tt/1126tt.jpg","",""
"null","<div style=""font-size:60px;""> </div>","null","fixation","html-keyboard-response","146","706721","0.0-6.0-0.20","4219606","co38212","norming","","","","","","",""
"null","../img/tt/318tt.jpg","null","mooney1","image-keyboard-response","147","709728","0.0-6.0-1.20","4219606","co38212","norming","","","","","","",""
"5302.410000003874","","","post_mooney1_questions","survey-likert","148","715033","0.0-6.0-2.20","4219606","co38212","norming","","","{""curiosity"":2,""confidence"":1}","[0,1]","../img/tt/318tt.jpg","",""
"5229.744999902323","","","recognition","survey-text","149","720266","0.0-6.0-3.20","4219606","co38212","norming","","","{""guess"":""auto""}","","../img/tt/318tt.jpg","",""
"null","../img/gs/318gs.jpg","null","reveal","image-keyboard-response","150","722272","0.0-6.0-4.20","4219606","co38212","norming","","","","","","",""
"null","../img/tt/318tt.jpg","null","mooney2","image-keyboard-response","151","724273","0.0-6.0-5.20","4219606","co38212","norming","","","","","","",""
"3360.0050000241026","","","post_reveal_questions","survey-likert","152","727636","0.0-6.0-6.20","4219606","co38212","norming","","","{""aha"":4}","[0]","../img/tt/318tt.jpg","",""
"null","<div style=""font-size:60px;""> </div>","null","fixation","html-keyboard-response","153","727838","0.0-6.0-0.21","4219606","co38212","norming","","","","","","",""
"null","../img/tt/599tt.jpg","null","mooney1","image-keyboard-response","154","730841","0.0-6.0-1.21","4219606","co38212","norming","","","","","","",""
"10627.579999971204","","","post_mooney1_questions","survey-likert","155","741471","0.0-6.0-2.21","4219606","co38212","norming","","","{""curiosity"":2,""confidence"":5}","[0,1]","../img/tt/599tt.jpg","",""
"15873.99499991443","","","recognition","survey-text","156","757350","0.0-6.0-3.21","4219606","co38212","norming","","","{""guess"":""vrouw hoed""}","","../img/tt/599tt.jpg","",""
"null","../img/gs/599gs.jpg","null","reveal","image-keyboard-response","157","759356","0.0-6.0-4.21","4219606","co38212","norming","","","","","","",""
"null","../img/tt/599tt.jpg","null","mooney2","image-keyboard-response","158","761357","0.0-6.0-5.21","4219606","co38212","norming","","","","","","",""
"4286.420000018552","","","post_reveal_questions","survey-likert","159","765646","0.0-6.0-6.21","4219606","co38212","norming","","","{""aha"":6}","[0]","../img/tt/599tt.jpg","",""
"null","<div style=""font-size:60px;""> </div>","null","fixation","html-keyboard-response","160","765851","0.0-6.0-0.22","4219606","co38212","norming","","","","","","",""
"null","../img/tt/329tt.jpg","null","mooney1","image-keyboard-response","161","768856","0.0-6.0-1.22","4219606","co38212","norming","","","","","","",""
"4980.125000001863","","","post_mooney1_questions","survey-likert","162","773838","0.0-6.0-2.22","4219606","co38212","norming","","","{""curiosity"":2,""confidence"":0}","[0,1]","../img/tt/329tt.jpg","",""
"924.4699999690056","","","recognition","survey-text","163","774767","0.0-6.0-3.22","4219606","co38212","norming","","","{""guess"":""""}","","../img/tt/329tt.jpg","",""
"null","../img/gs/329gs.jpg","null","reveal","image-keyboard-response","164","776772","0.0-6.0-4.22","4219606","co38212","norming","","","","","","",""
"null","../img/tt/329tt.jpg","null","mooney2","image-keyboard-response","165","778777","0.0-6.0-5.22","4219606","co38212","norming","","","","","","",""
"2949.6300000464544","","","post_reveal_questions","survey-likert","166","781728","0.0-6.0-6.22","4219606","co38212","norming","","","{""aha"":4}","[0]","../img/tt/329tt.jpg","",""
"null","<div style=""font-size:60px;""> </div>","null","fixation","html-keyboard-response","167","781935","0.0-6.0-0.23","4219606","co38212","norming","","","","","","",""
"null","../img/tt/1262tt.jpg","null","mooney1","image-keyboard-response","168","784940","0.0-6.0-1.23","4219606","co38212","norming","","","","","","",""
"5487.99500009045","","","post_mooney1_questions","survey-likert","169","790430","0.0-6.0-2.23","4219606","co38212","norming","","","{""curiosity"":3,""confidence"":2}","[0,1]","../img/tt/1262tt.jpg","",""
"2533.8700000429526","","","recognition","survey-text","170","792968","0.0-6.0-3.23","4219606","co38212","norming","","","{""guess"":""beer""}","","../img/tt/1262tt.jpg","",""
"null","../img/gs/1262gs.jpg","null","reveal","image-keyboard-response","171","794975","0.0-6.0-4.23","4219606","co38212","norming","","","","","","",""
"null","../img/tt/1262tt.jpg","null","mooney2","image-keyboard-response","172","796982","0.0-6.0-5.23","4219606","co38212","norming","","","","","","",""
"5745.309999911115","","","post_reveal_questions","survey-likert","173","802729","0.0-6.0-6.23","4219606","co38212","norming","","","{""aha"":3}","[0]","../img/tt/1262tt.jpg","",""
"null","<div style=""font-size:60px;""> </div>","null","fixation","html-keyboard-response","174","802935","0.0-6.0-0.24","4219606","co38212","norming","","","","","","",""
"null","../img/tt/603tt.jpg","null","mooney1","image-keyboard-response","175","805942","0.0-6.0-1.24","4219606","co38212","norming","","","","","","",""
"4849.870000034571","","","post_mooney1_questions","survey-likert","176","810794","0.0-6.0-2.24","4219606","co38212","norming","","","{""curiosity"":4,""confidence"":3}","[0,1]","../img/tt/603tt.jpg","",""
"2667.645000037737","","","recognition","survey-text","177","813465","0.0-6.0-3.24","4219606","co38212","norming","","","{""guess"":""kat""}","","../img/tt/603tt.jpg","",""
"null","../img/gs/603gs.jpg","null","reveal","image-keyboard-response","178","811634","0.0-6.0-4.24","4219606","co38212","norming","","","","","","",""
"null","../img/tt/603tt.jpg","null","mooney2","image-keyboard-response","179","813641","0.0-6.0-5.24","4219606","co38212","norming","","","","","","",""
"3931.484999950044","","","post_reveal_questions","survey-likert","180","817574","0.0-6.0-6.24","4219606","co38212","norming","","","{""aha"":2}","[0]","../img/tt/603tt.jpg","",""
"null","<div style=""font-size:60px;""> </div>","null","fixation","html-keyboard-response","181","817781","0.0-6.0-0.25","4219606","co38212","norming","","","","","","",""
"null","../img/tt/091tt.jpg","null","mooney1","image-keyboard-response","182","820788","0.0-6.0-1.25","4219606","co38212","norming","","","","","","",""
"3902.6799999410287","","","post_mooney1_questions","survey-likert","183","824693","0.0-6.0-2.25","4219606","co38212","norming","","","{""curiosity"":2,""confidence"":2}","[0,1]","../img/tt/091tt.jpg","",""
"1721.0699999704957","","","recognition","survey-text","184","826417","0.0-6.0-3.25","4219606","co38212","norming","","","{""guess"":""koe""}","","../img/tt/091tt.jpg","",""
"null","../img/gs/091gs.jpg","null","reveal","image-keyboard-response","185","828424","0.0-6.0-4.25","4219606","co38212","norming","","","","","","",""
"null","../img/tt/091tt.jpg","null","mooney2","image-keyboard-response","186","830430","0.0-6.0-5.25","4219606","co38212","norming","","","","","","",""
"3458.5400000214577","","","post_reveal_questions","survey-likert","187","833891","0.0-6.0-6.25","4219606","co38212","norming","","","{""aha"":2}","[0]","../img/tt/091tt.jpg","",""
"null","<div style=""font-size:60px;""> </div>","null","fixation","html-keyboard-response","188","834096","0.0-6.0-0.26","4219606","co38212","norming","","","","","","",""
"null","../img/tt/353tt.jpg","null","mooney1","image-keyboard-response","189","837104","0.0-6.0-1.26","4219606","co38212","norming","","","","","","",""
"3179.5100000454113","","","post_mooney1_questions","survey-likert","190","840286","0.0-6.0-2.26","4219606","co38212","norming","","","{""curiosity"":2,""confidence"":3}","[0,1]","../img/tt/353tt.jpg","",""
"3892.5550000276417","","","recognition","survey-text","191","844182","0.0-6.0-3.26","4219606","co38212","norming","","","{""guess"":""pinguin""}","","../img/tt/353tt.jpg","",""
"null","../img/gs/353gs.jpg","null","reveal","image-keyboard-response","192","846189","0.0-6.0-4.26","4219606","co38212","norming","","","","","","",""
"null","../img/tt/353tt.jpg","null","mooney2","image-keyboard-response","193","848191","0.0-6.0-5.26","4219606","co38212","norming","","","","","","",""
"2961.239999975078","","","post_reveal_questions","survey-likert","194","851154","0.0-6.0-6.26","4219606","co38212","norming","","","{""aha"":3}","[0]","../img/tt/353tt.jpg","",""
"null","<div style=""font-size:60px;""> </div>","null","fixation","html-keyboard-response","195","851361","0.0-6.0-0.27","4219606","co38212","norming","","","","","","",""
"null","../img/tt/1228tt.jpg","null","mooney1","image-keyboard-response","196","854367","0.0-6.0-1.27","4219606","co38212","norming","","","","","","",""
"4828.145000035875","","","post_mooney1_questions","survey-likert","197","859198","0.0-6.0-2.27","4219606","co38212","norming","","","{""curiosity"":2,""confidence"":4}","[0,1]","../img/tt/1228tt.jpg","",""
"2752.1100000012666","","","recognition","survey-text","198","861954","0.0-6.0-3.27","4219606","co38212","norming","","","{""guess"":""vogel""}","","../img/tt/1228tt.jpg","",""
"null","../img/gs/1228gs.jpg","null","reveal","image-keyboard-response","199","863958","0.0-6.0-4.27","4219606","co38212","norming","","","","","","",""
"null","../img/tt/1228tt.jpg","null","mooney2","image-keyboard-response","200","865960","0.0-6.0-5.27","4219606","co38212","norming","","","","","","",""
"48005.85499999579","","","post_reveal_questions","survey-likert","201","913967","0.0-6.0-6.27","4219606","co38212","norming","","","{""aha"":2}","[0]","../img/tt/1228tt.jpg","",""
"null","<div style=""font-size:60px;""> </div>","null","fixation","html-keyboard-response","202","914174","0.0-6.0-0.28","4219606","co38212","norming","","","","","","",""
"null","../img/tt/1102tt.jpg","null","mooney1","image-keyboard-response","203","917179","0.0-6.0-1.28","4219606","co38212","norming","","","","","","",""
"12758.589999983087","","","post_mooney1_questions","survey-likert","204","929939","0.0-6.0-2.28","4219606","co38212","norming","","","{""curiosity"":2,""confidence"":0}","[0,1]","../img/tt/1102tt.jpg","",""
"1212.775000021793","","","recognition","survey-text","205","931157","0.0-6.0-3.28","4219606","co38212","norming","","","{""guess"":""""}","","../img/tt/1102tt.jpg","",""
"null","../img/gs/1102gs.jpg","null","reveal","image-keyboard-response","206","933161","0.0-6.0-4.28","4219606","co38212","norming","","","","","","",""
"null","../img/tt/1102tt.jpg","null","mooney2","image-keyboard-response","207","935163","0.0-6.0-5.28","4219606","co38212","norming","","","","","","",""
"4273.820000002161","","","post_reveal_questions","survey-likert","208","939439","0.0-6.0-6.28","4219606","co38212","norming","","","{""aha"":4}","[0]","../img/tt/1102tt.jpg","",""
"null","<div style=""font-size:60px;""> </div>","null","fixation","html-keyboard-response","209","939645","0.0-6.0-0.29","4219606","co38212","norming","","","","","","",""
"null","../img/tt/1171tt.jpg","null","mooney1","image-keyboard-response","210","942651","0.0-6.0-1.29","4219606","co38212","norming","","","","","","",""
"12792.00499993749","","","post_mooney1_questions","survey-likert","211","955446","0.0-6.0-2.29","4219606","co38212","norming","","","{""curiosity"":2,""confidence"":1}","[0,1]","../img/tt/1171tt.jpg","",""
"3909.68000004068","","","recognition","survey-text","212","959359","0.0-6.0-3.29","4219606","co38212","norming","","","{""guess"":""doodskop""}","","../img/tt/1171tt.jpg","",""
"null","../img/gs/1171gs.jpg","null","reveal","image-keyboard-response","213","961366","0.0-6.0-4.29","4219606","co38212","norming","","","","","","",""
"null","../img/tt/1171tt.jpg","null","mooney2","image-keyboard-response","214","963368","0.0-6.0-5.29","4219606","co38212","norming","","","","","","",""
"2505.600000033155","","","post_reveal_questions","survey-likert","215","965876","0.0-6.0-6.29","4219606","co38212","norming","","","{""aha"":5}","[0]","../img/tt/1171tt.jpg","",""
"null","<div style=""font-size:60px;""> </div>","null","fixation","html-keyboard-response","216","966083","0.0-6.0-0.30","4219606","co38212","norming","","","","","","",""
"null","../img/tt/1189tt.jpg","null","mooney1","image-keyboard-response","217","969086","0.0-6.0-1.30","4219606","co38212","norming","","","","","","",""
"7287.4099999899045","","","post_mooney1_questions","survey-likert","218","976376","0.0-6.0-2.30","4219606","co38212","norming","","","{""curiosity"":1,""confidence"":0}","[0,1]","../img/tt/1189tt.jpg","",""
"1031.859999988228","","","recognition","survey-text","219","977413","0.0-6.0-3.30","4219606","co38212","norming","","","{""guess"":""""}","","../img/tt/1189tt.jpg","",""
"null","../img/gs/1189gs.jpg","null","reveal","image-keyboard-response","220","979420","0.0-6.0-4.30","4219606","co38212","norming","","","","","","",""
"null","../img/tt/1189tt.jpg","null","mooney2","image-keyboard-response","221","981425","0.0-6.0-5.30","4219606","co38212","norming","","","","","","",""
"4484.790000016801","","","post_reveal_questions","survey-likert","222","985912","0.0-6.0-6.30","4219606","co38212","norming","","","{""aha"":4}","[0]","../img/tt/1189tt.jpg","",""
"null","<div style=""font-size:60px;""> </div>","null","fixation","html-keyboard-response","223","986122","0.0-6.0-0.31","4219606","co38212","norming","","","","","","",""
"null","../img/tt/515tt.jpg","null","mooney1","image-keyboard-response","224","989129","0.0-6.0-1.31","4219606","co38212","norming","","","","","","",""
"4646.154999965802","","","post_mooney1_questions","survey-likert","225","993777","0.0-6.0-2.31","4219606","co38212","norming","","","{""curiosity"":2,""confidence"":1}","[0,1]","../img/tt/515tt.jpg","",""
"8612.320000072941","","","recognition","survey-text","226","1002394","0.0-6.0-3.31","4219606","co38212","norming","","","{""guess"":""dier""}","","../img/tt/515tt.jpg","",""
"null","../img/gs/515gs.jpg","null","reveal","image-keyboard-response","227","1004401","0.0-6.0-4.31","4219606","co38212","norming","","","","","","",""
"null","../img/tt/515tt.jpg","null","mooney2","image-keyboard-response","228","1006406","0.0-6.0-5.31","4219606","co38212","norming","","","","","","",""
"3469.5550000760704","","","post_reveal_questions","survey-likert","229","1009878","0.0-6.0-6.31","4219606","co38212","norming","","","{""aha"":4}","[0]","../img/tt/515tt.jpg","",""
"null","<div style=""font-size:60px;""> </div>","null","fixation","html-keyboard-response","230","1010083","0.0-6.0-0.32","4219606","co38212","norming","","","","","","",""
"null","../img/tt/270tt.jpg","null","mooney1","image-keyboard-response","231","1013085","0.0-6.0-1.32","4219606","co38212","norming","","","","","","",""
"4779.054999933578","","","post_mooney1_questions","survey-likert","232","1017866","0.0-6.0-2.32","4219606","co38212","norming","","","{""curiosity"":4,""confidence"":4}","[0,1]","../img/tt/270tt.jpg","",""
"2954.245000029914","","","recognition","survey-text","233","1020825","0.0-6.0-3.32","4219606","co38212","norming","","","{""guess"":""hert""}","","../img/tt/270tt.jpg","",""
"null","../img/gs/270gs.jpg","null","reveal","image-keyboard-response","234","1022832","0.0-6.0-4.32","4219606","co38212","norming","","","","","","",""
"null","../img/tt/270tt.jpg","null","mooney2","image-keyboard-response","235","1024834","0.0-6.0-5.32","4219606","co38212","norming","","","","","","",""
"3513.1749999709427","","","post_reveal_questions","survey-likert","236","1028349","0.0-6.0-6.32","4219606","co38212","norming","","","{""aha"":2}","[0]","../img/tt/270tt.jpg","",""
"null","<div style=""font-size:60px;""> </div>","null","fixation","html-keyboard-response","237","1028555","0.0-6.0-0.33","4219606","co38212","norming","","","","","","",""
"null","../img/tt/1278tt.jpg","null","mooney1","image-keyboard-response","238","1031562","0.0-6.0-1.33","4219606","co38212","norming","","","","","","",""
"5078.074999968521","","","post_mooney1_questions","survey-likert","239","1036643","0.0-6.0-2.33","4219606","co38212","norming","","","{""curiosity"":2,""confidence"":2}","[0,1]","../img/tt/1278tt.jpg","",""
"3476.574999978766","","","recognition","survey-text","240","1040125","0.0-6.0-3.33","4219606","co38212","norming","","","{""guess"":""man""}","","../img/tt/1278tt.jpg","",""
"null","../img/gs/1278gs.jpg","null","reveal","image-keyboard-response","241","1042132","0.0-6.0-4.33","4219606","co38212","norming","","","","","","",""
"null","../img/tt/1278tt.jpg","null","mooney2","image-keyboard-response","242","1044138","0.0-6.0-5.33","4219606","co38212","norming","","","","","","",""
"2628.855000017211","","","post_reveal_questions","survey-likert","243","1046769","0.0-6.0-6.33","4219606","co38212","norming","","","{""aha"":4}","[0]","../img/tt/1278tt.jpg","",""
"null","<div style=""font-size:60px;""> </div>","null","fixation","html-keyboard-response","244","1046976","0.0-6.0-0.34","4219606","co38212","norming","","","","","","",""
"null","../img/tt/436tt.jpg","null","mooney1","image-keyboard-response","245","1049980","0.0-6.0-1.34","4219606","co38212","norming","","","","","","",""
"6527.250000042841","","","post_mooney1_questions","survey-likert","246","1056509","0.0-6.0-2.34","4219606","co38212","norming","","","{""curiosity"":1,""confidence"":0}","[0,1]","../img/tt/436tt.jpg","",""
"1222.345000016503","","","recognition","survey-text","247","1057735","0.0-6.0-3.34","4219606","co38212","norming","","","{""guess"":""""}","","../img/tt/436tt.jpg","",""
"null","../img/gs/436gs.jpg","null","reveal","image-keyboard-response","248","1059741","0.0-6.0-4.34","4219606","co38212","norming","","","","","","",""
"null","../img/tt/436tt.jpg","null","mooney2","image-keyboard-response","249","1061747","0.0-6.0-5.34","4219606","co38212","norming","","","","","","",""
"3481.1300000874326","","","post_reveal_questions","survey-likert","250","1065230","0.0-6.0-6.34","4219606","co38212","norming","","","{""aha"":4}","[0]","../img/tt/436tt.jpg","",""
"null","<div style=""font-size:60px;""> </div>","null","fixation","html-keyboard-response","251","1065433","0.0-6.0-0.35","4219606","co38212","norming","","","","","","",""
"null","../img/tt/440tt.jpg","null","mooney1","image-keyboard-response","252","1068435","0.0-6.0-1.35","4219606","co38212","norming","","","","","","",""
"5532.579999999143","","","post_mooney1_questions","survey-likert","253","1073969","0.0-6.0-2.35","4219606","co38212","norming","","","{""curiosity"":1,""confidence"":0}","[0,1]","../img/tt/440tt.jpg","",""
"1428.1000000191852","","","recognition","survey-text","254","1075401","0.0-6.0-3.35","4219606","co38212","norming","","","{""guess"":""""}","","../img/tt/440tt.jpg","",""
"null","../img/gs/440gs.jpg","null","reveal","image-keyboard-response","255","1077408","0.0-6.0-4.35","4219606","co38212","norming","","","","","","",""
"null","../img/tt/440tt.jpg","null","mooney2","image-keyboard-response","256","1079415","0.0-6.0-5.35","4219606","co38212","norming","","","","","","",""
"2673.3049999456853","","","post_reveal_questions","survey-likert","257","1082090","0.0-6.0-6.35","4219606","co38212","norming","","","{""aha"":4}","[0]","../img/tt/440tt.jpg","",""
"null","<div style=""font-size:60px;""> </div>","null","fixation","html-keyboard-response","258","1082297","0.0-6.0-0.36","4219606","co38212","norming","","","","","","",""
"null","../img/tt/301tt.jpg","null","mooney1","image-keyboard-response","259","1085304","0.0-6.0-1.36","4219606","co38212","norming","","","","","","",""
"4696.25499995891","","","post_mooney1_questions","survey-likert","260","1090002","0.0-6.0-2.36","4219606","co38212","norming","","","{""curiosity"":1,""confidence"":0}","[0,1]","../img/tt/301tt.jpg","",""
"794.8800000594929","","","recognition","survey-text","261","1090802","0.0-6.0-3.36","4219606","co38212","norming","","","{""guess"":""""}","","../img/tt/301tt.jpg","",""
"null","../img/gs/301gs.jpg","null","reveal","image-keyboard-response","262","1092809","0.0-6.0-4.36","4219606","co38212","norming","","","","","","",""
"null","../img/tt/301tt.jpg","null","mooney2","image-keyboard-response","263","1094812","0.0-6.0-5.36","4219606","co38212","norming","","","","","","",""
"2607.4349998962134","","","post_reveal_questions","survey-likert","264","1097422","0.0-6.0-6.36","4219606","co38212","norming","","","{""aha"":3}","[0]","../img/tt/301tt.jpg","",""
"null","<div style=""font-size:60px;""> </div>","null","fixation","html-keyboard-response","265","1097627","0.0-6.0-0.37","4219606","co38212","norming","","","","","","",""
"null","../img/tt/1027tt.jpg","null","mooney1","image-keyboard-response","266","1100630","0.0-6.0-1.37","4219606","co38212","norming","","","","","","",""
"6459.054999984801","","","post_mooney1_questions","survey-likert","267","1107092","0.0-6.0-2.37","4219606","co38212","norming","","","{""curiosity"":2,""confidence"":2}","[0,1]","../img/tt/1027tt.jpg","",""
"2554.725000052713","","","recognition","survey-text","268","1109652","0.0-6.0-3.37","4219606","co38212","norming","","","{""guess"":""paard""}","","../img/tt/1027tt.jpg","",""
"null","../img/gs/1027gs.jpg","null","reveal","image-keyboard-response","269","1111659","0.0-6.0-4.37","4219606","co38212","norming","","","","","","",""
"null","../img/tt/1027tt.jpg","null","mooney2","image-keyboard-response","270","1113660","0.0-6.0-5.37","4219606","co38212","norming","","","","","","",""
"2887.1199999703094","","","post_reveal_questions","survey-likert","271","1116550","0.0-6.0-6.37","4219606","co38212","norming","","","{""aha"":4}","[0]","../img/tt/1027tt.jpg","",""
"null","<div style=""font-size:60px;""> </div>","null","fixation","html-keyboard-response","272","1116755","0.0-6.0-0.38","4219606","co38212","norming","","","","","","",""
"null","../img/tt/319tt.jpg","null","mooney1","image-keyboard-response","273","1119759","0.0-6.0-1.38","4219606","co38212","norming","","","","","","",""
"4813.86500003282","","","post_mooney1_questions","survey-likert","274","1124575","0.0-6.0-2.38","4219606","co38212","norming","","","{""curiosity"":2,""confidence"":5}","[0,1]","../img/tt/319tt.jpg","",""
"4281.590000027791","","","recognition","survey-text","275","1128861","0.0-6.0-3.38","4219606","co38212","norming","","","{""guess"":""ezels""}","","../img/tt/319tt.jpg","",""
"null","../img/gs/319gs.jpg","null","reveal","image-keyboard-response","276","1130865","0.0-6.0-4.38","4219606","co38212","norming","","","","","","",""
"null","../img/tt/319tt.jpg","null","mooney2","image-keyboard-response","277","1132870","0.0-6.0-5.38","4219606","co38212","norming","","","","","","",""
"6183.199999970384","","","post_reveal_questions","survey-likert","278","1139055","0.0-6.0-6.38","4219606","co38212","norming","","","{""aha"":1}","[0]","../img/tt/319tt.jpg","",""
"null","<div style=""font-size:60px;""> </div>","null","fixation","html-keyboard-response","279","1139261","0.0-6.0-0.39","4219606","co38212","norming","","","","","","",""
"null","../img/tt/1012tt.jpg","null","mooney1","image-keyboard-response","280","1142265","0.0-6.0-1.39","4219606","co38212","norming","","","","","","",""
"5440.709999995306","","","post_mooney1_questions","survey-likert","281","1147707","0.0-6.0-2.39","4219606","co38212","norming","","","{""curiosity"":4,""confidence"":2}","[0,1]","../img/tt/1012tt.jpg","",""
"3380.6349999504164","","","recognition","survey-text","282","1151092","0.0-6.0-3.39","4219606","co38212","norming","","","{""guess"":""paard""}","","../img/tt/1012tt.jpg","",""
"null","../img/gs/1012gs.jpg","null","reveal","image-keyboard-response","283","1153095","0.0-6.0-4.39","4219606","co38212","norming","","","","","","",""
"null","../img/tt/1012tt.jpg","null","mooney2","image-keyboard-response","284","1155101","0.0-6.0-5.39","4219606","co38212","norming","","","","","","",""
"3484.085000003688","","","post_reveal_questions","survey-likert","285","1158587","0.0-6.0-6.39","4219606","co38212","norming","","","{""aha"":4}","[0]","../img/tt/1012tt.jpg","",""
"null","<div style=""font-size:60px;""> </div>","null","fixation","html-keyboard-response","286","1158794","0.0-6.0-0.40","4219606","co38212","norming","","","","","","",""
"null","../img/tt/416tt.jpg","null","mooney1","image-keyboard-response","287","1161800","0.0-6.0-1.40","4219606","co38212","norming","","","","","","",""
"7202.4400000227615","","","post_mooney1_questions","survey-likert","288","1169005","0.0-6.0-2.40","4219606","co38212","norming","","","{""curiosity"":2,""confidence"":0}","[0,1]","../img/tt/416tt.jpg","",""
"940.7349999528378","","","recognition","survey-text","289","1169949","0.0-6.0-3.40","4219606","co38212","norming","","","{""guess"":""""}","","../img/tt/416tt.jpg","",""
"null","../img/gs/416gs.jpg","null","reveal","image-keyboard-response","290","1171951","0.0-6.0-4.40","4219606","co38212","norming","","","","","","",""
"null","../img/tt/416tt.jpg","null","mooney2","image-keyboard-response","291","1173958","0.0-6.0-5.40","4219606","co38212","norming","","","","","","",""
"3975.2850000513718","","","post_reveal_questions","survey-likert","292","1177935","0.0-6.0-6.40","4219606","co38212","norming","","","{""aha"":2}","[0]","../img/tt/416tt.jpg","",""
"null","<div style=""font-size:60px;""> </div>","null","fixation","html-keyboard-response","293","1178142","0.0-6.0-0.41","4219606","co38212","norming","","","","","","",""
"null","../img/tt/1161tt.jpg","null","mooney1","image-keyboard-response","294","1181144","0.0-6.0-1.41","4219606","co38212","norming","","","","","","",""
"4781.695000012405","","","post_mooney1_questions","survey-likert","295","1185927","0.0-6.0-2.41","4219606","co38212","norming","","","{""curiosity"":2,""confidence"":3}","[0,1]","../img/tt/1161tt.jpg","",""
"4591.649999958463","","","recognition","survey-text","296","1190523","0.0-6.0-3.41","4219606","co38212","norming","","","{""guess"":""bergbeklimmer""}","","../img/tt/1161tt.jpg","",""
"null","../img/gs/1161gs.jpg","null","reveal","image-keyboard-response","297","1192529","0.0-6.0-4.41","4219606","co38212","norming","","","","","","",""
"null","../img/tt/1161tt.jpg","null","mooney2","image-keyboard-response","298","1194534","0.0-6.0-5.41","4219606","co38212","norming","","","","","","",""
"5193.329999921843","","","post_reveal_questions","survey-likert","299","1199729","0.0-6.0-6.41","4219606","co38212","norming","","","{""aha"":2}","[0]","../img/tt/1161tt.jpg","",""
"null","<div style=""font-size:60px;""> </div>","null","fixation","html-keyboard-response","300","1199934","0.0-6.0-0.42","4219606","co38212","norming","","","","","","",""
"null","../img/tt/085tt.jpg","null","mooney1","image-keyboard-response","301","1202939","0.0-6.0-1.42","4219606","co38212","norming","","","","","","",""
"8190.605000010692","","","post_mooney1_questions","survey-likert","302","1211132","0.0-6.0-2.42","4219606","co38212","norming","","","{""curiosity"":4,""confidence"":1}","[0,1]","../img/tt/085tt.jpg","",""
"3850.8950000396","","","recognition","survey-text","303","1214986","0.0-6.0-3.42","4219606","co38212","norming","","","{""guess"":""persoon""}","","../img/tt/085tt.jpg","",""
"null","../img/gs/085gs.jpg","null","reveal","image-keyboard-response","304","1216994","0.0-6.0-4.42","4219606","co38212","norming","","","","","","",""
"null","../img/tt/085tt.jpg","null","mooney2","image-keyboard-response","305","1218996","0.0-6.0-5.42","4219606","co38212","norming","","","","","","",""
"3286.270000040531","","","post_reveal_questions","survey-likert","306","1222284","0.0-6.0-6.42","4219606","co38212","norming","","","{""aha"":4}","[0]","../img/tt/085tt.jpg","",""
"null","<div style=""font-size:60px;""> </div>","null","fixation","html-keyboard-response","307","1222491","0.0-6.0-0.43","4219606","co38212","norming","","","","","","",""
"null","../img/tt/468tt.jpg","null","mooney1","image-keyboard-response","308","1225501","0.0-6.0-1.43","4219606","co38212","norming","","","","","","",""
"9295.809999923222","","","post_mooney1_questions","survey-likert","309","1234799","0.0-6.0-2.43","4219606","co38212","norming","","","{""curiosity"":4,""confidence"":0}","[0,1]","../img/tt/468tt.jpg","",""
"933.0249999184161","","","recognition","survey-text","310","1235735","0.0-6.0-3.43","4219606","co38212","norming","","","{""guess"":""""}","","../img/tt/468tt.jpg","",""
"null","../img/gs/468gs.jpg","null","reveal","image-keyboard-response","311","1237738","0.0-6.0-4.43","4219606","co38212","norming","","","","","","",""
"null","../img/tt/468tt.jpg","null","mooney2","image-keyboard-response","312","1239745","0.0-6.0-5.43","4219606","co38212","norming","","","","","","",""
"2986.09000002034","","","post_reveal_questions","survey-likert","313","1242733","0.0-6.0-6.43","4219606","co38212","norming","","","{""aha"":4}","[0]","../img/tt/468tt.jpg","",""
"null","<div style=""font-size:60px;""> </div>","null","fixation","html-keyboard-response","314","1242938","0.0-6.0-0.44","4219606","co38212","norming","","","","","","",""
"null","../img/tt/1227tt.jpg","null","mooney1","image-keyboard-response","315","1245945","0.0-6.0-1.44","4219606","co38212","norming","","","","","","",""
"4431.72999995295","","","post_mooney1_questions","survey-likert","316","1250379","0.0-6.0-2.44","4219606","co38212","norming","","","{""curiosity"":1,""confidence"":0}","[0,1]","../img/tt/1227tt.jpg","",""
"1195.5799999414012","","","recognition","survey-text","317","1251579","0.0-6.0-3.44","4219606","co38212","norming","","","{""guess"":""""}","","../img/tt/1227tt.jpg","",""
"null","../img/gs/1227gs.jpg","null","reveal","image-keyboard-response","318","1253586","0.0-6.0-4.44","4219606","co38212","norming","","","","","","",""
"null","../img/tt/1227tt.jpg","null","mooney2","image-keyboard-response","319","1255588","0.0-6.0-5.44","4219606","co38212","norming","","","","","","",""
"2759.2449999647215","","","post_reveal_questions","survey-likert","320","1258350","0.0-6.0-6.44","4219606","co38212","norming","","","{""aha"":4}","[0]","../img/tt/1227tt.jpg","",""
"null","<div style=""font-size:60px;""> </div>","null","fixation","html-keyboard-response","321","1258556","0.0-6.0-0.45","4219606","co38212","norming","","","","","","",""
"null","../img/tt/497tt.jpg","null","mooney1","image-keyboard-response","322","1261563","0.0-6.0-1.45","4219606","co38212","norming","","","","","","",""
"7170.189999975264","","","post_mooney1_questions","survey-likert","323","1268735","0.0-6.0-2.45","4219606","co38212","norming","","","{""curiosity"":4,""confidence"":4}","[0,1]","../img/tt/497tt.jpg","",""
"1931.0349998995662","","","recognition","survey-text","324","1270670","0.0-6.0-3.45","4219606","co38212","norming","","","{""guess"":""vuur""}","","../img/tt/497tt.jpg","",""
"null","../img/gs/497gs.jpg","null","reveal","image-keyboard-response","325","1272677","0.0-6.0-4.45","4219606","co38212","norming","","","","","","",""
"null","../img/tt/497tt.jpg","null","mooney2","image-keyboard-response","326","1274684","0.0-6.0-5.45","4219606","co38212","norming","","","","","","",""
"3401.629999978468","","","post_reveal_questions","survey-likert","327","1278087","0.0-6.0-6.45","4219606","co38212","norming","","","{""aha"":1}","[0]","../img/tt/497tt.jpg","",""
"null","<div style=""font-size:60px;""> </div>","null","fixation","html-keyboard-response","328","1278294","0.0-6.0-0.46","4219606","co38212","norming","","","","","","",""
"null","../img/tt/524tt.jpg","null","mooney1","image-keyboard-response","329","1281301","0.0-6.0-1.46","4219606","co38212","norming","","","","","","",""
"8610.684999963269","","","post_mooney1_questions","survey-likert","330","1289914","0.0-6.0-2.46","4219606","co38212","norming","","","{""curiosity"":2,""confidence"":1}","[0,1]","../img/tt/524tt.jpg","",""
"2985.0999999325722","","","recognition","survey-text","331","1292903","0.0-6.0-3.46","4219606","co38212","norming","","","{""guess"":""beer""}","","../img/tt/524tt.jpg","",""
"null","../img/gs/524gs.jpg","null","reveal","image-keyboard-response","332","1294906","0.0-6.0-4.46","4219606","co38212","norming","","","","","","",""
"null","../img/tt/524tt.jpg","null","mooney2","image-keyboard-response","333","1296912","0.0-6.0-5.46","4219606","co38212","norming","","","","","","",""
"3695.945000043139","","","post_reveal_questions","survey-likert","334","1300610","0.0-6.0-6.46","4219606","co38212","norming","","","{""aha"":4}","[0]","../img/tt/524tt.jpg","",""
"null","<div style=""font-size:60px;""> </div>","null","fixation","html-keyboard-response","335","1300817","0.0-6.0-0.47","4219606","co38212","norming","","","","","","",""
"null","../img/tt/1069tt.jpg","null","mooney1","image-keyboard-response","336","1303824","0.0-6.0-1.47","4219606","co38212","norming","","","","","","",""
"5390.505000017583","","","post_mooney1_questions","survey-likert","337","1309216","0.0-6.0-2.47","4219606","co38212","norming","","","{""curiosity"":1,""confidence"":0}","[0,1]","../img/tt/1069tt.jpg","",""
"1004.8650000244379","","","recognition","survey-text","338","1310225","0.0-6.0-3.47","4219606","co38212","norming","","","{""guess"":""""}","","../img/tt/1069tt.jpg","",""
"null","../img/gs/1069gs.jpg","null","reveal","image-keyboard-response","339","1312229","0.0-6.0-4.47","4219606","co38212","norming","","","","","","",""
"null","../img/tt/1069tt.jpg","null","mooney2","image-keyboard-response","340","1314231","0.0-6.0-5.47","4219606","co38212","norming","","","","","","",""
"4089.395000017248","","","post_reveal_questions","survey-likert","341","1318323","0.0-6.0-6.47","4219606","co38212","norming","","","{""aha"":4}","[0]","../img/tt/1069tt.jpg","",""
"null","<div style=""font-size:60px;""> </div>","null","fixation","html-keyboard-response","342","1318527","0.0-6.0-0.48","4219606","co38212","norming","","","","","","",""
"null","../img/tt/010tt.jpg","null","mooney1","image-keyboard-response","343","1321530","0.0-6.0-1.48","4219606","co38212","norming","","","","","","",""
"9226.619999972172","","","post_mooney1_questions","survey-likert","344","1330759","0.0-6.0-2.48","4219606","co38212","norming","","","{""curiosity"":1,""confidence"":0}","[0,1]","../img/tt/010tt.jpg","",""
"1512.3400000156835","","","recognition","survey-text","345","1332275","0.0-6.0-3.48","4219606","co38212","norming","","","{""guess"":""""}","","../img/tt/010tt.jpg","",""
"null","../img/gs/010gs.jpg","null","reveal","image-keyboard-response","346","1334282","0.0-6.0-4.48","4219606","co38212","norming","","","","","","",""
"null","../img/tt/010tt.jpg","null","mooney2","image-keyboard-response","347","1336285","0.0-6.0-5.48","4219606","co38212","norming","","","","","","",""
"10710.994999972172","","","post_reveal_questions","survey-likert","348","1346997","0.0-6.0-6.48","4219606","co38212","norming","","","{""aha"":1}","[0]","../img/tt/010tt.jpg","",""
"null","<div style=""font-size:60px;""> </div>","null","fixation","html-keyboard-response","349","1347204","0.0-6.0-0.49","4219606","co38212","norming","","","","","","",""
"null","../img/tt/1066tt.jpg","null","mooney1","image-keyboard-response","350","1350211","0.0-6.0-1.49","4219606","co38212","norming","","","","","","",""
"5938.885000068694","","","post_mooney1_questions","survey-likert","351","1356152","0.0-6.0-2.49","4219606","co38212","norming","","","{""curiosity"":1,""confidence"":5}","[0,1]","../img/tt/1066tt.jpg","",""
"1936.1100000096485","","","recognition","survey-text","352","1358092","0.0-6.0-3.49","4219606","co38212","norming","","","{""guess"":""bus""}","","../img/tt/1066tt.jpg","",""
"null","../img/gs/1066gs.jpg","null","reveal","image-keyboard-response","353","1360099","0.0-6.0-4.49","4219606","co38212","norming","","","","","","",""
"null","../img/tt/1066tt.jpg","null","mooney2","image-keyboard-response","354","1362104","0.0-6.0-5.49","4219606","co38212","norming","","","","","","",""
"3305.515000014566","","","post_reveal_questions","survey-likert","355","1365412","0.0-6.0-6.49","4219606","co38212","norming","","","{""aha"":0}","[0]","../img/tt/1066tt.jpg","",""
"null","<div style=""font-size:60px;""> </div>","null","fixation","html-keyboard-response","356","1365618","0.0-6.0-0.50","4219606","co38212","norming","","","","","","",""
"null","../img/tt/040tt.jpg","null","mooney1","image-keyboard-response","357","1368625","0.0-6.0-1.50","4219606","co38212","norming","","","","","","",""
"5189.799999934621","","","post_mooney1_questions","survey-likert","358","1373817","0.0-6.0-2.50","4219606","co38212","norming","","","{""curiosity"":1,""confidence"":6}","[0,1]","../img/tt/040tt.jpg","",""
"2222.3650000523776","","","recognition","survey-text","359","1376043","0.0-6.0-3.50","4219606","co38212","norming","","","{""guess"":""aap""}","","../img/tt/040tt.jpg","",""
"null","../img/gs/040gs.jpg","null","reveal","image-keyboard-response","360","1378050","0.0-6.0-4.50","4219606","co38212","norming","","","","","","",""
"null","../img/tt/040tt.jpg","null","mooney2","image-keyboard-response","361","1380056","0.0-6.0-5.50","4219606","co38212","norming","","","","","","",""
"3704.6949999639764","","","post_reveal_questions","survey-likert","362","1383762","0.0-6.0-6.50","4219606","co38212","norming","","","{""aha"":0}","[0]","../img/tt/040tt.jpg","",""
"null","<div style=""font-size:60px;""> </div>","null","fixation","html-keyboard-response","363","1383965","0.0-6.0-0.51","4219606","co38212","norming","","","","","","",""
"null","../img/tt/1127tt.jpg","null","mooney1","image-keyboard-response","364","1386972","0.0-6.0-1.51","4219606","co38212","norming","","","","","","",""
"8649.990000063553","","","post_mooney1_questions","survey-likert","365","1395624","0.0-6.0-2.51","4219606","co38212","norming","","","{""curiosity"":2,""confidence"":4}","[0,1]","../img/tt/1127tt.jpg","",""
"6195.769999991171","","","recognition","survey-text","366","1401823","0.0-6.0-3.51","4219606","co38212","norming","","","{""guess"":""karate""}","","../img/tt/1127tt.jpg","",""
"null","../img/gs/1127gs.jpg","null","reveal","image-keyboard-response","367","1403826","0.0-6.0-4.51","4219606","co38212","norming","","","","","","",""
"null","../img/tt/1127tt.jpg","null","mooney2","image-keyboard-response","368","1405828","0.0-6.0-5.51","4219606","co38212","norming","","","","","","",""
"6772.550000110641","","","post_reveal_questions","survey-likert","369","1412603","0.0-6.0-6.51","4219606","co38212","norming","","","{""aha"":4}","[0]","../img/tt/1127tt.jpg","",""
"null","<div style=""font-size:60px;""> </div>","null","fixation","html-keyboard-response","370","1412807","0.0-6.0-0.52","4219606","co38212","norming","","","","","","",""
"null","../img/tt/584tt.jpg","null","mooney1","image-keyboard-response","371","1415814","0.0-6.0-1.52","4219606","co38212","norming","","","","","","",""
"4312.855000025593","","","post_mooney1_questions","survey-likert","372","1420129","0.0-6.0-2.52","4219606","co38212","norming","","","{""curiosity"":2,""confidence"":4}","[0,1]","../img/tt/584tt.jpg","",""
"4157.5299999676645","","","recognition","survey-text","373","1424291","0.0-6.0-3.52","4219606","co38212","norming","","","{""guess"":""tangen""}","","../img/tt/584tt.jpg","",""
"null","../img/gs/584gs.jpg","null","reveal","image-keyboard-response","374","1426297","0.0-6.0-4.52","4219606","co38212","norming","","","","","","",""
"null","../img/tt/584tt.jpg","null","mooney2","image-keyboard-response","375","1428303","0.0-6.0-5.52","4219606","co38212","norming","","","","","","",""
"43739.215000066906","","","post_reveal_questions","survey-likert","376","1472043","0.0-6.0-6.52","4219606","co38212","norming","","","{""aha"":0}","[0]","../img/tt/584tt.jpg","",""
"null","<div style=""font-size:60px;""> </div>","null","fixation","html-keyboard-response","377","1472250","0.0-6.0-0.53","4219606","co38212","norming","","","","","","",""
"null","../img/tt/418tt.jpg","null","mooney1","image-keyboard-response","378","1475255","0.0-6.0-1.53","4219606","co38212","norming","","","","","","",""
"5173.67499996908","","","post_mooney1_questions","survey-likert","379","1480431","0.0-6.0-2.53","4219606","co38212","norming","","","{""curiosity"":2,""confidence"":2}","[0,1]","../img/tt/418tt.jpg","",""
"1599.6349999913946","","","recognition","survey-text","380","1482036","0.0-6.0-3.53","4219606","co38212","norming","","","{""guess"":""auto""}","","../img/tt/418tt.jpg","",""
"null","../img/gs/418gs.jpg","null","reveal","image-keyboard-response","381","1484039","0.0-6.0-4.53","4219606","co38212","norming","","","","","","",""
"null","../img/tt/418tt.jpg","null","mooney2","image-keyboard-response","382","1486041","0.0-6.0-5.53","4219606","co38212","norming","","","","","","",""
"4863.340000039898","","","post_reveal_questions","survey-likert","383","1490906","0.0-6.0-6.53","4219606","co38212","norming","","","{""aha"":5}","[0]","../img/tt/418tt.jpg","",""
"null","<div style=""font-size:60px;""> </div>","null","fixation","html-keyboard-response","384","1491108","0.0-6.0-0.54","4219606","co38212","norming","","","","","","",""
"null","../img/tt/1143tt.jpg","null","mooney1","image-keyboard-response","385","1494110","0.0-6.0-1.54","4219606","co38212","norming","","","","","","",""
"4474.900000030175","","","post_mooney1_questions","survey-likert","386","1498588","0.0-6.0-2.54","4219606","co38212","norming","","","{""curiosity"":2,""confidence"":5}","[0,1]","../img/tt/1143tt.jpg","",""
"2409.1999999945983","","","recognition","survey-text","387","1501004","0.0-6.0-3.54","4219606","co38212","norming","","","{""guess"":""fitness""}","","../img/tt/1143tt.jpg","",""
"null","../img/gs/1143gs.jpg","null","reveal","image-keyboard-response","388","1503010","0.0-6.0-4.54","4219606","co38212","norming","","","","","","",""
"null","../img/tt/1143tt.jpg","null","mooney2","image-keyboard-response","389","1505012","0.0-6.0-5.54","4219606","co38212","norming","","","","","","",""
"3569.0900000045076","","","post_reveal_questions","survey-likert","390","1508582","0.0-6.0-6.54","4219606","co38212","norming","","","{""aha"":1}","[0]","../img/tt/1143tt.jpg","",""
"null","<div style=""font-size:60px;""> </div>","null","fixation","html-keyboard-response","391","1508784","0.0-6.0-0.55","4219606","co38212","norming","","","","","","",""
"null","../img/tt/126tt.jpg","null","mooney1","image-keyboard-response","392","1511786","0.0-6.0-1.55","4219606","co38212","norming","","","","","","",""
"4665.924999979325","","","post_mooney1_questions","survey-likert","393","1516453","0.0-6.0-2.55","4219606","co38212","norming","","","{""curiosity"":0,""confidence"":0}","[0,1]","../img/tt/126tt.jpg","",""
"798.6899999668822","","","recognition","survey-text","394","1517257","0.0-6.0-3.55","4219606","co38212","norming","","","{""guess"":""""}","","../img/tt/126tt.jpg","",""
"null","../img/gs/126gs.jpg","null","reveal","image-keyboard-response","395","1519263","0.0-6.0-4.55","4219606","co38212","norming","","","","","","",""
"null","../img/tt/126tt.jpg","null","mooney2","image-keyboard-response","396","1521264","0.0-6.0-5.55","4219606","co38212","norming","","","","","","",""
"4172.090000007302","","","post_reveal_questions","survey-likert","397","1525438","0.0-6.0-6.55","4219606","co38212","norming","","","{""aha"":3}","[0]","../img/tt/126tt.jpg","",""
"null","<div style=""font-size:60px;""> </div>","null","fixation","html-keyboard-response","398","1525645","0.0-6.0-0.56","4219606","co38212","norming","","","","","","",""
"null","../img/tt/1044tt.jpg","null","mooney1","image-keyboard-response","399","1528650","0.0-6.0-1.56","4219606","co38212","norming","","","","","","",""
"4323.389999917708","","","post_mooney1_questions","survey-likert","400","1532975","0.0-6.0-2.56","4219606","co38212","norming","","","{""curiosity"":1,""confidence"":4}","[0,1]","../img/tt/1044tt.jpg","",""
"1703.135000076145","","","recognition","survey-text","401","1534682","0.0-6.0-3.56","4219606","co38212","norming","","","{""guess"":""giraf""}","","../img/tt/1044tt.jpg","",""
"null","../img/gs/1044gs.jpg","null","reveal","image-keyboard-response","402","1536687","0.0-6.0-4.56","4219606","co38212","norming","","","","","","",""
"null","../img/tt/1044tt.jpg","null","mooney2","image-keyboard-response","403","1538689","0.0-6.0-5.56","4219606","co38212","norming","","","","","","",""
"3256.2700000125915","","","post_reveal_questions","survey-likert","404","1541947","0.0-6.0-6.56","4219606","co38212","norming","","","{""aha"":2}","[0]","../img/tt/1044tt.jpg","",""
"null","<div style=""font-size:60px;""> </div>","null","fixation","html-keyboard-response","405","1542153","0.0-6.0-0.57","4219606","co38212","norming","","","","","","",""
"null","../img/tt/590tt.jpg","null","mooney1","image-keyboard-response","406","1545155","0.0-6.0-1.57","4219606","co38212","norming","","","","","","",""
"6242.760000051931","","","post_mooney1_questions","survey-likert","407","1551400","0.0-6.0-2.57","4219606","co38212","norming","","","{""curiosity"":2,""confidence"":0}","[0,1]","../img/tt/590tt.jpg","",""
"812.2250000014901","","","recognition","survey-text","408","1552215","0.0-6.0-3.57","4219606","co38212","norming","","","{""guess"":""""}","","../img/tt/590tt.jpg","",""
"null","../img/gs/590gs.jpg","null","reveal","image-keyboard-response","409","1554218","0.0-6.0-4.57","4219606","co38212","norming","","","","","","",""
"null","../img/tt/590tt.jpg","null","mooney2","image-keyboard-response","410","1556219","0.0-6.0-5.57","4219606","co38212","norming","","","","","","",""
"3736.3749999785796","","","post_reveal_questions","survey-likert","411","1559957","0.0-6.0-6.57","4219606","co38212","norming","","","{""aha"":4}","[0]","../img/tt/590tt.jpg","",""
"null","<div style=""font-size:60px;""> </div>","null","fixation","html-keyboard-response","412","1560159","0.0-6.0-0.58","4219606","co38212","norming","","","","","","",""
"null","../img/tt/1049tt.jpg","null","mooney1","image-keyboard-response","413","1563160","0.0-6.0-1.58","4219606","co38212","norming","","","","","","",""
"4679.2500000447035","","","post_mooney1_questions","survey-likert","414","1567841","0.0-6.0-2.58","4219606","co38212","norming","","","{""curiosity"":2,""confidence"":3}","[0,1]","../img/tt/1049tt.jpg","",""
"1475.7349999854341","","","recognition","survey-text","415","1569320","0.0-6.0-3.58","4219606","co38212","norming","","","{""guess"":""geit""}","","../img/tt/1049tt.jpg","",""
"null","../img/gs/1049gs.jpg","null","reveal","image-keyboard-response","416","1571322","0.0-6.0-4.58","4219606","co38212","norming","","","","","","",""
"null","../img/tt/1049tt.jpg","null","mooney2","image-keyboard-response","417","1573324","0.0-6.0-5.58","4219606","co38212","norming","","","","","","",""
"2998.0400000931695","","","post_reveal_questions","survey-likert","418","1576323","0.0-6.0-6.58","4219606","co38212","norming","","","{""aha"":4}","[0]","../img/tt/1049tt.jpg","",""
"null","<div style=""font-size:60px;""> </div>","null","fixation","html-keyboard-response","419","1576527","0.0-6.0-0.59","4219606","co38212","norming","","","","","","",""
"null","../img/tt/080tt.jpg","null","mooney1","image-keyboard-response","420","1579534","0.0-6.0-1.59","4219606","co38212","norming","","","","","","",""
"4203.05000001099","","","post_mooney1_questions","survey-likert","421","1583740","0.0-6.0-2.59","4219606","co38212","norming","","","{""curiosity"":4,""confidence"":4}","[0,1]","../img/tt/080tt.jpg","",""
"1198.1549999909475","","","recognition","survey-text","422","1584942","0.0-6.0-3.59","4219606","co38212","norming","","","{""guess"":""hond""}","","../img/tt/080tt.jpg","",""
"null","../img/gs/080gs.jpg","null","reveal","image-keyboard-response","423","1586948","0.0-6.0-4.59","4219606","co38212","norming","","","","","","",""
"null","../img/tt/080tt.jpg","null","mooney2","image-keyboard-response","424","1588950","0.0-6.0-5.59","4219606","co38212","norming","","","","","","",""
"2289.4999999552965","","","post_reveal_questions","survey-likert","425","1591241","0.0-6.0-6.59","4219606","co38212","norming","","","{""aha"":5}","[0]","../img/tt/080tt.jpg","",""
"null","<div style=""font-size:60px;""> </div>","null","fixation","html-keyboard-response","426","1591448","0.0-6.0-0.60","4219606","co38212","norming","","","","","","",""
"null","../img/tt/1283tt.jpg","null","mooney1","image-keyboard-response","427","1594452","0.0-6.0-1.60","4219606","co38212","norming","","","","","","",""
"4700.58499998413","","","post_mooney1_questions","survey-likert","428","1599156","0.0-6.0-2.60","4219606","co38212","norming","","","{""curiosity"":0,""confidence"":0}","[0,1]","../img/tt/1283tt.jpg","",""
"754.0399999124929","","","recognition","survey-text","429","1599914","0.0-6.0-3.60","4219606","co38212","norming","","","{""guess"":""""}","","../img/tt/1283tt.jpg","",""
"null","../img/gs/1283gs.jpg","null","reveal","image-keyboard-response","430","1601916","0.0-6.0-4.60","4219606","co38212","norming","","","","","","",""
"null","../img/tt/1283tt.jpg","null","mooney2","image-keyboard-response","431","1603921","0.0-6.0-5.60","4219606","co38212","norming","","","","","","",""
"6547.854999895208","","","post_reveal_questions","survey-likert","432","1610471","0.0-6.0-6.60","4219606","co38212","norming","","","{""aha"":4}","[0]","../img/tt/1283tt.jpg","",""
"null","<div style=""font-size:60px;""> </div>","null","fixation","html-keyboard-response","433","1610678","0.0-6.0-0.61","4219606","co38212","norming","","","","","","",""
"null","../img/tt/1255tt.jpg","null","mooney1","image-keyboard-response","434","1613685","0.0-6.0-1.61","4219606","co38212","norming","","","","","","",""
"3662.569999927655","","","post_mooney1_questions","survey-likert","435","1617350","0.0-6.0-2.61","4219606","co38212","norming","","","{""curiosity"":1,""confidence"":4}","[0,1]","../img/tt/1255tt.jpg","",""
"1871.930000022985","","","recognition","survey-text","436","1619225","0.0-6.0-3.61","4219606","co38212","norming","","","{""guess"":""konijn""}","","../img/tt/1255tt.jpg","",""
"null","../img/gs/1255gs.jpg","null","reveal","image-keyboard-response","437","1621232","0.0-6.0-4.61","4219606","co38212","norming","","","","","","",""
"null","../img/tt/1255tt.jpg","null","mooney2","image-keyboard-response","438","1623234","0.0-6.0-5.61","4219606","co38212","norming","","","","","","",""
"4266.290000057779","","","post_reveal_questions","survey-likert","439","1627502","0.0-6.0-6.61","4219606","co38212","norming","","","{""aha"":1}","[0]","../img/tt/1255tt.jpg","",""
"null","<div style=""font-size:60px;""> </div>","null","fixation","html-keyboard-response","440","1627709","0.0-6.0-0.62","4219606","co38212","norming","","","","","","",""
"null","../img/tt/380tt.jpg","null","mooney1","image-keyboard-response","441","1630716","0.0-6.0-1.62","4219606","co38212","norming","","","","","","",""
"5211.325000040233","","","post_mooney1_questions","survey-likert","442","1635930","0.0-6.0-2.62","4219606","co38212","norming","","","{""curiosity"":1,""confidence"":0}","[0,1]","../img/tt/380tt.jpg","",""
"873.6700000008568","","","recognition","survey-text","443","1636807","0.0-6.0-3.62","4219606","co38212","norming","","","{""guess"":""""}","","../img/tt/380tt.jpg","",""
"null","../img/gs/380gs.jpg","null","reveal","image-keyboard-response","444","1638814","0.0-6.0-4.62","4219606","co38212","norming","","","","","","",""
"null","../img/tt/380tt.jpg","null","mooney2","image-keyboard-response","445","1640816","0.0-6.0-5.62","4219606","co38212","norming","","","","","","",""
"3098.0950000230223","","","post_reveal_questions","survey-likert","446","1643916","0.0-6.0-6.62","4219606","co38212","norming","","","{""aha"":4}","[0]","../img/tt/380tt.jpg","",""
"null","<div style=""font-size:60px;""> </div>","null","fixation","html-keyboard-response","447","1644120","0.0-6.0-0.63","4219606","co38212","norming","","","","","","",""
"null","../img/tt/358tt.jpg","null","mooney1","image-keyboard-response","448","1647127","0.0-6.0-1.63","4219606","co38212","norming","","","","","","",""
"6837.199999950826","","","post_mooney1_questions","survey-likert","449","1653966","0.0-6.0-2.63","4219606","co38212","norming","","","{""curiosity"":4,""confidence"":1}","[0,1]","../img/tt/358tt.jpg","",""
"1230.974999954924","","","recognition","survey-text","450","1655201","0.0-6.0-3.63","4219606","co38212","norming","","","{""guess"":""aap""}","","../img/tt/358tt.jpg","",""
"null","../img/gs/358gs.jpg","null","reveal","image-keyboard-response","451","1657208","0.0-6.0-4.63","4219606","co38212","norming","","","","","","",""
"null","../img/tt/358tt.jpg","null","mooney2","image-keyboard-response","452","1659214","0.0-6.0-5.63","4219606","co38212","norming","","","","","","",""
"5777.209999971092","","","post_reveal_questions","survey-likert","453","1664994","0.0-6.0-6.63","4219606","co38212","norming","","","{""aha"":4}","[0]","../img/tt/358tt.jpg","",""
"null","<div style=""font-size:60px;""> </div>","null","fixation","html-keyboard-response","454","1665200","0.0-6.0-0.64","4219606","co38212","norming","","","","","","",""
"null","../img/tt/1309tt.jpg","null","mooney1","image-keyboard-response","455","1668207","0.0-6.0-1.64","4219606","co38212","norming","","","","","","",""
"4783.020000089891","","","post_mooney1_questions","survey-likert","456","1672992","0.0-6.0-2.64","4219606","co38212","norming","","","{""curiosity"":0,""confidence"":0}","[0,1]","../img/tt/1309tt.jpg","",""
"867.8550000768155","","","recognition","survey-text","457","1673864","0.0-6.0-3.64","4219606","co38212","norming","","","{""guess"":""""}","","../img/tt/1309tt.jpg","",""
"null","../img/gs/1309gs.jpg","null","reveal","image-keyboard-response","458","1675871","0.0-6.0-4.64","4219606","co38212","norming","","","","","","",""
"null","../img/tt/1309tt.jpg","null","mooney2","image-keyboard-response","459","1677878","0.0-6.0-5.64","4219606","co38212","norming","","","","","","",""
"50615.559999947436","","","post_reveal_questions","survey-likert","460","1728494","0.0-6.0-6.64","4219606","co38212","norming","","","{""aha"":4}","[0]","../img/tt/1309tt.jpg","",""
"null","<div style=""font-size:60px;""> </div>","null","fixation","html-keyboard-response","461","1728699","0.0-6.0-0.65","4219606","co38212","norming","","","","","","",""
"null","../img/tt/1199tt.jpg","null","mooney1","image-keyboard-response","462","1731706","0.0-6.0-1.65","4219606","co38212","norming","","","","","","",""
"4555.515000014566","","","post_mooney1_questions","survey-likert","463","1736264","0.0-6.0-2.65","4219606","co38212","norming","","","{""curiosity"":4,""confidence"":5}","[0,1]","../img/tt/1199tt.jpg","",""
"1544.995000003837","","","recognition","survey-text","464","1737813","0.0-6.0-3.65","4219606","co38212","norming","","","{""guess"":""kind""}","","../img/tt/1199tt.jpg","",""
"null","../img/gs/1199gs.jpg","null","reveal","image-keyboard-response","465","1739819","0.0-6.0-4.65","4219606","co38212","norming","","","","","","",""
"null","../img/tt/1199tt.jpg","null","mooney2","image-keyboard-response","466","1741826","0.0-6.0-5.65","4219606","co38212","norming","","","","","","",""
"3416.884999955073","","","post_reveal_questions","survey-likert","467","1745245","0.0-6.0-6.65","4219606","co38212","norming","","","{""aha"":5}","[0]","../img/tt/1199tt.jpg","",""
"null","<div style=""font-size:60px;""> </div>","null","fixation","html-keyboard-response","468","1745452","0.0-6.0-0.66","4219606","co38212","norming","","","","","","",""
"null","../img/tt/1236tt.jpg","null","mooney1","image-keyboard-response","469","1748458","0.0-6.0-1.66","4219606","co38212","norming","","","","","","",""
"5042.654999997467","","","post_mooney1_questions","survey-likert","470","1753504","0.0-6.0-2.66","4219606","co38212","norming","","","{""curiosity"":0,""confidence"":0}","[0,1]","../img/tt/1236tt.jpg","",""
"861.2349999602884","","","recognition","survey-text","471","1754368","0.0-6.0-3.66","4219606","co38212","norming","","","{""guess"":""""}","","../img/tt/1236tt.jpg","",""
"null","../img/gs/1236gs.jpg","null","reveal","image-keyboard-response","472","1756376","0.0-6.0-4.66","4219606","co38212","norming","","","","","","",""
"null","../img/tt/1236tt.jpg","null","mooney2","image-keyboard-response","473","1758381","0.0-6.0-5.66","4219606","co38212","norming","","","","","","",""
"2995.7000000867993","","","post_reveal_questions","survey-likert","474","1761378","0.0-6.0-6.66","4219606","co38212","norming","","","{""aha"":5}","[0]","../img/tt/1236tt.jpg","",""
"null","<div style=""font-size:60px;""> </div>","null","fixation","html-keyboard-response","475","1761585","0.0-6.0-0.67","4219606","co38212","norming","","","","","","",""
"null","../img/tt/357tt.jpg","null","mooney1","image-keyboard-response","476","1764589","0.0-6.0-1.67","4219606","co38212","norming","","","","","","",""
"4343.189999926835","","","post_mooney1_questions","survey-likert","477","1768935","0.0-6.0-2.67","4219606","co38212","norming","","","{""curiosity"":1,""confidence"":2}","[0,1]","../img/tt/357tt.jpg","",""
"4810.155000071973","","","recognition","survey-text","478","1773750","0.0-6.0-3.67","4219606","co38212","norming","","","{""guess"":""granaatappel""}","","../img/tt/357tt.jpg","",""
"null","../img/gs/357gs.jpg","null","reveal","image-keyboard-response","479","1775756","0.0-6.0-4.67","4219606","co38212","norming","","","","","","",""
"null","../img/tt/357tt.jpg","null","mooney2","image-keyboard-response","480","1777762","0.0-6.0-5.67","4219606","co38212","norming","","","","","","",""
"28079.204999958165","","","post_reveal_questions","survey-likert","481","1805842","0.0-6.0-6.67","4219606","co38212","norming","","","{""aha"":4}","[0]","../img/tt/357tt.jpg","",""
"null","<div style=""font-size:60px;""> </div>","null","fixation","html-keyboard-response","482","1806046","0.0-6.0-0.68","4219606","co38212","norming","","","","","","",""
"null","../img/tt/300tt.jpg","null","mooney1","image-keyboard-response","483","1809053","0.0-6.0-1.68","4219606","co38212","norming","","","","","","",""
"5697.42999994196","","","post_mooney1_questions","survey-likert","484","1814813","0.0-6.0-2.68","4219606","co38212","norming","","","{""curiosity"":2,""confidence"":2}","[0,1]","../img/tt/300tt.jpg","",""
"2662.045000004582","","","recognition","survey-text","485","1817478","0.0-6.0-3.68","4219606","co38212","norming","","","{""guess"":""eskimo""}","","../img/tt/300tt.jpg","",""
"null","../img/gs/300gs.jpg","null","reveal","image-keyboard-response","486","1819486","0.0-6.0-4.68","4219606","co38212","norming","","","","","","",""
"null","../img/tt/300tt.jpg","null","mooney2","image-keyboard-response","487","1821489","0.0-6.0-5.68","4219606","co38212","norming","","","","","","",""
"5479.279999970458","","","post_reveal_questions","survey-likert","488","1826971","0.0-6.0-6.68","4219606","co38212","norming","","","{""aha"":4}","[0]","../img/tt/300tt.jpg","",""
"null","<div style=""font-size:60px;""> </div>","null","fixation","html-keyboard-response","489","1827173","0.0-6.0-0.69","4219606","co38212","norming","","","","","","",""
"null","../img/tt/076tt.jpg","null","mooney1","image-keyboard-response","490","1830174","0.0-6.0-1.69","4219606","co38212","norming","","","","","","",""
"5434.349999995902","","","post_mooney1_questions","survey-likert","491","1835611","0.0-6.0-2.69","4219606","co38212","norming","","","{""curiosity"":2,""confidence"":4}","[0,1]","../img/tt/076tt.jpg","",""
"3768.8700000289828","","","recognition","survey-text","492","1839383","0.0-6.0-3.69","4219606","co38212","norming","","","{""guess"":""rolschaats""}","","../img/tt/076tt.jpg","",""
"null","../img/gs/076gs.jpg","null","reveal","image-keyboard-response","493","1841386","0.0-6.0-4.69","4219606","co38212","norming","","","","","","",""
"null","../img/tt/076tt.jpg","null","mooney2","image-keyboard-response","494","1843393","0.0-6.0-5.69","4219606","co38212","norming","","","","","","",""
"7823.405000031926","","","post_reveal_questions","survey-likert","495","1851219","0.0-6.0-6.69","4219606","co38212","norming","","","{""aha"":2}","[0]","../img/tt/076tt.jpg","",""
"null","<div style=""font-size:60px;""> </div>","null","fixation","html-keyboard-response","496","1851426","0.0-6.0-0.70","4219606","co38212","norming","","","","","","",""
"null","../img/tt/111tt.jpg","null","mooney1","image-keyboard-response","497","1854433","0.0-6.0-1.70","4219606","co38212","norming","","","","","","",""
"11931.395000079647","","","post_mooney1_questions","survey-likert","498","1866367","0.0-6.0-2.70","4219606","co38212","norming","","","{""curiosity"":2,""confidence"":1}","[0,1]","../img/tt/111tt.jpg","",""
"3354.5699999667704","","","recognition","survey-text","499","1869726","0.0-6.0-3.70","4219606","co38212","norming","","","{""guess"":""granaat""}","","../img/tt/111tt.jpg","",""
"null","../img/gs/111gs.jpg","null","reveal","image-keyboard-response","500","1871729","0.0-6.0-4.70","4219606","co38212","norming","","","","","","",""
"null","../img/tt/111tt.jpg","null","mooney2","image-keyboard-response","501","1873735","0.0-6.0-5.70","4219606","co38212","norming","","","","","","",""
"3748.55999997817","","","post_reveal_questions","survey-likert","502","1877486","0.0-6.0-6.70","4219606","co38212","norming","","","{""aha"":5}","[0]","../img/tt/111tt.jpg","",""
"null","<div style=""font-size:60px;""> </div>","null","fixation","html-keyboard-response","503","1877690","0.0-6.0-0.71","4219606","co38212","norming","","","","","","",""
"null","../img/tt/477tt.jpg","null","mooney1","image-keyboard-response","504","1880695","0.0-6.0-1.71","4219606","co38212","norming","","","","","","",""
"4313.525000005029","","","post_mooney1_questions","survey-likert","505","1885011","0.0-6.0-2.71","4219606","co38212","norming","","","{""curiosity"":0,""confidence"":0}","[0,1]","../img/tt/477tt.jpg","",""
"1277.9649998992682","","","recognition","survey-text","506","1886294","0.0-6.0-3.71","4219606","co38212","norming","","","{""guess"":""""}","","../img/tt/477tt.jpg","",""
"null","../img/gs/477gs.jpg","null","reveal","image-keyboard-response","507","1888302","0.0-6.0-4.71","4219606","co38212","norming","","","","","","",""
"null","../img/tt/477tt.jpg","null","mooney2","image-keyboard-response","508","1890304","0.0-6.0-5.71","4219606","co38212","norming","","","","","","",""
"3478.3499999903142","","","post_reveal_questions","survey-likert","509","1893785","0.0-6.0-6.71","4219606","co38212","norming","","","{""aha"":5}","[0]","../img/tt/477tt.jpg","",""
"null","<div style=""font-size:60px;""> </div>","null","fixation","html-keyboard-response","510","1893991","0.0-6.0-0.72","4219606","co38212","norming","","","","","","",""
"null","../img/tt/1276tt.jpg","null","mooney1","image-keyboard-response","511","1896997","0.0-6.0-1.72","4219606","co38212","norming","","","","","","",""
"3830.9799999697134","","","post_mooney1_questions","survey-likert","512","1900831","0.0-6.0-2.72","4219606","co38212","norming","","","{""curiosity"":1,""confidence"":1}","[0,1]","../img/tt/1276tt.jpg","",""
"1122.0800000010058","","","recognition","survey-text","513","1901957","0.0-6.0-3.72","4219606","co38212","norming","","","{""guess"":""koe""}","","../img/tt/1276tt.jpg","",""
"null","../img/gs/1276gs.jpg","null","reveal","image-keyboard-response","514","1903961","0.0-6.0-4.72","4219606","co38212","norming","","","","","","",""
"null","../img/tt/1276tt.jpg","null","mooney2","image-keyboard-response","515","1905963","0.0-6.0-5.72","4219606","co38212","norming","","","","","","",""
"2733.890000032261","","","post_reveal_questions","survey-likert","516","1908699","0.0-6.0-6.72","4219606","co38212","norming","","","{""aha"":5}","[0]","../img/tt/1276tt.jpg","",""
"null","<div style=""font-size:60px;""> </div>","null","fixation","html-keyboard-response","517","1908902","0.0-6.0-0.73","4219606","co38212","norming","","","","","","",""
"null","../img/tt/1046tt.jpg","null","mooney1","image-keyboard-response","518","1911906","0.0-6.0-1.73","4219606","co38212","norming","","","","","","",""
"4038.8599999714643","","","post_mooney1_questions","survey-likert","519","1915948","0.0-6.0-2.73","4219606","co38212","norming","","","{""curiosity"":1,""confidence"":1}","[0,1]","../img/tt/1046tt.jpg","",""
"1394.209999940358","","","recognition","survey-text","520","1917347","0.0-6.0-3.73","4219606","co38212","norming","","","{""guess"":""food""}","","../img/tt/1046tt.jpg","",""
"null","../img/gs/1046gs.jpg","null","reveal","image-keyboard-response","521","1919357","0.0-6.0-4.73","4219606","co38212","norming","","","","","","",""
"null","../img/tt/1046tt.jpg","null","mooney2","image-keyboard-response","522","1921359","0.0-6.0-5.73","4219606","co38212","norming","","","","","","",""
"9056.229999987409","","","post_reveal_questions","survey-likert","523","1930418","0.0-6.0-6.73","4219606","co38212","norming","","","{""aha"":4}","[0]","../img/tt/1046tt.jpg","",""
"null","<div style=""font-size:60px;""> </div>","null","fixation","html-keyboard-response","524","1930625","0.0-6.0-0.74","4219606","co38212","norming","","","","","","",""
"null","../img/tt/1366tt.jpg","null","mooney1","image-keyboard-response","525","1933628","0.0-6.0-1.74","4219606","co38212","norming","","","","","","",""
"9716.124999918975","","","post_mooney1_questions","survey-likert","526","1943347","0.0-6.0-2.74","4219606","co38212","norming","","","{""curiosity"":1,""confidence"":0}","[0,1]","../img/tt/1366tt.jpg","",""
"1156.8099999567494","","","recognition","survey-text","527","1944508","0.0-6.0-3.74","4219606","co38212","norming","","","{""guess"":""""}","","../img/tt/1366tt.jpg","",""
"null","../img/gs/1366gs.jpg","null","reveal","image-keyboard-response","528","1946515","0.0-6.0-4.74","4219606","co38212","norming","","","","","","",""
"null","../img/tt/1366tt.jpg","null","mooney2","image-keyboard-response","529","1948521","0.0-6.0-5.74","4219606","co38212","norming","","","","","","",""
"77932.57999990601","","","post_reveal_questions","survey-likert","530","2026458","0.0-6.0-6.74","4219606","co38212","norming","","","{""aha"":4}","[0]","../img/tt/1366tt.jpg","",""
"null","<div style=""font-size:60px;""> </div>","null","fixation","html-keyboard-response","531","2026663","0.0-6.0-0.75","4219606","co38212","norming","","","","","","",""
"null","../img/tt/056tt.jpg","null","mooney1","image-keyboard-response","532","2029665","0.0-6.0-1.75","4219606","co38212","norming","","","","","","",""
"8310.954999993555","","","post_mooney1_questions","survey-likert","533","2037979","0.0-6.0-2.75","4219606","co38212","norming","","","{""curiosity"":1,""confidence"":0}","[0,1]","../img/tt/056tt.jpg","",""
"883.6099999025464","","","recognition","survey-text","534","2038867","0.0-6.0-3.75","4219606","co38212","norming","","","{""guess"":""""}","","../img/tt/056tt.jpg","",""
"null","../img/gs/056gs.jpg","null","reveal","image-keyboard-response","535","2040874","0.0-6.0-4.75","4219606","co38212","norming","","","","","","",""
"null","../img/tt/056tt.jpg","null","mooney2","image-keyboard-response","536","2042881","0.0-6.0-5.75","4219606","co38212","norming","","","","","","",""
"8152.634999947622","","","post_reveal_questions","survey-likert","537","2051035","0.0-6.0-6.75","4219606","co38212","norming","","","{""aha"":4}","[0]","../img/tt/056tt.jpg","",""
"null","<div style=""font-size:60px;""> </div>","null","fixation","html-keyboard-response","538","2051239","0.0-6.0-0.76","4219606","co38212","norming","","","","","","",""
"null","../img/tt/1116tt.jpg","null","mooney1","image-keyboard-response","539","2054243","0.0-6.0-1.76","4219606","co38212","norming","","","","","","",""
"9285.315000102855","","","post_mooney1_questions","survey-likert","540","2063532","0.0-6.0-2.76","4219606","co38212","norming","","","{""curiosity"":2,""confidence"":2}","[0,1]","../img/tt/1116tt.jpg","",""
"3205.420000012964","","","recognition","survey-text","541","2066743","0.0-6.0-3.76","4219606","co38212","norming","","","{""guess"":""boten""}","","../img/tt/1116tt.jpg","",""
"null","../img/gs/1116gs.jpg","null","reveal","image-keyboard-response","542","2068750","0.0-6.0-4.76","4219606","co38212","norming","","","","","","",""
"null","../img/tt/1116tt.jpg","null","mooney2","image-keyboard-response","543","2070757","0.0-6.0-5.76","4219606","co38212","norming","","","","","","",""
"10796.514999936335","","","post_reveal_questions","survey-likert","544","2081556","0.0-6.0-6.76","4219606","co38212","norming","","","{""aha"":4}","[0]","../img/tt/1116tt.jpg","",""
"null","<div style=""font-size:60px;""> </div>","null","fixation","html-keyboard-response","545","2081763","0.0-6.0-0.77","4219606","co38212","norming","","","","","","",""
"null","../img/tt/020tt.jpg","null","mooney1","image-keyboard-response","546","2084766","0.0-6.0-1.77","4219606","co38212","norming","","","","","","",""
"15609.620000002906","","","post_mooney1_questions","survey-likert","547","2100380","0.0-6.0-2.77","4219606","co38212","norming","","","{""curiosity"":3,""confidence"":2}","[0,1]","../img/tt/020tt.jpg","",""
"4692.665000096895","","","recognition","survey-text","548","2105077","0.0-6.0-3.77","4219606","co38212","norming","","","{""guess"":""man""}","","../img/tt/020tt.jpg","",""
"null","../img/gs/020gs.jpg","null","reveal","image-keyboard-response","549","2107079","0.0-6.0-4.77","4219606","co38212","norming","","","","","","",""
"null","../img/tt/020tt.jpg","null","mooney2","image-keyboard-response","550","2109085","0.0-6.0-5.77","4219606","co38212","norming","","","","","","",""
"2938.23000008706","","","post_reveal_questions","survey-likert","551","2112025","0.0-6.0-6.77","4219606","co38212","norming","","","{""aha"":4}","[0]","../img/tt/020tt.jpg","",""
"null","<div style=""font-size:60px;""> </div>","null","fixation","html-keyboard-response","552","2112232","0.0-6.0-0.78","4219606","co38212","norming","","","","","","",""
