"rt","stimulus","key_press","test_part","trial_type","trial_index","time_elapsed","internal_node_id","totalTime","subject","experiment_name","button_pressed","success","responses","question_order","currentStim","old","correct"
"8530.749999999898","Welcome to the experiment. This is an online experiment so please don't close the tab/window until we say goodbye.  Press any key to begin.","13","instructions","html-keyboard-response","0","8578","0.0-0.0","2774551","co38497","norming","","","","","","",""
"29750.339999998687","<div style='word-wrap: break-word; width: 900px'><h3>Please consider this information carefully before deciding whether to participate in this research</h3><ul style='text-align: left; font-size: .8em;'><li><b>Purpose of the research</b>: To examine how people process images.</li><li><b>What you will do in this research</b>:  Stimuli (images) will be presented on the computer and you will be asked different questions about them.</li><li><b>Time required</b>: Participation will take between 45 and 60 minutes to complete.</li><li><b>Risks</b>:  There are no anticipated risks associated with participating in this study. The effects of participating should be comparable to those you would experience from viewing a computer monitor for 30 minutes and using a mouse or keyboard.</li><li><b>Benefits</b>:  This study provides no benefits to you individually except for the credit. The study provides important information about the nature of perception and learning.</li><li><b>Confidentiality</b>:  Your participation in this study will remain confidential. No personally identifiable information will be associated with your data. Your de-identified data may be shared with other researchers and used in future projects.</li><li><b>Participation and withdrawal</b>:  Your participation in this study is completely voluntary and you may refuse to participate or you may choose to withdraw at any time without penalty.</li><li><b>How to contact the researchers</b>: If you have questions or concerns about your participation or payment, or want to request a summary of research findings, please contact Sander Van de Cruys (KU Leuven), at sander.vandecruys@kuleuven.be.</li></ul><p>The nature and purpose of this research have been sufficiently explained and I agree to participate in this study.  I understand that I am free to withdraw at any time without incurring any penalty.</p><p>Please consent by clicking the button below to continue. Otherwise, please exit the study at this time.</p></div>","","instructions","html-button-response","1","38328","0.0-1.0","2774551","co38497","norming","0","","","","","",""
"","","","instructions","fullscreen","2","43778","0.0-2.0","2774551","co38497","norming","","true","","","","",""
"42187.31000000116","","","sona","survey-html-form","3","85968","0.0-3.0","2774551","co38497","norming","","","[{""name"":""sonaid"",""value"":""38497""},{""name"":""debrief"",""value"":""yes""},{""name"":""datajoin"",""value"":""yes""}]","","","",""
"71115.24499999903","<div style='word-wrap: break-word; width: 900px'><h3>Instructions</h3><p>This experiment will have 3 parts. In the first part you will see a series of distorted images like the one below on the left. As you can see in the righthand image, the distorted images are derived from actual photographs. In what follows, you will <strong>briefly</strong> be presented with <strong>only</strong> the distorted image.</p> <div style='float: left; margin-right: 20px;'><img src='../img/018tt.jpg' height='250' width='250'></img></div><div style='float: right; margin-left: 20px;'><img src='../img/018gs.jpg' height='250' width='250'></img></div><p>Subsequently you will be asked a few questions about the image: One question on how <strong>curious</strong> you are about the solution and one on how <strong>confident</strong> you are that you know the solution.</p>Next, we ask you to make a guess on what is in the image. Note that it is OK to name just the <strong>basic level category</strong>. For example when you see a parrot in the image, 'parrot' will obviously be a correct answer but also correct is 'bird'. However, 'animal' will <strong>not</strong> be counted as a correct response. For the example above, 'rose' would be correct or 'flower', but not 'plant'. When soccer players are depicted, 'soccer', 'football', 'soccer players' will be correct, but not 'humans', 'outdoors', or 'sports'. You do not need to describe the image in full, just name the main object in it <strong>in one or two words</strong>. All images depict objects from one of the following broad level categories: animals, inanimate objects, plants, sports, vehicles, and food. Recognizing means knowing <strong>more</strong> than these broad labels for a given image. But we always encourage you to <strong>make a guess</strong> if you can. Note that you are allowed to use <strong>Dutch and English</strong> in your answers, whatever comes easiest for you.</p><p>Press any key to continue.</p></div>","13","instructions","html-keyboard-response","4","157084","0.0-4.0","2774551","co38497","norming","","","","","","",""
"112335.0649999993","<div style='word-wrap: break-word; width: 900px'><h3>Instructions</h3> <p>Next, the solution image will be revealed to you and you'll be asked to indicate how strong your <strong>aha-experience</strong> was after seeing the solution. This describes the positive feeling of the 'click' you sometimes experience, when the pieces of the 'puzzle' fall together and you suddenly have 'insight' in the image.</p><img src='aha.jpg' height='188' width='250'></img><p>Note that there are no right or wrong answers. We are interested in what <strong>you</strong> see in the image and how <strong>you</strong> feel about it.</p><p>Press any key to start the experiment.</p></div>","13","instructions","html-keyboard-response","5","269418","0.0-5.0","2774551","co38497","norming","","","","","","",""
"null","<div style=""font-size:60px;""> </div>","null","fixation","html-keyboard-response","6","269625","0.0-6.0-0.0","2774551","co38497","norming","","","","","","",""
"null","../img/tt/598tt.jpg","null","mooney1","image-keyboard-response","7","272629","0.0-6.0-1.0","2774551","co38497","norming","","","","","","",""
"10633.935000001627","","","post_mooney1_questions","survey-likert","8","283266","0.0-6.0-2.0","2774551","co38497","norming","","","{""curiosity"":5,""confidence"":0}","[0,1]","../img/tt/598tt.jpg","",""
"8213.63000000018","","","recognition","survey-text","9","291482","0.0-6.0-3.0","2774551","co38497","norming","","","{""guess"":""standbeeld""}","","../img/tt/598tt.jpg","",""
"null","../img/gs/598gs.jpg","null","reveal","image-keyboard-response","10","293490","0.0-6.0-4.0","2774551","co38497","norming","","","","","","",""
"null","../img/tt/598tt.jpg","null","mooney2","image-keyboard-response","11","295500","0.0-6.0-5.0","2774551","co38497","norming","","","","","","",""
"4795.855000000331","","","post_reveal_questions","survey-likert","12","300298","0.0-6.0-6.0","2774551","co38497","norming","","","{""aha"":3}","[0]","../img/tt/598tt.jpg","",""
"null","<div style=""font-size:60px;""> </div>","null","fixation","html-keyboard-response","13","300505","0.0-6.0-0.1","2774551","co38497","norming","","","","","","",""
"null","../img/tt/1241tt.jpg","null","mooney1","image-keyboard-response","14","303510","0.0-6.0-1.1","2774551","co38497","norming","","","","","","",""
"5186.804999999353","","","post_mooney1_questions","survey-likert","15","308698","0.0-6.0-2.1","2774551","co38497","norming","","","{""curiosity"":4,""confidence"":1}","[0,1]","../img/tt/1241tt.jpg","",""
"4238.059999999707","","","recognition","survey-text","16","312938","0.0-6.0-3.1","2774551","co38497","norming","","","{""guess"":""suitcase""}","","../img/tt/1241tt.jpg","",""
"null","../img/gs/1241gs.jpg","null","reveal","image-keyboard-response","17","314944","0.0-6.0-4.1","2774551","co38497","norming","","","","","","",""
"null","../img/tt/1241tt.jpg","null","mooney2","image-keyboard-response","18","316946","0.0-6.0-5.1","2774551","co38497","norming","","","","","","",""
"3261.2200000003213","","","post_reveal_questions","survey-likert","19","320210","0.0-6.0-6.1","2774551","co38497","norming","","","{""aha"":3}","[0]","../img/tt/1241tt.jpg","",""
"null","<div style=""font-size:60px;""> </div>","null","fixation","html-keyboard-response","20","320411","0.0-6.0-0.2","2774551","co38497","norming","","","","","","",""
"null","../img/tt/1049tt.jpg","null","mooney1","image-keyboard-response","21","323415","0.0-6.0-1.2","2774551","co38497","norming","","","","","","",""
"4832.509999998321","","","post_mooney1_questions","survey-likert","22","328250","0.0-6.0-2.2","2774551","co38497","norming","","","{""curiosity"":4,""confidence"":3}","[0,1]","../img/tt/1049tt.jpg","",""
"3294.2350000012084","","","recognition","survey-text","23","331552","0.0-6.0-3.2","2774551","co38497","norming","","","{""guess"":""vrouw""}","","../img/tt/1049tt.jpg","",""
"null","../img/gs/1049gs.jpg","null","reveal","image-keyboard-response","24","333554","0.0-6.0-4.2","2774551","co38497","norming","","","","","","",""
"null","../img/tt/1049tt.jpg","null","mooney2","image-keyboard-response","25","335561","0.0-6.0-5.2","2774551","co38497","norming","","","","","","",""
"3725.8149999997695","","","post_reveal_questions","survey-likert","26","339288","0.0-6.0-6.2","2774551","co38497","norming","","","{""aha"":4}","[0]","../img/tt/1049tt.jpg","",""
"null","<div style=""font-size:60px;""> </div>","null","fixation","html-keyboard-response","27","339489","0.0-6.0-0.3","2774551","co38497","norming","","","","","","",""
"null","../img/tt/1237tt.jpg","null","mooney1","image-keyboard-response","28","342498","0.0-6.0-1.3","2774551","co38497","norming","","","","","","",""
"7067.054999999469","","","post_mooney1_questions","survey-likert","29","349568","0.0-6.0-2.3","2774551","co38497","norming","","","{""curiosity"":5,""confidence"":4}","[0,1]","../img/tt/1237tt.jpg","",""
"2702.269999999786","","","recognition","survey-text","30","352272","0.0-6.0-3.3","2774551","co38497","norming","","","{""guess"":""zwaan""}","","../img/tt/1237tt.jpg","",""
"null","../img/gs/1237gs.jpg","null","reveal","image-keyboard-response","31","354273","0.0-6.0-4.3","2774551","co38497","norming","","","","","","",""
"null","../img/tt/1237tt.jpg","null","mooney2","image-keyboard-response","32","356275","0.0-6.0-5.3","2774551","co38497","norming","","","","","","",""
"2794.1849999988335","","","post_reveal_questions","survey-likert","33","359072","0.0-6.0-6.3","2774551","co38497","norming","","","{""aha"":5}","[0]","../img/tt/1237tt.jpg","",""
"null","<div style=""font-size:60px;""> </div>","null","fixation","html-keyboard-response","34","359273","0.0-6.0-0.4","2774551","co38497","norming","","","","","","",""
"null","../img/tt/1224tt.jpg","null","mooney1","image-keyboard-response","35","362283","0.0-6.0-1.4","2774551","co38497","norming","","","","","","",""
"4993.894999999611","","","post_mooney1_questions","survey-likert","36","367280","0.0-6.0-2.4","2774551","co38497","norming","","","{""curiosity"":5,""confidence"":3}","[0,1]","../img/tt/1224tt.jpg","",""
"3886.2200000003213","","","recognition","survey-text","37","371168","0.0-6.0-3.4","2774551","co38497","norming","","","{""guess"":""vrouw""}","","../img/tt/1224tt.jpg","",""
"null","../img/gs/1224gs.jpg","null","reveal","image-keyboard-response","38","373174","0.0-6.0-4.4","2774551","co38497","norming","","","","","","",""
"null","../img/tt/1224tt.jpg","null","mooney2","image-keyboard-response","39","375187","0.0-6.0-5.4","2774551","co38497","norming","","","","","","",""
"2611.065000000992","","","post_reveal_questions","survey-likert","40","377800","0.0-6.0-6.4","2774551","co38497","norming","","","{""aha"":5}","[0]","../img/tt/1224tt.jpg","",""
"null","<div style=""font-size:60px;""> </div>","null","fixation","html-keyboard-response","41","378001","0.0-6.0-0.5","2774551","co38497","norming","","","","","","",""
"null","../img/tt/1270tt.jpg","null","mooney1","image-keyboard-response","42","381011","0.0-6.0-1.5","2774551","co38497","norming","","","","","","",""
"5050.189999999944","","","post_mooney1_questions","survey-likert","43","386064","0.0-6.0-2.5","2774551","co38497","norming","","","{""curiosity"":2,""confidence"":4}","[0,1]","../img/tt/1270tt.jpg","",""
"2158.1749999986496","","","recognition","survey-text","44","388224","0.0-6.0-3.5","2774551","co38497","norming","","","{""guess"":""hond""}","","../img/tt/1270tt.jpg","",""
"null","../img/gs/1270gs.jpg","null","reveal","image-keyboard-response","45","390232","0.0-6.0-4.5","2774551","co38497","norming","","","","","","",""
"null","../img/tt/1270tt.jpg","null","mooney2","image-keyboard-response","46","392235","0.0-6.0-5.5","2774551","co38497","norming","","","","","","",""
"3479.7049999997253","","","post_reveal_questions","survey-likert","47","395716","0.0-6.0-6.5","2774551","co38497","norming","","","{""aha"":3}","[0]","../img/tt/1270tt.jpg","",""
"null","<div style=""font-size:60px;""> </div>","null","fixation","html-keyboard-response","48","395918","0.0-6.0-0.6","2774551","co38497","norming","","","","","","",""
"null","../img/tt/1012tt.jpg","null","mooney1","image-keyboard-response","49","398923","0.0-6.0-1.6","2774551","co38497","norming","","","","","","",""
"11662.075000000186","","","post_mooney1_questions","survey-likert","50","410588","0.0-6.0-2.6","2774551","co38497","norming","","","{""curiosity"":5,""confidence"":0}","[0,1]","../img/tt/1012tt.jpg","",""
"4621.970000000147","","","recognition","survey-text","51","415211","0.0-6.0-3.6","2774551","co38497","norming","","","{""guess"":""""}","","../img/tt/1012tt.jpg","",""
"null","../img/gs/1012gs.jpg","null","reveal","image-keyboard-response","52","417221","0.0-6.0-4.6","2774551","co38497","norming","","","","","","",""
"null","../img/tt/1012tt.jpg","null","mooney2","image-keyboard-response","53","419223","0.0-6.0-5.6","2774551","co38497","norming","","","","","","",""
"4361.645000000892","","","post_reveal_questions","survey-likert","54","423587","0.0-6.0-6.6","2774551","co38497","norming","","","{""aha"":4}","[0]","../img/tt/1012tt.jpg","",""
"null","<div style=""font-size:60px;""> </div>","null","fixation","html-keyboard-response","55","423789","0.0-6.0-0.7","2774551","co38497","norming","","","","","","",""
"null","../img/tt/053tt.jpg","null","mooney1","image-keyboard-response","56","426801","0.0-6.0-1.7","2774551","co38497","norming","","","","","","",""
"5040.399999999849","","","post_mooney1_questions","survey-likert","57","431844","0.0-6.0-2.7","2774551","co38497","norming","","","{""curiosity"":5,""confidence"":1}","[0,1]","../img/tt/053tt.jpg","",""
"4558.025000000256","","","recognition","survey-text","58","436404","0.0-6.0-3.7","2774551","co38497","norming","","","{""guess"":""bergen""}","","../img/tt/053tt.jpg","",""
"null","../img/gs/053gs.jpg","null","reveal","image-keyboard-response","59","438413","0.0-6.0-4.7","2774551","co38497","norming","","","","","","",""
"null","../img/tt/053tt.jpg","null","mooney2","image-keyboard-response","60","440423","0.0-6.0-5.7","2774551","co38497","norming","","","","","","",""
"5026.434999999765","","","post_reveal_questions","survey-likert","61","445452","0.0-6.0-6.7","2774551","co38497","norming","","","{""aha"":5}","[0]","../img/tt/053tt.jpg","",""
"null","<div style=""font-size:60px;""> </div>","null","fixation","html-keyboard-response","62","445653","0.0-6.0-0.8","2774551","co38497","norming","","","","","","",""
"null","../img/tt/534tt.jpg","null","mooney1","image-keyboard-response","63","448656","0.0-6.0-1.8","2774551","co38497","norming","","","","","","",""
"4706.9649999994435","","","post_mooney1_questions","survey-likert","64","453356","0.0-6.0-2.8","2774551","co38497","norming","","","{""curiosity"":6,""confidence"":2}","[0,1]","../img/tt/534tt.jpg","",""
"2461.894999998505","","","recognition","survey-text","65","455819","0.0-6.0-3.8","2774551","co38497","norming","","","{""guess"":""boom""}","","../img/tt/534tt.jpg","",""
"null","../img/gs/534gs.jpg","null","reveal","image-keyboard-response","66","457825","0.0-6.0-4.8","2774551","co38497","norming","","","","","","",""
"null","../img/tt/534tt.jpg","null","mooney2","image-keyboard-response","67","459836","0.0-6.0-5.8","2774551","co38497","norming","","","","","","",""
"2396.8100000001723","","","post_reveal_questions","survey-likert","68","462235","0.0-6.0-6.8","2774551","co38497","norming","","","{""aha"":6}","[0]","../img/tt/534tt.jpg","",""
"null","<div style=""font-size:60px;""> </div>","null","fixation","html-keyboard-response","69","462438","0.0-6.0-0.9","2774551","co38497","norming","","","","","","",""
"null","../img/tt/1087tt.jpg","null","mooney1","image-keyboard-response","70","465447","0.0-6.0-1.9","2774551","co38497","norming","","","","","","",""
"6066.044999999576","","","post_mooney1_questions","survey-likert","71","471515","0.0-6.0-2.9","2774551","co38497","norming","","","{""curiosity"":4,""confidence"":1}","[0,1]","../img/tt/1087tt.jpg","",""
"1646.1249999993015","","","recognition","survey-text","72","473163","0.0-6.0-3.9","2774551","co38497","norming","","","{""guess"":""koe""}","","../img/tt/1087tt.jpg","",""
"null","../img/gs/1087gs.jpg","null","reveal","image-keyboard-response","73","475165","0.0-6.0-4.9","2774551","co38497","norming","","","","","","",""
"null","../img/tt/1087tt.jpg","null","mooney2","image-keyboard-response","74","477167","0.0-6.0-5.9","2774551","co38497","norming","","","","","","",""
"1993.5350000014296","","","post_reveal_questions","survey-likert","75","479163","0.0-6.0-6.9","2774551","co38497","norming","","","{""aha"":2}","[0]","../img/tt/1087tt.jpg","",""
"null","<div style=""font-size:60px;""> </div>","null","fixation","html-keyboard-response","76","479365","0.0-6.0-0.10","2774551","co38497","norming","","","","","","",""
"null","../img/tt/1097tt.jpg","null","mooney1","image-keyboard-response","77","482368","0.0-6.0-1.10","2774551","co38497","norming","","","","","","",""
"7121.8599999992875","","","post_mooney1_questions","survey-likert","78","489491","0.0-6.0-2.10","2774551","co38497","norming","","","{""curiosity"":1,""confidence"":5}","[0,1]","../img/tt/1097tt.jpg","",""
"1958.4949999989476","","","recognition","survey-text","79","491451","0.0-6.0-3.10","2774551","co38497","norming","","","{""guess"":""boer""}","","../img/tt/1097tt.jpg","",""
"null","../img/gs/1097gs.jpg","null","reveal","image-keyboard-response","80","493456","0.0-6.0-4.10","2774551","co38497","norming","","","","","","",""
"null","../img/tt/1097tt.jpg","null","mooney2","image-keyboard-response","81","495457","0.0-6.0-5.10","2774551","co38497","norming","","","","","","",""
"8663.665000000037","","","post_reveal_questions","survey-likert","82","504123","0.0-6.0-6.10","2774551","co38497","norming","","","{""aha"":5}","[0]","../img/tt/1097tt.jpg","",""
"null","<div style=""font-size:60px;""> </div>","null","fixation","html-keyboard-response","83","504331","0.0-6.0-0.11","2774551","co38497","norming","","","","","","",""
"null","../img/tt/306tt.jpg","null","mooney1","image-keyboard-response","84","507343","0.0-6.0-1.11","2774551","co38497","norming","","","","","","",""
"4129.909999999625","","","post_mooney1_questions","survey-likert","85","511483","0.0-6.0-2.11","2774551","co38497","norming","","","{""curiosity"":6,""confidence"":0}","[0,1]","../img/tt/306tt.jpg","",""
"742.234999999695","","","recognition","survey-text","86","512227","0.0-6.0-3.11","2774551","co38497","norming","","","{""guess"":""""}","","../img/tt/306tt.jpg","",""
"null","../img/gs/306gs.jpg","null","reveal","image-keyboard-response","87","514237","0.0-6.0-4.11","2774551","co38497","norming","","","","","","",""
"null","../img/tt/306tt.jpg","null","mooney2","image-keyboard-response","88","516246","0.0-6.0-5.11","2774551","co38497","norming","","","","","","",""
"3202.509999999136","","","post_reveal_questions","survey-likert","89","519450","0.0-6.0-6.11","2774551","co38497","norming","","","{""aha"":6}","[0]","../img/tt/306tt.jpg","",""
"null","<div style=""font-size:60px;""> </div>","null","fixation","html-keyboard-response","90","519653","0.0-6.0-0.12","2774551","co38497","norming","","","","","","",""
"null","../img/tt/1175tt.jpg","null","mooney1","image-keyboard-response","91","522662","0.0-6.0-1.12","2774551","co38497","norming","","","","","","",""
"5514.4200000013225","","","post_mooney1_questions","survey-likert","92","528179","0.0-6.0-2.12","2774551","co38497","norming","","","{""curiosity"":5,""confidence"":1}","[0,1]","../img/tt/1175tt.jpg","",""
"2158.164999998873","","","recognition","survey-text","93","530339","0.0-6.0-3.12","2774551","co38497","norming","","","{""guess"":""tafel""}","","../img/tt/1175tt.jpg","",""
"null","../img/gs/1175gs.jpg","null","reveal","image-keyboard-response","94","532341","0.0-6.0-4.12","2774551","co38497","norming","","","","","","",""
"null","../img/tt/1175tt.jpg","null","mooney2","image-keyboard-response","95","534348","0.0-6.0-5.12","2774551","co38497","norming","","","","","","",""
"4908.009999999194","","","post_reveal_questions","survey-likert","96","539259","0.0-6.0-6.12","2774551","co38497","norming","","","{""aha"":5}","[0]","../img/tt/1175tt.jpg","",""
"null","<div style=""font-size:60px;""> </div>","null","fixation","html-keyboard-response","97","539460","0.0-6.0-0.13","2774551","co38497","norming","","","","","","",""
"null","../img/tt/1254tt.jpg","null","mooney1","image-keyboard-response","98","542467","0.0-6.0-1.13","2774551","co38497","norming","","","","","","",""
"6972.599999999162","","","post_mooney1_questions","survey-likert","99","549443","0.0-6.0-2.13","2774551","co38497","norming","","","{""curiosity"":3,""confidence"":2}","[0,1]","../img/tt/1254tt.jpg","",""
"2014.1600000006147","","","recognition","survey-text","100","551458","0.0-6.0-3.13","2774551","co38497","norming","","","{""guess"":""ezel""}","","../img/tt/1254tt.jpg","",""
"null","../img/gs/1254gs.jpg","null","reveal","image-keyboard-response","101","553462","0.0-6.0-4.13","2774551","co38497","norming","","","","","","",""
"null","../img/tt/1254tt.jpg","null","mooney2","image-keyboard-response","102","555464","0.0-6.0-5.13","2774551","co38497","norming","","","","","","",""
"3976.0200000000186","","","post_reveal_questions","survey-likert","103","559443","0.0-6.0-6.13","2774551","co38497","norming","","","{""aha"":6}","[0]","../img/tt/1254tt.jpg","",""
"null","<div style=""font-size:60px;""> </div>","null","fixation","html-keyboard-response","104","559645","0.0-6.0-0.14","2774551","co38497","norming","","","","","","",""
"null","../img/tt/1002tt.jpg","null","mooney1","image-keyboard-response","105","562648","0.0-6.0-1.14","2774551","co38497","norming","","","","","","",""
"4817.179999999935","","","post_mooney1_questions","survey-likert","106","567467","0.0-6.0-2.14","2774551","co38497","norming","","","{""curiosity"":4,""confidence"":1}","[0,1]","../img/tt/1002tt.jpg","",""
"4694.069999999483","","","recognition","survey-text","107","572160","0.0-6.0-3.14","2774551","co38497","norming","","","{""guess"":""stier""}","","../img/tt/1002tt.jpg","",""
"null","../img/gs/1002gs.jpg","null","reveal","image-keyboard-response","108","574167","0.0-6.0-4.14","2774551","co38497","norming","","","","","","",""
"null","../img/tt/1002tt.jpg","null","mooney2","image-keyboard-response","109","576169","0.0-6.0-5.14","2774551","co38497","norming","","","","","","",""
"2092.8549999989336","","","post_reveal_questions","survey-likert","110","578264","0.0-6.0-6.14","2774551","co38497","norming","","","{""aha"":6}","[0]","../img/tt/1002tt.jpg","",""
"null","<div style=""font-size:60px;""> </div>","null","fixation","html-keyboard-response","111","578465","0.0-6.0-0.15","2774551","co38497","norming","","","","","","",""
"null","../img/tt/1069tt.jpg","null","mooney1","image-keyboard-response","112","581473","0.0-6.0-1.15","2774551","co38497","norming","","","","","","",""
"5396.999999998952","","","post_mooney1_questions","survey-likert","113","586872","0.0-6.0-2.15","2774551","co38497","norming","","","{""curiosity"":1,""confidence"":5}","[0,1]","../img/tt/1069tt.jpg","",""
"1829.9249999999302","","","recognition","survey-text","114","588704","0.0-6.0-3.15","2774551","co38497","norming","","","{""guess"":""ram""}","","../img/tt/1069tt.jpg","",""
"null","../img/gs/1069gs.jpg","null","reveal","image-keyboard-response","115","590713","0.0-6.0-4.15","2774551","co38497","norming","","","","","","",""
"null","../img/tt/1069tt.jpg","null","mooney2","image-keyboard-response","116","592716","0.0-6.0-5.15","2774551","co38497","norming","","","","","","",""
"2497.8149999988964","","","post_reveal_questions","survey-likert","117","595216","0.0-6.0-6.15","2774551","co38497","norming","","","{""aha"":0}","[0]","../img/tt/1069tt.jpg","",""
"null","<div style=""font-size:60px;""> </div>","null","fixation","html-keyboard-response","118","595417","0.0-6.0-0.16","2774551","co38497","norming","","","","","","",""
"null","../img/tt/076tt.jpg","null","mooney1","image-keyboard-response","119","598421","0.0-6.0-1.16","2774551","co38497","norming","","","","","","",""
"4823.255000001169","","","post_mooney1_questions","survey-likert","120","603248","0.0-6.0-2.16","2774551","co38497","norming","","","{""curiosity"":2,""confidence"":5}","[0,1]","../img/tt/076tt.jpg","",""
"3774.1650000007357","","","recognition","survey-text","121","607024","0.0-6.0-3.16","2774551","co38497","norming","","","{""guess"":""rolschaatsen""}","","../img/tt/076tt.jpg","",""
"null","../img/gs/076gs.jpg","null","reveal","image-keyboard-response","122","609025","0.0-6.0-4.16","2774551","co38497","norming","","","","","","",""
"null","../img/tt/076tt.jpg","null","mooney2","image-keyboard-response","123","611036","0.0-6.0-5.16","2774551","co38497","norming","","","","","","",""
"2913.2850000004983","","","post_reveal_questions","survey-likert","124","613952","0.0-6.0-6.16","2774551","co38497","norming","","","{""aha"":1}","[0]","../img/tt/076tt.jpg","",""
"null","<div style=""font-size:60px;""> </div>","null","fixation","html-keyboard-response","125","614153","0.0-6.0-0.17","2774551","co38497","norming","","","","","","",""
"null","../img/tt/049tt.jpg","null","mooney1","image-keyboard-response","126","617158","0.0-6.0-1.17","2774551","co38497","norming","","","","","","",""
"6367.295000000042","","","post_mooney1_questions","survey-likert","127","623528","0.0-6.0-2.17","2774551","co38497","norming","","","{""curiosity"":4,""confidence"":2}","[0,1]","../img/tt/049tt.jpg","",""
"3797.9699999997392","","","recognition","survey-text","128","627328","0.0-6.0-3.17","2774551","co38497","norming","","","{""guess"":""gordeldier""}","","../img/tt/049tt.jpg","",""
"null","../img/gs/049gs.jpg","null","reveal","image-keyboard-response","129","629330","0.0-6.0-4.17","2774551","co38497","norming","","","","","","",""
"null","../img/tt/049tt.jpg","null","mooney2","image-keyboard-response","130","631336","0.0-6.0-5.17","2774551","co38497","norming","","","","","","",""
"1682.0999999999767","","","post_reveal_questions","survey-likert","131","633021","0.0-6.0-6.17","2774551","co38497","norming","","","{""aha"":4}","[0]","../img/tt/049tt.jpg","",""
"null","<div style=""font-size:60px;""> </div>","null","fixation","html-keyboard-response","132","633222","0.0-6.0-0.18","2774551","co38497","norming","","","","","","",""
"null","../img/tt/055tt.jpg","null","mooney1","image-keyboard-response","133","636225","0.0-6.0-1.18","2774551","co38497","norming","","","","","","",""
"6610.155000000377","","","post_mooney1_questions","survey-likert","134","642837","0.0-6.0-2.18","2774551","co38497","norming","","","{""curiosity"":5,""confidence"":1}","[0,1]","../img/tt/055tt.jpg","",""
"2398.180000000051","","","recognition","survey-text","135","645237","0.0-6.0-3.18","2774551","co38497","norming","","","{""guess"":""stoel""}","","../img/tt/055tt.jpg","",""
"null","../img/gs/055gs.jpg","null","reveal","image-keyboard-response","136","647238","0.0-6.0-4.18","2774551","co38497","norming","","","","","","",""
"null","../img/tt/055tt.jpg","null","mooney2","image-keyboard-response","137","649244","0.0-6.0-5.18","2774551","co38497","norming","","","","","","",""
"2574.1999999991385","","","post_reveal_questions","survey-likert","138","651821","0.0-6.0-6.18","2774551","co38497","norming","","","{""aha"":5}","[0]","../img/tt/055tt.jpg","",""
"null","<div style=""font-size:60px;""> </div>","null","fixation","html-keyboard-response","139","652022","0.0-6.0-0.19","2774551","co38497","norming","","","","","","",""
"null","../img/tt/1186tt.jpg","null","mooney1","image-keyboard-response","140","655033","0.0-6.0-1.19","2774551","co38497","norming","","","","","","",""
"5089.324999999022","","","post_mooney1_questions","survey-likert","141","660125","0.0-6.0-2.19","2774551","co38497","norming","","","{""curiosity"":3,""confidence"":2}","[0,1]","../img/tt/1186tt.jpg","",""
"1606.0649999999441","","","recognition","survey-text","142","661733","0.0-6.0-3.19","2774551","co38497","norming","","","{""guess"":""man""}","","../img/tt/1186tt.jpg","",""
"null","../img/gs/1186gs.jpg","null","reveal","image-keyboard-response","143","663741","0.0-6.0-4.19","2774551","co38497","norming","","","","","","",""
"null","../img/tt/1186tt.jpg","null","mooney2","image-keyboard-response","144","665743","0.0-6.0-5.19","2774551","co38497","norming","","","","","","",""
"2971.2350000009174","","","post_reveal_questions","survey-likert","145","668717","0.0-6.0-6.19","2774551","co38497","norming","","","{""aha"":5}","[0]","../img/tt/1186tt.jpg","",""
"null","<div style=""font-size:60px;""> </div>","null","fixation","html-keyboard-response","146","668918","0.0-6.0-0.20","2774551","co38497","norming","","","","","","",""
"null","../img/tt/1130tt.jpg","null","mooney1","image-keyboard-response","147","671921","0.0-6.0-1.20","2774551","co38497","norming","","","","","","",""
"11921.280000000494","","","post_mooney1_questions","survey-likert","148","683845","0.0-6.0-2.20","2774551","co38497","norming","","","{""curiosity"":1,""confidence"":6}","[0,1]","../img/tt/1130tt.jpg","",""
"3214.164999999455","","","recognition","survey-text","149","687061","0.0-6.0-3.20","2774551","co38497","norming","","","{""guess"":""fietser""}","","../img/tt/1130tt.jpg","",""
"null","../img/gs/1130gs.jpg","null","reveal","image-keyboard-response","150","689062","0.0-6.0-4.20","2774551","co38497","norming","","","","","","",""
"null","../img/tt/1130tt.jpg","null","mooney2","image-keyboard-response","151","691064","0.0-6.0-5.20","2774551","co38497","norming","","","","","","",""
"3145.875000000233","","","post_reveal_questions","survey-likert","152","694212","0.0-6.0-6.20","2774551","co38497","norming","","","{""aha"":0}","[0]","../img/tt/1130tt.jpg","",""
"null","<div style=""font-size:60px;""> </div>","null","fixation","html-keyboard-response","153","694413","0.0-6.0-0.21","2774551","co38497","norming","","","","","","",""
"null","../img/tt/189tt.jpg","null","mooney1","image-keyboard-response","154","697417","0.0-6.0-1.21","2774551","co38497","norming","","","","","","",""
"6008.239999999176","","","post_mooney1_questions","survey-likert","155","703428","0.0-6.0-2.21","2774551","co38497","norming","","","{""curiosity"":1,""confidence"":5}","[0,1]","../img/tt/189tt.jpg","",""
"3006.100000000559","","","recognition","survey-text","156","706436","0.0-6.0-3.21","2774551","co38497","norming","","","{""guess"":""hangmat""}","","../img/tt/189tt.jpg","",""
"null","../img/gs/189gs.jpg","null","reveal","image-keyboard-response","157","708437","0.0-6.0-4.21","2774551","co38497","norming","","","","","","",""
"null","../img/tt/189tt.jpg","null","mooney2","image-keyboard-response","158","710447","0.0-6.0-5.21","2774551","co38497","norming","","","","","","",""
"3505.595000000554","","","post_reveal_questions","survey-likert","159","713956","0.0-6.0-6.21","2774551","co38497","norming","","","{""aha"":2}","[0]","../img/tt/189tt.jpg","",""
"null","<div style=""font-size:60px;""> </div>","null","fixation","html-keyboard-response","160","714157","0.0-6.0-0.22","2774551","co38497","norming","","","","","","",""
"null","../img/tt/194tt.jpg","null","mooney1","image-keyboard-response","161","717165","0.0-6.0-1.22","2774551","co38497","norming","","","","","","",""
"5333.789999998873","","","post_mooney1_questions","survey-likert","162","722500","0.0-6.0-2.22","2774551","co38497","norming","","","{""curiosity"":1,""confidence"":6}","[0,1]","../img/tt/194tt.jpg","",""
"2126.1200000008103","","","recognition","survey-text","163","724628","0.0-6.0-3.22","2774551","co38497","norming","","","{""guess"":""harp""}","","../img/tt/194tt.jpg","",""
"null","../img/gs/194gs.jpg","null","reveal","image-keyboard-response","164","726632","0.0-6.0-4.22","2774551","co38497","norming","","","","","","",""
"null","../img/tt/194tt.jpg","null","mooney2","image-keyboard-response","165","728634","0.0-6.0-5.22","2774551","co38497","norming","","","","","","",""
"2695.0800000012387","","","post_reveal_questions","survey-likert","166","731332","0.0-6.0-6.22","2774551","co38497","norming","","","{""aha"":1}","[0]","../img/tt/194tt.jpg","",""
"null","<div style=""font-size:60px;""> </div>","null","fixation","html-keyboard-response","167","731533","0.0-6.0-0.23","2774551","co38497","norming","","","","","","",""
"null","../img/tt/1362tt.jpg","null","mooney1","image-keyboard-response","168","734543","0.0-6.0-1.23","2774551","co38497","norming","","","","","","",""
"8137.9749999996275","","","post_mooney1_questions","survey-likert","169","742684","0.0-6.0-2.23","2774551","co38497","norming","","","{""curiosity"":1,""confidence"":6}","[0,1]","../img/tt/1362tt.jpg","",""
"2981.7800000001444","","","recognition","survey-text","170","745667","0.0-6.0-3.23","2774551","co38497","norming","","","{""guess"":""kookpotten""}","","../img/tt/1362tt.jpg","",""
"null","../img/gs/1362gs.jpg","null","reveal","image-keyboard-response","171","747670","0.0-6.0-4.23","2774551","co38497","norming","","","","","","",""
"null","../img/tt/1362tt.jpg","null","mooney2","image-keyboard-response","172","749671","0.0-6.0-5.23","2774551","co38497","norming","","","","","","",""
"1691.9100000013132","","","post_reveal_questions","survey-likert","173","751364","0.0-6.0-6.23","2774551","co38497","norming","","","{""aha"":1}","[0]","../img/tt/1362tt.jpg","",""
"null","<div style=""font-size:60px;""> </div>","null","fixation","html-keyboard-response","174","751565","0.0-6.0-0.24","2774551","co38497","norming","","","","","","",""
"null","../img/tt/1142tt.jpg","null","mooney1","image-keyboard-response","175","754575","0.0-6.0-1.24","2774551","co38497","norming","","","","","","",""
"10971.249999998603","","","post_mooney1_questions","survey-likert","176","765549","0.0-6.0-2.24","2774551","co38497","norming","","","{""curiosity"":3,""confidence"":5}","[0,1]","../img/tt/1142tt.jpg","",""
"7078.014999999083","","","recognition","survey-text","177","772629","0.0-6.0-3.24","2774551","co38497","norming","","","{""guess"":""verspringen""}","","../img/tt/1142tt.jpg","",""
"null","../img/gs/1142gs.jpg","null","reveal","image-keyboard-response","178","774631","0.0-6.0-4.24","2774551","co38497","norming","","","","","","",""
"null","../img/tt/1142tt.jpg","null","mooney2","image-keyboard-response","179","776633","0.0-6.0-5.24","2774551","co38497","norming","","","","","","",""
"3808.1650000003865","","","post_reveal_questions","survey-likert","180","780445","0.0-6.0-6.24","2774551","co38497","norming","","","{""aha"":4}","[0]","../img/tt/1142tt.jpg","",""
"null","<div style=""font-size:60px;""> </div>","null","fixation","html-keyboard-response","181","780646","0.0-6.0-0.25","2774551","co38497","norming","","","","","","",""
"null","../img/tt/079tt.jpg","null","mooney1","image-keyboard-response","182","783650","0.0-6.0-1.25","2774551","co38497","norming","","","","","","",""
"4346.050000000163","","","post_mooney1_questions","survey-likert","183","787997","0.0-6.0-2.25","2774551","co38497","norming","","","{""curiosity"":2,""confidence"":5}","[0,1]","../img/tt/079tt.jpg","",""
"1733.7800000004936","","","recognition","survey-text","184","789733","0.0-6.0-3.25","2774551","co38497","norming","","","{""guess"":""beer""}","","../img/tt/079tt.jpg","",""
"null","../img/gs/079gs.jpg","null","reveal","image-keyboard-response","185","791734","0.0-6.0-4.25","2774551","co38497","norming","","","","","","",""
"null","../img/tt/079tt.jpg","null","mooney2","image-keyboard-response","186","793737","0.0-6.0-5.25","2774551","co38497","norming","","","","","","",""
"2578.455000000773","","","post_reveal_questions","survey-likert","187","796317","0.0-6.0-6.25","2774551","co38497","norming","","","{""aha"":1}","[0]","../img/tt/079tt.jpg","",""
"null","<div style=""font-size:60px;""> </div>","null","fixation","html-keyboard-response","188","796518","0.0-6.0-0.26","2774551","co38497","norming","","","","","","",""
"null","../img/tt/1255tt.jpg","null","mooney1","image-keyboard-response","189","799523","0.0-6.0-1.26","2774551","co38497","norming","","","","","","",""
"5231.090000001132","","","post_mooney1_questions","survey-likert","190","804757","0.0-6.0-2.26","2774551","co38497","norming","","","{""curiosity"":4,""confidence"":5}","[0,1]","../img/tt/1255tt.jpg","",""
"2302.120000000228","","","recognition","survey-text","191","807061","0.0-6.0-3.26","2774551","co38497","norming","","","{""guess"":""konijn""}","","../img/tt/1255tt.jpg","",""
"null","../img/gs/1255gs.jpg","null","reveal","image-keyboard-response","192","809071","0.0-6.0-4.26","2774551","co38497","norming","","","","","","",""
"null","../img/tt/1255tt.jpg","null","mooney2","image-keyboard-response","193","811078","0.0-6.0-5.26","2774551","co38497","norming","","","","","","",""
"2004.0900000003166","","","post_reveal_questions","survey-likert","194","813085","0.0-6.0-6.26","2774551","co38497","norming","","","{""aha"":4}","[0]","../img/tt/1255tt.jpg","",""
"null","<div style=""font-size:60px;""> </div>","null","fixation","html-keyboard-response","195","813286","0.0-6.0-0.27","2774551","co38497","norming","","","","","","",""
"null","../img/tt/1127tt.jpg","null","mooney1","image-keyboard-response","196","816289","0.0-6.0-1.27","2774551","co38497","norming","","","","","","",""
"4841.4799999991665","","","post_mooney1_questions","survey-likert","197","821133","0.0-6.0-2.27","2774551","co38497","norming","","","{""curiosity"":4,""confidence"":5}","[0,1]","../img/tt/1127tt.jpg","",""
"2037.6899999991292","","","recognition","survey-text","198","823173","0.0-6.0-3.27","2774551","co38497","norming","","","{""guess"":""café""}","","../img/tt/1127tt.jpg","",""
"null","../img/gs/1127gs.jpg","null","reveal","image-keyboard-response","199","825177","0.0-6.0-4.27","2774551","co38497","norming","","","","","","",""
"null","../img/tt/1127tt.jpg","null","mooney2","image-keyboard-response","200","827183","0.0-6.0-5.27","2774551","co38497","norming","","","","","","",""
"4507.475000000326","","","post_reveal_questions","survey-likert","201","831693","0.0-6.0-6.27","2774551","co38497","norming","","","{""aha"":6}","[0]","../img/tt/1127tt.jpg","",""
"null","<div style=""font-size:60px;""> </div>","null","fixation","html-keyboard-response","202","831894","0.0-6.0-0.28","2774551","co38497","norming","","","","","","",""
"null","../img/tt/031tt.jpg","null","mooney1","image-keyboard-response","203","834899","0.0-6.0-1.28","2774551","co38497","norming","","","","","","",""
"4191.199999999371","","","post_mooney1_questions","survey-likert","204","839093","0.0-6.0-2.28","2774551","co38497","norming","","","{""curiosity"":6,""confidence"":0}","[0,1]","../img/tt/031tt.jpg","",""
"686.0250000008382","","","recognition","survey-text","205","839781","0.0-6.0-3.28","2774551","co38497","norming","","","{""guess"":""""}","","../img/tt/031tt.jpg","",""
"null","../img/gs/031gs.jpg","null","reveal","image-keyboard-response","206","841788","0.0-6.0-4.28","2774551","co38497","norming","","","","","","",""
"null","../img/tt/031tt.jpg","null","mooney2","image-keyboard-response","207","843799","0.0-6.0-5.28","2774551","co38497","norming","","","","","","",""
"2475.919999998994","","","post_reveal_questions","survey-likert","208","846277","0.0-6.0-6.28","2774551","co38497","norming","","","{""aha"":6}","[0]","../img/tt/031tt.jpg","",""
"null","<div style=""font-size:60px;""> </div>","null","fixation","html-keyboard-response","209","846478","0.0-6.0-0.29","2774551","co38497","norming","","","","","","",""
"null","../img/tt/584tt.jpg","null","mooney1","image-keyboard-response","210","849481","0.0-6.0-1.29","2774551","co38497","norming","","","","","","",""
"4320.874999999418","","","post_mooney1_questions","survey-likert","211","853805","0.0-6.0-2.29","2774551","co38497","norming","","","{""curiosity"":4,""confidence"":5}","[0,1]","../img/tt/584tt.jpg","",""
"6806.065000000759","","","recognition","survey-text","212","860613","0.0-6.0-3.29","2774551","co38497","norming","","","{""guess"":""kniptangen""}","","../img/tt/584tt.jpg","",""
"null","../img/gs/584gs.jpg","null","reveal","image-keyboard-response","213","862617","0.0-6.0-4.29","2774551","co38497","norming","","","","","","",""
"null","../img/tt/584tt.jpg","null","mooney2","image-keyboard-response","214","864625","0.0-6.0-5.29","2774551","co38497","norming","","","","","","",""
"2043.1850000005215","","","post_reveal_questions","survey-likert","215","866669","0.0-6.0-6.29","2774551","co38497","norming","","","{""aha"":1}","[0]","../img/tt/584tt.jpg","",""
"null","<div style=""font-size:60px;""> </div>","null","fixation","html-keyboard-response","216","866871","0.0-6.0-0.30","2774551","co38497","norming","","","","","","",""
"null","../img/tt/1027tt.jpg","null","mooney1","image-keyboard-response","217","869873","0.0-6.0-1.30","2774551","co38497","norming","","","","","","",""
"4336.849999999744","","","post_mooney1_questions","survey-likert","218","874213","0.0-6.0-2.30","2774551","co38497","norming","","","{""curiosity"":1,""confidence"":6}","[0,1]","../img/tt/1027tt.jpg","",""
"2989.994999999879","","","recognition","survey-text","219","877205","0.0-6.0-3.30","2774551","co38497","norming","","","{""guess"":""koe""}","","../img/tt/1027tt.jpg","",""
"null","../img/gs/1027gs.jpg","null","reveal","image-keyboard-response","220","879211","0.0-6.0-4.30","2774551","co38497","norming","","","","","","",""
"null","../img/tt/1027tt.jpg","null","mooney2","image-keyboard-response","221","881218","0.0-6.0-5.30","2774551","co38497","norming","","","","","","",""
"4145.205000000773","","","post_reveal_questions","survey-likert","222","885365","0.0-6.0-6.30","2774551","co38497","norming","","","{""aha"":0}","[0]","../img/tt/1027tt.jpg","",""
"null","<div style=""font-size:60px;""> </div>","null","fixation","html-keyboard-response","223","885566","0.0-6.0-0.31","2774551","co38497","norming","","","","","","",""
"null","../img/tt/440tt.jpg","null","mooney1","image-keyboard-response","224","888569","0.0-6.0-1.31","2774551","co38497","norming","","","","","","",""
"3505.1899999998277","","","post_mooney1_questions","survey-likert","225","892078","0.0-6.0-2.31","2774551","co38497","norming","","","{""curiosity"":4,""confidence"":4}","[0,1]","../img/tt/440tt.jpg","",""
"1845.9700000003213","","","recognition","survey-text","226","893925","0.0-6.0-3.31","2774551","co38497","norming","","","{""guess"":""paard""}","","../img/tt/440tt.jpg","",""
"null","../img/gs/440gs.jpg","null","reveal","image-keyboard-response","227","895927","0.0-6.0-4.31","2774551","co38497","norming","","","","","","",""
"null","../img/tt/440tt.jpg","null","mooney2","image-keyboard-response","228","897929","0.0-6.0-5.31","2774551","co38497","norming","","","","","","",""
"2609.7499999995343","","","post_reveal_questions","survey-likert","229","900541","0.0-6.0-6.31","2774551","co38497","norming","","","{""aha"":5}","[0]","../img/tt/440tt.jpg","",""
"null","<div style=""font-size:60px;""> </div>","null","fixation","html-keyboard-response","230","900743","0.0-6.0-0.32","2774551","co38497","norming","","","","","","",""
"null","../img/tt/111tt.jpg","null","mooney1","image-keyboard-response","231","903746","0.0-6.0-1.32","2774551","co38497","norming","","","","","","",""
"4520.764999999199","","","post_mooney1_questions","survey-likert","232","908269","0.0-6.0-2.32","2774551","co38497","norming","","","{""curiosity"":1,""confidence"":6}","[0,1]","../img/tt/111tt.jpg","",""
"4117.010000000009","","","recognition","survey-text","233","912389","0.0-6.0-3.32","2774551","co38497","norming","","","{""guess"":""douche""}","","../img/tt/111tt.jpg","",""
"null","../img/gs/111gs.jpg","null","reveal","image-keyboard-response","234","914391","0.0-6.0-4.32","2774551","co38497","norming","","","","","","",""
"null","../img/tt/111tt.jpg","null","mooney2","image-keyboard-response","235","916394","0.0-6.0-5.32","2774551","co38497","norming","","","","","","",""
"2305.4100000008475","","","post_reveal_questions","survey-likert","236","918701","0.0-6.0-6.32","2774551","co38497","norming","","","{""aha"":0}","[0]","../img/tt/111tt.jpg","",""
"null","<div style=""font-size:60px;""> </div>","null","fixation","html-keyboard-response","237","918903","0.0-6.0-0.33","2774551","co38497","norming","","","","","","",""
"null","../img/tt/1004tt.jpg","null","mooney1","image-keyboard-response","238","921906","0.0-6.0-1.33","2774551","co38497","norming","","","","","","",""
"4474.3149999994785","","","post_mooney1_questions","survey-likert","239","926381","0.0-6.0-2.33","2774551","co38497","norming","","","{""curiosity"":5,""confidence"":1}","[0,1]","../img/tt/1004tt.jpg","",""
"1414.0250000000233","","","recognition","survey-text","240","927797","0.0-6.0-3.33","2774551","co38497","norming","","","{""guess"":""koe""}","","../img/tt/1004tt.jpg","",""
"null","../img/gs/1004gs.jpg","null","reveal","image-keyboard-response","241","929799","0.0-6.0-4.33","2774551","co38497","norming","","","","","","",""
"null","../img/tt/1004tt.jpg","null","mooney2","image-keyboard-response","242","931800","0.0-6.0-5.33","2774551","co38497","norming","","","","","","",""
"1586.715000001248","","","post_reveal_questions","survey-likert","243","933389","0.0-6.0-6.33","2774551","co38497","norming","","","{""aha"":6}","[0]","../img/tt/1004tt.jpg","",""
"null","<div style=""font-size:60px;""> </div>","null","fixation","html-keyboard-response","244","933592","0.0-6.0-0.34","2774551","co38497","norming","","","","","","",""
"null","../img/tt/603tt.jpg","null","mooney1","image-keyboard-response","245","936602","0.0-6.0-1.34","2774551","co38497","norming","","","","","","",""
"4424.135000001057","","","post_mooney1_questions","survey-likert","246","941030","0.0-6.0-2.34","2774551","co38497","norming","","","{""curiosity"":6,""confidence"":0}","[0,1]","../img/tt/603tt.jpg","",""
"509.66500000143424","","","recognition","survey-text","247","941541","0.0-6.0-3.34","2774551","co38497","norming","","","{""guess"":""""}","","../img/tt/603tt.jpg","",""
"null","../img/gs/603gs.jpg","null","reveal","image-keyboard-response","248","943542","0.0-6.0-4.34","2774551","co38497","norming","","","","","","",""
"null","../img/tt/603tt.jpg","null","mooney2","image-keyboard-response","249","945548","0.0-6.0-5.34","2774551","co38497","norming","","","","","","",""
"2311.0500000002794","","","post_reveal_questions","survey-likert","250","947861","0.0-6.0-6.34","2774551","co38497","norming","","","{""aha"":6}","[0]","../img/tt/603tt.jpg","",""
"null","<div style=""font-size:60px;""> </div>","null","fixation","html-keyboard-response","251","948063","0.0-6.0-0.35","2774551","co38497","norming","","","","","","",""
"null","../img/tt/1154tt.jpg","null","mooney1","image-keyboard-response","252","951069","0.0-6.0-1.35","2774551","co38497","norming","","","","","","",""
"5212.895000000484","","","post_mooney1_questions","survey-likert","253","956286","0.0-6.0-2.35","2774551","co38497","norming","","","{""curiosity"":5,""confidence"":4}","[0,1]","../img/tt/1154tt.jpg","",""
"2806.1300000008196","","","recognition","survey-text","254","959093","0.0-6.0-3.35","2774551","co38497","norming","","","{""guess"":""spoorweg""}","","../img/tt/1154tt.jpg","",""
"null","../img/gs/1154gs.jpg","null","reveal","image-keyboard-response","255","961095","0.0-6.0-4.35","2774551","co38497","norming","","","","","","",""
"null","../img/tt/1154tt.jpg","null","mooney2","image-keyboard-response","256","963104","0.0-6.0-5.35","2774551","co38497","norming","","","","","","",""
"2283.095000002533","","","post_reveal_questions","survey-likert","257","965389","0.0-6.0-6.35","2774551","co38497","norming","","","{""aha"":5}","[0]","../img/tt/1154tt.jpg","",""
"null","<div style=""font-size:60px;""> </div>","null","fixation","html-keyboard-response","258","965591","0.0-6.0-0.36","2774551","co38497","norming","","","","","","",""
"null","../img/tt/056tt.jpg","null","mooney1","image-keyboard-response","259","968601","0.0-6.0-1.36","2774551","co38497","norming","","","","","","",""
"5713.2000000019325","","","post_mooney1_questions","survey-likert","260","974318","0.0-6.0-2.36","2774551","co38497","norming","","","{""curiosity"":4,""confidence"":4}","[0,1]","../img/tt/056tt.jpg","",""
"2453.885000002687","","","recognition","survey-text","261","976773","0.0-6.0-3.36","2774551","co38497","norming","","","{""guess"":""geit""}","","../img/tt/056tt.jpg","",""
"null","../img/gs/056gs.jpg","null","reveal","image-keyboard-response","262","978780","0.0-6.0-4.36","2774551","co38497","norming","","","","","","",""
"null","../img/tt/056tt.jpg","null","mooney2","image-keyboard-response","263","980784","0.0-6.0-5.36","2774551","co38497","norming","","","","","","",""
"4307.010000000475","","","post_reveal_questions","survey-likert","264","985093","0.0-6.0-6.36","2774551","co38497","norming","","","{""aha"":4}","[0]","../img/tt/056tt.jpg","",""
"null","<div style=""font-size:60px;""> </div>","null","fixation","html-keyboard-response","265","985295","0.0-6.0-0.37","2774551","co38497","norming","","","","","","",""
"null","../img/tt/1102tt.jpg","null","mooney1","image-keyboard-response","266","988305","0.0-6.0-1.37","2774551","co38497","norming","","","","","","",""
"4129.095000000205","","","post_mooney1_questions","survey-likert","267","992438","0.0-6.0-2.37","2774551","co38497","norming","","","{""curiosity"":5,""confidence"":1}","[0,1]","../img/tt/1102tt.jpg","",""
"3230.1799999986542","","","recognition","survey-text","268","995669","0.0-6.0-3.37","2774551","co38497","norming","","","{""guess"":""palmboom""}","","../img/tt/1102tt.jpg","",""
"null","../img/gs/1102gs.jpg","null","reveal","image-keyboard-response","269","997671","0.0-6.0-4.37","2774551","co38497","norming","","","","","","",""
"null","../img/tt/1102tt.jpg","null","mooney2","image-keyboard-response","270","999679","0.0-6.0-5.37","2774551","co38497","norming","","","","","","",""
"2685.975000000326","","","post_reveal_questions","survey-likert","271","1002366","0.0-6.0-6.37","2774551","co38497","norming","","","{""aha"":5}","[0]","../img/tt/1102tt.jpg","",""
"null","<div style=""font-size:60px;""> </div>","null","fixation","html-keyboard-response","272","1002568","0.0-6.0-0.38","2774551","co38497","norming","","","","","","",""
"null","../img/tt/1146tt.jpg","null","mooney1","image-keyboard-response","273","1005571","0.0-6.0-1.38","2774551","co38497","norming","","","","","","",""
"5527.610000001034","","","post_mooney1_questions","survey-likert","274","1011102","0.0-6.0-2.38","2774551","co38497","norming","","","{""curiosity"":6,""confidence"":2}","[0,1]","../img/tt/1146tt.jpg","",""
"2709.944999998668","","","recognition","survey-text","275","1013814","0.0-6.0-3.38","2774551","co38497","norming","","","{""guess"":""zwembad""}","","../img/tt/1146tt.jpg","",""
"null","../img/gs/1146gs.jpg","null","reveal","image-keyboard-response","276","1015824","0.0-6.0-4.38","2774551","co38497","norming","","","","","","",""
"null","../img/tt/1146tt.jpg","null","mooney2","image-keyboard-response","277","1017835","0.0-6.0-5.38","2774551","co38497","norming","","","","","","",""
"3358.9849999989383","","","post_reveal_questions","survey-likert","278","1021198","0.0-6.0-6.38","2774551","co38497","norming","","","{""aha"":5}","[0]","../img/tt/1146tt.jpg","",""
"null","<div style=""font-size:60px;""> </div>","null","fixation","html-keyboard-response","279","1021399","0.0-6.0-0.39","2774551","co38497","norming","","","","","","",""
"null","../img/tt/435tt.jpg","null","mooney1","image-keyboard-response","280","1024402","0.0-6.0-1.39","2774551","co38497","norming","","","","","","",""
"5392.679999997257","","","post_mooney1_questions","survey-likert","281","1029798","0.0-6.0-2.39","2774551","co38497","norming","","","{""curiosity"":1,""confidence"":6}","[0,1]","../img/tt/435tt.jpg","",""
"3390.305000000866","","","recognition","survey-text","282","1033190","0.0-6.0-3.39","2774551","co38497","norming","","","{""guess"":""pooltafel""}","","../img/tt/435tt.jpg","",""
"null","../img/gs/435gs.jpg","null","reveal","image-keyboard-response","283","1035192","0.0-6.0-4.39","2774551","co38497","norming","","","","","","",""
"null","../img/tt/435tt.jpg","null","mooney2","image-keyboard-response","284","1037195","0.0-6.0-5.39","2774551","co38497","norming","","","","","","",""
"3143.785000000149","","","post_reveal_questions","survey-likert","285","1040342","0.0-6.0-6.39","2774551","co38497","norming","","","{""aha"":1}","[0]","../img/tt/435tt.jpg","",""
"null","<div style=""font-size:60px;""> </div>","null","fixation","html-keyboard-response","286","1040544","0.0-6.0-0.40","2774551","co38497","norming","","","","","","",""
"null","../img/tt/590tt.jpg","null","mooney1","image-keyboard-response","287","1043553","0.0-6.0-1.40","2774551","co38497","norming","","","","","","",""
"6172.080000000307","","","post_mooney1_questions","survey-likert","288","1049726","0.0-6.0-2.40","2774551","co38497","norming","","","{""curiosity"":4,""confidence"":2}","[0,1]","../img/tt/590tt.jpg","",""
"3158.00499999756","","","recognition","survey-text","289","1052886","0.0-6.0-3.40","2774551","co38497","norming","","","{""guess"":""vrachtwagen""}","","../img/tt/590tt.jpg","",""
"null","../img/gs/590gs.jpg","null","reveal","image-keyboard-response","290","1054895","0.0-6.0-4.40","2774551","co38497","norming","","","","","","",""
"null","../img/tt/590tt.jpg","null","mooney2","image-keyboard-response","291","1056898","0.0-6.0-5.40","2774551","co38497","norming","","","","","","",""
"1848.970000002766","","","post_reveal_questions","survey-likert","292","1058751","0.0-6.0-6.40","2774551","co38497","norming","","","{""aha"":4}","[0]","../img/tt/590tt.jpg","",""
"null","<div style=""font-size:60px;""> </div>","null","fixation","html-keyboard-response","293","1058952","0.0-6.0-0.41","2774551","co38497","norming","","","","","","",""
"null","../img/tt/515tt.jpg","null","mooney1","image-keyboard-response","294","1061959","0.0-6.0-1.41","2774551","co38497","norming","","","","","","",""
"3551.095000002533","","","post_mooney1_questions","survey-likert","295","1065511","0.0-6.0-2.41","2774551","co38497","norming","","","{""curiosity"":5,""confidence"":1}","[0,1]","../img/tt/515tt.jpg","",""
"1870.16500000027","","","recognition","survey-text","296","1067383","0.0-6.0-3.41","2774551","co38497","norming","","","{""guess"":""boek""}","","../img/tt/515tt.jpg","",""
"null","../img/gs/515gs.jpg","null","reveal","image-keyboard-response","297","1069392","0.0-6.0-4.41","2774551","co38497","norming","","","","","","",""
"null","../img/tt/515tt.jpg","null","mooney2","image-keyboard-response","298","1071394","0.0-6.0-5.41","2774551","co38497","norming","","","","","","",""
"2849.9449999982025","","","post_reveal_questions","survey-likert","299","1074247","0.0-6.0-6.41","2774551","co38497","norming","","","{""aha"":6}","[0]","../img/tt/515tt.jpg","",""
"null","<div style=""font-size:60px;""> </div>","null","fixation","html-keyboard-response","300","1074449","0.0-6.0-0.42","2774551","co38497","norming","","","","","","",""
"null","../img/tt/353tt.jpg","null","mooney1","image-keyboard-response","301","1077451","0.0-6.0-1.42","2774551","co38497","norming","","","","","","",""
"4928.090000001248","","","post_mooney1_questions","survey-likert","302","1082383","0.0-6.0-2.42","2774551","co38497","norming","","","{""curiosity"":5,""confidence"":1}","[0,1]","../img/tt/353tt.jpg","",""
"7910.090000001015","","","recognition","survey-text","303","1090295","0.0-6.0-3.42","2774551","co38497","norming","","","{""guess"":""kangoeroe""}","","../img/tt/353tt.jpg","",""
"null","../img/gs/353gs.jpg","null","reveal","image-keyboard-response","304","1092303","0.0-6.0-4.42","2774551","co38497","norming","","","","","","",""
"null","../img/tt/353tt.jpg","null","mooney2","image-keyboard-response","305","1094305","0.0-6.0-5.42","2774551","co38497","norming","","","","","","",""
"1809.354999997653","","","post_reveal_questions","survey-likert","306","1096119","0.0-6.0-6.42","2774551","co38497","norming","","","{""aha"":5}","[0]","../img/tt/353tt.jpg","",""
"null","<div style=""font-size:60px;""> </div>","null","fixation","html-keyboard-response","307","1096320","0.0-6.0-0.43","2774551","co38497","norming","","","","","","",""
"null","../img/tt/123tt.jpg","null","mooney1","image-keyboard-response","308","1099324","0.0-6.0-1.43","2774551","co38497","norming","","","","","","",""
"7823.465000001248","","","post_mooney1_questions","survey-likert","309","1107151","0.0-6.0-2.43","2774551","co38497","norming","","","{""curiosity"":4,""confidence"":2}","[0,1]","../img/tt/123tt.jpg","",""
"1814.050000000745","","","recognition","survey-text","310","1108967","0.0-6.0-3.43","2774551","co38497","norming","","","{""guess"":""piano""}","","../img/tt/123tt.jpg","",""
"null","../img/gs/123gs.jpg","null","reveal","image-keyboard-response","311","1110968","0.0-6.0-4.43","2774551","co38497","norming","","","","","","",""
"null","../img/tt/123tt.jpg","null","mooney2","image-keyboard-response","312","1112978","0.0-6.0-5.43","2774551","co38497","norming","","","","","","",""
"2025.6650000012014","","","post_reveal_questions","survey-likert","313","1115007","0.0-6.0-6.43","2774551","co38497","norming","","","{""aha"":4}","[0]","../img/tt/123tt.jpg","",""
"null","<div style=""font-size:60px;""> </div>","null","fixation","html-keyboard-response","314","1115209","0.0-6.0-0.44","2774551","co38497","norming","","","","","","",""
"null","../img/tt/140tt.jpg","null","mooney1","image-keyboard-response","315","1118214","0.0-6.0-1.44","2774551","co38497","norming","","","","","","",""
"4293.729999997653","","","post_mooney1_questions","survey-likert","316","1122512","0.0-6.0-2.44","2774551","co38497","norming","","","{""curiosity"":5,""confidence"":0}","[0,1]","../img/tt/140tt.jpg","",""
"590.0099999997765","","","recognition","survey-text","317","1123103","0.0-6.0-3.44","2774551","co38497","norming","","","{""guess"":""""}","","../img/tt/140tt.jpg","",""
"null","../img/gs/140gs.jpg","null","reveal","image-keyboard-response","318","1125106","0.0-6.0-4.44","2774551","co38497","norming","","","","","","",""
"null","../img/tt/140tt.jpg","null","mooney2","image-keyboard-response","319","1127110","0.0-6.0-5.44","2774551","co38497","norming","","","","","","",""
"2566.7649999996647","","","post_reveal_questions","survey-likert","320","1129679","0.0-6.0-6.44","2774551","co38497","norming","","","{""aha"":6}","[0]","../img/tt/140tt.jpg","",""
"null","<div style=""font-size:60px;""> </div>","null","fixation","html-keyboard-response","321","1129882","0.0-6.0-0.45","2774551","co38497","norming","","","","","","",""
"null","../img/tt/007tt.jpg","null","mooney1","image-keyboard-response","322","1132888","0.0-6.0-1.45","2774551","co38497","norming","","","","","","",""
"5755.764999998035","","","post_mooney1_questions","survey-likert","323","1138647","0.0-6.0-2.45","2774551","co38497","norming","","","{""curiosity"":6,""confidence"":0}","[0,1]","../img/tt/007tt.jpg","",""
"1622.2999999991152","","","recognition","survey-text","324","1140271","0.0-6.0-3.45","2774551","co38497","norming","","","{""guess"":""""}","","../img/tt/007tt.jpg","",""
"null","../img/gs/007gs.jpg","null","reveal","image-keyboard-response","325","1142273","0.0-6.0-4.45","2774551","co38497","norming","","","","","","",""
"null","../img/tt/007tt.jpg","null","mooney2","image-keyboard-response","326","1144277","0.0-6.0-5.45","2774551","co38497","norming","","","","","","",""
"2472.014999999432","","","post_reveal_questions","survey-likert","327","1146752","0.0-6.0-6.45","2774551","co38497","norming","","","{""aha"":6}","[0]","../img/tt/007tt.jpg","",""
"null","<div style=""font-size:60px;""> </div>","null","fixation","html-keyboard-response","328","1146952","0.0-6.0-0.46","2774551","co38497","norming","","","","","","",""
"null","../img/tt/098tt.jpg","null","mooney1","image-keyboard-response","329","1149960","0.0-6.0-1.46","2774551","co38497","norming","","","","","","",""
"4068.0849999990314","","","post_mooney1_questions","survey-likert","330","1154032","0.0-6.0-2.46","2774551","co38497","norming","","","{""curiosity"":6,""confidence"":1}","[0,1]","../img/tt/098tt.jpg","",""
"1750.0600000021514","","","recognition","survey-text","331","1155784","0.0-6.0-3.46","2774551","co38497","norming","","","{""guess"":""roos""}","","../img/tt/098tt.jpg","",""
"null","../img/gs/098gs.jpg","null","reveal","image-keyboard-response","332","1157786","0.0-6.0-4.46","2774551","co38497","norming","","","","","","",""
"null","../img/tt/098tt.jpg","null","mooney2","image-keyboard-response","333","1159795","0.0-6.0-5.46","2774551","co38497","norming","","","","","","",""
"3009.804999998072","","","post_reveal_questions","survey-likert","334","1162808","0.0-6.0-6.46","2774551","co38497","norming","","","{""aha"":5}","[0]","../img/tt/098tt.jpg","",""
"null","<div style=""font-size:60px;""> </div>","null","fixation","html-keyboard-response","335","1163012","0.0-6.0-0.47","2774551","co38497","norming","","","","","","",""
"null","../img/tt/008tt.jpg","null","mooney1","image-keyboard-response","336","1166019","0.0-6.0-1.47","2774551","co38497","norming","","","","","","",""
"4536.909999998985","","","post_mooney1_questions","survey-likert","337","1170560","0.0-6.0-2.47","2774551","co38497","norming","","","{""curiosity"":4,""confidence"":2}","[0,1]","../img/tt/008tt.jpg","",""
"2341.6900000011083","","","recognition","survey-text","338","1172904","0.0-6.0-3.47","2774551","co38497","norming","","","{""guess"":""geweer""}","","../img/tt/008tt.jpg","",""
"null","../img/gs/008gs.jpg","null","reveal","image-keyboard-response","339","1174905","0.0-6.0-4.47","2774551","co38497","norming","","","","","","",""
"null","../img/tt/008tt.jpg","null","mooney2","image-keyboard-response","340","1176910","0.0-6.0-5.47","2774551","co38497","norming","","","","","","",""
"2214.479999998817","","","post_reveal_questions","survey-likert","341","1179129","0.0-6.0-6.47","2774551","co38497","norming","","","{""aha"":2}","[0]","../img/tt/008tt.jpg","",""
"null","<div style=""font-size:60px;""> </div>","null","fixation","html-keyboard-response","342","1179330","0.0-6.0-0.48","2774551","co38497","norming","","","","","","",""
"null","../img/tt/020tt.jpg","null","mooney1","image-keyboard-response","343","1182337","0.0-6.0-1.48","2774551","co38497","norming","","","","","","",""
"3934.7750000015367","","","post_mooney1_questions","survey-likert","344","1186273","0.0-6.0-2.48","2774551","co38497","norming","","","{""curiosity"":4,""confidence"":1}","[0,1]","../img/tt/020tt.jpg","",""
"2326.0549999978393","","","recognition","survey-text","345","1188600","0.0-6.0-3.48","2774551","co38497","norming","","","{""guess"":""standbeeld""}","","../img/tt/020tt.jpg","",""
"null","../img/gs/020gs.jpg","null","reveal","image-keyboard-response","346","1190605","0.0-6.0-4.48","2774551","co38497","norming","","","","","","",""
"null","../img/tt/020tt.jpg","null","mooney2","image-keyboard-response","347","1192609","0.0-6.0-5.48","2774551","co38497","norming","","","","","","",""
"12389.164999996778","","","post_reveal_questions","survey-likert","348","1205001","0.0-6.0-6.48","2774551","co38497","norming","","","{""aha"":6}","[0]","../img/tt/020tt.jpg","",""
"null","<div style=""font-size:60px;""> </div>","null","fixation","html-keyboard-response","349","1205205","0.0-6.0-0.49","2774551","co38497","norming","","","","","","",""
"null","../img/tt/418tt.jpg","null","mooney1","image-keyboard-response","350","1208212","0.0-6.0-1.49","2774551","co38497","norming","","","","","","",""
"6777.4649999991525","","","post_mooney1_questions","survey-likert","351","1214993","0.0-6.0-2.49","2774551","co38497","norming","","","{""curiosity"":2,""confidence"":5}","[0,1]","../img/tt/418tt.jpg","",""
"2422.300000002142","","","recognition","survey-text","352","1217417","0.0-6.0-3.49","2774551","co38497","norming","","","{""guess"":""tomaten""}","","../img/tt/418tt.jpg","",""
"null","../img/gs/418gs.jpg","null","reveal","image-keyboard-response","353","1219418","0.0-6.0-4.49","2774551","co38497","norming","","","","","","",""
"null","../img/tt/418tt.jpg","null","mooney2","image-keyboard-response","354","1221427","0.0-6.0-5.49","2774551","co38497","norming","","","","","","",""
"1563.0999999993946","","","post_reveal_questions","survey-likert","355","1222993","0.0-6.0-6.49","2774551","co38497","norming","","","{""aha"":1}","[0]","../img/tt/418tt.jpg","",""
"null","<div style=""font-size:60px;""> </div>","null","fixation","html-keyboard-response","356","1223194","0.0-6.0-0.50","2774551","co38497","norming","","","","","","",""
"null","../img/tt/108tt.jpg","null","mooney1","image-keyboard-response","357","1226208","0.0-6.0-1.50","2774551","co38497","norming","","","","","","",""
"5381.9000000003725","","","post_mooney1_questions","survey-likert","358","1231593","0.0-6.0-2.50","2774551","co38497","norming","","","{""curiosity"":4,""confidence"":4}","[0,1]","../img/tt/108tt.jpg","",""
"1470.1549999990966","","","recognition","survey-text","359","1233065","0.0-6.0-3.50","2774551","co38497","norming","","","{""guess"":""eend""}","","../img/tt/108tt.jpg","",""
"null","../img/gs/108gs.jpg","null","reveal","image-keyboard-response","360","1235071","0.0-6.0-4.50","2774551","co38497","norming","","","","","","",""
"null","../img/tt/108tt.jpg","null","mooney2","image-keyboard-response","361","1237076","0.0-6.0-5.50","2774551","co38497","norming","","","","","","",""
"1922.0600000009872","","","post_reveal_questions","survey-likert","362","1238999","0.0-6.0-6.50","2774551","co38497","norming","","","{""aha"":5}","[0]","../img/tt/108tt.jpg","",""
"null","<div style=""font-size:60px;""> </div>","null","fixation","html-keyboard-response","363","1239201","0.0-6.0-0.51","2774551","co38497","norming","","","","","","",""
"null","../img/tt/1232tt.jpg","null","mooney1","image-keyboard-response","364","1242211","0.0-6.0-1.51","2774551","co38497","norming","","","","","","",""
"6706.01999999769","","","post_mooney1_questions","survey-likert","365","1248919","0.0-6.0-2.51","2774551","co38497","norming","","","{""curiosity"":3,""confidence"":1}","[0,1]","../img/tt/1232tt.jpg","",""
"1822.1449999983888","","","recognition","survey-text","366","1250743","0.0-6.0-3.51","2774551","co38497","norming","","","{""guess"":""pad""}","","../img/tt/1232tt.jpg","",""
"null","../img/gs/1232gs.jpg","null","reveal","image-keyboard-response","367","1252754","0.0-6.0-4.51","2774551","co38497","norming","","","","","","",""
"null","../img/tt/1232tt.jpg","null","mooney2","image-keyboard-response","368","1254763","0.0-6.0-5.51","2774551","co38497","norming","","","","","","",""
"2665.1700000001583","","","post_reveal_questions","survey-likert","369","1257431","0.0-6.0-6.51","2774551","co38497","norming","","","{""aha"":5}","[0]","../img/tt/1232tt.jpg","",""
"null","<div style=""font-size:60px;""> </div>","null","fixation","html-keyboard-response","370","1257632","0.0-6.0-0.52","2774551","co38497","norming","","","","","","",""
"null","../img/tt/1190tt.jpg","null","mooney1","image-keyboard-response","371","1260642","0.0-6.0-1.52","2774551","co38497","norming","","","","","","",""
"3209.6399999973364","","","post_mooney1_questions","survey-likert","372","1263855","0.0-6.0-2.52","2774551","co38497","norming","","","{""curiosity"":4,""confidence"":4}","[0,1]","../img/tt/1190tt.jpg","",""
"1510.0449999989942","","","recognition","survey-text","373","1265367","0.0-6.0-3.52","2774551","co38497","norming","","","{""guess"":""aap""}","","../img/tt/1190tt.jpg","",""
"null","../img/gs/1190gs.jpg","null","reveal","image-keyboard-response","374","1267368","0.0-6.0-4.52","2774551","co38497","norming","","","","","","",""
"null","../img/tt/1190tt.jpg","null","mooney2","image-keyboard-response","375","1269377","0.0-6.0-5.52","2774551","co38497","norming","","","","","","",""
"3251.3599999984726","","","post_reveal_questions","survey-likert","376","1272631","0.0-6.0-6.52","2774551","co38497","norming","","","{""aha"":5}","[0]","../img/tt/1190tt.jpg","",""
"null","<div style=""font-size:60px;""> </div>","null","fixation","html-keyboard-response","377","1272832","0.0-6.0-0.53","2774551","co38497","norming","","","","","","",""
"null","../img/tt/091tt.jpg","null","mooney1","image-keyboard-response","378","1275841","0.0-6.0-1.53","2774551","co38497","norming","","","","","","",""
"4354.749999998603","","","post_mooney1_questions","survey-likert","379","1280199","0.0-6.0-2.53","2774551","co38497","norming","","","{""curiosity"":5,""confidence"":1}","[0,1]","../img/tt/091tt.jpg","",""
"2334.2549999977928","","","recognition","survey-text","380","1282535","0.0-6.0-3.53","2774551","co38497","norming","","","{""guess"":""slang""}","","../img/tt/091tt.jpg","",""
"null","../img/gs/091gs.jpg","null","reveal","image-keyboard-response","381","1284543","0.0-6.0-4.53","2774551","co38497","norming","","","","","","",""
"null","../img/tt/091tt.jpg","null","mooney2","image-keyboard-response","382","1286546","0.0-6.0-5.53","2774551","co38497","norming","","","","","","",""
"2602.360000000801","","","post_reveal_questions","survey-likert","383","1289151","0.0-6.0-6.53","2774551","co38497","norming","","","{""aha"":5}","[0]","../img/tt/091tt.jpg","",""
"null","<div style=""font-size:60px;""> </div>","null","fixation","html-keyboard-response","384","1289353","0.0-6.0-0.54","2774551","co38497","norming","","","","","","",""
"null","../img/tt/1053tt.jpg","null","mooney1","image-keyboard-response","385","1292356","0.0-6.0-1.54","2774551","co38497","norming","","","","","","",""
"6009.864999999991","","","post_mooney1_questions","survey-likert","386","1298367","0.0-6.0-2.54","2774551","co38497","norming","","","{""curiosity"":6,""confidence"":3}","[0,1]","../img/tt/1053tt.jpg","",""
"2437.8350000006612","","","recognition","survey-text","387","1300802","0.0-6.0-3.54","2774551","co38497","norming","","","{""guess"":""olifant""}","","../img/tt/1053tt.jpg","",""
"null","../img/gs/1053gs.jpg","null","reveal","image-keyboard-response","388","1302803","0.0-6.0-4.54","2774551","co38497","norming","","","","","","",""
"null","../img/tt/1053tt.jpg","null","mooney2","image-keyboard-response","389","1304805","0.0-6.0-5.54","2774551","co38497","norming","","","","","","",""
"4474.529999999562","","","post_reveal_questions","survey-likert","390","1309282","0.0-6.0-6.54","2774551","co38497","norming","","","{""aha"":4}","[0]","../img/tt/1053tt.jpg","",""
"null","<div style=""font-size:60px;""> </div>","null","fixation","html-keyboard-response","391","1309483","0.0-6.0-0.55","2774551","co38497","norming","","","","","","",""
"null","../img/tt/1268tt.jpg","null","mooney1","image-keyboard-response","392","1312487","0.0-6.0-1.55","2774551","co38497","norming","","","","","","",""
"5413.970000001369","","","post_mooney1_questions","survey-likert","393","1317906","0.0-6.0-2.55","2774551","co38497","norming","","","{""curiosity"":3,""confidence"":1}","[0,1]","../img/tt/1268tt.jpg","",""
"3518.3749999995343","","","recognition","survey-text","394","1321426","0.0-6.0-3.55","2774551","co38497","norming","","","{""guess"":""""}","","../img/tt/1268tt.jpg","",""
"null","../img/gs/1268gs.jpg","null","reveal","image-keyboard-response","395","1323436","0.0-6.0-4.55","2774551","co38497","norming","","","","","","",""
"null","../img/tt/1268tt.jpg","null","mooney2","image-keyboard-response","396","1325438","0.0-6.0-5.55","2774551","co38497","norming","","","","","","",""
"2209.064999999013","","","post_reveal_questions","survey-likert","397","1327650","0.0-6.0-6.55","2774551","co38497","norming","","","{""aha"":6}","[0]","../img/tt/1268tt.jpg","",""
"null","<div style=""font-size:60px;""> </div>","null","fixation","html-keyboard-response","398","1327851","0.0-6.0-0.56","2774551","co38497","norming","","","","","","",""
"null","../img/tt/1234tt.jpg","null","mooney1","image-keyboard-response","399","1330854","0.0-6.0-1.56","2774551","co38497","norming","","","","","","",""
"7592.609999999637","","","post_mooney1_questions","survey-likert","400","1338450","0.0-6.0-2.56","2774551","co38497","norming","","","{""curiosity"":1,""confidence"":6}","[0,1]","../img/tt/1234tt.jpg","",""
"1694.0550000001676","","","recognition","survey-text","401","1340146","0.0-6.0-3.56","2774551","co38497","norming","","","{""guess"":""eend""}","","../img/tt/1234tt.jpg","",""
"null","../img/gs/1234gs.jpg","null","reveal","image-keyboard-response","402","1342150","0.0-6.0-4.56","2774551","co38497","norming","","","","","","",""
"null","../img/tt/1234tt.jpg","null","mooney2","image-keyboard-response","403","1344153","0.0-6.0-5.56","2774551","co38497","norming","","","","","","",""
"2182.015000002226","","","post_reveal_questions","survey-likert","404","1346338","0.0-6.0-6.56","2774551","co38497","norming","","","{""aha"":1}","[0]","../img/tt/1234tt.jpg","",""
"null","<div style=""font-size:60px;""> </div>","null","fixation","html-keyboard-response","405","1346540","0.0-6.0-0.57","2774551","co38497","norming","","","","","","",""
"null","../img/tt/032tt.jpg","null","mooney1","image-keyboard-response","406","1349543","0.0-6.0-1.57","2774551","co38497","norming","","","","","","",""
"5599.4649999991525","","","post_mooney1_questions","survey-likert","407","1355146","0.0-6.0-2.57","2774551","co38497","norming","","","{""curiosity"":4,""confidence"":4}","[0,1]","../img/tt/032tt.jpg","",""
"1413.8749999983702","","","recognition","survey-text","408","1356562","0.0-6.0-3.57","2774551","co38497","norming","","","{""guess"":""koe""}","","../img/tt/032tt.jpg","",""
"null","../img/gs/032gs.jpg","null","reveal","image-keyboard-response","409","1358563","0.0-6.0-4.57","2774551","co38497","norming","","","","","","",""
"null","../img/tt/032tt.jpg","null","mooney2","image-keyboard-response","410","1360576","0.0-6.0-5.57","2774551","co38497","norming","","","","","","",""
"2264.035000000149","","","post_reveal_questions","survey-likert","411","1362843","0.0-6.0-6.57","2774551","co38497","norming","","","{""aha"":6}","[0]","../img/tt/032tt.jpg","",""
"null","<div style=""font-size:60px;""> </div>","null","fixation","html-keyboard-response","412","1363045","0.0-6.0-0.58","2774551","co38497","norming","","","","","","",""
"null","../img/tt/497tt.jpg","null","mooney1","image-keyboard-response","413","1366057","0.0-6.0-1.58","2774551","co38497","norming","","","","","","",""
"3454.144999999786","","","post_mooney1_questions","survey-likert","414","1369515","0.0-6.0-2.58","2774551","co38497","norming","","","{""curiosity"":5,""confidence"":1}","[0,1]","../img/tt/497tt.jpg","",""
"1518.234999999404","","","recognition","survey-text","415","1371035","0.0-6.0-3.58","2774551","co38497","norming","","","{""guess"":""lamp""}","","../img/tt/497tt.jpg","",""
"null","../img/gs/497gs.jpg","null","reveal","image-keyboard-response","416","1373043","0.0-6.0-4.58","2774551","co38497","norming","","","","","","",""
"null","../img/tt/497tt.jpg","null","mooney2","image-keyboard-response","417","1375054","0.0-6.0-5.58","2774551","co38497","norming","","","","","","",""
"1946.654999999795","","","post_reveal_questions","survey-likert","418","1377003","0.0-6.0-6.58","2774551","co38497","norming","","","{""aha"":5}","[0]","../img/tt/497tt.jpg","",""
"null","<div style=""font-size:60px;""> </div>","null","fixation","html-keyboard-response","419","1377204","0.0-6.0-0.59","2774551","co38497","norming","","","","","","",""
"null","../img/tt/036tt.jpg","null","mooney1","image-keyboard-response","420","1380211","0.0-6.0-1.59","2774551","co38497","norming","","","","","","",""
"5380.235000000335","","","post_mooney1_questions","survey-likert","421","1385595","0.0-6.0-2.59","2774551","co38497","norming","","","{""curiosity"":6,""confidence"":3}","[0,1]","../img/tt/036tt.jpg","",""
"2622.0850000027567","","","recognition","survey-text","422","1388219","0.0-6.0-3.59","2774551","co38497","norming","","","{""guess"":""bliksem""}","","../img/tt/036tt.jpg","",""
"null","../img/gs/036gs.jpg","null","reveal","image-keyboard-response","423","1390220","0.0-6.0-4.59","2774551","co38497","norming","","","","","","",""
"null","../img/tt/036tt.jpg","null","mooney2","image-keyboard-response","424","1392221","0.0-6.0-5.59","2774551","co38497","norming","","","","","","",""
"2947.045000000857","","","post_reveal_questions","survey-likert","425","1395171","0.0-6.0-6.59","2774551","co38497","norming","","","{""aha"":3}","[0]","../img/tt/036tt.jpg","",""
"null","<div style=""font-size:60px;""> </div>","null","fixation","html-keyboard-response","426","1395373","0.0-6.0-0.60","2774551","co38497","norming","","","","","","",""
"null","../img/tt/013tt.jpg","null","mooney1","image-keyboard-response","427","1398384","0.0-6.0-1.60","2774551","co38497","norming","","","","","","",""
"3519.360000002198","","","post_mooney1_questions","survey-likert","428","1401907","0.0-6.0-2.60","2774551","co38497","norming","","","{""curiosity"":4,""confidence"":3}","[0,1]","../img/tt/013tt.jpg","",""
"1670.1749999991152","","","recognition","survey-text","429","1403579","0.0-6.0-3.60","2774551","co38497","norming","","","{""guess"":""hut""}","","../img/tt/013tt.jpg","",""
"null","../img/gs/013gs.jpg","null","reveal","image-keyboard-response","430","1405580","0.0-6.0-4.60","2774551","co38497","norming","","","","","","",""
"null","../img/tt/013tt.jpg","null","mooney2","image-keyboard-response","431","1407583","0.0-6.0-5.60","2774551","co38497","norming","","","","","","",""
"1721.5900000010151","","","post_reveal_questions","survey-likert","432","1409307","0.0-6.0-6.60","2774551","co38497","norming","","","{""aha"":6}","[0]","../img/tt/013tt.jpg","",""
"null","<div style=""font-size:60px;""> </div>","null","fixation","html-keyboard-response","433","1409508","0.0-6.0-0.61","2774551","co38497","norming","","","","","","",""
"null","../img/tt/517tt.jpg","null","mooney1","image-keyboard-response","434","1412515","0.0-6.0-1.61","2774551","co38497","norming","","","","","","",""
"3814.469999997411","","","post_mooney1_questions","survey-likert","435","1416331","0.0-6.0-2.61","2774551","co38497","norming","","","{""curiosity"":4,""confidence"":1}","[0,1]","../img/tt/517tt.jpg","",""
"2125.9500000015832","","","recognition","survey-text","436","1418459","0.0-6.0-3.61","2774551","co38497","norming","","","{""guess"":""grot""}","","../img/tt/517tt.jpg","",""
"null","../img/gs/517gs.jpg","null","reveal","image-keyboard-response","437","1420460","0.0-6.0-4.61","2774551","co38497","norming","","","","","","",""
"null","../img/tt/517tt.jpg","null","mooney2","image-keyboard-response","438","1422464","0.0-6.0-5.61","2774551","co38497","norming","","","","","","",""
"2569.599999998696","","","post_reveal_questions","survey-likert","439","1425036","0.0-6.0-6.61","2774551","co38497","norming","","","{""aha"":5}","[0]","../img/tt/517tt.jpg","",""
"null","<div style=""font-size:60px;""> </div>","null","fixation","html-keyboard-response","440","1425237","0.0-6.0-0.62","2774551","co38497","norming","","","","","","",""
"null","../img/tt/1276tt.jpg","null","mooney1","image-keyboard-response","441","1428242","0.0-6.0-1.62","2774551","co38497","norming","","","","","","",""
"6541.79500000109","","","post_mooney1_questions","survey-likert","442","1434788","0.0-6.0-2.62","2774551","co38497","norming","","","{""curiosity"":4,""confidence"":0}","[0,1]","../img/tt/1276tt.jpg","",""
"1013.9400000006426","","","recognition","survey-text","443","1435804","0.0-6.0-3.62","2774551","co38497","norming","","","{""guess"":""""}","","../img/tt/1276tt.jpg","",""
"null","../img/gs/1276gs.jpg","null","reveal","image-keyboard-response","444","1437806","0.0-6.0-4.62","2774551","co38497","norming","","","","","","",""
"null","../img/tt/1276tt.jpg","null","mooney2","image-keyboard-response","445","1439810","0.0-6.0-5.62","2774551","co38497","norming","","","","","","",""
"3270.905000001192","","","post_reveal_questions","survey-likert","446","1443084","0.0-6.0-6.62","2774551","co38497","norming","","","{""aha"":3}","[0]","../img/tt/1276tt.jpg","",""
"null","<div style=""font-size:60px;""> </div>","null","fixation","html-keyboard-response","447","1443285","0.0-6.0-0.63","2774551","co38497","norming","","","","","","",""
"null","../img/tt/1072tt.jpg","null","mooney1","image-keyboard-response","448","1446288","0.0-6.0-1.63","2774551","co38497","norming","","","","","","",""
"4265.120000000112","","","post_mooney1_questions","survey-likert","449","1450556","0.0-6.0-2.63","2774551","co38497","norming","","","{""curiosity"":4,""confidence"":4}","[0,1]","../img/tt/1072tt.jpg","",""
"2173.75000000163","","","recognition","survey-text","450","1452732","0.0-6.0-3.63","2774551","co38497","norming","","","{""guess"":""straat""}","","../img/tt/1072tt.jpg","",""
"null","../img/gs/1072gs.jpg","null","reveal","image-keyboard-response","451","1454733","0.0-6.0-4.63","2774551","co38497","norming","","","","","","",""
"null","../img/tt/1072tt.jpg","null","mooney2","image-keyboard-response","452","1456743","0.0-6.0-5.63","2774551","co38497","norming","","","","","","",""
"3226.5399999995716","","","post_reveal_questions","survey-likert","453","1459972","0.0-6.0-6.63","2774551","co38497","norming","","","{""aha"":5}","[0]","../img/tt/1072tt.jpg","",""
"null","<div style=""font-size:60px;""> </div>","null","fixation","html-keyboard-response","454","1460173","0.0-6.0-0.64","2774551","co38497","norming","","","","","","",""
"null","../img/tt/1107tt.jpg","null","mooney1","image-keyboard-response","455","1463181","0.0-6.0-1.64","2774551","co38497","norming","","","","","","",""
"4363.299999997253","","","post_mooney1_questions","survey-likert","456","1467548","0.0-6.0-2.64","2774551","co38497","norming","","","{""curiosity"":6,""confidence"":0}","[0,1]","../img/tt/1107tt.jpg","",""
"1245.6900000032037","","","recognition","survey-text","457","1468796","0.0-6.0-3.64","2774551","co38497","norming","","","{""guess"":""""}","","../img/tt/1107tt.jpg","",""
"null","../img/gs/1107gs.jpg","null","reveal","image-keyboard-response","458","1470797","0.0-6.0-4.64","2774551","co38497","norming","","","","","","",""
"null","../img/tt/1107tt.jpg","null","mooney2","image-keyboard-response","459","1472799","0.0-6.0-5.64","2774551","co38497","norming","","","","","","",""
"2938.6599999996834","","","post_reveal_questions","survey-likert","460","1475740","0.0-6.0-6.64","2774551","co38497","norming","","","{""aha"":6}","[0]","../img/tt/1107tt.jpg","",""
"null","<div style=""font-size:60px;""> </div>","null","fixation","html-keyboard-response","461","1475943","0.0-6.0-0.65","2774551","co38497","norming","","","","","","",""
"null","../img/tt/1242tt.jpg","null","mooney1","image-keyboard-response","462","1478947","0.0-6.0-1.65","2774551","co38497","norming","","","","","","",""
"7316.505000002449","","","post_mooney1_questions","survey-likert","463","1486260","0.0-6.0-2.65","2774551","co38497","norming","","","{""curiosity"":4,""confidence"":2}","[0,1]","../img/tt/1242tt.jpg","",""
"3022.024999998277","","","recognition","survey-text","464","1489283","0.0-6.0-3.65","2774551","co38497","norming","","","{""guess"":""bloem""}","","../img/tt/1242tt.jpg","",""
"null","../img/gs/1242gs.jpg","null","reveal","image-keyboard-response","465","1491286","0.0-6.0-4.65","2774551","co38497","norming","","","","","","",""
"null","../img/tt/1242tt.jpg","null","mooney2","image-keyboard-response","466","1493288","0.0-6.0-5.65","2774551","co38497","norming","","","","","","",""
"3416.5399999984074","","","post_reveal_questions","survey-likert","467","1496708","0.0-6.0-6.65","2774551","co38497","norming","","","{""aha"":6}","[0]","../img/tt/1242tt.jpg","",""
"null","<div style=""font-size:60px;""> </div>","null","fixation","html-keyboard-response","468","1496909","0.0-6.0-0.66","2774551","co38497","norming","","","","","","",""
"null","../img/tt/412tt.jpg","null","mooney1","image-keyboard-response","469","1499914","0.0-6.0-1.66","2774551","co38497","norming","","","","","","",""
"6118.589999998221","","","post_mooney1_questions","survey-likert","470","1506036","0.0-6.0-2.66","2774551","co38497","norming","","","{""curiosity"":2,""confidence"":4}","[0,1]","../img/tt/412tt.jpg","",""
"2190.019999998156","","","recognition","survey-text","471","1508227","0.0-6.0-3.66","2774551","co38497","norming","","","{""guess"":""fles""}","","../img/tt/412tt.jpg","",""
"null","../img/gs/412gs.jpg","null","reveal","image-keyboard-response","472","1510236","0.0-6.0-4.66","2774551","co38497","norming","","","","","","",""
"null","../img/tt/412tt.jpg","null","mooney2","image-keyboard-response","473","1512238","0.0-6.0-5.66","2774551","co38497","norming","","","","","","",""
"1746.5699999993667","","","post_reveal_questions","survey-likert","474","1513987","0.0-6.0-6.66","2774551","co38497","norming","","","{""aha"":5}","[0]","../img/tt/412tt.jpg","",""
"null","<div style=""font-size:60px;""> </div>","null","fixation","html-keyboard-response","475","1514189","0.0-6.0-0.67","2774551","co38497","norming","","","","","","",""
"null","../img/tt/580tt.jpg","null","mooney1","image-keyboard-response","476","1517199","0.0-6.0-1.67","2774551","co38497","norming","","","","","","",""
"5121.705000001239","","","post_mooney1_questions","survey-likert","477","1522324","0.0-6.0-2.67","2774551","co38497","norming","","","{""curiosity"":5,""confidence"":0}","[0,1]","../img/tt/580tt.jpg","",""
"789.9599999983329","","","recognition","survey-text","478","1523115","0.0-6.0-3.67","2774551","co38497","norming","","","{""guess"":""""}","","../img/tt/580tt.jpg","",""
"null","../img/gs/580gs.jpg","null","reveal","image-keyboard-response","479","1525119","0.0-6.0-4.67","2774551","co38497","norming","","","","","","",""
"null","../img/tt/580tt.jpg","null","mooney2","image-keyboard-response","480","1527124","0.0-6.0-5.67","2774551","co38497","norming","","","","","","",""
"2557.515000000363","","","post_reveal_questions","survey-likert","481","1529684","0.0-6.0-6.67","2774551","co38497","norming","","","{""aha"":5}","[0]","../img/tt/580tt.jpg","",""
"null","<div style=""font-size:60px;""> </div>","null","fixation","html-keyboard-response","482","1529885","0.0-6.0-0.68","2774551","co38497","norming","","","","","","",""
"null","../img/tt/040tt.jpg","null","mooney1","image-keyboard-response","483","1532894","0.0-6.0-1.68","2774551","co38497","norming","","","","","","",""
"5793.509999999544","","","post_mooney1_questions","survey-likert","484","1538692","0.0-6.0-2.68","2774551","co38497","norming","","","{""curiosity"":4,""confidence"":4}","[0,1]","../img/tt/040tt.jpg","",""
"2317.9400000008754","","","recognition","survey-text","485","1541012","0.0-6.0-3.68","2774551","co38497","norming","","","{""guess"":""vos""}","","../img/tt/040tt.jpg","",""
"null","../img/gs/040gs.jpg","null","reveal","image-keyboard-response","486","1543025","0.0-6.0-4.68","2774551","co38497","norming","","","","","","",""
"null","../img/tt/040tt.jpg","null","mooney2","image-keyboard-response","487","1545035","0.0-6.0-5.68","2774551","co38497","norming","","","","","","",""
"10808.004999998957","","","post_reveal_questions","survey-likert","488","1555845","0.0-6.0-6.68","2774551","co38497","norming","","","{""aha"":6}","[0]","../img/tt/040tt.jpg","",""
"null","<div style=""font-size:60px;""> </div>","null","fixation","html-keyboard-response","489","1556047","0.0-6.0-0.69","2774551","co38497","norming","","","","","","",""
"null","../img/tt/301tt.jpg","null","mooney1","image-keyboard-response","490","1559053","0.0-6.0-1.69","2774551","co38497","norming","","","","","","",""
"3580.290000001667","","","post_mooney1_questions","survey-likert","491","1562638","0.0-6.0-2.69","2774551","co38497","norming","","","{""curiosity"":4,""confidence"":1}","[0,1]","../img/tt/301tt.jpg","",""
"1998.0999999970663","","","recognition","survey-text","492","1564637","0.0-6.0-3.69","2774551","co38497","norming","","","{""guess"":""geweer""}","","../img/tt/301tt.jpg","",""
"null","../img/gs/301gs.jpg","null","reveal","image-keyboard-response","493","1566642","0.0-6.0-4.69","2774551","co38497","norming","","","","","","",""
"null","../img/tt/301tt.jpg","null","mooney2","image-keyboard-response","494","1568646","0.0-6.0-5.69","2774551","co38497","norming","","","","","","",""
"2372.384999998845","","","post_reveal_questions","survey-likert","495","1571022","0.0-6.0-6.69","2774551","co38497","norming","","","{""aha"":5}","[0]","../img/tt/301tt.jpg","",""
"null","<div style=""font-size:60px;""> </div>","null","fixation","html-keyboard-response","496","1571224","0.0-6.0-0.70","2774551","co38497","norming","","","","","","",""
"null","../img/tt/1262tt.jpg","null","mooney1","image-keyboard-response","497","1574233","0.0-6.0-1.70","2774551","co38497","norming","","","","","","",""
"7225.075000002282","","","post_mooney1_questions","survey-likert","498","1581462","0.0-6.0-2.70","2774551","co38497","norming","","","{""curiosity"":3,""confidence"":2}","[0,1]","../img/tt/1262tt.jpg","",""
"2933.9099999996834","","","recognition","survey-text","499","1584397","0.0-6.0-3.70","2774551","co38497","norming","","","{""guess"":""gevangenis""}","","../img/tt/1262tt.jpg","",""
"null","../img/gs/1262gs.jpg","null","reveal","image-keyboard-response","500","1586405","0.0-6.0-4.70","2774551","co38497","norming","","","","","","",""
"null","../img/tt/1262tt.jpg","null","mooney2","image-keyboard-response","501","1588407","0.0-6.0-5.70","2774551","co38497","norming","","","","","","",""
"3323.730000000214","","","post_reveal_questions","survey-likert","502","1591733","0.0-6.0-6.70","2774551","co38497","norming","","","{""aha"":4}","[0]","../img/tt/1262tt.jpg","",""
"null","<div style=""font-size:60px;""> </div>","null","fixation","html-keyboard-response","503","1591936","0.0-6.0-0.71","2774551","co38497","norming","","","","","","",""
"null","../img/tt/124tt.jpg","null","mooney1","image-keyboard-response","504","1594939","0.0-6.0-1.71","2774551","co38497","norming","","","","","","",""
"3318.690000000177","","","post_mooney1_questions","survey-likert","505","1598262","0.0-6.0-2.71","2774551","co38497","norming","","","{""curiosity"":1,""confidence"":6}","[0,1]","../img/tt/124tt.jpg","",""
"1653.8900000015274","","","recognition","survey-text","506","1599917","0.0-6.0-3.71","2774551","co38497","norming","","","{""guess"":""aap""}","","../img/tt/124tt.jpg","",""
"null","../img/gs/124gs.jpg","null","reveal","image-keyboard-response","507","1601923","0.0-6.0-4.71","2774551","co38497","norming","","","","","","",""
"null","../img/tt/124tt.jpg","null","mooney2","image-keyboard-response","508","1603928","0.0-6.0-5.71","2774551","co38497","norming","","","","","","",""
"2906.670000000391","","","post_reveal_questions","survey-likert","509","1606838","0.0-6.0-6.71","2774551","co38497","norming","","","{""aha"":1}","[0]","../img/tt/124tt.jpg","",""
"null","<div style=""font-size:60px;""> </div>","null","fixation","html-keyboard-response","510","1607040","0.0-6.0-0.72","2774551","co38497","norming","","","","","","",""
"null","../img/tt/522tt.jpg","null","mooney1","image-keyboard-response","511","1610047","0.0-6.0-1.72","2774551","co38497","norming","","","","","","",""
"6347.539999998873","","","post_mooney1_questions","survey-likert","512","1616398","0.0-6.0-2.72","2774551","co38497","norming","","","{""curiosity"":5,""confidence"":1}","[0,1]","../img/tt/522tt.jpg","",""
"1981.994999998249","","","recognition","survey-text","513","1618382","0.0-6.0-3.72","2774551","co38497","norming","","","{""guess"":""schaar""}","","../img/tt/522tt.jpg","",""
"null","../img/gs/522gs.jpg","null","reveal","image-keyboard-response","514","1620390","0.0-6.0-4.72","2774551","co38497","norming","","","","","","",""
"null","../img/tt/522tt.jpg","null","mooney2","image-keyboard-response","515","1622393","0.0-6.0-5.72","2774551","co38497","norming","","","","","","",""
"1616.8499999984633","","","post_reveal_questions","survey-likert","516","1624014","0.0-6.0-6.72","2774551","co38497","norming","","","{""aha"":6}","[0]","../img/tt/522tt.jpg","",""
"null","<div style=""font-size:60px;""> </div>","null","fixation","html-keyboard-response","517","1624215","0.0-6.0-0.73","2774551","co38497","norming","","","","","","",""
"null","../img/tt/442tt.jpg","null","mooney1","image-keyboard-response","518","1627223","0.0-6.0-1.73","2774551","co38497","norming","","","","","","",""
"5163.18500000122","","","post_mooney1_questions","survey-likert","519","1632390","0.0-6.0-2.73","2774551","co38497","norming","","","{""curiosity"":4,""confidence"":2}","[0,1]","../img/tt/442tt.jpg","",""
"1750","","","recognition","survey-text","520","1634142","0.0-6.0-3.73","2774551","co38497","norming","","","{""guess"":""rups""}","","../img/tt/442tt.jpg","",""
"null","../img/gs/442gs.jpg","null","reveal","image-keyboard-response","521","1636143","0.0-6.0-4.73","2774551","co38497","norming","","","","","","",""
"null","../img/tt/442tt.jpg","null","mooney2","image-keyboard-response","522","1638153","0.0-6.0-5.73","2774551","co38497","norming","","","","","","",""
"3530.955000001937","","","post_reveal_questions","survey-likert","523","1641686","0.0-6.0-6.73","2774551","co38497","norming","","","{""aha"":5}","[0]","../img/tt/442tt.jpg","",""
"null","<div style=""font-size:60px;""> </div>","null","fixation","html-keyboard-response","524","1641887","0.0-6.0-0.74","2774551","co38497","norming","","","","","","",""
"null","../img/tt/010tt.jpg","null","mooney1","image-keyboard-response","525","1644890","0.0-6.0-1.74","2774551","co38497","norming","","","","","","",""
"5984.140000000596","","","post_mooney1_questions","survey-likert","526","1650878","0.0-6.0-2.74","2774551","co38497","norming","","","{""curiosity"":6,""confidence"":0}","[0,1]","../img/tt/010tt.jpg","",""
"630.0499999998137","","","recognition","survey-text","527","1651510","0.0-6.0-3.74","2774551","co38497","norming","","","{""guess"":""""}","","../img/tt/010tt.jpg","",""
"null","../img/gs/010gs.jpg","null","reveal","image-keyboard-response","528","1653513","0.0-6.0-4.74","2774551","co38497","norming","","","","","","",""
"null","../img/tt/010tt.jpg","null","mooney2","image-keyboard-response","529","1655523","0.0-6.0-5.74","2774551","co38497","norming","","","","","","",""
"2191.360000000801","","","post_reveal_questions","survey-likert","530","1657718","0.0-6.0-6.74","2774551","co38497","norming","","","{""aha"":6}","[0]","../img/tt/010tt.jpg","",""
"null","<div style=""font-size:60px;""> </div>","null","fixation","html-keyboard-response","531","1657920","0.0-6.0-0.75","2774551","co38497","norming","","","","","","",""
"null","../img/tt/552tt.jpg","null","mooney1","image-keyboard-response","532","1660929","0.0-6.0-1.75","2774551","co38497","norming","","","","","","",""
"4209.009999998612","","","post_mooney1_questions","survey-likert","533","1665137","0.0-6.0-2.75","2774551","co38497","norming","","","{""curiosity"":2,""confidence"":1}","[0,1]","../img/tt/552tt.jpg","",""
"2006.065000001341","","","recognition","survey-text","534","1667144","0.0-6.0-3.75","2774551","co38497","norming","","","{""guess"":""WC""}","","../img/tt/552tt.jpg","",""
"null","../img/gs/552gs.jpg","null","reveal","image-keyboard-response","535","1669152","0.0-6.0-4.75","2774551","co38497","norming","","","","","","",""
"null","../img/tt/552tt.jpg","null","mooney2","image-keyboard-response","536","1671161","0.0-6.0-5.75","2774551","co38497","norming","","","","","","",""
"3028.4500000015832","","","post_reveal_questions","survey-likert","537","1674193","0.0-6.0-6.75","2774551","co38497","norming","","","{""aha"":5}","[0]","../img/tt/552tt.jpg","",""
"null","<div style=""font-size:60px;""> </div>","null","fixation","html-keyboard-response","538","1674394","0.0-6.0-0.76","2774551","co38497","norming","","","","","","",""
"null","../img/tt/1066tt.jpg","null","mooney1","image-keyboard-response","539","1677406","0.0-6.0-1.76","2774551","co38497","norming","","","","","","",""
"4558.984999999637","","","post_mooney1_questions","survey-likert","540","1681969","0.0-6.0-2.76","2774551","co38497","norming","","","{""curiosity"":2,""confidence"":4}","[0,1]","../img/tt/1066tt.jpg","",""
"1525.929999999702","","","recognition","survey-text","541","1683496","0.0-6.0-3.76","2774551","co38497","norming","","","{""guess"":""bus""}","","../img/tt/1066tt.jpg","",""
"null","../img/gs/1066gs.jpg","null","reveal","image-keyboard-response","542","1685498","0.0-6.0-4.76","2774551","co38497","norming","","","","","","",""
"null","../img/tt/1066tt.jpg","null","mooney2","image-keyboard-response","543","1687503","0.0-6.0-5.76","2774551","co38497","norming","","","","","","",""
"2917.0500000000466","","","post_reveal_questions","survey-likert","544","1690424","0.0-6.0-6.76","2774551","co38497","norming","","","{""aha"":2}","[0]","../img/tt/1066tt.jpg","",""
"null","<div style=""font-size:60px;""> </div>","null","fixation","html-keyboard-response","545","1690626","0.0-6.0-0.77","2774551","co38497","norming","","","","","","",""
"null","../img/tt/1235tt.jpg","null","mooney1","image-keyboard-response","546","1693638","0.0-6.0-1.77","2774551","co38497","norming","","","","","","",""
"4897.414999999572","","","post_mooney1_questions","survey-likert","547","1698537","0.0-6.0-2.77","2774551","co38497","norming","","","{""curiosity"":3,""confidence"":2}","[0,1]","../img/tt/1235tt.jpg","",""
"2669.7849999980535","","","recognition","survey-text","548","1701208","0.0-6.0-3.77","2774551","co38497","norming","","","{""guess"":""paard""}","","../img/tt/1235tt.jpg","",""
"null","../img/gs/1235gs.jpg","null","reveal","image-keyboard-response","549","1703210","0.0-6.0-4.77","2774551","co38497","norming","","","","","","",""
"null","../img/tt/1235tt.jpg","null","mooney2","image-keyboard-response","550","1705213","0.0-6.0-5.77","2774551","co38497","norming","","","","","","",""
"1783.9550000026356","","","post_reveal_questions","survey-likert","551","1707000","0.0-6.0-6.77","2774551","co38497","norming","","","{""aha"":5}","[0]","../img/tt/1235tt.jpg","",""
"null","<div style=""font-size:60px;""> </div>","null","fixation","html-keyboard-response","552","1707203","0.0-6.0-0.78","2774551","co38497","norming","","","","","","",""
