"rt","stimulus","key_press","test_part","trial_type","trial_index","time_elapsed","internal_node_id","totalTime","subject","experiment_name","button_pressed","success","responses","question_order","currentStim","old","correct"
"7467.7599999999975","Welcome to the experiment. This is an online experiment so please don't close the tab/window until we say goodbye.  Press any key to begin.","32","instructions","html-keyboard-response","0","7486","0.0-0.0","2506775","co38437","norming","","","","","","",""
"61921.245000000104","<div style='word-wrap: break-word; width: 900px'><h3>Please consider this information carefully before deciding whether to participate in this research</h3><ul style='text-align: left; font-size: .8em;'><li><b>Purpose of the research</b>: To examine how people process images.</li><li><b>What you will do in this research</b>:  Stimuli (images) will be presented on the computer and you will be asked different questions about them.</li><li><b>Time required</b>: Participation will take between 45 and 60 minutes to complete.</li><li><b>Risks</b>:  There are no anticipated risks associated with participating in this study. The effects of participating should be comparable to those you would experience from viewing a computer monitor for 30 minutes and using a mouse or keyboard.</li><li><b>Benefits</b>:  This study provides no benefits to you individually except for the credit. The study provides important information about the nature of perception and learning.</li><li><b>Confidentiality</b>:  Your participation in this study will remain confidential. No personally identifiable information will be associated with your data. Your de-identified data may be shared with other researchers and used in future projects.</li><li><b>Participation and withdrawal</b>:  Your participation in this study is completely voluntary and you may refuse to participate or you may choose to withdraw at any time without penalty.</li><li><b>How to contact the researchers</b>: If you have questions or concerns about your participation or payment, or want to request a summary of research findings, please contact Sander Van de Cruys (KU Leuven), at sander.vandecruys@kuleuven.be.</li></ul><p>The nature and purpose of this research have been sufficiently explained and I agree to participate in this study.  I understand that I am free to withdraw at any time without incurring any penalty.</p><p>Please consent by clicking the button below to continue. Otherwise, please exit the study at this time.</p></div>","","instructions","html-button-response","1","69405","0.0-1.0","2506775","co38437","norming","0","","","","","",""
"","","","instructions","fullscreen","2","75648","0.0-2.0","2506775","co38437","norming","","true","","","","",""
"41050.715000000084","","","sona","survey-html-form","3","116702","0.0-3.0","2506775","co38437","norming","","","[{""name"":""sonaid"",""value"":""38437""},{""name"":""debrief"",""value"":""no""},{""name"":""datajoin"",""value"":""yes""}]","","","",""
"79315.86999999991","<div style='word-wrap: break-word; width: 900px'><h3>Instructions</h3><p>This experiment will have 3 parts. In the first part you will see a series of distorted images like the one below on the left. As you can see in the righthand image, the distorted images are derived from actual photographs. In what follows, you will <strong>briefly</strong> be presented with <strong>only</strong> the distorted image.</p> <div style='float: left; margin-right: 20px;'><img src='../img/018tt.jpg' height='250' width='250'></img></div><div style='float: right; margin-left: 20px;'><img src='../img/018gs.jpg' height='250' width='250'></img></div><p>Subsequently you will be asked a few questions about the image: One question on how <strong>curious</strong> you are about the solution and one on how <strong>confident</strong> you are that you know the solution.</p>Next, we ask you to make a guess on what is in the image. Note that it is OK to name just the <strong>basic level category</strong>. For example when you see a parrot in the image, 'parrot' will obviously be a correct answer but also correct is 'bird'. However, 'animal' will <strong>not</strong> be counted as a correct response. For the example above, 'rose' would be correct or 'flower', but not 'plant'. When soccer players are depicted, 'soccer', 'football', 'soccer players' will be correct, but not 'humans', 'outdoors', or 'sports'. You do not need to describe the image in full, just name the main object in it <strong>in one or two words</strong>. All images depict objects from one of the following broad level categories: animals, inanimate objects, plants, sports, vehicles, and food. Recognizing means knowing <strong>more</strong> than these broad labels for a given image. But we always encourage you to <strong>make a guess</strong> if you can. Note that you are allowed to use <strong>Dutch and English</strong> in your answers, whatever comes easiest for you.</p><p>Press any key to continue.</p></div>","32","instructions","html-keyboard-response","4","196026","0.0-4.0","2506775","co38437","norming","","","","","","",""
"15998.28500000012","<div style='word-wrap: break-word; width: 900px'><h3>Instructions</h3> <p>Next, the solution image will be revealed to you and you'll be asked to indicate how strong your <strong>aha-experience</strong> was after seeing the solution. This describes the positive feeling of the 'click' you sometimes experience, when the pieces of the 'puzzle' fall together and you suddenly have 'insight' in the image.</p><img src='aha.jpg' height='188' width='250'></img><p>Note that there are no right or wrong answers. We are interested in what <strong>you</strong> see in the image and how <strong>you</strong> feel about it.</p><p>Press any key to start the experiment.</p></div>","32","instructions","html-keyboard-response","5","212026","0.0-5.0","2506775","co38437","norming","","","","","","",""
"null","<div style=""font-size:60px;""> </div>","null","fixation","html-keyboard-response","6","212232","0.0-6.0-0.0","2506775","co38437","norming","","","","","","",""
"null","../img/tt/010tt.jpg","null","mooney1","image-keyboard-response","7","215243","0.0-6.0-1.0","2506775","co38437","norming","","","","","","",""
"7994.664999999921","","","post_mooney1_questions","survey-likert","8","223241","0.0-6.0-2.0","2506775","co38437","norming","","","{""curiosity"":4,""confidence"":1}","[0,1]","../img/tt/010tt.jpg","",""
"6365.669999999896","","","recognition","survey-text","9","229608","0.0-6.0-3.0","2506775","co38437","norming","","","{""guess"":""trofee""}","","../img/tt/010tt.jpg","",""
"null","../img/gs/010gs.jpg","null","reveal","image-keyboard-response","10","231617","0.0-6.0-4.0","2506775","co38437","norming","","","","","","",""
"null","../img/tt/010tt.jpg","null","mooney2","image-keyboard-response","11","233618","0.0-6.0-5.0","2506775","co38437","norming","","","","","","",""
"3700.929999999993","","","post_reveal_questions","survey-likert","12","237320","0.0-6.0-6.0","2506775","co38437","norming","","","{""aha"":2}","[0]","../img/tt/010tt.jpg","",""
"null","<div style=""font-size:60px;""> </div>","null","fixation","html-keyboard-response","13","237524","0.0-6.0-0.1","2506775","co38437","norming","","","","","","",""
"null","../img/tt/1012tt.jpg","null","mooney1","image-keyboard-response","14","240525","0.0-6.0-1.1","2506775","co38437","norming","","","","","","",""
"8025.214999999909","","","post_mooney1_questions","survey-likert","15","248553","0.0-6.0-2.1","2506775","co38437","norming","","","{""curiosity"":6,""confidence"":1}","[0,1]","../img/tt/1012tt.jpg","",""
"8590.064999999857","","","recognition","survey-text","16","257151","0.0-6.0-3.1","2506775","co38437","norming","","","{""guess"":""bloem""}","","../img/tt/1012tt.jpg","",""
"null","../img/gs/1012gs.jpg","null","reveal","image-keyboard-response","17","259160","0.0-6.0-4.1","2506775","co38437","norming","","","","","","",""
"null","../img/tt/1012tt.jpg","null","mooney2","image-keyboard-response","18","261162","0.0-6.0-5.1","2506775","co38437","norming","","","","","","",""
"5338.904999999853","","","post_reveal_questions","survey-likert","19","266503","0.0-6.0-6.1","2506775","co38437","norming","","","{""aha"":0}","[0]","../img/tt/1012tt.jpg","",""
"null","<div style=""font-size:60px;""> </div>","null","fixation","html-keyboard-response","20","266710","0.0-6.0-0.2","2506775","co38437","norming","","","","","","",""
"null","../img/tt/098tt.jpg","null","mooney1","image-keyboard-response","21","269711","0.0-6.0-1.2","2506775","co38437","norming","","","","","","",""
"4317.255000000121","","","post_mooney1_questions","survey-likert","22","274031","0.0-6.0-2.2","2506775","co38437","norming","","","{""curiosity"":5,""confidence"":2}","[0,1]","../img/tt/098tt.jpg","",""
"3341.4700000000885","","","recognition","survey-text","23","277375","0.0-6.0-3.2","2506775","co38437","norming","","","{""guess"":""paard""}","","../img/tt/098tt.jpg","",""
"null","../img/gs/098gs.jpg","null","reveal","image-keyboard-response","24","279382","0.0-6.0-4.2","2506775","co38437","norming","","","","","","",""
"null","../img/tt/098tt.jpg","null","mooney2","image-keyboard-response","25","281383","0.0-6.0-5.2","2506775","co38437","norming","","","","","","",""
"2414.585000000021","","","post_reveal_questions","survey-likert","26","283799","0.0-6.0-6.2","2506775","co38437","norming","","","{""aha"":3}","[0]","../img/tt/098tt.jpg","",""
"null","<div style=""font-size:60px;""> </div>","null","fixation","html-keyboard-response","27","284008","0.0-6.0-0.3","2506775","co38437","norming","","","","","","",""
"null","../img/tt/1161tt.jpg","null","mooney1","image-keyboard-response","28","287012","0.0-6.0-1.3","2506775","co38437","norming","","","","","","",""
"6304.360000000044","","","post_mooney1_questions","survey-likert","29","293319","0.0-6.0-2.3","2506775","co38437","norming","","","{""curiosity"":4,""confidence"":1}","[0,1]","../img/tt/1161tt.jpg","",""
"4838.664999999979","","","recognition","survey-text","30","298159","0.0-6.0-3.3","2506775","co38437","norming","","","{""guess"":""spin""}","","../img/tt/1161tt.jpg","",""
"null","../img/gs/1161gs.jpg","null","reveal","image-keyboard-response","31","300168","0.0-6.0-4.3","2506775","co38437","norming","","","","","","",""
"null","../img/tt/1161tt.jpg","null","mooney2","image-keyboard-response","32","302173","0.0-6.0-5.3","2506775","co38437","norming","","","","","","",""
"2656.2850000000326","","","post_reveal_questions","survey-likert","33","304831","0.0-6.0-6.3","2506775","co38437","norming","","","{""aha"":0}","[0]","../img/tt/1161tt.jpg","",""
"null","<div style=""font-size:60px;""> </div>","null","fixation","html-keyboard-response","34","305032","0.0-6.0-0.4","2506775","co38437","norming","","","","","","",""
"null","../img/tt/1366tt.jpg","null","mooney1","image-keyboard-response","35","308036","0.0-6.0-1.4","2506775","co38437","norming","","","","","","",""
"6272.514999999898","","","post_mooney1_questions","survey-likert","36","314311","0.0-6.0-2.4","2506775","co38437","norming","","","{""curiosity"":4,""confidence"":2}","[0,1]","../img/tt/1366tt.jpg","",""
"3534.0650000000605","","","recognition","survey-text","37","317841","0.0-6.0-3.4","2506775","co38437","norming","","","{""guess"":""bloemen""}","","../img/tt/1366tt.jpg","",""
"null","../img/gs/1366gs.jpg","null","reveal","image-keyboard-response","38","319848","0.0-6.0-4.4","2506775","co38437","norming","","","","","","",""
"null","../img/tt/1366tt.jpg","null","mooney2","image-keyboard-response","39","321858","0.0-6.0-5.4","2506775","co38437","norming","","","","","","",""
"3452.765000000014","","","post_reveal_questions","survey-likert","40","325313","0.0-6.0-6.4","2506775","co38437","norming","","","{""aha"":3}","[0]","../img/tt/1366tt.jpg","",""
"null","<div style=""font-size:60px;""> </div>","null","fixation","html-keyboard-response","41","325523","0.0-6.0-0.5","2506775","co38437","norming","","","","","","",""
"null","../img/tt/1181tt.jpg","null","mooney1","image-keyboard-response","42","328534","0.0-6.0-1.5","2506775","co38437","norming","","","","","","",""
"8401.545000000158","","","post_mooney1_questions","survey-likert","43","336938","0.0-6.0-2.5","2506775","co38437","norming","","","{""curiosity"":5,""confidence"":3}","[0,1]","../img/tt/1181tt.jpg","",""
"6381.844999999856","","","recognition","survey-text","44","343321","0.0-6.0-3.5","2506775","co38437","norming","","","{""guess"":""boerderij""}","","../img/tt/1181tt.jpg","",""
"null","../img/gs/1181gs.jpg","null","reveal","image-keyboard-response","45","345326","0.0-6.0-4.5","2506775","co38437","norming","","","","","","",""
"null","../img/tt/1181tt.jpg","null","mooney2","image-keyboard-response","46","347328","0.0-6.0-5.5","2506775","co38437","norming","","","","","","",""
"3104.3299999999","","","post_reveal_questions","survey-likert","47","350433","0.0-6.0-6.5","2506775","co38437","norming","","","{""aha"":4}","[0]","../img/tt/1181tt.jpg","",""
"null","<div style=""font-size:60px;""> </div>","null","fixation","html-keyboard-response","48","350635","0.0-6.0-0.6","2506775","co38437","norming","","","","","","",""
"null","../img/tt/1228tt.jpg","null","mooney1","image-keyboard-response","49","353644","0.0-6.0-1.6","2506775","co38437","norming","","","","","","",""
"5468.624999999942","","","post_mooney1_questions","survey-likert","50","359114","0.0-6.0-2.6","2506775","co38437","norming","","","{""curiosity"":3,""confidence"":2}","[0,1]","../img/tt/1228tt.jpg","",""
"4542.204999999958","","","recognition","survey-text","51","363657","0.0-6.0-3.6","2506775","co38437","norming","","","{""guess"":""vogel""}","","../img/tt/1228tt.jpg","",""
"null","../img/gs/1228gs.jpg","null","reveal","image-keyboard-response","52","365659","0.0-6.0-4.6","2506775","co38437","norming","","","","","","",""
"null","../img/tt/1228tt.jpg","null","mooney2","image-keyboard-response","53","367669","0.0-6.0-5.6","2506775","co38437","norming","","","","","","",""
"3426.204999999958","","","post_reveal_questions","survey-likert","54","371098","0.0-6.0-6.6","2506775","co38437","norming","","","{""aha"":0}","[0]","../img/tt/1228tt.jpg","",""
"null","<div style=""font-size:60px;""> </div>","null","fixation","html-keyboard-response","55","371298","0.0-6.0-0.7","2506775","co38437","norming","","","","","","",""
"null","../img/tt/1188tt.jpg","null","mooney1","image-keyboard-response","56","374309","0.0-6.0-1.7","2506775","co38437","norming","","","","","","",""
"3954.189999999944","","","post_mooney1_questions","survey-likert","57","378272","0.0-6.0-2.7","2506775","co38437","norming","","","{""curiosity"":4,""confidence"":4}","[0,1]","../img/tt/1188tt.jpg","",""
"2782.0599999999977","","","recognition","survey-text","58","381055","0.0-6.0-3.7","2506775","co38437","norming","","","{""guess"":""man""}","","../img/tt/1188tt.jpg","",""
"null","../img/gs/1188gs.jpg","null","reveal","image-keyboard-response","59","383063","0.0-6.0-4.7","2506775","co38437","norming","","","","","","",""
"null","../img/tt/1188tt.jpg","null","mooney2","image-keyboard-response","60","385067","0.0-6.0-5.7","2506775","co38437","norming","","","","","","",""
"2442.049999999872","","","post_reveal_questions","survey-likert","61","387511","0.0-6.0-6.7","2506775","co38437","norming","","","{""aha"":3}","[0]","../img/tt/1188tt.jpg","",""
"null","<div style=""font-size:60px;""> </div>","null","fixation","html-keyboard-response","62","387712","0.0-6.0-0.8","2506775","co38437","norming","","","","","","",""
"null","../img/tt/1175tt.jpg","null","mooney1","image-keyboard-response","63","390717","0.0-6.0-1.8","2506775","co38437","norming","","","","","","",""
"5712.089999999967","","","post_mooney1_questions","survey-likert","64","396432","0.0-6.0-2.8","2506775","co38437","norming","","","{""curiosity"":1,""confidence"":1}","[0,1]","../img/tt/1175tt.jpg","",""
"3958.0699999998906","","","recognition","survey-text","65","400391","0.0-6.0-3.8","2506775","co38437","norming","","","{""guess"":""menigte""}","","../img/tt/1175tt.jpg","",""
"null","../img/gs/1175gs.jpg","null","reveal","image-keyboard-response","66","402392","0.0-6.0-4.8","2506775","co38437","norming","","","","","","",""
"null","../img/tt/1175tt.jpg","null","mooney2","image-keyboard-response","67","404394","0.0-6.0-5.8","2506775","co38437","norming","","","","","","",""
"1515.6500000000815","","","post_reveal_questions","survey-likert","68","405911","0.0-6.0-6.8","2506775","co38437","norming","","","{""aha"":2}","[0]","../img/tt/1175tt.jpg","",""
"null","<div style=""font-size:60px;""> </div>","null","fixation","html-keyboard-response","69","406114","0.0-6.0-0.9","2506775","co38437","norming","","","","","","",""
"null","../img/tt/1234tt.jpg","null","mooney1","image-keyboard-response","70","409116","0.0-6.0-1.9","2506775","co38437","norming","","","","","","",""
"5665.584999999963","","","post_mooney1_questions","survey-likert","71","414784","0.0-6.0-2.9","2506775","co38437","norming","","","{""curiosity"":4,""confidence"":2}","[0,1]","../img/tt/1234tt.jpg","",""
"5350.085000000021","","","recognition","survey-text","72","420135","0.0-6.0-3.9","2506775","co38437","norming","","","{""guess"":""zwaan""}","","../img/tt/1234tt.jpg","",""
"null","../img/gs/1234gs.jpg","null","reveal","image-keyboard-response","73","422143","0.0-6.0-4.9","2506775","co38437","norming","","","","","","",""
"null","../img/tt/1234tt.jpg","null","mooney2","image-keyboard-response","74","424154","0.0-6.0-5.9","2506775","co38437","norming","","","","","","",""
"3139.394999999902","","","post_reveal_questions","survey-likert","75","427295","0.0-6.0-6.9","2506775","co38437","norming","","","{""aha"":3}","[0]","../img/tt/1234tt.jpg","",""
"null","<div style=""font-size:60px;""> </div>","null","fixation","html-keyboard-response","76","427506","0.0-6.0-0.10","2506775","co38437","norming","","","","","","",""
"null","../img/tt/517tt.jpg","null","mooney1","image-keyboard-response","77","430513","0.0-6.0-1.10","2506775","co38437","norming","","","","","","",""
"4532.439999999944","","","post_mooney1_questions","survey-likert","78","435048","0.0-6.0-2.10","2506775","co38437","norming","","","{""curiosity"":5,""confidence"":2}","[0,1]","../img/tt/517tt.jpg","",""
"3494.1099999998696","","","recognition","survey-text","79","438545","0.0-6.0-3.10","2506775","co38437","norming","","","{""guess"":""varken""}","","../img/tt/517tt.jpg","",""
"null","../img/gs/517gs.jpg","null","reveal","image-keyboard-response","80","440556","0.0-6.0-4.10","2506775","co38437","norming","","","","","","",""
"null","../img/tt/517tt.jpg","null","mooney2","image-keyboard-response","81","442557","0.0-6.0-5.10","2506775","co38437","norming","","","","","","",""
"2025.75","","","post_reveal_questions","survey-likert","82","444585","0.0-6.0-6.10","2506775","co38437","norming","","","{""aha"":3}","[0]","../img/tt/517tt.jpg","",""
"null","<div style=""font-size:60px;""> </div>","null","fixation","html-keyboard-response","83","444790","0.0-6.0-0.11","2506775","co38437","norming","","","","","","",""
"null","../img/tt/052tt.jpg","null","mooney1","image-keyboard-response","84","447796","0.0-6.0-1.11","2506775","co38437","norming","","","","","","",""
"3562.4700000000885","","","post_mooney1_questions","survey-likert","85","451361","0.0-6.0-2.11","2506775","co38437","norming","","","{""curiosity"":3,""confidence"":2}","[0,1]","../img/tt/052tt.jpg","",""
"3189.875","","","recognition","survey-text","86","454553","0.0-6.0-3.11","2506775","co38437","norming","","","{""guess"":""zwembad""}","","../img/tt/052tt.jpg","",""
"null","../img/gs/052gs.jpg","null","reveal","image-keyboard-response","87","456557","0.0-6.0-4.11","2506775","co38437","norming","","","","","","",""
"null","../img/tt/052tt.jpg","null","mooney2","image-keyboard-response","88","458560","0.0-6.0-5.11","2506775","co38437","norming","","","","","","",""
"3822.9450000001234","","","post_reveal_questions","survey-likert","89","462385","0.0-6.0-6.11","2506775","co38437","norming","","","{""aha"":5}","[0]","../img/tt/052tt.jpg","",""
"null","<div style=""font-size:60px;""> </div>","null","fixation","html-keyboard-response","90","462591","0.0-6.0-0.12","2506775","co38437","norming","","","","","","",""
"null","../img/tt/1199tt.jpg","null","mooney1","image-keyboard-response","91","465594","0.0-6.0-1.12","2506775","co38437","norming","","","","","","",""
"5301.175000000047","","","post_mooney1_questions","survey-likert","92","470897","0.0-6.0-2.12","2506775","co38437","norming","","","{""curiosity"":4,""confidence"":0}","[0,1]","../img/tt/1199tt.jpg","",""
"3006.1149999998743","","","recognition","survey-text","93","473905","0.0-6.0-3.12","2506775","co38437","norming","","","{""guess"":""brug""}","","../img/tt/1199tt.jpg","",""
"null","../img/gs/1199gs.jpg","null","reveal","image-keyboard-response","94","475908","0.0-6.0-4.12","2506775","co38437","norming","","","","","","",""
"null","../img/tt/1199tt.jpg","null","mooney2","image-keyboard-response","95","477911","0.0-6.0-5.12","2506775","co38437","norming","","","","","","",""
"1960.225000000035","","","post_reveal_questions","survey-likert","96","479873","0.0-6.0-6.12","2506775","co38437","norming","","","{""aha"":6}","[0]","../img/tt/1199tt.jpg","",""
"null","<div style=""font-size:60px;""> </div>","null","fixation","html-keyboard-response","97","480076","0.0-6.0-0.13","2506775","co38437","norming","","","","","","",""
"null","../img/tt/1116tt.jpg","null","mooney1","image-keyboard-response","98","483083","0.0-6.0-1.13","2506775","co38437","norming","","","","","","",""
"4740.005000000063","","","post_mooney1_questions","survey-likert","99","487825","0.0-6.0-2.13","2506775","co38437","norming","","","{""curiosity"":3,""confidence"":2}","[0,1]","../img/tt/1116tt.jpg","",""
"4382.249999999884","","","recognition","survey-text","100","492209","0.0-6.0-3.13","2506775","co38437","norming","","","{""guess"":""autogarage""}","","../img/tt/1116tt.jpg","",""
"null","../img/gs/1116gs.jpg","null","reveal","image-keyboard-response","101","494210","0.0-6.0-4.13","2506775","co38437","norming","","","","","","",""
"null","../img/tt/1116tt.jpg","null","mooney2","image-keyboard-response","102","496212","0.0-6.0-5.13","2506775","co38437","norming","","","","","","",""
"1715.4199999999837","","","post_reveal_questions","survey-likert","103","497930","0.0-6.0-6.13","2506775","co38437","norming","","","{""aha"":5}","[0]","../img/tt/1116tt.jpg","",""
"null","<div style=""font-size:60px;""> </div>","null","fixation","html-keyboard-response","104","498131","0.0-6.0-0.14","2506775","co38437","norming","","","","","","",""
"null","../img/tt/329tt.jpg","null","mooney1","image-keyboard-response","105","501135","0.0-6.0-1.14","2506775","co38437","norming","","","","","","",""
"3672.535000000149","","","post_mooney1_questions","survey-likert","106","504810","0.0-6.0-2.14","2506775","co38437","norming","","","{""curiosity"":2,""confidence"":1}","[0,1]","../img/tt/329tt.jpg","",""
"3166.0899999999674","","","recognition","survey-text","107","507978","0.0-6.0-3.14","2506775","co38437","norming","","","{""guess"":""stal""}","","../img/tt/329tt.jpg","",""
"null","../img/gs/329gs.jpg","null","reveal","image-keyboard-response","108","509979","0.0-6.0-4.14","2506775","co38437","norming","","","","","","",""
"null","../img/tt/329tt.jpg","null","mooney2","image-keyboard-response","109","511980","0.0-6.0-5.14","2506775","co38437","norming","","","","","","",""
"2027.8100000000559","","","post_reveal_questions","survey-likert","110","514010","0.0-6.0-6.14","2506775","co38437","norming","","","{""aha"":3}","[0]","../img/tt/329tt.jpg","",""
"null","<div style=""font-size:60px;""> </div>","null","fixation","html-keyboard-response","111","514220","0.0-6.0-0.15","2506775","co38437","norming","","","","","","",""
"null","../img/tt/1097tt.jpg","null","mooney1","image-keyboard-response","112","517224","0.0-6.0-1.15","2506775","co38437","norming","","","","","","",""
"5311.455000000016","","","post_mooney1_questions","survey-likert","113","522538","0.0-6.0-2.15","2506775","co38437","norming","","","{""curiosity"":5,""confidence"":4}","[0,1]","../img/tt/1097tt.jpg","",""
"2582.1650000000955","","","recognition","survey-text","114","525122","0.0-6.0-3.15","2506775","co38437","norming","","","{""guess"":""man""}","","../img/tt/1097tt.jpg","",""
"null","../img/gs/1097gs.jpg","null","reveal","image-keyboard-response","115","527132","0.0-6.0-4.15","2506775","co38437","norming","","","","","","",""
"null","../img/tt/1097tt.jpg","null","mooney2","image-keyboard-response","116","529135","0.0-6.0-5.15","2506775","co38437","norming","","","","","","",""
"1665.005000000121","","","post_reveal_questions","survey-likert","117","530802","0.0-6.0-6.15","2506775","co38437","norming","","","{""aha"":6}","[0]","../img/tt/1097tt.jpg","",""
"null","<div style=""font-size:60px;""> </div>","null","fixation","html-keyboard-response","118","531011","0.0-6.0-0.16","2506775","co38437","norming","","","","","","",""
"null","../img/tt/1130tt.jpg","null","mooney1","image-keyboard-response","119","534015","0.0-6.0-1.16","2506775","co38437","norming","","","","","","",""
"4351.444999999949","","","post_mooney1_questions","survey-likert","120","538370","0.0-6.0-2.16","2506775","co38437","norming","","","{""curiosity"":4,""confidence"":4}","[0,1]","../img/tt/1130tt.jpg","",""
"3086.2550000000047","","","recognition","survey-text","121","541458","0.0-6.0-3.16","2506775","co38437","norming","","","{""guess"":""fietser""}","","../img/tt/1130tt.jpg","",""
"null","../img/gs/1130gs.jpg","null","reveal","image-keyboard-response","122","543459","0.0-6.0-4.16","2506775","co38437","norming","","","","","","",""
"null","../img/tt/1130tt.jpg","null","mooney2","image-keyboard-response","123","545466","0.0-6.0-5.16","2506775","co38437","norming","","","","","","",""
"4878.744999999995","","","post_reveal_questions","survey-likert","124","550346","0.0-6.0-6.16","2506775","co38437","norming","","","{""aha"":5}","[0]","../img/tt/1130tt.jpg","",""
"null","<div style=""font-size:60px;""> </div>","null","fixation","html-keyboard-response","125","550554","0.0-6.0-0.17","2506775","co38437","norming","","","","","","",""
"null","../img/tt/085tt.jpg","null","mooney1","image-keyboard-response","126","553566","0.0-6.0-1.17","2506775","co38437","norming","","","","","","",""
"5217.525000000023","","","post_mooney1_questions","survey-likert","127","558777","0.0-6.0-2.17","2506775","co38437","norming","","","{""curiosity"":5,""confidence"":0}","[0,1]","../img/tt/085tt.jpg","",""
"6222.375000000116","","","recognition","survey-text","128","565001","0.0-6.0-3.17","2506775","co38437","norming","","","{""guess"":""kip""}","","../img/tt/085tt.jpg","",""
"null","../img/gs/085gs.jpg","null","reveal","image-keyboard-response","129","567007","0.0-6.0-4.17","2506775","co38437","norming","","","","","","",""
"null","../img/tt/085tt.jpg","null","mooney2","image-keyboard-response","130","569012","0.0-6.0-5.17","2506775","co38437","norming","","","","","","",""
"3594.344999999972","","","post_reveal_questions","survey-likert","131","572609","0.0-6.0-6.17","2506775","co38437","norming","","","{""aha"":2}","[0]","../img/tt/085tt.jpg","",""
"null","<div style=""font-size:60px;""> </div>","null","fixation","html-keyboard-response","132","572810","0.0-6.0-0.18","2506775","co38437","norming","","","","","","",""
"null","../img/tt/1049tt.jpg","null","mooney1","image-keyboard-response","133","575820","0.0-6.0-1.18","2506775","co38437","norming","","","","","","",""
"5394.209999999846","","","post_mooney1_questions","survey-likert","134","581217","0.0-6.0-2.18","2506775","co38437","norming","","","{""curiosity"":4,""confidence"":1}","[0,1]","../img/tt/1049tt.jpg","",""
"3926.170000000042","","","recognition","survey-text","135","585145","0.0-6.0-3.18","2506775","co38437","norming","","","{""guess"":""vrouw""}","","../img/tt/1049tt.jpg","",""
"null","../img/gs/1049gs.jpg","null","reveal","image-keyboard-response","136","587146","0.0-6.0-4.18","2506775","co38437","norming","","","","","","",""
"null","../img/tt/1049tt.jpg","null","mooney2","image-keyboard-response","137","589146","0.0-6.0-5.18","2506775","co38437","norming","","","","","","",""
"3660.914999999921","","","post_reveal_questions","survey-likert","138","592809","0.0-6.0-6.18","2506775","co38437","norming","","","{""aha"":2}","[0]","../img/tt/1049tt.jpg","",""
"null","<div style=""font-size:60px;""> </div>","null","fixation","html-keyboard-response","139","593013","0.0-6.0-0.19","2506775","co38437","norming","","","","","","",""
"null","../img/tt/1251tt.jpg","null","mooney1","image-keyboard-response","140","596016","0.0-6.0-1.19","2506775","co38437","norming","","","","","","",""
"3870.7050000000745","","","post_mooney1_questions","survey-likert","141","599889","0.0-6.0-2.19","2506775","co38437","norming","","","{""curiosity"":1,""confidence"":0}","[0,1]","../img/tt/1251tt.jpg","",""
"4358.179999999935","","","recognition","survey-text","142","604249","0.0-6.0-3.19","2506775","co38437","norming","","","{""guess"":""hooi""}","","../img/tt/1251tt.jpg","",""
"null","../img/gs/1251gs.jpg","null","reveal","image-keyboard-response","143","606257","0.0-6.0-4.19","2506775","co38437","norming","","","","","","",""
"null","../img/tt/1251tt.jpg","null","mooney2","image-keyboard-response","144","608259","0.0-6.0-5.19","2506775","co38437","norming","","","","","","",""
"2876.2799999999115","","","post_reveal_questions","survey-likert","145","611137","0.0-6.0-6.19","2506775","co38437","norming","","","{""aha"":2}","[0]","../img/tt/1251tt.jpg","",""
"null","<div style=""font-size:60px;""> </div>","null","fixation","html-keyboard-response","146","611347","0.0-6.0-0.20","2506775","co38437","norming","","","","","","",""
"null","../img/tt/549tt.jpg","null","mooney1","image-keyboard-response","147","614358","0.0-6.0-1.20","2506775","co38437","norming","","","","","","",""
"3792.805000000051","","","post_mooney1_questions","survey-likert","148","618154","0.0-6.0-2.20","2506775","co38437","norming","","","{""curiosity"":4,""confidence"":2}","[0,1]","../img/tt/549tt.jpg","",""
"6798.254999999888","","","recognition","survey-text","149","624954","0.0-6.0-3.20","2506775","co38437","norming","","","{""guess"":""sprinkhaan""}","","../img/tt/549tt.jpg","",""
"null","../img/gs/549gs.jpg","null","reveal","image-keyboard-response","150","626963","0.0-6.0-4.20","2506775","co38437","norming","","","","","","",""
"null","../img/tt/549tt.jpg","null","mooney2","image-keyboard-response","151","628970","0.0-6.0-5.20","2506775","co38437","norming","","","","","","",""
"1805.5549999999348","","","post_reveal_questions","survey-likert","152","630778","0.0-6.0-6.20","2506775","co38437","norming","","","{""aha"":3}","[0]","../img/tt/549tt.jpg","",""
"null","<div style=""font-size:60px;""> </div>","null","fixation","html-keyboard-response","153","630979","0.0-6.0-0.21","2506775","co38437","norming","","","","","","",""
"null","../img/tt/060tt.jpg","null","mooney1","image-keyboard-response","154","633991","0.0-6.0-1.21","2506775","co38437","norming","","","","","","",""
"5824.885000000009","","","post_mooney1_questions","survey-likert","155","639818","0.0-6.0-2.21","2506775","co38437","norming","","","{""curiosity"":4,""confidence"":1}","[0,1]","../img/tt/060tt.jpg","",""
"3358.545000000042","","","recognition","survey-text","156","643178","0.0-6.0-3.21","2506775","co38437","norming","","","{""guess"":""fietsbel""}","","../img/tt/060tt.jpg","",""
"null","../img/gs/060gs.jpg","null","reveal","image-keyboard-response","157","645181","0.0-6.0-4.21","2506775","co38437","norming","","","","","","",""
"null","../img/tt/060tt.jpg","null","mooney2","image-keyboard-response","158","647189","0.0-6.0-5.21","2506775","co38437","norming","","","","","","",""
"2259.119999999879","","","post_reveal_questions","survey-likert","159","649450","0.0-6.0-6.21","2506775","co38437","norming","","","{""aha"":1}","[0]","../img/tt/060tt.jpg","",""
"null","<div style=""font-size:60px;""> </div>","null","fixation","html-keyboard-response","160","649653","0.0-6.0-0.22","2506775","co38437","norming","","","","","","",""
"null","../img/tt/1173tt.jpg","null","mooney1","image-keyboard-response","161","652658","0.0-6.0-1.22","2506775","co38437","norming","","","","","","",""
"10535.199999999953","","","post_mooney1_questions","survey-likert","162","663194","0.0-6.0-2.22","2506775","co38437","norming","","","{""curiosity"":2,""confidence"":5}","[0,1]","../img/tt/1173tt.jpg","",""
"3054.1149999999907","","","recognition","survey-text","163","666250","0.0-6.0-3.22","2506775","co38437","norming","","","{""guess"":""baseball""}","","../img/tt/1173tt.jpg","",""
"null","../img/gs/1173gs.jpg","null","reveal","image-keyboard-response","164","668255","0.0-6.0-4.22","2506775","co38437","norming","","","","","","",""
"null","../img/tt/1173tt.jpg","null","mooney2","image-keyboard-response","165","670262","0.0-6.0-5.22","2506775","co38437","norming","","","","","","",""
"2353.855000000098","","","post_reveal_questions","survey-likert","166","672618","0.0-6.0-6.22","2506775","co38437","norming","","","{""aha"":5}","[0]","../img/tt/1173tt.jpg","",""
"null","<div style=""font-size:60px;""> </div>","null","fixation","html-keyboard-response","167","672821","0.0-6.0-0.23","2506775","co38437","norming","","","","","","",""
"null","../img/tt/1279tt.jpg","null","mooney1","image-keyboard-response","168","675824","0.0-6.0-1.23","2506775","co38437","norming","","","","","","",""
"3471.645000000135","","","post_mooney1_questions","survey-likert","169","679303","0.0-6.0-2.23","2506775","co38437","norming","","","{""curiosity"":1,""confidence"":1}","[0,1]","../img/tt/1279tt.jpg","",""
"2006.0799999998417","","","recognition","survey-text","170","681311","0.0-6.0-3.23","2506775","co38437","norming","","","{""guess"":""mensen""}","","../img/tt/1279tt.jpg","",""
"null","../img/gs/1279gs.jpg","null","reveal","image-keyboard-response","171","683313","0.0-6.0-4.23","2506775","co38437","norming","","","","","","",""
"null","../img/tt/1279tt.jpg","null","mooney2","image-keyboard-response","172","685318","0.0-6.0-5.23","2506775","co38437","norming","","","","","","",""
"2072.3649999999907","","","post_reveal_questions","survey-likert","173","687391","0.0-6.0-6.23","2506775","co38437","norming","","","{""aha"":2}","[0]","../img/tt/1279tt.jpg","",""
"null","<div style=""font-size:60px;""> </div>","null","fixation","html-keyboard-response","174","687597","0.0-6.0-0.24","2506775","co38437","norming","","","","","","",""
"null","../img/tt/064tt.jpg","null","mooney1","image-keyboard-response","175","690600","0.0-6.0-1.24","2506775","co38437","norming","","","","","","",""
"8292.640000000014","","","post_mooney1_questions","survey-likert","176","698895","0.0-6.0-2.24","2506775","co38437","norming","","","{""curiosity"":3,""confidence"":1}","[0,1]","../img/tt/064tt.jpg","",""
"3101.990000000107","","","recognition","survey-text","177","701999","0.0-6.0-3.24","2506775","co38437","norming","","","{""guess"":""krokodil""}","","../img/tt/064tt.jpg","",""
"null","../img/gs/064gs.jpg","null","reveal","image-keyboard-response","178","704009","0.0-6.0-4.24","2506775","co38437","norming","","","","","","",""
"null","../img/tt/064tt.jpg","null","mooney2","image-keyboard-response","179","706012","0.0-6.0-5.24","2506775","co38437","norming","","","","","","",""
"2543.9999999998836","","","post_reveal_questions","survey-likert","180","708559","0.0-6.0-6.24","2506775","co38437","norming","","","{""aha"":2}","[0]","../img/tt/064tt.jpg","",""
"null","<div style=""font-size:60px;""> </div>","null","fixation","html-keyboard-response","181","708761","0.0-6.0-0.25","2506775","co38437","norming","","","","","","",""
"null","../img/tt/442tt.jpg","null","mooney1","image-keyboard-response","182","711764","0.0-6.0-1.25","2506775","co38437","norming","","","","","","",""
"3512.600000000093","","","post_mooney1_questions","survey-likert","183","715280","0.0-6.0-2.25","2506775","co38437","norming","","","{""curiosity"":4,""confidence"":0}","[0,1]","../img/tt/442tt.jpg","",""
"2574.0100000000093","","","recognition","survey-text","184","717855","0.0-6.0-3.25","2506775","co38437","norming","","","{""guess"":""bloem""}","","../img/tt/442tt.jpg","",""
"null","../img/gs/442gs.jpg","null","reveal","image-keyboard-response","185","719859","0.0-6.0-4.25","2506775","co38437","norming","","","","","","",""
"null","../img/tt/442tt.jpg","null","mooney2","image-keyboard-response","186","721867","0.0-6.0-5.25","2506775","co38437","norming","","","","","","",""
"1465.265000000014","","","post_reveal_questions","survey-likert","187","723335","0.0-6.0-6.25","2506775","co38437","norming","","","{""aha"":4}","[0]","../img/tt/442tt.jpg","",""
"null","<div style=""font-size:60px;""> </div>","null","fixation","html-keyboard-response","188","723538","0.0-6.0-0.26","2506775","co38437","norming","","","","","","",""
"null","../img/tt/1261tt.jpg","null","mooney1","image-keyboard-response","189","726545","0.0-6.0-1.26","2506775","co38437","norming","","","","","","",""
"4067.895000000135","","","post_mooney1_questions","survey-likert","190","730615","0.0-6.0-2.26","2506775","co38437","norming","","","{""curiosity"":4,""confidence"":3}","[0,1]","../img/tt/1261tt.jpg","",""
"3222.234999999986","","","recognition","survey-text","191","733839","0.0-6.0-3.26","2506775","co38437","norming","","","{""guess"":""hond""}","","../img/tt/1261tt.jpg","",""
"null","../img/gs/1261gs.jpg","null","reveal","image-keyboard-response","192","735842","0.0-6.0-4.26","2506775","co38437","norming","","","","","","",""
"null","../img/tt/1261tt.jpg","null","mooney2","image-keyboard-response","193","737844","0.0-6.0-5.26","2506775","co38437","norming","","","","","","",""
"2152.7799999999115","","","post_reveal_questions","survey-likert","194","739997","0.0-6.0-6.26","2506775","co38437","norming","","","{""aha"":4}","[0]","../img/tt/1261tt.jpg","",""
"null","<div style=""font-size:60px;""> </div>","null","fixation","html-keyboard-response","195","740199","0.0-6.0-0.27","2506775","co38437","norming","","","","","","",""
"null","../img/tt/1123tt.jpg","null","mooney1","image-keyboard-response","196","743207","0.0-6.0-1.27","2506775","co38437","norming","","","","","","",""
"4907.7200000000885","","","post_mooney1_questions","survey-likert","197","748117","0.0-6.0-2.27","2506775","co38437","norming","","","{""curiosity"":1,""confidence"":3}","[0,1]","../img/tt/1123tt.jpg","",""
"3205.984999999986","","","recognition","survey-text","198","751325","0.0-6.0-3.27","2506775","co38437","norming","","","{""guess"":""spelende hond""}","","../img/tt/1123tt.jpg","",""
"null","../img/gs/1123gs.jpg","null","reveal","image-keyboard-response","199","753330","0.0-6.0-4.27","2506775","co38437","norming","","","","","","",""
"null","../img/tt/1123tt.jpg","null","mooney2","image-keyboard-response","200","755332","0.0-6.0-5.27","2506775","co38437","norming","","","","","","",""
"2320.089999999851","","","post_reveal_questions","survey-likert","201","757653","0.0-6.0-6.27","2506775","co38437","norming","","","{""aha"":3}","[0]","../img/tt/1123tt.jpg","",""
"null","<div style=""font-size:60px;""> </div>","null","fixation","html-keyboard-response","202","757864","0.0-6.0-0.28","2506775","co38437","norming","","","","","","",""
"null","../img/tt/435tt.jpg","null","mooney1","image-keyboard-response","203","760869","0.0-6.0-1.28","2506775","co38437","norming","","","","","","",""
"4069.495000000228","","","post_mooney1_questions","survey-likert","204","764941","0.0-6.0-2.28","2506775","co38437","norming","","","{""curiosity"":1,""confidence"":1}","[0,1]","../img/tt/435tt.jpg","",""
"2110.090000000084","","","recognition","survey-text","205","767053","0.0-6.0-3.28","2506775","co38437","norming","","","{""guess"":""zandbak""}","","../img/tt/435tt.jpg","",""
"null","../img/gs/435gs.jpg","null","reveal","image-keyboard-response","206","769059","0.0-6.0-4.28","2506775","co38437","norming","","","","","","",""
"null","../img/tt/435tt.jpg","null","mooney2","image-keyboard-response","207","771062","0.0-6.0-5.28","2506775","co38437","norming","","","","","","",""
"2220.5400000000373","","","post_reveal_questions","survey-likert","208","773285","0.0-6.0-6.28","2506775","co38437","norming","","","{""aha"":5}","[0]","../img/tt/435tt.jpg","",""
"null","<div style=""font-size:60px;""> </div>","null","fixation","html-keyboard-response","209","773487","0.0-6.0-0.29","2506775","co38437","norming","","","","","","",""
"null","../img/tt/456tt.jpg","null","mooney1","image-keyboard-response","210","776492","0.0-6.0-1.29","2506775","co38437","norming","","","","","","",""
"6094.290000000037","","","post_mooney1_questions","survey-likert","211","782589","0.0-6.0-2.29","2506775","co38437","norming","","","{""curiosity"":4,""confidence"":2}","[0,1]","../img/tt/456tt.jpg","",""
"2909.95000000007","","","recognition","survey-text","212","785501","0.0-6.0-3.29","2506775","co38437","norming","","","{""guess"":""wandelende tak""}","","../img/tt/456tt.jpg","",""
"null","../img/gs/456gs.jpg","null","reveal","image-keyboard-response","213","787511","0.0-6.0-4.29","2506775","co38437","norming","","","","","","",""
"null","../img/tt/456tt.jpg","null","mooney2","image-keyboard-response","214","789521","0.0-6.0-5.29","2506775","co38437","norming","","","","","","",""
"1642.1949999999488","","","post_reveal_questions","survey-likert","215","791165","0.0-6.0-6.29","2506775","co38437","norming","","","{""aha"":2}","[0]","../img/tt/456tt.jpg","",""
"null","<div style=""font-size:60px;""> </div>","null","fixation","html-keyboard-response","216","791375","0.0-6.0-0.30","2506775","co38437","norming","","","","","","",""
"null","../img/tt/1066tt.jpg","null","mooney1","image-keyboard-response","217","794377","0.0-6.0-1.30","2506775","co38437","norming","","","","","","",""
"3457.5449999999255","","","post_mooney1_questions","survey-likert","218","797837","0.0-6.0-2.30","2506775","co38437","norming","","","{""curiosity"":4,""confidence"":5}","[0,1]","../img/tt/1066tt.jpg","",""
"1757.979999999865","","","recognition","survey-text","219","799598","0.0-6.0-3.30","2506775","co38437","norming","","","{""guess"":""bus""}","","../img/tt/1066tt.jpg","",""
"null","../img/gs/1066gs.jpg","null","reveal","image-keyboard-response","220","801606","0.0-6.0-4.30","2506775","co38437","norming","","","","","","",""
"null","../img/tt/1066tt.jpg","null","mooney2","image-keyboard-response","221","803615","0.0-6.0-5.30","2506775","co38437","norming","","","","","","",""
"3771.3450000000885","","","post_reveal_questions","survey-likert","222","807389","0.0-6.0-6.30","2506775","co38437","norming","","","{""aha"":2}","[0]","../img/tt/1066tt.jpg","",""
"null","<div style=""font-size:60px;""> </div>","null","fixation","html-keyboard-response","223","807590","0.0-6.0-0.31","2506775","co38437","norming","","","","","","",""
"null","../img/tt/524tt.jpg","null","mooney1","image-keyboard-response","224","810596","0.0-6.0-1.31","2506775","co38437","norming","","","","","","",""
"3942.405000000028","","","post_mooney1_questions","survey-likert","225","814542","0.0-6.0-2.31","2506775","co38437","norming","","","{""curiosity"":1,""confidence"":1}","[0,1]","../img/tt/524tt.jpg","",""
"2078.300000000163","","","recognition","survey-text","226","816621","0.0-6.0-3.31","2506775","co38437","norming","","","{""guess"":""olifant""}","","../img/tt/524tt.jpg","",""
"null","../img/gs/524gs.jpg","null","reveal","image-keyboard-response","227","818623","0.0-6.0-4.31","2506775","co38437","norming","","","","","","",""
"null","../img/tt/524tt.jpg","null","mooney2","image-keyboard-response","228","820624","0.0-6.0-5.31","2506775","co38437","norming","","","","","","",""
"1883.109999999986","","","post_reveal_questions","survey-likert","229","822510","0.0-6.0-6.31","2506775","co38437","norming","","","{""aha"":1}","[0]","../img/tt/524tt.jpg","",""
"null","<div style=""font-size:60px;""> </div>","null","fixation","html-keyboard-response","230","822714","0.0-6.0-0.32","2506775","co38437","norming","","","","","","",""
"null","../img/tt/019tt.jpg","null","mooney1","image-keyboard-response","231","825716","0.0-6.0-1.32","2506775","co38437","norming","","","","","","",""
"7093.32500000007","","","post_mooney1_questions","survey-likert","232","832813","0.0-6.0-2.32","2506775","co38437","norming","","","{""curiosity"":6,""confidence"":0}","[0,1]","../img/tt/019tt.jpg","",""
"1126.3100000000559","","","recognition","survey-text","233","833941","0.0-6.0-3.32","2506775","co38437","norming","","","{""guess"":""""}","","../img/tt/019tt.jpg","",""
"null","../img/gs/019gs.jpg","null","reveal","image-keyboard-response","234","835943","0.0-6.0-4.32","2506775","co38437","norming","","","","","","",""
"null","../img/tt/019tt.jpg","null","mooney2","image-keyboard-response","235","837945","0.0-6.0-5.32","2506775","co38437","norming","","","","","","",""
"2066.3849999997765","","","post_reveal_questions","survey-likert","236","840014","0.0-6.0-6.32","2506775","co38437","norming","","","{""aha"":4}","[0]","../img/tt/019tt.jpg","",""
"null","<div style=""font-size:60px;""> </div>","null","fixation","html-keyboard-response","237","840221","0.0-6.0-0.33","2506775","co38437","norming","","","","","","",""
"null","../img/tt/1002tt.jpg","null","mooney1","image-keyboard-response","238","843223","0.0-6.0-1.33","2506775","co38437","norming","","","","","","",""
"4179.79999999993","","","post_mooney1_questions","survey-likert","239","847406","0.0-6.0-2.33","2506775","co38437","norming","","","{""curiosity"":4,""confidence"":1}","[0,1]","../img/tt/1002tt.jpg","",""
"1373.6899999999441","","","recognition","survey-text","240","848781","0.0-6.0-3.33","2506775","co38437","norming","","","{""guess"":""koe""}","","../img/tt/1002tt.jpg","",""
"null","../img/gs/1002gs.jpg","null","reveal","image-keyboard-response","241","850788","0.0-6.0-4.33","2506775","co38437","norming","","","","","","",""
"null","../img/tt/1002tt.jpg","null","mooney2","image-keyboard-response","242","852790","0.0-6.0-5.33","2506775","co38437","norming","","","","","","",""
"1717.8200000000652","","","post_reveal_questions","survey-likert","243","854509","0.0-6.0-6.33","2506775","co38437","norming","","","{""aha"":2}","[0]","../img/tt/1002tt.jpg","",""
"null","<div style=""font-size:60px;""> </div>","null","fixation","html-keyboard-response","244","854719","0.0-6.0-0.34","2506775","co38437","norming","","","","","","",""
"null","../img/tt/1237tt.jpg","null","mooney1","image-keyboard-response","245","857722","0.0-6.0-1.34","2506775","co38437","norming","","","","","","",""
"2849.355000000098","","","post_mooney1_questions","survey-likert","246","860575","0.0-6.0-2.34","2506775","co38437","norming","","","{""curiosity"":1,""confidence"":3}","[0,1]","../img/tt/1237tt.jpg","",""
"877.9299999998184","","","recognition","survey-text","247","861455","0.0-6.0-3.34","2506775","co38437","norming","","","{""guess"":""eend""}","","../img/tt/1237tt.jpg","",""
"null","../img/gs/1237gs.jpg","null","reveal","image-keyboard-response","248","863459","0.0-6.0-4.34","2506775","co38437","norming","","","","","","",""
"null","../img/tt/1237tt.jpg","null","mooney2","image-keyboard-response","249","865460","0.0-6.0-5.34","2506775","co38437","norming","","","","","","",""
"2945.6550000001444","","","post_reveal_questions","survey-likert","250","868407","0.0-6.0-6.34","2506775","co38437","norming","","","{""aha"":0}","[0]","../img/tt/1237tt.jpg","",""
"null","<div style=""font-size:60px;""> </div>","null","fixation","html-keyboard-response","251","868610","0.0-6.0-0.35","2506775","co38437","norming","","","","","","",""
"null","../img/tt/084tt.jpg","null","mooney1","image-keyboard-response","252","871615","0.0-6.0-1.35","2506775","co38437","norming","","","","","","",""
"3725.2850000000326","","","post_mooney1_questions","survey-likert","253","875343","0.0-6.0-2.35","2506775","co38437","norming","","","{""curiosity"":4,""confidence"":2}","[0,1]","../img/tt/084tt.jpg","",""
"2110.324999999837","","","recognition","survey-text","254","877455","0.0-6.0-3.35","2506775","co38437","norming","","","{""guess"":""vogel""}","","../img/tt/084tt.jpg","",""
"null","../img/gs/084gs.jpg","null","reveal","image-keyboard-response","255","879461","0.0-6.0-4.35","2506775","co38437","norming","","","","","","",""
"null","../img/tt/084tt.jpg","null","mooney2","image-keyboard-response","256","881470","0.0-6.0-5.35","2506775","co38437","norming","","","","","","",""
"2510.9899999999907","","","post_reveal_questions","survey-likert","257","883983","0.0-6.0-6.35","2506775","co38437","norming","","","{""aha"":3}","[0]","../img/tt/084tt.jpg","",""
"null","<div style=""font-size:60px;""> </div>","null","fixation","html-keyboard-response","258","884191","0.0-6.0-0.36","2506775","co38437","norming","","","","","","",""
"null","../img/tt/1191tt.jpg","null","mooney1","image-keyboard-response","259","887193","0.0-6.0-1.36","2506775","co38437","norming","","","","","","",""
"4003.609999999986","","","post_mooney1_questions","survey-likert","260","891199","0.0-6.0-2.36","2506775","co38437","norming","","","{""curiosity"":4,""confidence"":2}","[0,1]","../img/tt/1191tt.jpg","",""
"2302.3449999998556","","","recognition","survey-text","261","893503","0.0-6.0-3.36","2506775","co38437","norming","","","{""guess"":""kameel""}","","../img/tt/1191tt.jpg","",""
"null","../img/gs/1191gs.jpg","null","reveal","image-keyboard-response","262","895508","0.0-6.0-4.36","2506775","co38437","norming","","","","","","",""
"null","../img/tt/1191tt.jpg","null","mooney2","image-keyboard-response","263","897510","0.0-6.0-5.36","2506775","co38437","norming","","","","","","",""
"1574.5349999999162","","","post_reveal_questions","survey-likert","264","899087","0.0-6.0-6.36","2506775","co38437","norming","","","{""aha"":2}","[0]","../img/tt/1191tt.jpg","",""
"null","<div style=""font-size:60px;""> </div>","null","fixation","html-keyboard-response","265","899288","0.0-6.0-0.37","2506775","co38437","norming","","","","","","",""
"null","../img/tt/1151tt.jpg","null","mooney1","image-keyboard-response","266","902291","0.0-6.0-1.37","2506775","co38437","norming","","","","","","",""
"4345.064999999944","","","post_mooney1_questions","survey-likert","267","906639","0.0-6.0-2.37","2506775","co38437","norming","","","{""curiosity"":4,""confidence"":4}","[0,1]","../img/tt/1151tt.jpg","",""
"1870.2399999999907","","","recognition","survey-text","268","908511","0.0-6.0-3.37","2506775","co38437","norming","","","{""guess"":""giraf""}","","../img/tt/1151tt.jpg","",""
"null","../img/gs/1151gs.jpg","null","reveal","image-keyboard-response","269","910517","0.0-6.0-4.37","2506775","co38437","norming","","","","","","",""
"null","../img/tt/1151tt.jpg","null","mooney2","image-keyboard-response","270","912525","0.0-6.0-5.37","2506775","co38437","norming","","","","","","",""
"4480.695000000182","","","post_reveal_questions","survey-likert","271","917007","0.0-6.0-6.37","2506775","co38437","norming","","","{""aha"":4}","[0]","../img/tt/1151tt.jpg","",""
"null","<div style=""font-size:60px;""> </div>","null","fixation","html-keyboard-response","272","917208","0.0-6.0-0.38","2506775","co38437","norming","","","","","","",""
"null","../img/tt/1202tt.jpg","null","mooney1","image-keyboard-response","273","920220","0.0-6.0-1.38","2506775","co38437","norming","","","","","","",""
"3220.8499999999767","","","post_mooney1_questions","survey-likert","274","923442","0.0-6.0-2.38","2506775","co38437","norming","","","{""curiosity"":4,""confidence"":1}","[0,1]","../img/tt/1202tt.jpg","",""
"3182.945000000065","","","recognition","survey-text","275","926627","0.0-6.0-3.38","2506775","co38437","norming","","","{""guess"":""boerderij""}","","../img/tt/1202tt.jpg","",""
"null","../img/gs/1202gs.jpg","null","reveal","image-keyboard-response","276","928628","0.0-6.0-4.38","2506775","co38437","norming","","","","","","",""
"null","../img/tt/1202tt.jpg","null","mooney2","image-keyboard-response","277","930638","0.0-6.0-5.38","2506775","co38437","norming","","","","","","",""
"6082.559999999823","","","post_reveal_questions","survey-likert","278","936722","0.0-6.0-6.38","2506775","co38437","norming","","","{""aha"":3}","[0]","../img/tt/1202tt.jpg","",""
"null","<div style=""font-size:60px;""> </div>","null","fixation","html-keyboard-response","279","936931","0.0-6.0-0.39","2506775","co38437","norming","","","","","","",""
"null","../img/tt/436tt.jpg","null","mooney1","image-keyboard-response","280","939939","0.0-6.0-1.39","2506775","co38437","norming","","","","","","",""
"5053.110000000102","","","post_mooney1_questions","survey-likert","281","944995","0.0-6.0-2.39","2506775","co38437","norming","","","{""curiosity"":5,""confidence"":0}","[0,1]","../img/tt/436tt.jpg","",""
"717.9249999999302","","","recognition","survey-text","282","945715","0.0-6.0-3.39","2506775","co38437","norming","","","{""guess"":""""}","","../img/tt/436tt.jpg","",""
"null","../img/gs/436gs.jpg","null","reveal","image-keyboard-response","283","947723","0.0-6.0-4.39","2506775","co38437","norming","","","","","","",""
"null","../img/tt/436tt.jpg","null","mooney2","image-keyboard-response","284","949726","0.0-6.0-5.39","2506775","co38437","norming","","","","","","",""
"1682.4850000001024","","","post_reveal_questions","survey-likert","285","951410","0.0-6.0-6.39","2506775","co38437","norming","","","{""aha"":3}","[0]","../img/tt/436tt.jpg","",""
"null","<div style=""font-size:60px;""> </div>","null","fixation","html-keyboard-response","286","951617","0.0-6.0-0.40","2506775","co38437","norming","","","","","","",""
"null","../img/tt/318tt.jpg","null","mooney1","image-keyboard-response","287","954619","0.0-6.0-1.40","2506775","co38437","norming","","","","","","",""
"3996.469999999972","","","post_mooney1_questions","survey-likert","288","958619","0.0-6.0-2.40","2506775","co38437","norming","","","{""curiosity"":2,""confidence"":0}","[0,1]","../img/tt/318tt.jpg","",""
"1686.1500000000233","","","recognition","survey-text","289","960306","0.0-6.0-3.40","2506775","co38437","norming","","","{""guess"":""helm""}","","../img/tt/318tt.jpg","",""
"null","../img/gs/318gs.jpg","null","reveal","image-keyboard-response","290","962311","0.0-6.0-4.40","2506775","co38437","norming","","","","","","",""
"null","../img/tt/318tt.jpg","null","mooney2","image-keyboard-response","291","964319","0.0-6.0-5.40","2506775","co38437","norming","","","","","","",""
"1456.8499999998603","","","post_reveal_questions","survey-likert","292","965778","0.0-6.0-6.40","2506775","co38437","norming","","","{""aha"":2}","[0]","../img/tt/318tt.jpg","",""
"null","<div style=""font-size:60px;""> </div>","null","fixation","html-keyboard-response","293","965984","0.0-6.0-0.41","2506775","co38437","norming","","","","","","",""
"null","../img/tt/082tt.jpg","null","mooney1","image-keyboard-response","294","968988","0.0-6.0-1.41","2506775","co38437","norming","","","","","","",""
"3379.8549999999814","","","post_mooney1_questions","survey-likert","295","972371","0.0-6.0-2.41","2506775","co38437","norming","","","{""curiosity"":5,""confidence"":4}","[0,1]","../img/tt/082tt.jpg","",""
"1854.2600000001257","","","recognition","survey-text","296","974226","0.0-6.0-3.41","2506775","co38437","norming","","","{""guess"":""papegaai""}","","../img/tt/082tt.jpg","",""
"null","../img/gs/082gs.jpg","null","reveal","image-keyboard-response","297","976237","0.0-6.0-4.41","2506775","co38437","norming","","","","","","",""
"null","../img/tt/082tt.jpg","null","mooney2","image-keyboard-response","298","978238","0.0-6.0-5.41","2506775","co38437","norming","","","","","","",""
"3209.990000000107","","","post_reveal_questions","survey-likert","299","981451","0.0-6.0-6.41","2506775","co38437","norming","","","{""aha"":4}","[0]","../img/tt/082tt.jpg","",""
"null","<div style=""font-size:60px;""> </div>","null","fixation","html-keyboard-response","300","981653","0.0-6.0-0.42","2506775","co38437","norming","","","","","","",""
"null","../img/tt/020tt.jpg","null","mooney1","image-keyboard-response","301","984663","0.0-6.0-1.42","2506775","co38437","norming","","","","","","",""
"3368.994999999879","","","post_mooney1_questions","survey-likert","302","988035","0.0-6.0-2.42","2506775","co38437","norming","","","{""curiosity"":2,""confidence"":3}","[0,1]","../img/tt/020tt.jpg","",""
"2302.1150000002235","","","recognition","survey-text","303","990339","0.0-6.0-3.42","2506775","co38437","norming","","","{""guess"":""kameleon""}","","../img/tt/020tt.jpg","",""
"null","../img/gs/020gs.jpg","null","reveal","image-keyboard-response","304","992342","0.0-6.0-4.42","2506775","co38437","norming","","","","","","",""
"null","../img/tt/020tt.jpg","null","mooney2","image-keyboard-response","305","994344","0.0-6.0-5.42","2506775","co38437","norming","","","","","","",""
"1614.2449999999953","","","post_reveal_questions","survey-likert","306","995963","0.0-6.0-6.42","2506775","co38437","norming","","","{""aha"":4}","[0]","../img/tt/020tt.jpg","",""
"null","<div style=""font-size:60px;""> </div>","null","fixation","html-keyboard-response","307","996165","0.0-6.0-0.43","2506775","co38437","norming","","","","","","",""
"null","../img/tt/140tt.jpg","null","mooney1","image-keyboard-response","308","999168","0.0-6.0-1.43","2506775","co38437","norming","","","","","","",""
"2816.0799999997253","","","post_mooney1_questions","survey-likert","309","1001987","0.0-6.0-2.43","2506775","co38437","norming","","","{""curiosity"":3,""confidence"":3}","[0,1]","../img/tt/140tt.jpg","",""
"1998.1249999998836","","","recognition","survey-text","310","1003987","0.0-6.0-3.43","2506775","co38437","norming","","","{""guess"":""vorken""}","","../img/tt/140tt.jpg","",""
"null","../img/gs/140gs.jpg","null","reveal","image-keyboard-response","311","1005988","0.0-6.0-4.43","2506775","co38437","norming","","","","","","",""
"null","../img/tt/140tt.jpg","null","mooney2","image-keyboard-response","312","1007991","0.0-6.0-5.43","2506775","co38437","norming","","","","","","",""
"5121.274999999907","","","post_reveal_questions","survey-likert","313","1013115","0.0-6.0-6.43","2506775","co38437","norming","","","{""aha"":0}","[0]","../img/tt/140tt.jpg","",""
"null","<div style=""font-size:60px;""> </div>","null","fixation","html-keyboard-response","314","1013318","0.0-6.0-0.44","2506775","co38437","norming","","","","","","",""
"null","../img/tt/270tt.jpg","null","mooney1","image-keyboard-response","315","1016321","0.0-6.0-1.44","2506775","co38437","norming","","","","","","",""
"3311.2099999998463","","","post_mooney1_questions","survey-likert","316","1019635","0.0-6.0-2.44","2506775","co38437","norming","","","{""curiosity"":5,""confidence"":1}","[0,1]","../img/tt/270tt.jpg","",""
"4030.134999999893","","","recognition","survey-text","317","1023667","0.0-6.0-3.44","2506775","co38437","norming","","","{""guess"":""prikkeldraad""}","","../img/tt/270tt.jpg","",""
"null","../img/gs/270gs.jpg","null","reveal","image-keyboard-response","318","1025678","0.0-6.0-4.44","2506775","co38437","norming","","","","","","",""
"null","../img/tt/270tt.jpg","null","mooney2","image-keyboard-response","319","1027681","0.0-6.0-5.44","2506775","co38437","norming","","","","","","",""
"1671.5500000000466","","","post_reveal_questions","survey-likert","320","1029355","0.0-6.0-6.44","2506775","co38437","norming","","","{""aha"":5}","[0]","../img/tt/270tt.jpg","",""
"null","<div style=""font-size:60px;""> </div>","null","fixation","html-keyboard-response","321","1029555","0.0-6.0-0.45","2506775","co38437","norming","","","","","","",""
"null","../img/tt/1063tt.jpg","null","mooney1","image-keyboard-response","322","1032558","0.0-6.0-1.45","2506775","co38437","norming","","","","","","",""
"4209.859999999986","","","post_mooney1_questions","survey-likert","323","1036771","0.0-6.0-2.45","2506775","co38437","norming","","","{""curiosity"":5,""confidence"":1}","[0,1]","../img/tt/1063tt.jpg","",""
"1646.0050000000047","","","recognition","survey-text","324","1038419","0.0-6.0-3.45","2506775","co38437","norming","","","{""guess"":""paarden""}","","../img/tt/1063tt.jpg","",""
"null","../img/gs/1063gs.jpg","null","reveal","image-keyboard-response","325","1040424","0.0-6.0-4.45","2506775","co38437","norming","","","","","","",""
"null","../img/tt/1063tt.jpg","null","mooney2","image-keyboard-response","326","1042427","0.0-6.0-5.45","2506775","co38437","norming","","","","","","",""
"1493.8699999999953","","","post_reveal_questions","survey-likert","327","1043923","0.0-6.0-6.45","2506775","co38437","norming","","","{""aha"":2}","[0]","../img/tt/1063tt.jpg","",""
"null","<div style=""font-size:60px;""> </div>","null","fixation","html-keyboard-response","328","1044130","0.0-6.0-0.46","2506775","co38437","norming","","","","","","",""
"null","../img/tt/1033tt.jpg","null","mooney1","image-keyboard-response","329","1047136","0.0-6.0-1.46","2506775","co38437","norming","","","","","","",""
"3151.590000000084","","","post_mooney1_questions","survey-likert","330","1050291","0.0-6.0-2.46","2506775","co38437","norming","","","{""curiosity"":5,""confidence"":1}","[0,1]","../img/tt/1033tt.jpg","",""
"2158.0250000001397","","","recognition","survey-text","331","1052451","0.0-6.0-3.46","2506775","co38437","norming","","","{""guess"":""boogschieten""}","","../img/tt/1033tt.jpg","",""
"null","../img/gs/1033gs.jpg","null","reveal","image-keyboard-response","332","1054454","0.0-6.0-4.46","2506775","co38437","norming","","","","","","",""
"null","../img/tt/1033tt.jpg","null","mooney2","image-keyboard-response","333","1056456","0.0-6.0-5.46","2506775","co38437","norming","","","","","","",""
"3248.6450000002515","","","post_reveal_questions","survey-likert","334","1059707","0.0-6.0-6.46","2506775","co38437","norming","","","{""aha"":4}","[0]","../img/tt/1033tt.jpg","",""
"null","<div style=""font-size:60px;""> </div>","null","fixation","html-keyboard-response","335","1059912","0.0-6.0-0.47","2506775","co38437","norming","","","","","","",""
"null","../img/tt/552tt.jpg","null","mooney1","image-keyboard-response","336","1062919","0.0-6.0-1.47","2506775","co38437","norming","","","","","","",""
"3385.185000000056","","","post_mooney1_questions","survey-likert","337","1066307","0.0-6.0-2.47","2506775","co38437","norming","","","{""curiosity"":6,""confidence"":0}","[0,1]","../img/tt/552tt.jpg","",""
"557.7599999997765","","","recognition","survey-text","338","1066867","0.0-6.0-3.47","2506775","co38437","norming","","","{""guess"":""""}","","../img/tt/552tt.jpg","",""
"null","../img/gs/552gs.jpg","null","reveal","image-keyboard-response","339","1068878","0.0-6.0-4.47","2506775","co38437","norming","","","","","","",""
"null","../img/tt/552tt.jpg","null","mooney2","image-keyboard-response","340","1070881","0.0-6.0-5.47","2506775","co38437","norming","","","","","","",""
"3823.975000000326","","","post_reveal_questions","survey-likert","341","1074707","0.0-6.0-6.47","2506775","co38437","norming","","","{""aha"":4}","[0]","../img/tt/552tt.jpg","",""
"null","<div style=""font-size:60px;""> </div>","null","fixation","html-keyboard-response","342","1074910","0.0-6.0-0.48","2506775","co38437","norming","","","","","","",""
"null","../img/tt/1255tt.jpg","null","mooney1","image-keyboard-response","343","1077912","0.0-6.0-1.48","2506775","co38437","norming","","","","","","",""
"2935.6649999998044","","","post_mooney1_questions","survey-likert","344","1080851","0.0-6.0-2.48","2506775","co38437","norming","","","{""curiosity"":5,""confidence"":2}","[0,1]","../img/tt/1255tt.jpg","",""
"1566.0250000001397","","","recognition","survey-text","345","1082419","0.0-6.0-3.48","2506775","co38437","norming","","","{""guess"":""konijn""}","","../img/tt/1255tt.jpg","",""
"null","../img/gs/1255gs.jpg","null","reveal","image-keyboard-response","346","1084427","0.0-6.0-4.48","2506775","co38437","norming","","","","","","",""
"null","../img/tt/1255tt.jpg","null","mooney2","image-keyboard-response","347","1086428","0.0-6.0-5.48","2506775","co38437","norming","","","","","","",""
"1668.1650000000373","","","post_reveal_questions","survey-likert","348","1088099","0.0-6.0-6.48","2506775","co38437","norming","","","{""aha"":3}","[0]","../img/tt/1255tt.jpg","",""
"null","<div style=""font-size:60px;""> </div>","null","fixation","html-keyboard-response","349","1088306","0.0-6.0-0.49","2506775","co38437","norming","","","","","","",""
"null","../img/tt/1232tt.jpg","null","mooney1","image-keyboard-response","350","1091310","0.0-6.0-1.49","2506775","co38437","norming","","","","","","",""
"3449.5850000001956","","","post_mooney1_questions","survey-likert","351","1094763","0.0-6.0-2.49","2506775","co38437","norming","","","{""curiosity"":5,""confidence"":1}","[0,1]","../img/tt/1232tt.jpg","",""
"1862.2400000002235","","","recognition","survey-text","352","1096627","0.0-6.0-3.49","2506775","co38437","norming","","","{""guess"":""bootje""}","","../img/tt/1232tt.jpg","",""
"null","../img/gs/1232gs.jpg","null","reveal","image-keyboard-response","353","1098634","0.0-6.0-4.49","2506775","co38437","norming","","","","","","",""
"null","../img/tt/1232tt.jpg","null","mooney2","image-keyboard-response","354","1100635","0.0-6.0-5.49","2506775","co38437","norming","","","","","","",""
"2629.3449999997392","","","post_reveal_questions","survey-likert","355","1103258","0.0-6.0-6.49","2506775","co38437","norming","","","{""aha"":5}","[0]","../img/tt/1232tt.jpg","",""
"null","<div style=""font-size:60px;""> </div>","null","fixation","html-keyboard-response","356","1103463","0.0-6.0-0.50","2506775","co38437","norming","","","","","","",""
"null","../img/tt/135tt.jpg","null","mooney1","image-keyboard-response","357","1106466","0.0-6.0-1.50","2506775","co38437","norming","","","","","","",""
"3061.160000000149","","","post_mooney1_questions","survey-likert","358","1109530","0.0-6.0-2.50","2506775","co38437","norming","","","{""curiosity"":1,""confidence"":6}","[0,1]","../img/tt/135tt.jpg","",""
"3278.225000000093","","","recognition","survey-text","359","1112810","0.0-6.0-3.50","2506775","co38437","norming","","","{""guess"":""wc bril""}","","../img/tt/135tt.jpg","",""
"null","../img/gs/135gs.jpg","null","reveal","image-keyboard-response","360","1114812","0.0-6.0-4.50","2506775","co38437","norming","","","","","","",""
"null","../img/tt/135tt.jpg","null","mooney2","image-keyboard-response","361","1116822","0.0-6.0-5.50","2506775","co38437","norming","","","","","","",""
"3281.195000000065","","","post_reveal_questions","survey-likert","362","1120106","0.0-6.0-6.50","2506775","co38437","norming","","","{""aha"":0}","[0]","../img/tt/135tt.jpg","",""
"null","<div style=""font-size:60px;""> </div>","null","fixation","html-keyboard-response","363","1120307","0.0-6.0-0.51","2506775","co38437","norming","","","","","","",""
"null","../img/tt/1122tt.jpg","null","mooney1","image-keyboard-response","364","1123319","0.0-6.0-1.51","2506775","co38437","norming","","","","","","",""
"4111.745000000112","","","post_mooney1_questions","survey-likert","365","1127434","0.0-6.0-2.51","2506775","co38437","norming","","","{""curiosity"":5,""confidence"":2}","[0,1]","../img/tt/1122tt.jpg","",""
"2062.1500000001397","","","recognition","survey-text","366","1129498","0.0-6.0-3.51","2506775","co38437","norming","","","{""guess"":""haven""}","","../img/tt/1122tt.jpg","",""
"null","../img/gs/1122gs.jpg","null","reveal","image-keyboard-response","367","1131505","0.0-6.0-4.51","2506775","co38437","norming","","","","","","",""
"null","../img/tt/1122tt.jpg","null","mooney2","image-keyboard-response","368","1133507","0.0-6.0-5.51","2506775","co38437","norming","","","","","","",""
"3636.855000000214","","","post_reveal_questions","survey-likert","369","1137146","0.0-6.0-6.51","2506775","co38437","norming","","","{""aha"":2}","[0]","../img/tt/1122tt.jpg","",""
"null","<div style=""font-size:60px;""> </div>","null","fixation","html-keyboard-response","370","1137356","0.0-6.0-0.52","2506775","co38437","norming","","","","","","",""
"null","../img/tt/1362tt.jpg","null","mooney1","image-keyboard-response","371","1140365","0.0-6.0-1.52","2506775","co38437","norming","","","","","","",""
"3706.1450000000186","","","post_mooney1_questions","survey-likert","372","1144074","0.0-6.0-2.52","2506775","co38437","norming","","","{""curiosity"":3,""confidence"":2}","[0,1]","../img/tt/1362tt.jpg","",""
"1438.1699999999255","","","recognition","survey-text","373","1145514","0.0-6.0-3.52","2506775","co38437","norming","","","{""guess"":""keuken""}","","../img/tt/1362tt.jpg","",""
"null","../img/gs/1362gs.jpg","null","reveal","image-keyboard-response","374","1147523","0.0-6.0-4.52","2506775","co38437","norming","","","","","","",""
"null","../img/tt/1362tt.jpg","null","mooney2","image-keyboard-response","375","1149526","0.0-6.0-5.52","2506775","co38437","norming","","","","","","",""
"2865.7400000002235","","","post_reveal_questions","survey-likert","376","1152394","0.0-6.0-6.52","2506775","co38437","norming","","","{""aha"":2}","[0]","../img/tt/1362tt.jpg","",""
"null","<div style=""font-size:60px;""> </div>","null","fixation","html-keyboard-response","377","1152598","0.0-6.0-0.53","2506775","co38437","norming","","","","","","",""
"null","../img/tt/189tt.jpg","null","mooney1","image-keyboard-response","378","1155601","0.0-6.0-1.53","2506775","co38437","norming","","","","","","",""
"5126.385000000009","","","post_mooney1_questions","survey-likert","379","1160730","0.0-6.0-2.53","2506775","co38437","norming","","","{""curiosity"":4,""confidence"":2}","[0,1]","../img/tt/189tt.jpg","",""
"2637.6200000001118","","","recognition","survey-text","380","1163376","0.0-6.0-3.53","2506775","co38437","norming","","","{""guess"":""garage""}","","../img/tt/189tt.jpg","",""
"null","../img/gs/189gs.jpg","null","reveal","image-keyboard-response","381","1165381","0.0-6.0-4.53","2506775","co38437","norming","","","","","","",""
"null","../img/tt/189tt.jpg","null","mooney2","image-keyboard-response","382","1167382","0.0-6.0-5.53","2506775","co38437","norming","","","","","","",""
"1681.2749999999069","","","post_reveal_questions","survey-likert","383","1169064","0.0-6.0-6.53","2506775","co38437","norming","","","{""aha"":6}","[0]","../img/tt/189tt.jpg","",""
"null","<div style=""font-size:60px;""> </div>","null","fixation","html-keyboard-response","384","1169268","0.0-6.0-0.54","2506775","co38437","norming","","","","","","",""
"null","../img/tt/1290tt.jpg","null","mooney1","image-keyboard-response","385","1172273","0.0-6.0-1.54","2506775","co38437","norming","","","","","","",""
"3100.440000000177","","","post_mooney1_questions","survey-likert","386","1175376","0.0-6.0-2.54","2506775","co38437","norming","","","{""curiosity"":5,""confidence"":5}","[0,1]","../img/tt/1290tt.jpg","",""
"2414.064999999944","","","recognition","survey-text","387","1177792","0.0-6.0-3.54","2506775","co38437","norming","","","{""guess"":""skilift""}","","../img/tt/1290tt.jpg","",""
"null","../img/gs/1290gs.jpg","null","reveal","image-keyboard-response","388","1179802","0.0-6.0-4.54","2506775","co38437","norming","","","","","","",""
"null","../img/tt/1290tt.jpg","null","mooney2","image-keyboard-response","389","1181803","0.0-6.0-5.54","2506775","co38437","norming","","","","","","",""
"2594.4250000002794","","","post_reveal_questions","survey-likert","390","1184400","0.0-6.0-6.54","2506775","co38437","norming","","","{""aha"":5}","[0]","../img/tt/1290tt.jpg","",""
"null","<div style=""font-size:60px;""> </div>","null","fixation","html-keyboard-response","391","1184604","0.0-6.0-0.55","2506775","co38437","norming","","","","","","",""
"null","../img/tt/296tt.jpg","null","mooney1","image-keyboard-response","392","1187616","0.0-6.0-1.55","2506775","co38437","norming","","","","","","",""
"4845.694999999832","","","post_mooney1_questions","survey-likert","393","1192465","0.0-6.0-2.55","2506775","co38437","norming","","","{""curiosity"":1,""confidence"":4}","[0,1]","../img/tt/296tt.jpg","",""
"2045.8100000000559","","","recognition","survey-text","394","1194512","0.0-6.0-3.55","2506775","co38437","norming","","","{""guess"":""zetel""}","","../img/tt/296tt.jpg","",""
"null","../img/gs/296gs.jpg","null","reveal","image-keyboard-response","395","1196519","0.0-6.0-4.55","2506775","co38437","norming","","","","","","",""
"null","../img/tt/296tt.jpg","null","mooney2","image-keyboard-response","396","1198530","0.0-6.0-5.55","2506775","co38437","norming","","","","","","",""
"2355.5799999998417","","","post_reveal_questions","survey-likert","397","1200888","0.0-6.0-6.55","2506775","co38437","norming","","","{""aha"":4}","[0]","../img/tt/296tt.jpg","",""
"null","<div style=""font-size:60px;""> </div>","null","fixation","html-keyboard-response","398","1201090","0.0-6.0-0.56","2506775","co38437","norming","","","","","","",""
"null","../img/tt/053tt.jpg","null","mooney1","image-keyboard-response","399","1204102","0.0-6.0-1.56","2506775","co38437","norming","","","","","","",""
"4023.619999999879","","","post_mooney1_questions","survey-likert","400","1208128","0.0-6.0-2.56","2506775","co38437","norming","","","{""curiosity"":5,""confidence"":6}","[0,1]","../img/tt/053tt.jpg","",""
"3006.1749999998137","","","recognition","survey-text","401","1211136","0.0-6.0-3.56","2506775","co38437","norming","","","{""guess"":""kano kayak""}","","../img/tt/053tt.jpg","",""
"null","../img/gs/053gs.jpg","null","reveal","image-keyboard-response","402","1213145","0.0-6.0-4.56","2506775","co38437","norming","","","","","","",""
"null","../img/tt/053tt.jpg","null","mooney2","image-keyboard-response","403","1215152","0.0-6.0-5.56","2506775","co38437","norming","","","","","","",""
"1773.2349999996368","","","post_reveal_questions","survey-likert","404","1216928","0.0-6.0-6.56","2506775","co38437","norming","","","{""aha"":0}","[0]","../img/tt/053tt.jpg","",""
"null","<div style=""font-size:60px;""> </div>","null","fixation","html-keyboard-response","405","1217132","0.0-6.0-0.57","2506775","co38437","norming","","","","","","",""
"null","../img/tt/076tt.jpg","null","mooney1","image-keyboard-response","406","1220142","0.0-6.0-1.57","2506775","co38437","norming","","","","","","",""
"4167.415000000037","","","post_mooney1_questions","survey-likert","407","1224310","0.0-6.0-2.57","2506775","co38437","norming","","","{""curiosity"":4,""confidence"":5}","[0,1]","../img/tt/076tt.jpg","",""
"3334.0600000002887","","","recognition","survey-text","408","1227646","0.0-6.0-3.57","2506775","co38437","norming","","","{""guess"":""rolschaatsen""}","","../img/tt/076tt.jpg","",""
"null","../img/gs/076gs.jpg","null","reveal","image-keyboard-response","409","1229651","0.0-6.0-4.57","2506775","co38437","norming","","","","","","",""
"null","../img/tt/076tt.jpg","null","mooney2","image-keyboard-response","410","1231658","0.0-6.0-5.57","2506775","co38437","norming","","","","","","",""
"2609.5999999998603","","","post_reveal_questions","survey-likert","411","1234270","0.0-6.0-6.57","2506775","co38437","norming","","","{""aha"":4}","[0]","../img/tt/076tt.jpg","",""
"null","<div style=""font-size:60px;""> </div>","null","fixation","html-keyboard-response","412","1234471","0.0-6.0-0.58","2506775","co38437","norming","","","","","","",""
"null","../img/tt/603tt.jpg","null","mooney1","image-keyboard-response","413","1237476","0.0-6.0-1.58","2506775","co38437","norming","","","","","","",""
"3015.9950000003446","","","post_mooney1_questions","survey-likert","414","1240494","0.0-6.0-2.58","2506775","co38437","norming","","","{""curiosity"":5,""confidence"":2}","[0,1]","../img/tt/603tt.jpg","",""
"5022.285000000149","","","recognition","survey-text","415","1245518","0.0-6.0-3.58","2506775","co38437","norming","","","{""guess"":""halloweengezicht""}","","../img/tt/603tt.jpg","",""
"null","../img/gs/603gs.jpg","null","reveal","image-keyboard-response","416","1247525","0.0-6.0-4.58","2506775","co38437","norming","","","","","","",""
"null","../img/tt/603tt.jpg","null","mooney2","image-keyboard-response","417","1249536","0.0-6.0-5.58","2506775","co38437","norming","","","","","","",""
"4491.895000000019","","","post_reveal_questions","survey-likert","418","1254030","0.0-6.0-6.58","2506775","co38437","norming","","","{""aha"":5}","[0]","../img/tt/603tt.jpg","",""
"null","<div style=""font-size:60px;""> </div>","null","fixation","html-keyboard-response","419","1254233","0.0-6.0-0.59","2506775","co38437","norming","","","","","","",""
"null","../img/tt/1190tt.jpg","null","mooney1","image-keyboard-response","420","1257245","0.0-6.0-1.59","2506775","co38437","norming","","","","","","",""
"4125.700000000186","","","post_mooney1_questions","survey-likert","421","1261374","0.0-6.0-2.59","2506775","co38437","norming","","","{""curiosity"":5,""confidence"":2}","[0,1]","../img/tt/1190tt.jpg","",""
"1406.2049999998417","","","recognition","survey-text","422","1262782","0.0-6.0-3.59","2506775","co38437","norming","","","{""guess"":""soldaat""}","","../img/tt/1190tt.jpg","",""
"null","../img/gs/1190gs.jpg","null","reveal","image-keyboard-response","423","1264785","0.0-6.0-4.59","2506775","co38437","norming","","","","","","",""
"null","../img/tt/1190tt.jpg","null","mooney2","image-keyboard-response","424","1266794","0.0-6.0-5.59","2506775","co38437","norming","","","","","","",""
"2095.945000000065","","","post_reveal_questions","survey-likert","425","1268894","0.0-6.0-6.59","2506775","co38437","norming","","","{""aha"":5}","[0]","../img/tt/1190tt.jpg","",""
"null","<div style=""font-size:60px;""> </div>","null","fixation","html-keyboard-response","426","1269098","0.0-6.0-0.60","2506775","co38437","norming","","","","","","",""
"null","../img/tt/468tt.jpg","null","mooney1","image-keyboard-response","427","1272109","0.0-6.0-1.60","2506775","co38437","norming","","","","","","",""
"2862.1399999996647","","","post_mooney1_questions","survey-likert","428","1274974","0.0-6.0-2.60","2506775","co38437","norming","","","{""curiosity"":6,""confidence"":0}","[0,1]","../img/tt/468tt.jpg","",""
"622.0200000002515","","","recognition","survey-text","429","1275598","0.0-6.0-3.60","2506775","co38437","norming","","","{""guess"":""""}","","../img/tt/468tt.jpg","",""
"null","../img/gs/468gs.jpg","null","reveal","image-keyboard-response","430","1277600","0.0-6.0-4.60","2506775","co38437","norming","","","","","","",""
"null","../img/tt/468tt.jpg","null","mooney2","image-keyboard-response","431","1279610","0.0-6.0-5.60","2506775","co38437","norming","","","","","","",""
"2769.239999999525","","","post_reveal_questions","survey-likert","432","1282382","0.0-6.0-6.60","2506775","co38437","norming","","","{""aha"":6}","[0]","../img/tt/468tt.jpg","",""
"null","<div style=""font-size:60px;""> </div>","null","fixation","html-keyboard-response","433","1282588","0.0-6.0-0.61","2506775","co38437","norming","","","","","","",""
"null","../img/tt/078tt.jpg","null","mooney1","image-keyboard-response","434","1285602","0.0-6.0-1.61","2506775","co38437","norming","","","","","","",""
"2787.3400000003166","","","post_mooney1_questions","survey-likert","435","1288392","0.0-6.0-2.61","2506775","co38437","norming","","","{""curiosity"":3,""confidence"":5}","[0,1]","../img/tt/078tt.jpg","",""
"1374.0200000000186","","","recognition","survey-text","436","1289768","0.0-6.0-3.61","2506775","co38437","norming","","","{""guess"":""druif""}","","../img/tt/078tt.jpg","",""
"null","../img/gs/078gs.jpg","null","reveal","image-keyboard-response","437","1291776","0.0-6.0-4.61","2506775","co38437","norming","","","","","","",""
"null","../img/tt/078tt.jpg","null","mooney2","image-keyboard-response","438","1293786","0.0-6.0-5.61","2506775","co38437","norming","","","","","","",""
"2955.635000000475","","","post_reveal_questions","survey-likert","439","1296744","0.0-6.0-6.61","2506775","co38437","norming","","","{""aha"":1}","[0]","../img/tt/078tt.jpg","",""
"null","<div style=""font-size:60px;""> </div>","null","fixation","html-keyboard-response","440","1296947","0.0-6.0-0.62","2506775","co38437","norming","","","","","","",""
"null","../img/tt/1309tt.jpg","null","mooney1","image-keyboard-response","441","1299952","0.0-6.0-1.62","2506775","co38437","norming","","","","","","",""
"3044.7700000000186","","","post_mooney1_questions","survey-likert","442","1303000","0.0-6.0-2.62","2506775","co38437","norming","","","{""curiosity"":5,""confidence"":4}","[0,1]","../img/tt/1309tt.jpg","",""
"1726.1750000002794","","","recognition","survey-text","443","1304728","0.0-6.0-3.62","2506775","co38437","norming","","","{""guess"":""bos""}","","../img/tt/1309tt.jpg","",""
"null","../img/gs/1309gs.jpg","null","reveal","image-keyboard-response","444","1306736","0.0-6.0-4.62","2506775","co38437","norming","","","","","","",""
"null","../img/tt/1309tt.jpg","null","mooney2","image-keyboard-response","445","1308738","0.0-6.0-5.62","2506775","co38437","norming","","","","","","",""
"1715.5250000001397","","","post_reveal_questions","survey-likert","446","1310456","0.0-6.0-6.62","2506775","co38437","norming","","","{""aha"":1}","[0]","../img/tt/1309tt.jpg","",""
"null","<div style=""font-size:60px;""> </div>","null","fixation","html-keyboard-response","447","1310657","0.0-6.0-0.63","2506775","co38437","norming","","","","","","",""
"null","../img/tt/013tt.jpg","null","mooney1","image-keyboard-response","448","1313669","0.0-6.0-1.63","2506775","co38437","norming","","","","","","",""
"4175.534999999916","","","post_mooney1_questions","survey-likert","449","1317848","0.0-6.0-2.63","2506775","co38437","norming","","","{""curiosity"":6,""confidence"":0}","[0,1]","../img/tt/013tt.jpg","",""
"686.1850000000559","","","recognition","survey-text","450","1318536","0.0-6.0-3.63","2506775","co38437","norming","","","{""guess"":""""}","","../img/tt/013tt.jpg","",""
"null","../img/gs/013gs.jpg","null","reveal","image-keyboard-response","451","1320545","0.0-6.0-4.63","2506775","co38437","norming","","","","","","",""
"null","../img/tt/013tt.jpg","null","mooney2","image-keyboard-response","452","1322555","0.0-6.0-5.63","2506775","co38437","norming","","","","","","",""
"4586.604999999981","","","post_reveal_questions","survey-likert","453","1327144","0.0-6.0-6.63","2506775","co38437","norming","","","{""aha"":6}","[0]","../img/tt/013tt.jpg","",""
"null","<div style=""font-size:60px;""> </div>","null","fixation","html-keyboard-response","454","1327350","0.0-6.0-0.64","2506775","co38437","norming","","","","","","",""
"null","../img/tt/599tt.jpg","null","mooney1","image-keyboard-response","455","1330353","0.0-6.0-1.64","2506775","co38437","norming","","","","","","",""
"3620.554999999935","","","post_mooney1_questions","survey-likert","456","1333977","0.0-6.0-2.64","2506775","co38437","norming","","","{""curiosity"":5,""confidence"":0}","[0,1]","../img/tt/599tt.jpg","",""
"301.4450000000652","","","recognition","survey-text","457","1334280","0.0-6.0-3.64","2506775","co38437","norming","","","{""guess"":""""}","","../img/tt/599tt.jpg","",""
"null","../img/gs/599gs.jpg","null","reveal","image-keyboard-response","458","1336284","0.0-6.0-4.64","2506775","co38437","norming","","","","","","",""
"null","../img/tt/599tt.jpg","null","mooney2","image-keyboard-response","459","1338286","0.0-6.0-5.64","2506775","co38437","norming","","","","","","",""
"1863.9899999997579","","","post_reveal_questions","survey-likert","460","1340152","0.0-6.0-6.64","2506775","co38437","norming","","","{""aha"":5}","[0]","../img/tt/599tt.jpg","",""
"null","<div style=""font-size:60px;""> </div>","null","fixation","html-keyboard-response","461","1340356","0.0-6.0-0.65","2506775","co38437","norming","","","","","","",""
"null","../img/tt/353tt.jpg","null","mooney1","image-keyboard-response","462","1343360","0.0-6.0-1.65","2506775","co38437","norming","","","","","","",""
"2501.7400000002235","","","post_mooney1_questions","survey-likert","463","1345857","0.0-6.0-2.65","2506775","co38437","norming","","","{""curiosity"":3,""confidence"":5}","[0,1]","../img/tt/353tt.jpg","",""
"1902.0450000001583","","","recognition","survey-text","464","1347761","0.0-6.0-3.65","2506775","co38437","norming","","","{""guess"":""pinguin""}","","../img/tt/353tt.jpg","",""
"null","../img/gs/353gs.jpg","null","reveal","image-keyboard-response","465","1349763","0.0-6.0-4.65","2506775","co38437","norming","","","","","","",""
"null","../img/tt/353tt.jpg","null","mooney2","image-keyboard-response","466","1351765","0.0-6.0-5.65","2506775","co38437","norming","","","","","","",""
"5112.925000000279","","","post_reveal_questions","survey-likert","467","1356881","0.0-6.0-6.65","2506775","co38437","norming","","","{""aha"":2}","[0]","../img/tt/353tt.jpg","",""
"null","<div style=""font-size:60px;""> </div>","null","fixation","html-keyboard-response","468","1357090","0.0-6.0-0.66","2506775","co38437","norming","","","","","","",""
"null","../img/tt/1262tt.jpg","null","mooney1","image-keyboard-response","469","1360099","0.0-6.0-1.66","2506775","co38437","norming","","","","","","",""
"4299.405000000261","","","post_mooney1_questions","survey-likert","470","1364401","0.0-6.0-2.66","2506775","co38437","norming","","","{""curiosity"":5,""confidence"":5}","[0,1]","../img/tt/1262tt.jpg","",""
"1229.7600000000093","","","recognition","survey-text","471","1365633","0.0-6.0-3.66","2506775","co38437","norming","","","{""guess"":""muis""}","","../img/tt/1262tt.jpg","",""
"null","../img/gs/1262gs.jpg","null","reveal","image-keyboard-response","472","1367642","0.0-6.0-4.66","2506775","co38437","norming","","","","","","",""
"null","../img/tt/1262tt.jpg","null","mooney2","image-keyboard-response","473","1369652","0.0-6.0-5.66","2506775","co38437","norming","","","","","","",""
"5834.815000000177","","","post_reveal_questions","survey-likert","474","1375489","0.0-6.0-6.66","2506775","co38437","norming","","","{""aha"":0}","[0]","../img/tt/1262tt.jpg","",""
"null","<div style=""font-size:60px;""> </div>","null","fixation","html-keyboard-response","475","1375694","0.0-6.0-0.67","2506775","co38437","norming","","","","","","",""
"null","../img/tt/222tt.jpg","null","mooney1","image-keyboard-response","476","1378697","0.0-6.0-1.67","2506775","co38437","norming","","","","","","",""
"2565.5499999998137","","","post_mooney1_questions","survey-likert","477","1381265","0.0-6.0-2.67","2506775","co38437","norming","","","{""curiosity"":4,""confidence"":1}","[0,1]","../img/tt/222tt.jpg","",""
"2446.0849999999627","","","recognition","survey-text","478","1383713","0.0-6.0-3.67","2506775","co38437","norming","","","{""guess"":""tafel""}","","../img/tt/222tt.jpg","",""
"null","../img/gs/222gs.jpg","null","reveal","image-keyboard-response","479","1385716","0.0-6.0-4.67","2506775","co38437","norming","","","","","","",""
"null","../img/tt/222tt.jpg","null","mooney2","image-keyboard-response","480","1387720","0.0-6.0-5.67","2506775","co38437","norming","","","","","","",""
"2342.2350000001024","","","post_reveal_questions","survey-likert","481","1390065","0.0-6.0-6.67","2506775","co38437","norming","","","{""aha"":6}","[0]","../img/tt/222tt.jpg","",""
"null","<div style=""font-size:60px;""> </div>","null","fixation","html-keyboard-response","482","1390276","0.0-6.0-0.68","2506775","co38437","norming","","","","","","",""
"null","../img/tt/378tt.jpg","null","mooney1","image-keyboard-response","483","1393281","0.0-6.0-1.68","2506775","co38437","norming","","","","","","",""
"3644.679999999935","","","post_mooney1_questions","survey-likert","484","1396929","0.0-6.0-2.68","2506775","co38437","norming","","","{""curiosity"":6,""confidence"":0}","[0,1]","../img/tt/378tt.jpg","",""
"301.9199999999255","","","recognition","survey-text","485","1397233","0.0-6.0-3.68","2506775","co38437","norming","","","{""guess"":""""}","","../img/tt/378tt.jpg","",""
"null","../img/gs/378gs.jpg","null","reveal","image-keyboard-response","486","1399234","0.0-6.0-4.68","2506775","co38437","norming","","","","","","",""
"null","../img/tt/378tt.jpg","null","mooney2","image-keyboard-response","487","1401237","0.0-6.0-5.68","2506775","co38437","norming","","","","","","",""
"3089.5600000005215","","","post_reveal_questions","survey-likert","488","1404329","0.0-6.0-6.68","2506775","co38437","norming","","","{""aha"":4}","[0]","../img/tt/378tt.jpg","",""
"null","<div style=""font-size:60px;""> </div>","null","fixation","html-keyboard-response","489","1404530","0.0-6.0-0.69","2506775","co38437","norming","","","","","","",""
"null","../img/tt/1087tt.jpg","null","mooney1","image-keyboard-response","490","1407544","0.0-6.0-1.69","2506775","co38437","norming","","","","","","",""
"3888.0849999999627","","","post_mooney1_questions","survey-likert","491","1411436","0.0-6.0-2.69","2506775","co38437","norming","","","{""curiosity"":5,""confidence"":4}","[0,1]","../img/tt/1087tt.jpg","",""
"1598.1149999997579","","","recognition","survey-text","492","1413036","0.0-6.0-3.69","2506775","co38437","norming","","","{""guess"":""varken""}","","../img/tt/1087tt.jpg","",""
"null","../img/gs/1087gs.jpg","null","reveal","image-keyboard-response","493","1415039","0.0-6.0-4.69","2506775","co38437","norming","","","","","","",""
"null","../img/tt/1087tt.jpg","null","mooney2","image-keyboard-response","494","1417050","0.0-6.0-5.69","2506775","co38437","norming","","","","","","",""
"3759.1649999998044","","","post_reveal_questions","survey-likert","495","1420812","0.0-6.0-6.69","2506775","co38437","norming","","","{""aha"":5}","[0]","../img/tt/1087tt.jpg","",""
"null","<div style=""font-size:60px;""> </div>","null","fixation","html-keyboard-response","496","1421014","0.0-6.0-0.70","2506775","co38437","norming","","","","","","",""
"null","../img/tt/1069tt.jpg","null","mooney1","image-keyboard-response","497","1424023","0.0-6.0-1.70","2506775","co38437","norming","","","","","","",""
"4321.679999999935","","","post_mooney1_questions","survey-likert","498","1428348","0.0-6.0-2.70","2506775","co38437","norming","","","{""curiosity"":4,""confidence"":6}","[0,1]","../img/tt/1069tt.jpg","",""
"1677.8749999997672","","","recognition","survey-text","499","1430028","0.0-6.0-3.70","2506775","co38437","norming","","","{""guess"":""schaap""}","","../img/tt/1069tt.jpg","",""
"null","../img/gs/1069gs.jpg","null","reveal","image-keyboard-response","500","1432031","0.0-6.0-4.70","2506775","co38437","norming","","","","","","",""
"null","../img/tt/1069tt.jpg","null","mooney2","image-keyboard-response","501","1434036","0.0-6.0-5.70","2506775","co38437","norming","","","","","","",""
"4757.485000000102","","","post_reveal_questions","survey-likert","502","1438796","0.0-6.0-6.70","2506775","co38437","norming","","","{""aha"":0}","[0]","../img/tt/1069tt.jpg","",""
"null","<div style=""font-size:60px;""> </div>","null","fixation","html-keyboard-response","503","1438999","0.0-6.0-0.71","2506775","co38437","norming","","","","","","",""
"null","../img/tt/1171tt.jpg","null","mooney1","image-keyboard-response","504","1442006","0.0-6.0-1.71","2506775","co38437","norming","","","","","","",""
"4611.450000000419","","","post_mooney1_questions","survey-likert","505","1446620","0.0-6.0-2.71","2506775","co38437","norming","","","{""curiosity"":5,""confidence"":1}","[0,1]","../img/tt/1171tt.jpg","",""
"2781.035000000149","","","recognition","survey-text","506","1449403","0.0-6.0-3.71","2506775","co38437","norming","","","{""guess"":""vrouw""}","","../img/tt/1171tt.jpg","",""
"null","../img/gs/1171gs.jpg","null","reveal","image-keyboard-response","507","1451410","0.0-6.0-4.71","2506775","co38437","norming","","","","","","",""
"null","../img/tt/1171tt.jpg","null","mooney2","image-keyboard-response","508","1453420","0.0-6.0-5.71","2506775","co38437","norming","","","","","","",""
"3854.8000000000466","","","post_reveal_questions","survey-likert","509","1457276","0.0-6.0-6.71","2506775","co38437","norming","","","{""aha"":4}","[0]","../img/tt/1171tt.jpg","",""
"null","<div style=""font-size:60px;""> </div>","null","fixation","html-keyboard-response","510","1457476","0.0-6.0-0.72","2506775","co38437","norming","","","","","","",""
"null","../img/tt/1043tt.jpg","null","mooney1","image-keyboard-response","511","1460480","0.0-6.0-1.72","2506775","co38437","norming","","","","","","",""
"3304.7299999997485","","","post_mooney1_questions","survey-likert","512","1463788","0.0-6.0-2.72","2506775","co38437","norming","","","{""curiosity"":5,""confidence"":2}","[0,1]","../img/tt/1043tt.jpg","",""
"1438.0400000000373","","","recognition","survey-text","513","1465228","0.0-6.0-3.72","2506775","co38437","norming","","","{""guess"":""bootje""}","","../img/tt/1043tt.jpg","",""
"null","../img/gs/1043gs.jpg","null","reveal","image-keyboard-response","514","1467234","0.0-6.0-4.72","2506775","co38437","norming","","","","","","",""
"null","../img/tt/1043tt.jpg","null","mooney2","image-keyboard-response","515","1469235","0.0-6.0-5.72","2506775","co38437","norming","","","","","","",""
"2362.5500000002794","","","post_reveal_questions","survey-likert","516","1471602","0.0-6.0-6.72","2506775","co38437","norming","","","{""aha"":4}","[0]","../img/tt/1043tt.jpg","",""
"null","<div style=""font-size:60px;""> </div>","null","fixation","html-keyboard-response","517","1471812","0.0-6.0-0.73","2506775","co38437","norming","","","","","","",""
"null","../img/tt/584tt.jpg","null","mooney1","image-keyboard-response","518","1474825","0.0-6.0-1.73","2506775","co38437","norming","","","","","","",""
"4262.0200000002515","","","post_mooney1_questions","survey-likert","519","1479090","0.0-6.0-2.73","2506775","co38437","norming","","","{""curiosity"":5,""confidence"":4}","[0,1]","../img/tt/584tt.jpg","",""
"1750.244999999646","","","recognition","survey-text","520","1480842","0.0-6.0-3.73","2506775","co38437","norming","","","{""guess"":""tangen""}","","../img/tt/584tt.jpg","",""
"null","../img/gs/584gs.jpg","null","reveal","image-keyboard-response","521","1482847","0.0-6.0-4.73","2506775","co38437","norming","","","","","","",""
"null","../img/tt/584tt.jpg","null","mooney2","image-keyboard-response","522","1484856","0.0-6.0-5.73","2506775","co38437","norming","","","","","","",""
"3366.489999999758","","","post_reveal_questions","survey-likert","523","1488226","0.0-6.0-6.73","2506775","co38437","norming","","","{""aha"":5}","[0]","../img/tt/584tt.jpg","",""
"null","<div style=""font-size:60px;""> </div>","null","fixation","html-keyboard-response","524","1488428","0.0-6.0-0.74","2506775","co38437","norming","","","","","","",""
"null","../img/tt/1254tt.jpg","null","mooney1","image-keyboard-response","525","1491436","0.0-6.0-1.74","2506775","co38437","norming","","","","","","",""
"3212.279999999795","","","post_mooney1_questions","survey-likert","526","1494650","0.0-6.0-2.74","2506775","co38437","norming","","","{""curiosity"":4,""confidence"":3}","[0,1]","../img/tt/1254tt.jpg","",""
"2254.0749999997206","","","recognition","survey-text","527","1496906","0.0-6.0-3.74","2506775","co38437","norming","","","{""guess"":""konijn""}","","../img/tt/1254tt.jpg","",""
"null","../img/gs/1254gs.jpg","null","reveal","image-keyboard-response","528","1498914","0.0-6.0-4.74","2506775","co38437","norming","","","","","","",""
"null","../img/tt/1254tt.jpg","null","mooney2","image-keyboard-response","529","1500922","0.0-6.0-5.74","2506775","co38437","norming","","","","","","",""
"1533.3000000000466","","","post_reveal_questions","survey-likert","530","1502458","0.0-6.0-6.74","2506775","co38437","norming","","","{""aha"":2}","[0]","../img/tt/1254tt.jpg","",""
"null","<div style=""font-size:60px;""> </div>","null","fixation","html-keyboard-response","531","1502661","0.0-6.0-0.75","2506775","co38437","norming","","","","","","",""
"null","../img/tt/1217tt.jpg","null","mooney1","image-keyboard-response","532","1505666","0.0-6.0-1.75","2506775","co38437","norming","","","","","","",""
"5101.155000000261","","","post_mooney1_questions","survey-likert","533","1510770","0.0-6.0-2.75","2506775","co38437","norming","","","{""curiosity"":5,""confidence"":3}","[0,1]","../img/tt/1217tt.jpg","",""
"5733.939999999944","","","recognition","survey-text","534","1516506","0.0-6.0-3.75","2506775","co38437","norming","","","{""guess"":""basketbal""}","","../img/tt/1217tt.jpg","",""
"null","../img/gs/1217gs.jpg","null","reveal","image-keyboard-response","535","1518516","0.0-6.0-4.75","2506775","co38437","norming","","","","","","",""
"null","../img/tt/1217tt.jpg","null","mooney2","image-keyboard-response","536","1520521","0.0-6.0-5.75","2506775","co38437","norming","","","","","","",""
"3374.964999999851","","","post_reveal_questions","survey-likert","537","1523898","0.0-6.0-6.75","2506775","co38437","norming","","","{""aha"":6}","[0]","../img/tt/1217tt.jpg","",""
"null","<div style=""font-size:60px;""> </div>","null","fixation","html-keyboard-response","538","1524108","0.0-6.0-0.76","2506775","co38437","norming","","","","","","",""
"null","../img/tt/112tt.jpg","null","mooney1","image-keyboard-response","539","1527113","0.0-6.0-1.76","2506775","co38437","norming","","","","","","",""
"3326.1549999995623","","","post_mooney1_questions","survey-likert","540","1530441","0.0-6.0-2.76","2506775","co38437","norming","","","{""curiosity"":1,""confidence"":6}","[0,1]","../img/tt/112tt.jpg","",""
"2142.1350000000093","","","recognition","survey-text","541","1532585","0.0-6.0-3.76","2506775","co38437","norming","","","{""guess"":""fluitje""}","","../img/tt/112tt.jpg","",""
"null","../img/gs/112gs.jpg","null","reveal","image-keyboard-response","542","1534588","0.0-6.0-4.76","2506775","co38437","norming","","","","","","",""
"null","../img/tt/112tt.jpg","null","mooney2","image-keyboard-response","543","1536600","0.0-6.0-5.76","2506775","co38437","norming","","","","","","",""
"4623.569999999832","","","post_reveal_questions","survey-likert","544","1541225","0.0-6.0-6.76","2506775","co38437","norming","","","{""aha"":0}","[0]","../img/tt/112tt.jpg","",""
"null","<div style=""font-size:60px;""> </div>","null","fixation","html-keyboard-response","545","1541430","0.0-6.0-0.77","2506775","co38437","norming","","","","","","",""
"null","../img/tt/301tt.jpg","null","mooney1","image-keyboard-response","546","1544433","0.0-6.0-1.77","2506775","co38437","norming","","","","","","",""
"4437.1450000002515","","","post_mooney1_questions","survey-likert","547","1548873","0.0-6.0-2.77","2506775","co38437","norming","","","{""curiosity"":5,""confidence"":0}","[0,1]","../img/tt/301tt.jpg","",""
"893.9399999999441","","","recognition","survey-text","548","1549769","0.0-6.0-3.77","2506775","co38437","norming","","","{""guess"":""""}","","../img/tt/301tt.jpg","",""
"null","../img/gs/301gs.jpg","null","reveal","image-keyboard-response","549","1551772","0.0-6.0-4.77","2506775","co38437","norming","","","","","","",""
"null","../img/tt/301tt.jpg","null","mooney2","image-keyboard-response","550","1553774","0.0-6.0-5.77","2506775","co38437","norming","","","","","","",""
"3048.060000000056","","","post_reveal_questions","survey-likert","551","1556825","0.0-6.0-6.77","2506775","co38437","norming","","","{""aha"":5}","[0]","../img/tt/301tt.jpg","",""
