"rt","stimulus","key_press","test_part","trial_type","trial_index","time_elapsed","internal_node_id","totalTime","subject","experiment_name","button_pressed","success","responses","question_order","currentStim","old","correct"
"28375.69000000076","Welcome to the experiment. This is an online experiment so please don't close the tab/window until we say goodbye.  Press any key to begin.","32","instructions","html-keyboard-response","0","28425","0.0-0.0","3154169","co38251","norming","","","","","","",""
"27640.60499999323","<div style='word-wrap: break-word; width: 900px'><h3>Please consider this information carefully before deciding whether to participate in this research</h3><ul style='text-align: left; font-size: .8em;'><li><b>Purpose of the research</b>: To examine how people process images.</li><li><b>What you will do in this research</b>:  Stimuli (images) will be presented on the computer and you will be asked different questions about them.</li><li><b>Time required</b>: Participation will take between 45 and 60 minutes to complete.</li><li><b>Risks</b>:  There are no anticipated risks associated with participating in this study. The effects of participating should be comparable to those you would experience from viewing a computer monitor for 30 minutes and using a mouse or keyboard.</li><li><b>Benefits</b>:  This study provides no benefits to you individually except for the credit. The study provides important information about the nature of perception and learning.</li><li><b>Confidentiality</b>:  Your participation in this study will remain confidential. No personally identifiable information will be associated with your data. Your de-identified data may be shared with other researchers and used in future projects.</li><li><b>Participation and withdrawal</b>:  Your participation in this study is completely voluntary and you may refuse to participate or you may choose to withdraw at any time without penalty.</li><li><b>How to contact the researchers</b>: If you have questions or concerns about your participation or payment, or want to request a summary of research findings, please contact Sander Van de Cruys (KU Leuven), at sander.vandecruys@kuleuven.be.</li></ul><p>The nature and purpose of this research have been sufficiently explained and I agree to participate in this study.  I understand that I am free to withdraw at any time without incurring any penalty.</p><p>Please consent by clicking the button below to continue. Otherwise, please exit the study at this time.</p></div>","","instructions","html-button-response","1","56068","0.0-1.0","3154169","co38251","norming","0","","","","","",""
"","","","instructions","fullscreen","2","64699","0.0-2.0","3154169","co38251","norming","","true","","","","",""
"65790.39500000363","","","sona","survey-html-form","3","130496","0.0-3.0","3154169","co38251","norming","","","[{""name"":""sonaid"",""value"":""38251""},{""name"":""debrief"",""value"":""yes""},{""name"":""datajoin"",""value"":""yes""}]","","","",""
"115188.00499998906","<div style='word-wrap: break-word; width: 900px'><h3>Instructions</h3><p>This experiment will have 3 parts. In the first part you will see a series of distorted images like the one below on the left. As you can see in the righthand image, the distorted images are derived from actual photographs. In what follows, you will <strong>briefly</strong> be presented with <strong>only</strong> the distorted image.</p> <div style='float: left; margin-right: 20px;'><img src='../img/018tt.jpg' height='250' width='250'></img></div><div style='float: right; margin-left: 20px;'><img src='../img/018gs.jpg' height='250' width='250'></img></div><p>Subsequently you will be asked a few questions about the image: One question on how <strong>curious</strong> you are about the solution and one on how <strong>confident</strong> you are that you know the solution.</p>Next, we ask you to make a guess on what is in the image. Note that it is OK to name just the <strong>basic level category</strong>. For example when you see a parrot in the image, 'parrot' will obviously be a correct answer but also correct is 'bird'. However, 'animal' will <strong>not</strong> be counted as a correct response. For the example above, 'rose' would be correct or 'flower', but not 'plant'. When soccer players are depicted, 'soccer', 'football', 'soccer players' will be correct, but not 'humans', 'outdoors', or 'sports'. You do not need to describe the image in full, just name the main object in it <strong>in one or two words</strong>. All images depict objects from one of the following broad level categories: animals, inanimate objects, plants, sports, vehicles, and food. Recognizing means knowing <strong>more</strong> than these broad labels for a given image. But we always encourage you to <strong>make a guess</strong> if you can. Note that you are allowed to use <strong>Dutch and English</strong> in your answers, whatever comes easiest for you.</p><p>Press any key to continue.</p></div>","32","instructions","html-keyboard-response","4","245680","0.0-4.0","3154169","co38251","norming","","","","","","",""
"31100.325000006706","<div style='word-wrap: break-word; width: 900px'><h3>Instructions</h3> <p>Next, the solution image will be revealed to you and you'll be asked to indicate how strong your <strong>aha-experience</strong> was after seeing the solution. This describes the positive feeling of the 'click' you sometimes experience, when the pieces of the 'puzzle' fall together and you suddenly have 'insight' in the image.</p><img src='aha.jpg' height='188' width='250'></img><p>Note that there are no right or wrong answers. We are interested in what <strong>you</strong> see in the image and how <strong>you</strong> feel about it.</p><p>Press any key to start the experiment.</p></div>","32","instructions","html-keyboard-response","5","276782","0.0-5.0","3154169","co38251","norming","","","","","","",""
"null","<div style=""font-size:60px;""> </div>","null","fixation","html-keyboard-response","6","276983","0.0-6.0-0.0","3154169","co38251","norming","","","","","","",""
"null","../img/tt/1091tt.jpg","null","mooney1","image-keyboard-response","7","279990","0.0-6.0-1.0","3154169","co38251","norming","","","","","","",""
"10717.29499999492","","","post_mooney1_questions","survey-likert","8","290710","0.0-6.0-2.0","3154169","co38251","norming","","","{""curiosity"":4,""confidence"":6}","[0,1]","../img/tt/1091tt.jpg","",""
"12237.219999995432","","","recognition","survey-text","9","302950","0.0-6.0-3.0","3154169","co38251","norming","","","{""guess"":""horse""}","","../img/tt/1091tt.jpg","",""
"null","../img/gs/1091gs.jpg","null","reveal","image-keyboard-response","10","304960","0.0-6.0-4.0","3154169","co38251","norming","","","","","","",""
"null","../img/tt/1091tt.jpg","null","mooney2","image-keyboard-response","11","306966","0.0-6.0-5.0","3154169","co38251","norming","","","","","","",""
"5458.03499998874","","","post_reveal_questions","survey-likert","12","312426","0.0-6.0-6.0","3154169","co38251","norming","","","{""aha"":4}","[0]","../img/tt/1091tt.jpg","",""
"null","<div style=""font-size:60px;""> </div>","null","fixation","html-keyboard-response","13","312632","0.0-6.0-0.1","3154169","co38251","norming","","","","","","",""
"null","../img/tt/140tt.jpg","null","mooney1","image-keyboard-response","14","315643","0.0-6.0-1.1","3154169","co38251","norming","","","","","","",""
"7085.014999989653","","","post_mooney1_questions","survey-likert","15","322731","0.0-6.0-2.1","3154169","co38251","norming","","","{""curiosity"":2,""confidence"":1}","[0,1]","../img/tt/140tt.jpg","",""
"5381.689999994705","","","recognition","survey-text","16","328114","0.0-6.0-3.1","3154169","co38251","norming","","","{""guess"":""vaas""}","","../img/tt/140tt.jpg","",""
"null","../img/gs/140gs.jpg","null","reveal","image-keyboard-response","17","330119","0.0-6.0-4.1","3154169","co38251","norming","","","","","","",""
"null","../img/tt/140tt.jpg","null","mooney2","image-keyboard-response","18","332121","0.0-6.0-5.1","3154169","co38251","norming","","","","","","",""
"4511.615000010352","","","post_reveal_questions","survey-likert","19","336634","0.0-6.0-6.1","3154169","co38251","norming","","","{""aha"":3}","[0]","../img/tt/140tt.jpg","",""
"null","<div style=""font-size:60px;""> </div>","null","fixation","html-keyboard-response","20","336839","0.0-6.0-0.2","3154169","co38251","norming","","","","","","",""
"null","../img/tt/1190tt.jpg","null","mooney1","image-keyboard-response","21","339842","0.0-6.0-1.2","3154169","co38251","norming","","","","","","",""
"7005.625000005239","","","post_mooney1_questions","survey-likert","22","346850","0.0-6.0-2.2","3154169","co38251","norming","","","{""curiosity"":4,""confidence"":2}","[0,1]","../img/tt/1190tt.jpg","",""
"3606.3800000119954","","","recognition","survey-text","23","350458","0.0-6.0-3.2","3154169","co38251","norming","","","{""guess"":""beer""}","","../img/tt/1190tt.jpg","",""
"null","../img/gs/1190gs.jpg","null","reveal","image-keyboard-response","24","352468","0.0-6.0-4.2","3154169","co38251","norming","","","","","","",""
"null","../img/tt/1190tt.jpg","null","mooney2","image-keyboard-response","25","354476","0.0-6.0-5.2","3154169","co38251","norming","","","","","","",""
"5036.244999995688","","","post_reveal_questions","survey-likert","26","359514","0.0-6.0-6.2","3154169","co38251","norming","","","{""aha"":2}","[0]","../img/tt/1190tt.jpg","",""
"null","<div style=""font-size:60px;""> </div>","null","fixation","html-keyboard-response","27","359719","0.0-6.0-0.3","3154169","co38251","norming","","","","","","",""
"null","../img/tt/044tt.jpg","null","mooney1","image-keyboard-response","28","362723","0.0-6.0-1.3","3154169","co38251","norming","","","","","","",""
"8541.53000000224","","","post_mooney1_questions","survey-likert","29","371263","0.0-6.0-2.3","3154169","co38251","norming","","","{""curiosity"":6,""confidence"":0}","[0,1]","../img/tt/044tt.jpg","",""
"5614.025000002584","","","recognition","survey-text","30","376878","0.0-6.0-3.3","3154169","co38251","norming","","","{""guess"":""""}","","../img/tt/044tt.jpg","",""
"null","../img/gs/044gs.jpg","null","reveal","image-keyboard-response","31","378880","0.0-6.0-4.3","3154169","co38251","norming","","","","","","",""
"null","../img/tt/044tt.jpg","null","mooney2","image-keyboard-response","32","380881","0.0-6.0-5.3","3154169","co38251","norming","","","","","","",""
"3379.979999997886","","","post_reveal_questions","survey-likert","33","384262","0.0-6.0-6.3","3154169","co38251","norming","","","{""aha"":5}","[0]","../img/tt/044tt.jpg","",""
"null","<div style=""font-size:60px;""> </div>","null","fixation","html-keyboard-response","34","384465","0.0-6.0-0.4","3154169","co38251","norming","","","","","","",""
"null","../img/tt/584tt.jpg","null","mooney1","image-keyboard-response","35","387471","0.0-6.0-1.4","3154169","co38251","norming","","","","","","",""
"4877.329999988433","","","post_mooney1_questions","survey-likert","36","392351","0.0-6.0-2.4","3154169","co38251","norming","","","{""curiosity"":5,""confidence"":3}","[0,1]","../img/tt/584tt.jpg","",""
"5142.064999992726","","","recognition","survey-text","37","397494","0.0-6.0-3.4","3154169","co38251","norming","","","{""guess"":""handen""}","","../img/tt/584tt.jpg","",""
"null","../img/gs/584gs.jpg","null","reveal","image-keyboard-response","38","399495","0.0-6.0-4.4","3154169","co38251","norming","","","","","","",""
"null","../img/tt/584tt.jpg","null","mooney2","image-keyboard-response","39","401500","0.0-6.0-5.4","3154169","co38251","norming","","","","","","",""
"2280.910000001313","","","post_reveal_questions","survey-likert","40","403783","0.0-6.0-6.4","3154169","co38251","norming","","","{""aha"":4}","[0]","../img/tt/584tt.jpg","",""
"null","<div style=""font-size:60px;""> </div>","null","fixation","html-keyboard-response","41","403988","0.0-6.0-0.5","3154169","co38251","norming","","","","","","",""
"null","../img/tt/497tt.jpg","null","mooney1","image-keyboard-response","42","406996","0.0-6.0-1.5","3154169","co38251","norming","","","","","","",""
"5328.450000000885","","","post_mooney1_questions","survey-likert","43","412327","0.0-6.0-2.5","3154169","co38251","norming","","","{""curiosity"":5,""confidence"":2}","[0,1]","../img/tt/497tt.jpg","",""
"4198.080000001937","","","recognition","survey-text","44","416526","0.0-6.0-3.5","3154169","co38251","norming","","","{""guess"":""wiel""}","","../img/tt/497tt.jpg","",""
"null","../img/gs/497gs.jpg","null","reveal","image-keyboard-response","45","418534","0.0-6.0-4.5","3154169","co38251","norming","","","","","","",""
"null","../img/tt/497tt.jpg","null","mooney2","image-keyboard-response","46","420544","0.0-6.0-5.5","3154169","co38251","norming","","","","","","",""
"2116.444999992382","","","post_reveal_questions","survey-likert","47","422663","0.0-6.0-6.5","3154169","co38251","norming","","","{""aha"":4}","[0]","../img/tt/497tt.jpg","",""
"null","<div style=""font-size:60px;""> </div>","null","fixation","html-keyboard-response","48","422864","0.0-6.0-0.6","3154169","co38251","norming","","","","","","",""
"null","../img/tt/273tt.jpg","null","mooney1","image-keyboard-response","49","425871","0.0-6.0-1.6","3154169","co38251","norming","","","","","","",""
"5869.019999998272","","","post_mooney1_questions","survey-likert","50","431743","0.0-6.0-2.6","3154169","co38251","norming","","","{""curiosity"":6,""confidence"":0}","[0,1]","../img/tt/273tt.jpg","",""
"1246.4900000049965","","","recognition","survey-text","51","432991","0.0-6.0-3.6","3154169","co38251","norming","","","{""guess"":""""}","","../img/tt/273tt.jpg","",""
"null","../img/gs/273gs.jpg","null","reveal","image-keyboard-response","52","434998","0.0-6.0-4.6","3154169","co38251","norming","","","","","","",""
"null","../img/tt/273tt.jpg","null","mooney2","image-keyboard-response","53","437004","0.0-6.0-5.6","3154169","co38251","norming","","","","","","",""
"3584.824999998091","","","post_reveal_questions","survey-likert","54","440591","0.0-6.0-6.6","3154169","co38251","norming","","","{""aha"":5}","[0]","../img/tt/273tt.jpg","",""
"null","<div style=""font-size:60px;""> </div>","null","fixation","html-keyboard-response","55","440798","0.0-6.0-0.7","3154169","co38251","norming","","","","","","",""
"null","../img/tt/080tt.jpg","null","mooney1","image-keyboard-response","56","443804","0.0-6.0-1.7","3154169","co38251","norming","","","","","","",""
"4432.974999988801","","","post_mooney1_questions","survey-likert","57","448239","0.0-6.0-2.7","3154169","co38251","norming","","","{""curiosity"":5,""confidence"":1}","[0,1]","../img/tt/080tt.jpg","",""
"3558.3299999998417","","","recognition","survey-text","58","451799","0.0-6.0-3.7","3154169","co38251","norming","","","{""guess"":""ei""}","","../img/tt/080tt.jpg","",""
"null","../img/gs/080gs.jpg","null","reveal","image-keyboard-response","59","453806","0.0-6.0-4.7","3154169","co38251","norming","","","","","","",""
"null","../img/tt/080tt.jpg","null","mooney2","image-keyboard-response","60","455817","0.0-6.0-5.7","3154169","co38251","norming","","","","","","",""
"5371.964999998454","","","post_reveal_questions","survey-likert","61","461191","0.0-6.0-6.7","3154169","co38251","norming","","","{""aha"":4}","[0]","../img/tt/080tt.jpg","",""
"null","<div style=""font-size:60px;""> </div>","null","fixation","html-keyboard-response","62","461398","0.0-6.0-0.8","3154169","co38251","norming","","","","","","",""
"null","../img/tt/1279tt.jpg","null","mooney1","image-keyboard-response","63","464406","0.0-6.0-1.8","3154169","co38251","norming","","","","","","",""
"6767.1599999885075","","","post_mooney1_questions","survey-likert","64","471176","0.0-6.0-2.8","3154169","co38251","norming","","","{""curiosity"":6,""confidence"":0}","[0,1]","../img/tt/1279tt.jpg","",""
"734.1000000014901","","","recognition","survey-text","65","471911","0.0-6.0-3.8","3154169","co38251","norming","","","{""guess"":""""}","","../img/tt/1279tt.jpg","",""
"null","../img/gs/1279gs.jpg","null","reveal","image-keyboard-response","66","473920","0.0-6.0-4.8","3154169","co38251","norming","","","","","","",""
"null","../img/tt/1279tt.jpg","null","mooney2","image-keyboard-response","67","475927","0.0-6.0-5.8","3154169","co38251","norming","","","","","","",""
"1950.8150000037858","","","post_reveal_questions","survey-likert","68","477879","0.0-6.0-6.8","3154169","co38251","norming","","","{""aha"":3}","[0]","../img/tt/1279tt.jpg","",""
"null","<div style=""font-size:60px;""> </div>","null","fixation","html-keyboard-response","69","478084","0.0-6.0-0.9","3154169","co38251","norming","","","","","","",""
"null","../img/tt/096tt.jpg","null","mooney1","image-keyboard-response","70","481096","0.0-6.0-1.9","3154169","co38251","norming","","","","","","",""
"3949.1049999924144","","","post_mooney1_questions","survey-likert","71","485048","0.0-6.0-2.9","3154169","co38251","norming","","","{""curiosity"":5,""confidence"":2}","[0,1]","../img/tt/096tt.jpg","",""
"4622.010000006412","","","recognition","survey-text","72","489670","0.0-6.0-3.9","3154169","co38251","norming","","","{""guess"":""piano""}","","../img/tt/096tt.jpg","",""
"null","../img/gs/096gs.jpg","null","reveal","image-keyboard-response","73","491675","0.0-6.0-4.9","3154169","co38251","norming","","","","","","",""
"null","../img/tt/096tt.jpg","null","mooney2","image-keyboard-response","74","493685","0.0-6.0-5.9","3154169","co38251","norming","","","","","","",""
"4231.774999992922","","","post_reveal_questions","survey-likert","75","497918","0.0-6.0-6.9","3154169","co38251","norming","","","{""aha"":4}","[0]","../img/tt/096tt.jpg","",""
"null","<div style=""font-size:60px;""> </div>","null","fixation","html-keyboard-response","76","498124","0.0-6.0-0.10","3154169","co38251","norming","","","","","","",""
"null","../img/tt/590tt.jpg","null","mooney1","image-keyboard-response","77","501127","0.0-6.0-1.10","3154169","co38251","norming","","","","","","",""
"7421.744999999646","","","post_mooney1_questions","survey-likert","78","508551","0.0-6.0-2.10","3154169","co38251","norming","","","{""curiosity"":4,""confidence"":0}","[0,1]","../img/tt/590tt.jpg","",""
"1246.129999999539","","","recognition","survey-text","79","509799","0.0-6.0-3.10","3154169","co38251","norming","","","{""guess"":""""}","","../img/tt/590tt.jpg","",""
"null","../img/gs/590gs.jpg","null","reveal","image-keyboard-response","80","511804","0.0-6.0-4.10","3154169","co38251","norming","","","","","","",""
"null","../img/tt/590tt.jpg","null","mooney2","image-keyboard-response","81","513806","0.0-6.0-5.10","3154169","co38251","norming","","","","","","",""
"2438.3950000046752","","","post_reveal_questions","survey-likert","82","516247","0.0-6.0-6.10","3154169","co38251","norming","","","{""aha"":2}","[0]","../img/tt/590tt.jpg","",""
"null","<div style=""font-size:60px;""> </div>","null","fixation","html-keyboard-response","83","516451","0.0-6.0-0.11","3154169","co38251","norming","","","","","","",""
"null","../img/tt/1116tt.jpg","null","mooney1","image-keyboard-response","84","519458","0.0-6.0-1.11","3154169","co38251","norming","","","","","","",""
"5914.305000012973","","","post_mooney1_questions","survey-likert","85","525375","0.0-6.0-2.11","3154169","co38251","norming","","","{""curiosity"":5,""confidence"":3}","[0,1]","../img/tt/1116tt.jpg","",""
"2973.824999993667","","","recognition","survey-text","86","528350","0.0-6.0-3.11","3154169","co38251","norming","","","{""guess"":""file""}","","../img/tt/1116tt.jpg","",""
"null","../img/gs/1116gs.jpg","null","reveal","image-keyboard-response","87","530361","0.0-6.0-4.11","3154169","co38251","norming","","","","","","",""
"null","../img/tt/1116tt.jpg","null","mooney2","image-keyboard-response","88","532366","0.0-6.0-5.11","3154169","co38251","norming","","","","","","",""
"1982.3299999989104","","","post_reveal_questions","survey-likert","89","534351","0.0-6.0-6.11","3154169","co38251","norming","","","{""aha"":2}","[0]","../img/tt/1116tt.jpg","",""
"null","<div style=""font-size:60px;""> </div>","null","fixation","html-keyboard-response","90","534561","0.0-6.0-0.12","3154169","co38251","norming","","","","","","",""
"null","../img/tt/603tt.jpg","null","mooney1","image-keyboard-response","91","537569","0.0-6.0-1.12","3154169","co38251","norming","","","","","","",""
"4299.505000002682","","","post_mooney1_questions","survey-likert","92","541871","0.0-6.0-2.12","3154169","co38251","norming","","","{""curiosity"":5,""confidence"":1}","[0,1]","../img/tt/603tt.jpg","",""
"3718.0050000024494","","","recognition","survey-text","93","545590","0.0-6.0-3.12","3154169","co38251","norming","","","{""guess"":""hoofd""}","","../img/tt/603tt.jpg","",""
"null","../img/gs/603gs.jpg","null","reveal","image-keyboard-response","94","547592","0.0-6.0-4.12","3154169","co38251","norming","","","","","","",""
"null","../img/tt/603tt.jpg","null","mooney2","image-keyboard-response","95","549602","0.0-6.0-5.12","3154169","co38251","norming","","","","","","",""
"2155.155000000377","","","post_reveal_questions","survey-likert","96","551760","0.0-6.0-6.12","3154169","co38251","norming","","","{""aha"":4}","[0]","../img/tt/603tt.jpg","",""
"null","<div style=""font-size:60px;""> </div>","null","fixation","html-keyboard-response","97","551961","0.0-6.0-0.13","3154169","co38251","norming","","","","","","",""
"null","../img/tt/1128tt.jpg","null","mooney1","image-keyboard-response","98","554964","0.0-6.0-1.13","3154169","co38251","norming","","","","","","",""
"4849.074999990989","","","post_mooney1_questions","survey-likert","99","559816","0.0-6.0-2.13","3154169","co38251","norming","","","{""curiosity"":5,""confidence"":3}","[0,1]","../img/tt/1128tt.jpg","",""
"2077.9099999926984","","","recognition","survey-text","100","561896","0.0-6.0-3.13","3154169","co38251","norming","","","{""guess"":""aap""}","","../img/tt/1128tt.jpg","",""
"null","../img/gs/1128gs.jpg","null","reveal","image-keyboard-response","101","563905","0.0-6.0-4.13","3154169","co38251","norming","","","","","","",""
"null","../img/tt/1128tt.jpg","null","mooney2","image-keyboard-response","102","565907","0.0-6.0-5.13","3154169","co38251","norming","","","","","","",""
"3210.095000002184","","","post_reveal_questions","survey-likert","103","569119","0.0-6.0-6.13","3154169","co38251","norming","","","{""aha"":1}","[0]","../img/tt/1128tt.jpg","",""
"null","<div style=""font-size:60px;""> </div>","null","fixation","html-keyboard-response","104","569327","0.0-6.0-0.14","3154169","co38251","norming","","","","","","",""
"null","../img/tt/1125tt.jpg","null","mooney1","image-keyboard-response","105","572333","0.0-6.0-1.14","3154169","co38251","norming","","","","","","",""
"7151.855000003707","","","post_mooney1_questions","survey-likert","106","579488","0.0-6.0-2.14","3154169","co38251","norming","","","{""curiosity"":6,""confidence"":2}","[0,1]","../img/tt/1125tt.jpg","",""
"3190.0250000035157","","","recognition","survey-text","107","582680","0.0-6.0-3.14","3154169","co38251","norming","","","{""guess"":""kind""}","","../img/tt/1125tt.jpg","",""
"null","../img/gs/1125gs.jpg","null","reveal","image-keyboard-response","108","584681","0.0-6.0-4.14","3154169","co38251","norming","","","","","","",""
"null","../img/tt/1125tt.jpg","null","mooney2","image-keyboard-response","109","586689","0.0-6.0-5.14","3154169","co38251","norming","","","","","","",""
"2516.155000004801","","","post_reveal_questions","survey-likert","110","589208","0.0-6.0-6.14","3154169","co38251","norming","","","{""aha"":1}","[0]","../img/tt/1125tt.jpg","",""
"null","<div style=""font-size:60px;""> </div>","null","fixation","html-keyboard-response","111","589417","0.0-6.0-0.15","3154169","co38251","norming","","","","","","",""
"null","../img/tt/1307tt.jpg","null","mooney1","image-keyboard-response","112","592429","0.0-6.0-1.15","3154169","co38251","norming","","","","","","",""
"3600.3249999921536","","","post_mooney1_questions","survey-likert","113","596032","0.0-6.0-2.15","3154169","co38251","norming","","","{""curiosity"":6,""confidence"":4}","[0,1]","../img/tt/1307tt.jpg","",""
"5526.35499999451","","","recognition","survey-text","114","601559","0.0-6.0-3.15","3154169","co38251","norming","","","{""guess"":""luchtbalon""}","","../img/tt/1307tt.jpg","",""
"null","../img/gs/1307gs.jpg","null","reveal","image-keyboard-response","115","603565","0.0-6.0-4.15","3154169","co38251","norming","","","","","","",""
"null","../img/tt/1307tt.jpg","null","mooney2","image-keyboard-response","116","605568","0.0-6.0-5.15","3154169","co38251","norming","","","","","","",""
"2910.3699999977835","","","post_reveal_questions","survey-likert","117","608479","0.0-6.0-6.15","3154169","co38251","norming","","","{""aha"":3}","[0]","../img/tt/1307tt.jpg","",""
"null","<div style=""font-size:60px;""> </div>","null","fixation","html-keyboard-response","118","608683","0.0-6.0-0.16","3154169","co38251","norming","","","","","","",""
"null","../img/tt/1143tt.jpg","null","mooney1","image-keyboard-response","119","611687","0.0-6.0-1.16","3154169","co38251","norming","","","","","","",""
"4244.940000004135","","","post_mooney1_questions","survey-likert","120","615936","0.0-6.0-2.16","3154169","co38251","norming","","","{""curiosity"":5,""confidence"":2}","[0,1]","../img/tt/1143tt.jpg","",""
"11486.134999999194","","","recognition","survey-text","121","627424","0.0-6.0-3.16","3154169","co38251","norming","","","{""guess"":""fitnesstoestellen""}","","../img/tt/1143tt.jpg","",""
"null","../img/gs/1143gs.jpg","null","reveal","image-keyboard-response","122","629433","0.0-6.0-4.16","3154169","co38251","norming","","","","","","",""
"null","../img/tt/1143tt.jpg","null","mooney2","image-keyboard-response","123","631441","0.0-6.0-5.16","3154169","co38251","norming","","","","","","",""
"2444.4300000031944","","","post_reveal_questions","survey-likert","124","633888","0.0-6.0-6.16","3154169","co38251","norming","","","{""aha"":3}","[0]","../img/tt/1143tt.jpg","",""
"null","<div style=""font-size:60px;""> </div>","null","fixation","html-keyboard-response","125","634090","0.0-6.0-0.17","3154169","co38251","norming","","","","","","",""
"null","../img/tt/436tt.jpg","null","mooney1","image-keyboard-response","126","637099","0.0-6.0-1.17","3154169","co38251","norming","","","","","","",""
"4890.099999989616","","","post_mooney1_questions","survey-likert","127","641992","0.0-6.0-2.17","3154169","co38251","norming","","","{""curiosity"":4,""confidence"":1}","[0,1]","../img/tt/436tt.jpg","",""
"7278.384999997797","","","recognition","survey-text","128","649272","0.0-6.0-3.17","3154169","co38251","norming","","","{""guess"":""""}","","../img/tt/436tt.jpg","",""
"null","../img/gs/436gs.jpg","null","reveal","image-keyboard-response","129","651277","0.0-6.0-4.17","3154169","co38251","norming","","","","","","",""
"null","../img/tt/436tt.jpg","null","mooney2","image-keyboard-response","130","653279","0.0-6.0-5.17","3154169","co38251","norming","","","","","","",""
"2254.2300000059186","","","post_reveal_questions","survey-likert","131","655536","0.0-6.0-6.17","3154169","co38251","norming","","","{""aha"":2}","[0]","../img/tt/436tt.jpg","",""
"null","<div style=""font-size:60px;""> </div>","null","fixation","html-keyboard-response","132","655738","0.0-6.0-0.18","3154169","co38251","norming","","","","","","",""
"null","../img/tt/046tt.jpg","null","mooney1","image-keyboard-response","133","658743","0.0-6.0-1.18","3154169","co38251","norming","","","","","","",""
"4366.4800000115065","","","post_mooney1_questions","survey-likert","134","663112","0.0-6.0-2.18","3154169","co38251","norming","","","{""curiosity"":4,""confidence"":2}","[0,1]","../img/tt/046tt.jpg","",""
"4045.9499999997206","","","recognition","survey-text","135","667160","0.0-6.0-3.18","3154169","co38251","norming","","","{""guess"":""gezicht""}","","../img/tt/046tt.jpg","",""
"null","../img/gs/046gs.jpg","null","reveal","image-keyboard-response","136","669167","0.0-6.0-4.18","3154169","co38251","norming","","","","","","",""
"null","../img/tt/046tt.jpg","null","mooney2","image-keyboard-response","137","671176","0.0-6.0-5.18","3154169","co38251","norming","","","","","","",""
"5221.57999999763","","","post_reveal_questions","survey-likert","138","676395","0.0-6.0-6.18","3154169","co38251","norming","","","{""aha"":3}","[0]","../img/tt/046tt.jpg","",""
"null","<div style=""font-size:60px;""> </div>","null","fixation","html-keyboard-response","139","676604","0.0-6.0-0.19","3154169","co38251","norming","","","","","","",""
"null","../img/tt/031tt.jpg","null","mooney1","image-keyboard-response","140","679607","0.0-6.0-1.19","3154169","co38251","norming","","","","","","",""
"4994.085000013001","","","post_mooney1_questions","survey-likert","141","684603","0.0-6.0-2.19","3154169","co38251","norming","","","{""curiosity"":2,""confidence"":0}","[0,1]","../img/tt/031tt.jpg","",""
"3598.0600000038976","","","recognition","survey-text","142","688203","0.0-6.0-3.19","3154169","co38251","norming","","","{""guess"":""""}","","../img/tt/031tt.jpg","",""
"null","../img/gs/031gs.jpg","null","reveal","image-keyboard-response","143","690205","0.0-6.0-4.19","3154169","co38251","norming","","","","","","",""
"null","../img/tt/031tt.jpg","null","mooney2","image-keyboard-response","144","692212","0.0-6.0-5.19","3154169","co38251","norming","","","","","","",""
"2557.329999996","","","post_reveal_questions","survey-likert","145","694771","0.0-6.0-6.19","3154169","co38251","norming","","","{""aha"":2}","[0]","../img/tt/031tt.jpg","",""
"null","<div style=""font-size:60px;""> </div>","null","fixation","html-keyboard-response","146","694978","0.0-6.0-0.20","3154169","co38251","norming","","","","","","",""
"null","../img/tt/013tt.jpg","null","mooney1","image-keyboard-response","147","697986","0.0-6.0-1.20","3154169","co38251","norming","","","","","","",""
"7606.364999999641","","","post_mooney1_questions","survey-likert","148","705595","0.0-6.0-2.20","3154169","co38251","norming","","","{""curiosity"":3,""confidence"":0}","[0,1]","../img/tt/013tt.jpg","",""
"9037.909999999101","","","recognition","survey-text","149","714635","0.0-6.0-3.20","3154169","co38251","norming","","","{""guess"":""vrouwen""}","","../img/tt/013tt.jpg","",""
"null","../img/gs/013gs.jpg","null","reveal","image-keyboard-response","150","716640","0.0-6.0-4.20","3154169","co38251","norming","","","","","","",""
"null","../img/tt/013tt.jpg","null","mooney2","image-keyboard-response","151","718641","0.0-6.0-5.20","3154169","co38251","norming","","","","","","",""
"3152.604999995674","","","post_reveal_questions","survey-likert","152","721795","0.0-6.0-6.20","3154169","co38251","norming","","","{""aha"":4}","[0]","../img/tt/013tt.jpg","",""
"null","<div style=""font-size:60px;""> </div>","null","fixation","html-keyboard-response","153","721998","0.0-6.0-0.21","3154169","co38251","norming","","","","","","",""
"null","../img/tt/598tt.jpg","null","mooney1","image-keyboard-response","154","725002","0.0-6.0-1.21","3154169","co38251","norming","","","","","","",""
"4846.355000001495","","","post_mooney1_questions","survey-likert","155","729851","0.0-6.0-2.21","3154169","co38251","norming","","","{""curiosity"":5,""confidence"":1}","[0,1]","../img/tt/598tt.jpg","",""
"3926.2699999962933","","","recognition","survey-text","156","733779","0.0-6.0-3.21","3154169","co38251","norming","","","{""guess"":""mand""}","","../img/tt/598tt.jpg","",""
"null","../img/gs/598gs.jpg","null","reveal","image-keyboard-response","157","735787","0.0-6.0-4.21","3154169","co38251","norming","","","","","","",""
"null","../img/tt/598tt.jpg","null","mooney2","image-keyboard-response","158","737788","0.0-6.0-5.21","3154169","co38251","norming","","","","","","",""
"3201.2249999970663","","","post_reveal_questions","survey-likert","159","740992","0.0-6.0-6.21","3154169","co38251","norming","","","{""aha"":2}","[0]","../img/tt/598tt.jpg","",""
"null","<div style=""font-size:60px;""> </div>","null","fixation","html-keyboard-response","160","741194","0.0-6.0-0.22","3154169","co38251","norming","","","","","","",""
"null","../img/tt/1269tt.jpg","null","mooney1","image-keyboard-response","161","744204","0.0-6.0-1.22","3154169","co38251","norming","","","","","","",""
"3369.814999998198","","","post_mooney1_questions","survey-likert","162","747576","0.0-6.0-2.22","3154169","co38251","norming","","","{""curiosity"":5,""confidence"":3}","[0,1]","../img/tt/1269tt.jpg","",""
"3534.07999999763","","","recognition","survey-text","163","751112","0.0-6.0-3.22","3154169","co38251","norming","","","{""guess"":""koala""}","","../img/tt/1269tt.jpg","",""
"null","../img/gs/1269gs.jpg","null","reveal","image-keyboard-response","164","753122","0.0-6.0-4.22","3154169","co38251","norming","","","","","","",""
"null","../img/tt/1269tt.jpg","null","mooney2","image-keyboard-response","165","755127","0.0-6.0-5.22","3154169","co38251","norming","","","","","","",""
"2102.6899999997113","","","post_reveal_questions","survey-likert","166","757231","0.0-6.0-6.22","3154169","co38251","norming","","","{""aha"":4}","[0]","../img/tt/1269tt.jpg","",""
"null","<div style=""font-size:60px;""> </div>","null","fixation","html-keyboard-response","167","757438","0.0-6.0-0.23","3154169","co38251","norming","","","","","","",""
"null","../img/tt/1123tt.jpg","null","mooney1","image-keyboard-response","168","760447","0.0-6.0-1.23","3154169","co38251","norming","","","","","","",""
"7430.250000004889","","","post_mooney1_questions","survey-likert","169","767880","0.0-6.0-2.23","3154169","co38251","norming","","","{""curiosity"":6,""confidence"":3}","[0,1]","../img/tt/1123tt.jpg","",""
"2933.819999991101","","","recognition","survey-text","170","770815","0.0-6.0-3.23","3154169","co38251","norming","","","{""guess"":""beer""}","","../img/tt/1123tt.jpg","",""
"null","../img/gs/1123gs.jpg","null","reveal","image-keyboard-response","171","772818","0.0-6.0-4.23","3154169","co38251","norming","","","","","","",""
"null","../img/tt/1123tt.jpg","null","mooney2","image-keyboard-response","172","774820","0.0-6.0-5.23","3154169","co38251","norming","","","","","","",""
"3083.2249999948544","","","post_reveal_questions","survey-likert","173","777904","0.0-6.0-6.23","3154169","co38251","norming","","","{""aha"":3}","[0]","../img/tt/1123tt.jpg","",""
"null","<div style=""font-size:60px;""> </div>","null","fixation","html-keyboard-response","174","778107","0.0-6.0-0.24","3154169","co38251","norming","","","","","","",""
"null","../img/tt/1118tt.jpg","null","mooney1","image-keyboard-response","175","781117","0.0-6.0-1.24","3154169","co38251","norming","","","","","","",""
"4208.505000002333","","","post_mooney1_questions","survey-likert","176","785328","0.0-6.0-2.24","3154169","co38251","norming","","","{""curiosity"":5,""confidence"":0}","[0,1]","../img/tt/1118tt.jpg","",""
"2934.030000003986","","","recognition","survey-text","177","788264","0.0-6.0-3.24","3154169","co38251","norming","","","{""guess"":""""}","","../img/tt/1118tt.jpg","",""
"null","../img/gs/1118gs.jpg","null","reveal","image-keyboard-response","178","790266","0.0-6.0-4.24","3154169","co38251","norming","","","","","","",""
"null","../img/tt/1118tt.jpg","null","mooney2","image-keyboard-response","179","792268","0.0-6.0-5.24","3154169","co38251","norming","","","","","","",""
"2456.3899999920977","","","post_reveal_questions","survey-likert","180","794728","0.0-6.0-6.24","3154169","co38251","norming","","","{""aha"":1}","[0]","../img/tt/1118tt.jpg","",""
"null","<div style=""font-size:60px;""> </div>","null","fixation","html-keyboard-response","181","794929","0.0-6.0-0.25","3154169","co38251","norming","","","","","","",""
"null","../img/tt/1226tt.jpg","null","mooney1","image-keyboard-response","182","797935","0.0-6.0-1.25","3154169","co38251","norming","","","","","","",""
"5982.084999996005","","","post_mooney1_questions","survey-likert","183","803920","0.0-6.0-2.25","3154169","co38251","norming","","","{""curiosity"":4,""confidence"":1}","[0,1]","../img/tt/1226tt.jpg","",""
"3862.1149999962654","","","recognition","survey-text","184","807784","0.0-6.0-3.25","3154169","co38251","norming","","","{""guess"":""pauw""}","","../img/tt/1226tt.jpg","",""
"null","../img/gs/1226gs.jpg","null","reveal","image-keyboard-response","185","809787","0.0-6.0-4.25","3154169","co38251","norming","","","","","","",""
"null","../img/tt/1226tt.jpg","null","mooney2","image-keyboard-response","186","811791","0.0-6.0-5.25","3154169","co38251","norming","","","","","","",""
"2102.8599999990547","","","post_reveal_questions","survey-likert","187","813896","0.0-6.0-6.25","3154169","co38251","norming","","","{""aha"":1}","[0]","../img/tt/1226tt.jpg","",""
"null","<div style=""font-size:60px;""> </div>","null","fixation","html-keyboard-response","188","814097","0.0-6.0-0.26","3154169","co38251","norming","","","","","","",""
"null","../img/tt/358tt.jpg","null","mooney1","image-keyboard-response","189","817101","0.0-6.0-1.26","3154169","co38251","norming","","","","","","",""
"4576.339999999618","","","post_mooney1_questions","survey-likert","190","821680","0.0-6.0-2.26","3154169","co38251","norming","","","{""curiosity"":4,""confidence"":3}","[0,1]","../img/tt/358tt.jpg","",""
"3558.0099999933736","","","recognition","survey-text","191","825240","0.0-6.0-3.26","3154169","co38251","norming","","","{""guess"":""hond""}","","../img/tt/358tt.jpg","",""
"null","../img/gs/358gs.jpg","null","reveal","image-keyboard-response","192","827241","0.0-6.0-4.26","3154169","co38251","norming","","","","","","",""
"null","../img/tt/358tt.jpg","null","mooney2","image-keyboard-response","193","829247","0.0-6.0-5.26","3154169","co38251","norming","","","","","","",""
"2735.8250000106636","","","post_reveal_questions","survey-likert","194","831984","0.0-6.0-6.26","3154169","co38251","norming","","","{""aha"":0}","[0]","../img/tt/358tt.jpg","",""
"null","<div style=""font-size:60px;""> </div>","null","fixation","html-keyboard-response","195","832193","0.0-6.0-0.27","3154169","co38251","norming","","","","","","",""
"null","../img/tt/515tt.jpg","null","mooney1","image-keyboard-response","196","835205","0.0-6.0-1.27","3154169","co38251","norming","","","","","","",""
"4176.410000000033","","","post_mooney1_questions","survey-likert","197","839384","0.0-6.0-2.27","3154169","co38251","norming","","","{""curiosity"":4,""confidence"":4}","[0,1]","../img/tt/515tt.jpg","",""
"5046.035000006668","","","recognition","survey-text","198","844432","0.0-6.0-3.27","3154169","co38251","norming","","","{""guess"":""vogel""}","","../img/tt/515tt.jpg","",""
"null","../img/gs/515gs.jpg","null","reveal","image-keyboard-response","199","846440","0.0-6.0-4.27","3154169","co38251","norming","","","","","","",""
"null","../img/tt/515tt.jpg","null","mooney2","image-keyboard-response","200","848442","0.0-6.0-5.27","3154169","co38251","norming","","","","","","",""
"2908.014999993611","","","post_reveal_questions","survey-likert","201","851352","0.0-6.0-6.27","3154169","co38251","norming","","","{""aha"":2}","[0]","../img/tt/515tt.jpg","",""
"null","<div style=""font-size:60px;""> </div>","null","fixation","html-keyboard-response","202","851561","0.0-6.0-0.28","3154169","co38251","norming","","","","","","",""
"null","../img/tt/064tt.jpg","null","mooney1","image-keyboard-response","203","854572","0.0-6.0-1.28","3154169","co38251","norming","","","","","","",""
"3441.1200000031386","","","post_mooney1_questions","survey-likert","204","858010","0.0-6.0-2.28","3154169","co38251","norming","","","{""curiosity"":4,""confidence"":4}","[0,1]","../img/tt/064tt.jpg","",""
"3629.769999999553","","","recognition","survey-text","205","861641","0.0-6.0-3.28","3154169","co38251","norming","","","{""guess"":""slang""}","","../img/tt/064tt.jpg","",""
"null","../img/gs/064gs.jpg","null","reveal","image-keyboard-response","206","863643","0.0-6.0-4.28","3154169","co38251","norming","","","","","","",""
"null","../img/tt/064tt.jpg","null","mooney2","image-keyboard-response","207","865650","0.0-6.0-5.28","3154169","co38251","norming","","","","","","",""
"2670.154999999795","","","post_reveal_questions","survey-likert","208","868321","0.0-6.0-6.28","3154169","co38251","norming","","","{""aha"":5}","[0]","../img/tt/064tt.jpg","",""
"null","<div style=""font-size:60px;""> </div>","null","fixation","html-keyboard-response","209","868523","0.0-6.0-0.29","3154169","co38251","norming","","","","","","",""
"null","../img/tt/008tt.jpg","null","mooney1","image-keyboard-response","210","871527","0.0-6.0-1.29","3154169","co38251","norming","","","","","","",""
"4138.554999997723","","","post_mooney1_questions","survey-likert","211","875667","0.0-6.0-2.29","3154169","co38251","norming","","","{""curiosity"":3,""confidence"":2}","[0,1]","../img/tt/008tt.jpg","",""
"3612.250000005588","","","recognition","survey-text","212","879281","0.0-6.0-3.29","3154169","co38251","norming","","","{""guess"":""geweer""}","","../img/tt/008tt.jpg","",""
"null","../img/gs/008gs.jpg","null","reveal","image-keyboard-response","213","881292","0.0-6.0-4.29","3154169","co38251","norming","","","","","","",""
"null","../img/tt/008tt.jpg","null","mooney2","image-keyboard-response","214","883293","0.0-6.0-5.29","3154169","co38251","norming","","","","","","",""
"1875.899999999092","","","post_reveal_questions","survey-likert","215","885170","0.0-6.0-6.29","3154169","co38251","norming","","","{""aha"":1}","[0]","../img/tt/008tt.jpg","",""
"null","<div style=""font-size:60px;""> </div>","null","fixation","html-keyboard-response","216","885372","0.0-6.0-0.30","3154169","co38251","norming","","","","","","",""
"null","../img/tt/007tt.jpg","null","mooney1","image-keyboard-response","217","888379","0.0-6.0-1.30","3154169","co38251","norming","","","","","","",""
"7243.360000007669","","","post_mooney1_questions","survey-likert","218","895626","0.0-6.0-2.30","3154169","co38251","norming","","","{""curiosity"":3,""confidence"":1}","[0,1]","../img/tt/007tt.jpg","",""
"4950.070000006235","","","recognition","survey-text","219","900578","0.0-6.0-3.30","3154169","co38251","norming","","","{""guess"":""panter""}","","../img/tt/007tt.jpg","",""
"null","../img/gs/007gs.jpg","null","reveal","image-keyboard-response","220","902579","0.0-6.0-4.30","3154169","co38251","norming","","","","","","",""
"null","../img/tt/007tt.jpg","null","mooney2","image-keyboard-response","221","904588","0.0-6.0-5.30","3154169","co38251","norming","","","","","","",""
"3331.724999996368","","","post_reveal_questions","survey-likert","222","907922","0.0-6.0-6.30","3154169","co38251","norming","","","{""aha"":0}","[0]","../img/tt/007tt.jpg","",""
"null","<div style=""font-size:60px;""> </div>","null","fixation","html-keyboard-response","223","908128","0.0-6.0-0.31","3154169","co38251","norming","","","","","","",""
"null","../img/tt/435tt.jpg","null","mooney1","image-keyboard-response","224","911135","0.0-6.0-1.31","3154169","co38251","norming","","","","","","",""
"5687.545000007958","","","post_mooney1_questions","survey-likert","225","916826","0.0-6.0-2.31","3154169","co38251","norming","","","{""curiosity"":3,""confidence"":0}","[0,1]","../img/tt/435tt.jpg","",""
"862.1899999998277","","","recognition","survey-text","226","917690","0.0-6.0-3.31","3154169","co38251","norming","","","{""guess"":""""}","","../img/tt/435tt.jpg","",""
"null","../img/gs/435gs.jpg","null","reveal","image-keyboard-response","227","919701","0.0-6.0-4.31","3154169","co38251","norming","","","","","","",""
"null","../img/tt/435tt.jpg","null","mooney2","image-keyboard-response","228","921705","0.0-6.0-5.31","3154169","co38251","norming","","","","","","",""
"1692.9399999935413","","","post_reveal_questions","survey-likert","229","923400","0.0-6.0-6.31","3154169","co38251","norming","","","{""aha"":3}","[0]","../img/tt/435tt.jpg","",""
"null","<div style=""font-size:60px;""> </div>","null","fixation","html-keyboard-response","230","923605","0.0-6.0-0.32","3154169","co38251","norming","","","","","","",""
"null","../img/tt/1254tt.jpg","null","mooney1","image-keyboard-response","231","926608","0.0-6.0-1.32","3154169","co38251","norming","","","","","","",""
"4484.175000005052","","","post_mooney1_questions","survey-likert","232","931096","0.0-6.0-2.32","3154169","co38251","norming","","","{""curiosity"":3,""confidence"":0}","[0,1]","../img/tt/1254tt.jpg","",""
"3446.270000000368","","","recognition","survey-text","233","934544","0.0-6.0-3.32","3154169","co38251","norming","","","{""guess"":""ezel""}","","../img/tt/1254tt.jpg","",""
"null","../img/gs/1254gs.jpg","null","reveal","image-keyboard-response","234","936548","0.0-6.0-4.32","3154169","co38251","norming","","","","","","",""
"null","../img/tt/1254tt.jpg","null","mooney2","image-keyboard-response","235","938553","0.0-6.0-5.32","3154169","co38251","norming","","","","","","",""
"3373.455000008107","","","post_reveal_questions","survey-likert","236","941928","0.0-6.0-6.32","3154169","co38251","norming","","","{""aha"":1}","[0]","../img/tt/1254tt.jpg","",""
"null","<div style=""font-size:60px;""> </div>","null","fixation","html-keyboard-response","237","942129","0.0-6.0-0.33","3154169","co38251","norming","","","","","","",""
"null","../img/tt/1087tt.jpg","null","mooney1","image-keyboard-response","238","945134","0.0-6.0-1.33","3154169","co38251","norming","","","","","","",""
"4767.300000006799","","","post_mooney1_questions","survey-likert","239","949904","0.0-6.0-2.33","3154169","co38251","norming","","","{""curiosity"":4,""confidence"":4}","[0,1]","../img/tt/1087tt.jpg","",""
"3245.9900000103517","","","recognition","survey-text","240","953152","0.0-6.0-3.33","3154169","co38251","norming","","","{""guess"":""koeien""}","","../img/tt/1087tt.jpg","",""
"null","../img/gs/1087gs.jpg","null","reveal","image-keyboard-response","241","955161","0.0-6.0-4.33","3154169","co38251","norming","","","","","","",""
"null","../img/tt/1087tt.jpg","null","mooney2","image-keyboard-response","242","957164","0.0-6.0-5.33","3154169","co38251","norming","","","","","","",""
"3178.0149999976857","","","post_reveal_questions","survey-likert","243","960344","0.0-6.0-6.33","3154169","co38251","norming","","","{""aha"":5}","[0]","../img/tt/1087tt.jpg","",""
"null","<div style=""font-size:60px;""> </div>","null","fixation","html-keyboard-response","244","960546","0.0-6.0-0.34","3154169","co38251","norming","","","","","","",""
"null","../img/tt/1309tt.jpg","null","mooney1","image-keyboard-response","245","963550","0.0-6.0-1.34","3154169","co38251","norming","","","","","","",""
"3295.0850000052014","","","post_mooney1_questions","survey-likert","246","966848","0.0-6.0-2.34","3154169","co38251","norming","","","{""curiosity"":4,""confidence"":4}","[0,1]","../img/tt/1309tt.jpg","",""
"3630.2750000031665","","","recognition","survey-text","247","970480","0.0-6.0-3.34","3154169","co38251","norming","","","{""guess"":""bos""}","","../img/tt/1309tt.jpg","",""
"null","../img/gs/1309gs.jpg","null","reveal","image-keyboard-response","248","972490","0.0-6.0-4.34","3154169","co38251","norming","","","","","","",""
"null","../img/tt/1309tt.jpg","null","mooney2","image-keyboard-response","249","974497","0.0-6.0-5.34","3154169","co38251","norming","","","","","","",""
"2685.0350000022445","","","post_reveal_questions","survey-likert","250","977184","0.0-6.0-6.34","3154169","co38251","norming","","","{""aha"":4}","[0]","../img/tt/1309tt.jpg","",""
"null","<div style=""font-size:60px;""> </div>","null","fixation","html-keyboard-response","251","977391","0.0-6.0-0.35","3154169","co38251","norming","","","","","","",""
"null","../img/tt/1353tt.jpg","null","mooney1","image-keyboard-response","252","980402","0.0-6.0-1.35","3154169","co38251","norming","","","","","","",""
"3851.219999996829","","","post_mooney1_questions","survey-likert","253","984256","0.0-6.0-2.35","3154169","co38251","norming","","","{""curiosity"":3,""confidence"":1}","[0,1]","../img/tt/1353tt.jpg","",""
"3758.1499999942025","","","recognition","survey-text","254","988016","0.0-6.0-3.35","3154169","co38251","norming","","","{""guess"":""stuur""}","","../img/tt/1353tt.jpg","",""
"null","../img/gs/1353gs.jpg","null","reveal","image-keyboard-response","255","990023","0.0-6.0-4.35","3154169","co38251","norming","","","","","","",""
"null","../img/tt/1353tt.jpg","null","mooney2","image-keyboard-response","256","992032","0.0-6.0-5.35","3154169","co38251","norming","","","","","","",""
"2614.1000000061467","","","post_reveal_questions","survey-likert","257","994648","0.0-6.0-6.35","3154169","co38251","norming","","","{""aha"":3}","[0]","../img/tt/1353tt.jpg","",""
"null","<div style=""font-size:60px;""> </div>","null","fixation","html-keyboard-response","258","994852","0.0-6.0-0.36","3154169","co38251","norming","","","","","","",""
"null","../img/tt/549tt.jpg","null","mooney1","image-keyboard-response","259","997857","0.0-6.0-1.36","3154169","co38251","norming","","","","","","",""
"3388.4649999963585","","","post_mooney1_questions","survey-likert","260","1001248","0.0-6.0-2.36","3154169","co38251","norming","","","{""curiosity"":3,""confidence"":0}","[0,1]","../img/tt/549tt.jpg","",""
"733.8900000031572","","","recognition","survey-text","261","1001984","0.0-6.0-3.36","3154169","co38251","norming","","","{""guess"":""""}","","../img/tt/549tt.jpg","",""
"null","../img/gs/549gs.jpg","null","reveal","image-keyboard-response","262","1003993","0.0-6.0-4.36","3154169","co38251","norming","","","","","","",""
"null","../img/tt/549tt.jpg","null","mooney2","image-keyboard-response","263","1005995","0.0-6.0-5.36","3154169","co38251","norming","","","","","","",""
"1747.7250000083586","","","post_reveal_questions","survey-likert","264","1007744","0.0-6.0-6.36","3154169","co38251","norming","","","{""aha"":1}","[0]","../img/tt/549tt.jpg","",""
"null","<div style=""font-size:60px;""> </div>","null","fixation","html-keyboard-response","265","1007947","0.0-6.0-0.37","3154169","co38251","norming","","","","","","",""
"null","../img/tt/1040tt.jpg","null","mooney1","image-keyboard-response","266","1010949","0.0-6.0-1.37","3154169","co38251","norming","","","","","","",""
"5137.820000003558","","","post_mooney1_questions","survey-likert","267","1016088","0.0-6.0-2.37","3154169","co38251","norming","","","{""curiosity"":4,""confidence"":2}","[0,1]","../img/tt/1040tt.jpg","",""
"11382.01499999559","","","recognition","survey-text","268","1027472","0.0-6.0-3.37","3154169","co38251","norming","","","{""guess"":""luipaard""}","","../img/tt/1040tt.jpg","",""
"null","../img/gs/1040gs.jpg","null","reveal","image-keyboard-response","269","1029476","0.0-6.0-4.37","3154169","co38251","norming","","","","","","",""
"null","../img/tt/1040tt.jpg","null","mooney2","image-keyboard-response","270","1031485","0.0-6.0-5.37","3154169","co38251","norming","","","","","","",""
"3327.8399999981048","","","post_reveal_questions","survey-likert","271","1034816","0.0-6.0-6.37","3154169","co38251","norming","","","{""aha"":2}","[0]","../img/tt/1040tt.jpg","",""
"null","<div style=""font-size:60px;""> </div>","null","fixation","html-keyboard-response","272","1035024","0.0-6.0-0.38","3154169","co38251","norming","","","","","","",""
"null","../img/tt/123tt.jpg","null","mooney1","image-keyboard-response","273","1038030","0.0-6.0-1.38","3154169","co38251","norming","","","","","","",""
"5567.525000005844","","","post_mooney1_questions","survey-likert","274","1043599","0.0-6.0-2.38","3154169","co38251","norming","","","{""curiosity"":2,""confidence"":0}","[0,1]","../img/tt/123tt.jpg","",""
"3750.029999995604","","","recognition","survey-text","275","1047350","0.0-6.0-3.38","3154169","co38251","norming","","","{""guess"":""zetel""}","","../img/tt/123tt.jpg","",""
"null","../img/gs/123gs.jpg","null","reveal","image-keyboard-response","276","1049352","0.0-6.0-4.38","3154169","co38251","norming","","","","","","",""
"null","../img/tt/123tt.jpg","null","mooney2","image-keyboard-response","277","1051363","0.0-6.0-5.38","3154169","co38251","norming","","","","","","",""
"1647.955000007758","","","post_reveal_questions","survey-likert","278","1053015","0.0-6.0-6.38","3154169","co38251","norming","","","{""aha"":3}","[0]","../img/tt/123tt.jpg","",""
"null","<div style=""font-size:60px;""> </div>","null","fixation","html-keyboard-response","279","1053224","0.0-6.0-0.39","3154169","co38251","norming","","","","","","",""
"null","../img/tt/1027tt.jpg","null","mooney1","image-keyboard-response","280","1056235","0.0-6.0-1.39","3154169","co38251","norming","","","","","","",""
"3864.8550000069663","","","post_mooney1_questions","survey-likert","281","1060103","0.0-6.0-2.39","3154169","co38251","norming","","","{""curiosity"":5,""confidence"":5}","[0,1]","../img/tt/1027tt.jpg","",""
"3350.034999995958","","","recognition","survey-text","282","1063455","0.0-6.0-3.39","3154169","co38251","norming","","","{""guess"":""koe""}","","../img/tt/1027tt.jpg","",""
"null","../img/gs/1027gs.jpg","null","reveal","image-keyboard-response","283","1065462","0.0-6.0-4.39","3154169","co38251","norming","","","","","","",""
"null","../img/tt/1027tt.jpg","null","mooney2","image-keyboard-response","284","1067464","0.0-6.0-5.39","3154169","co38251","norming","","","","","","",""
"1980.1799999987707","","","post_reveal_questions","survey-likert","285","1069446","0.0-6.0-6.39","3154169","co38251","norming","","","{""aha"":0}","[0]","../img/tt/1027tt.jpg","",""
"null","<div style=""font-size:60px;""> </div>","null","fixation","html-keyboard-response","286","1069654","0.0-6.0-0.40","3154169","co38251","norming","","","","","","",""
"null","../img/tt/1096tt.jpg","null","mooney1","image-keyboard-response","287","1072663","0.0-6.0-1.40","3154169","co38251","norming","","","","","","",""
"6164.290000000503","","","post_mooney1_questions","survey-likert","288","1078831","0.0-6.0-2.40","3154169","co38251","norming","","","{""curiosity"":5,""confidence"":1}","[0,1]","../img/tt/1096tt.jpg","",""
"4070.1799999950454","","","recognition","survey-text","289","1082902","0.0-6.0-3.40","3154169","co38251","norming","","","{""guess"":""schuur""}","","../img/tt/1096tt.jpg","",""
"null","../img/gs/1096gs.jpg","null","reveal","image-keyboard-response","290","1084908","0.0-6.0-4.40","3154169","co38251","norming","","","","","","",""
"null","../img/tt/1096tt.jpg","null","mooney2","image-keyboard-response","291","1086914","0.0-6.0-5.40","3154169","co38251","norming","","","","","","",""
"2491.4100000022445","","","post_reveal_questions","survey-likert","292","1089407","0.0-6.0-6.40","3154169","co38251","norming","","","{""aha"":4}","[0]","../img/tt/1096tt.jpg","",""
"null","<div style=""font-size:60px;""> </div>","null","fixation","html-keyboard-response","293","1089612","0.0-6.0-0.41","3154169","co38251","norming","","","","","","",""
"null","../img/tt/1097tt.jpg","null","mooney1","image-keyboard-response","294","1092616","0.0-6.0-1.41","3154169","co38251","norming","","","","","","",""
"4571.769999994896","","","post_mooney1_questions","survey-likert","295","1097191","0.0-6.0-2.41","3154169","co38251","norming","","","{""curiosity"":5,""confidence"":4}","[0,1]","../img/tt/1097tt.jpg","",""
"6574.51000000583","","","recognition","survey-text","296","1103763","0.0-6.0-3.41","3154169","co38251","norming","","","{""guess"":""skir""}","","../img/tt/1097tt.jpg","",""
"null","../img/gs/1097gs.jpg","null","reveal","image-keyboard-response","297","1105765","0.0-6.0-4.41","3154169","co38251","norming","","","","","","",""
"null","../img/tt/1097tt.jpg","null","mooney2","image-keyboard-response","298","1107775","0.0-6.0-5.41","3154169","co38251","norming","","","","","","",""
"2530.4949999989476","","","post_reveal_questions","survey-likert","299","1110307","0.0-6.0-6.41","3154169","co38251","norming","","","{""aha"":6}","[0]","../img/tt/1097tt.jpg","",""
"null","<div style=""font-size:60px;""> </div>","null","fixation","html-keyboard-response","300","1110510","0.0-6.0-0.42","3154169","co38251","norming","","","","","","",""
"null","../img/tt/440tt.jpg","null","mooney1","image-keyboard-response","301","1113516","0.0-6.0-1.42","3154169","co38251","norming","","","","","","",""
"4060.6800000097137","","","post_mooney1_questions","survey-likert","302","1117579","0.0-6.0-2.42","3154169","co38251","norming","","","{""curiosity"":4,""confidence"":0}","[0,1]","../img/tt/440tt.jpg","",""
"910.125000009546","","","recognition","survey-text","303","1118491","0.0-6.0-3.42","3154169","co38251","norming","","","{""guess"":""""}","","../img/tt/440tt.jpg","",""
"null","../img/gs/440gs.jpg","null","reveal","image-keyboard-response","304","1120499","0.0-6.0-4.42","3154169","co38251","norming","","","","","","",""
"null","../img/tt/440tt.jpg","null","mooney2","image-keyboard-response","305","1122508","0.0-6.0-5.42","3154169","co38251","norming","","","","","","",""
"2554.8300000082236","","","post_reveal_questions","survey-likert","306","1125067","0.0-6.0-6.42","3154169","co38251","norming","","","{""aha"":2}","[0]","../img/tt/440tt.jpg","",""
"null","<div style=""font-size:60px;""> </div>","null","fixation","html-keyboard-response","307","1125273","0.0-6.0-0.43","3154169","co38251","norming","","","","","","",""
"null","../img/tt/416tt.jpg","null","mooney1","image-keyboard-response","308","1128279","0.0-6.0-1.43","3154169","co38251","norming","","","","","","",""
"7217.145000002347","","","post_mooney1_questions","survey-likert","309","1135499","0.0-6.0-2.43","3154169","co38251","norming","","","{""curiosity"":3,""confidence"":0}","[0,1]","../img/tt/416tt.jpg","",""
"1189.864999992773","","","recognition","survey-text","310","1136690","0.0-6.0-3.43","3154169","co38251","norming","","","{""guess"":""""}","","../img/tt/416tt.jpg","",""
"null","../img/gs/416gs.jpg","null","reveal","image-keyboard-response","311","1138696","0.0-6.0-4.43","3154169","co38251","norming","","","","","","",""
"null","../img/tt/416tt.jpg","null","mooney2","image-keyboard-response","312","1140706","0.0-6.0-5.43","3154169","co38251","norming","","","","","","",""
"3950.9649999963585","","","post_reveal_questions","survey-likert","313","1144659","0.0-6.0-6.43","3154169","co38251","norming","","","{""aha"":4}","[0]","../img/tt/416tt.jpg","",""
"null","<div style=""font-size:60px;""> </div>","null","fixation","html-keyboard-response","314","1144865","0.0-6.0-0.44","3154169","co38251","norming","","","","","","",""
"null","../img/tt/121tt.jpg","null","mooney1","image-keyboard-response","315","1147872","0.0-6.0-1.44","3154169","co38251","norming","","","","","","",""
"4368.040000000969","","","post_mooney1_questions","survey-likert","316","1152243","0.0-6.0-2.44","3154169","co38251","norming","","","{""curiosity"":5,""confidence"":5}","[0,1]","../img/tt/121tt.jpg","",""
"7581.974999993574","","","recognition","survey-text","317","1159827","0.0-6.0-3.44","3154169","co38251","norming","","","{""guess"":""kangoeroe""}","","../img/tt/121tt.jpg","",""
"null","../img/gs/121gs.jpg","null","reveal","image-keyboard-response","318","1161838","0.0-6.0-4.44","3154169","co38251","norming","","","","","","",""
"null","../img/tt/121tt.jpg","null","mooney2","image-keyboard-response","319","1163848","0.0-6.0-5.44","3154169","co38251","norming","","","","","","",""
"2599.6700000106357","","","post_reveal_questions","survey-likert","320","1166448","0.0-6.0-6.44","3154169","co38251","norming","","","{""aha"":1}","[0]","../img/tt/121tt.jpg","",""
"null","<div style=""font-size:60px;""> </div>","null","fixation","html-keyboard-response","321","1166652","0.0-6.0-0.45","3154169","co38251","norming","","","","","","",""
"null","../img/tt/1171tt.jpg","null","mooney1","image-keyboard-response","322","1169661","0.0-6.0-1.45","3154169","co38251","norming","","","","","","",""
"4064.8050000017975","","","post_mooney1_questions","survey-likert","323","1173728","0.0-6.0-2.45","3154169","co38251","norming","","","{""curiosity"":4,""confidence"":2}","[0,1]","../img/tt/1171tt.jpg","",""
"5918.115000007674","","","recognition","survey-text","324","1179648","0.0-6.0-3.45","3154169","co38251","norming","","","{""guess"":""skelet""}","","../img/tt/1171tt.jpg","",""
"null","../img/gs/1171gs.jpg","null","reveal","image-keyboard-response","325","1181656","0.0-6.0-4.45","3154169","co38251","norming","","","","","","",""
"null","../img/tt/1171tt.jpg","null","mooney2","image-keyboard-response","326","1183667","0.0-6.0-5.45","3154169","co38251","norming","","","","","","",""
"3098.9350000016857","","","post_reveal_questions","survey-likert","327","1186768","0.0-6.0-6.45","3154169","co38251","norming","","","{""aha"":5}","[0]","../img/tt/1171tt.jpg","",""
"null","<div style=""font-size:60px;""> </div>","null","fixation","html-keyboard-response","328","1186972","0.0-6.0-0.46","3154169","co38251","norming","","","","","","",""
"null","../img/tt/1268tt.jpg","null","mooney1","image-keyboard-response","329","1189975","0.0-6.0-1.46","3154169","co38251","norming","","","","","","",""
"5829.995000007097","","","post_mooney1_questions","survey-likert","330","1195808","0.0-6.0-2.46","3154169","co38251","norming","","","{""curiosity"":4,""confidence"":0}","[0,1]","../img/tt/1268tt.jpg","",""
"1101.949999996461","","","recognition","survey-text","331","1196912","0.0-6.0-3.46","3154169","co38251","norming","","","{""guess"":""""}","","../img/tt/1268tt.jpg","",""
"null","../img/gs/1268gs.jpg","null","reveal","image-keyboard-response","332","1198920","0.0-6.0-4.46","3154169","co38251","norming","","","","","","",""
"null","../img/tt/1268tt.jpg","null","mooney2","image-keyboard-response","333","1200921","0.0-6.0-5.46","3154169","co38251","norming","","","","","","",""
"2125.4150000021327","","","post_reveal_questions","survey-likert","334","1203048","0.0-6.0-6.46","3154169","co38251","norming","","","{""aha"":4}","[0]","../img/tt/1268tt.jpg","",""
"null","<div style=""font-size:60px;""> </div>","null","fixation","html-keyboard-response","335","1203255","0.0-6.0-0.47","3154169","co38251","norming","","","","","","",""
"null","../img/tt/055tt.jpg","null","mooney1","image-keyboard-response","336","1206264","0.0-6.0-1.47","3154169","co38251","norming","","","","","","",""
"3645.260000004666","","","post_mooney1_questions","survey-likert","337","1209912","0.0-6.0-2.47","3154169","co38251","norming","","","{""curiosity"":4,""confidence"":4}","[0,1]","../img/tt/055tt.jpg","",""
"3493.6750000054017","","","recognition","survey-text","338","1213408","0.0-6.0-3.47","3154169","co38251","norming","","","{""guess"":""zadel""}","","../img/tt/055tt.jpg","",""
"null","../img/gs/055gs.jpg","null","reveal","image-keyboard-response","339","1215414","0.0-6.0-4.47","3154169","co38251","norming","","","","","","",""
"null","../img/tt/055tt.jpg","null","mooney2","image-keyboard-response","340","1217416","0.0-6.0-5.47","3154169","co38251","norming","","","","","","",""
"1661.6950000023935","","","post_reveal_questions","survey-likert","341","1219080","0.0-6.0-6.47","3154169","co38251","norming","","","{""aha"":2}","[0]","../img/tt/055tt.jpg","",""
"null","<div style=""font-size:60px;""> </div>","null","fixation","html-keyboard-response","342","1219287","0.0-6.0-0.48","3154169","co38251","norming","","","","","","",""
"null","../img/tt/1122tt.jpg","null","mooney1","image-keyboard-response","343","1222298","0.0-6.0-1.48","3154169","co38251","norming","","","","","","",""
"4003.144999995129","","","post_mooney1_questions","survey-likert","344","1226304","0.0-6.0-2.48","3154169","co38251","norming","","","{""curiosity"":4,""confidence"":4}","[0,1]","../img/tt/1122tt.jpg","",""
"4926.200000001583","","","recognition","survey-text","345","1231232","0.0-6.0-3.48","3154169","co38251","norming","","","{""guess"":""boten""}","","../img/tt/1122tt.jpg","",""
"null","../img/gs/1122gs.jpg","null","reveal","image-keyboard-response","346","1233238","0.0-6.0-4.48","3154169","co38251","norming","","","","","","",""
"null","../img/tt/1122tt.jpg","null","mooney2","image-keyboard-response","347","1235245","0.0-6.0-5.48","3154169","co38251","norming","","","","","","",""
"1816.5449999941047","","","post_reveal_questions","survey-likert","348","1237064","0.0-6.0-6.48","3154169","co38251","norming","","","{""aha"":1}","[0]","../img/tt/1122tt.jpg","",""
"null","<div style=""font-size:60px;""> </div>","null","fixation","html-keyboard-response","349","1237267","0.0-6.0-0.49","3154169","co38251","norming","","","","","","",""
"null","../img/tt/552tt.jpg","null","mooney1","image-keyboard-response","350","1240276","0.0-6.0-1.49","3154169","co38251","norming","","","","","","",""
"3825.205000001006","","","post_mooney1_questions","survey-likert","351","1244104","0.0-6.0-2.49","3154169","co38251","norming","","","{""curiosity"":4,""confidence"":4}","[0,1]","../img/tt/552tt.jpg","",""
"5501.969999997644","","","recognition","survey-text","352","1249608","0.0-6.0-3.49","3154169","co38251","norming","","","{""guess"":""raccoon""}","","../img/tt/552tt.jpg","",""
"null","../img/gs/552gs.jpg","null","reveal","image-keyboard-response","353","1251618","0.0-6.0-4.49","3154169","co38251","norming","","","","","","",""
"null","../img/tt/552tt.jpg","null","mooney2","image-keyboard-response","354","1253623","0.0-6.0-5.49","3154169","co38251","norming","","","","","","",""
"2126.329999999143","","","post_reveal_questions","survey-likert","355","1255752","0.0-6.0-6.49","3154169","co38251","norming","","","{""aha"":0}","[0]","../img/tt/552tt.jpg","",""
"null","<div style=""font-size:60px;""> </div>","null","fixation","html-keyboard-response","356","1255955","0.0-6.0-0.50","3154169","co38251","norming","","","","","","",""
"null","../img/tt/010tt.jpg","null","mooney1","image-keyboard-response","357","1258967","0.0-6.0-1.50","3154169","co38251","norming","","","","","","",""
"5087.529999989783","","","post_mooney1_questions","survey-likert","358","1264056","0.0-6.0-2.50","3154169","co38251","norming","","","{""curiosity"":5,""confidence"":0}","[0,1]","../img/tt/010tt.jpg","",""
"1485.9350000042468","","","recognition","survey-text","359","1265544","0.0-6.0-3.50","3154169","co38251","norming","","","{""guess"":""""}","","../img/tt/010tt.jpg","",""
"null","../img/gs/010gs.jpg","null","reveal","image-keyboard-response","360","1267551","0.0-6.0-4.50","3154169","co38251","norming","","","","","","",""
"null","../img/tt/010tt.jpg","null","mooney2","image-keyboard-response","361","1269555","0.0-6.0-5.50","3154169","co38251","norming","","","","","","",""
"2554.0299999993294","","","post_reveal_questions","survey-likert","362","1272112","0.0-6.0-6.50","3154169","co38251","norming","","","{""aha"":3}","[0]","../img/tt/010tt.jpg","",""
"null","<div style=""font-size:60px;""> </div>","null","fixation","html-keyboard-response","363","1272322","0.0-6.0-0.51","3154169","co38251","norming","","","","","","",""
"null","../img/tt/1173tt.jpg","null","mooney1","image-keyboard-response","364","1275325","0.0-6.0-1.51","3154169","co38251","norming","","","","","","",""
"4712.104999998584","","","post_mooney1_questions","survey-likert","365","1280040","0.0-6.0-2.51","3154169","co38251","norming","","","{""curiosity"":5,""confidence"":5}","[0,1]","../img/tt/1173tt.jpg","",""
"7430.030000003288","","","recognition","survey-text","366","1287465","0.0-6.0-3.51","3154169","co38251","norming","","","{""guess"":""hockeyspelers""}","","../img/tt/1173tt.jpg","",""
"null","../img/gs/1173gs.jpg","null","reveal","image-keyboard-response","367","1289466","0.0-6.0-4.51","3154169","co38251","norming","","","","","","",""
"null","../img/tt/1173tt.jpg","null","mooney2","image-keyboard-response","368","1291475","0.0-6.0-5.51","3154169","co38251","norming","","","","","","",""
"2819.9199999945704","","","post_reveal_questions","survey-likert","369","1294297","0.0-6.0-6.51","3154169","co38251","norming","","","{""aha"":0}","[0]","../img/tt/1173tt.jpg","",""
"null","<div style=""font-size:60px;""> </div>","null","fixation","html-keyboard-response","370","1294503","0.0-6.0-0.52","3154169","co38251","norming","","","","","","",""
"null","../img/tt/559tt.jpg","null","mooney1","image-keyboard-response","371","1297513","0.0-6.0-1.52","3154169","co38251","norming","","","","","","",""
"3805.6950000026263","","","post_mooney1_questions","survey-likert","372","1301321","0.0-6.0-2.52","3154169","co38251","norming","","","{""curiosity"":5,""confidence"":4}","[0,1]","../img/tt/559tt.jpg","",""
"6022.100000001956","","","recognition","survey-text","373","1307345","0.0-6.0-3.52","3154169","co38251","norming","","","{""guess"":""naaimachine""}","","../img/tt/559tt.jpg","",""
"null","../img/gs/559gs.jpg","null","reveal","image-keyboard-response","374","1309350","0.0-6.0-4.52","3154169","co38251","norming","","","","","","",""
"null","../img/tt/559tt.jpg","null","mooney2","image-keyboard-response","375","1311353","0.0-6.0-5.52","3154169","co38251","norming","","","","","","",""
"2613.7199999941513","","","post_reveal_questions","survey-likert","376","1313969","0.0-6.0-6.52","3154169","co38251","norming","","","{""aha"":1}","[0]","../img/tt/559tt.jpg","",""
"null","<div style=""font-size:60px;""> </div>","null","fixation","html-keyboard-response","377","1314172","0.0-6.0-0.53","3154169","co38251","norming","","","","","","",""
"null","../img/tt/135tt.jpg","null","mooney1","image-keyboard-response","378","1317179","0.0-6.0-1.53","3154169","co38251","norming","","","","","","",""
"4962.525000010151","","","post_mooney1_questions","survey-likert","379","1322145","0.0-6.0-2.53","3154169","co38251","norming","","","{""curiosity"":4,""confidence"":5}","[0,1]","../img/tt/135tt.jpg","",""
"7773.929999995744","","","recognition","survey-text","380","1329921","0.0-6.0-3.53","3154169","co38251","norming","","","{""guess"":""toiletbril""}","","../img/tt/135tt.jpg","",""
"null","../img/gs/135gs.jpg","null","reveal","image-keyboard-response","381","1331922","0.0-6.0-4.53","3154169","co38251","norming","","","","","","",""
"null","../img/tt/135tt.jpg","null","mooney2","image-keyboard-response","382","1333932","0.0-6.0-5.53","3154169","co38251","norming","","","","","","",""
"3020.1799999922514","","","post_reveal_questions","survey-likert","383","1336953","0.0-6.0-6.53","3154169","co38251","norming","","","{""aha"":1}","[0]","../img/tt/135tt.jpg","",""
"null","<div style=""font-size:60px;""> </div>","null","fixation","html-keyboard-response","384","1337162","0.0-6.0-0.54","3154169","co38251","norming","","","","","","",""
"null","../img/tt/105tt.jpg","null","mooney1","image-keyboard-response","385","1340172","0.0-6.0-1.54","3154169","co38251","norming","","","","","","",""
"5017.940000005299","","","post_mooney1_questions","survey-likert","386","1345196","0.0-6.0-2.54","3154169","co38251","norming","","","{""curiosity"":5,""confidence"":5}","[0,1]","../img/tt/105tt.jpg","",""
"5414.069999998901","","","recognition","survey-text","387","1350612","0.0-6.0-3.54","3154169","co38251","norming","","","{""guess"":""paperclips""}","","../img/tt/105tt.jpg","",""
"null","../img/gs/105gs.jpg","null","reveal","image-keyboard-response","388","1352616","0.0-6.0-4.54","3154169","co38251","norming","","","","","","",""
"null","../img/tt/105tt.jpg","null","mooney2","image-keyboard-response","389","1354620","0.0-6.0-5.54","3154169","co38251","norming","","","","","","",""
"2085.57500000461","","","post_reveal_questions","survey-likert","390","1356708","0.0-6.0-6.54","3154169","co38251","norming","","","{""aha"":0}","[0]","../img/tt/105tt.jpg","",""
"null","<div style=""font-size:60px;""> </div>","null","fixation","html-keyboard-response","391","1356915","0.0-6.0-0.55","3154169","co38251","norming","","","","","","",""
"null","../img/tt/194tt.jpg","null","mooney1","image-keyboard-response","392","1359926","0.0-6.0-1.55","3154169","co38251","norming","","","","","","",""
"6259.130000005942","","","post_mooney1_questions","survey-likert","393","1366188","0.0-6.0-2.55","3154169","co38251","norming","","","{""curiosity"":6,""confidence"":3}","[0,1]","../img/tt/194tt.jpg","",""
"8253.740000000224","","","recognition","survey-text","394","1374444","0.0-6.0-3.55","3154169","co38251","norming","","","{""guess"":""huilend meisje""}","","../img/tt/194tt.jpg","",""
"null","../img/gs/194gs.jpg","null","reveal","image-keyboard-response","395","1376447","0.0-6.0-4.55","3154169","co38251","norming","","","","","","",""
"null","../img/tt/194tt.jpg","null","mooney2","image-keyboard-response","396","1378450","0.0-6.0-5.55","3154169","co38251","norming","","","","","","",""
"1799.2900000098161","","","post_reveal_questions","survey-likert","397","1380252","0.0-6.0-6.55","3154169","co38251","norming","","","{""aha"":4}","[0]","../img/tt/194tt.jpg","",""
"null","<div style=""font-size:60px;""> </div>","null","fixation","html-keyboard-response","398","1380456","0.0-6.0-0.56","3154169","co38251","norming","","","","","","",""
"null","../img/tt/1046tt.jpg","null","mooney1","image-keyboard-response","399","1383461","0.0-6.0-1.56","3154169","co38251","norming","","","","","","",""
"6148.365000000922","","","post_mooney1_questions","survey-likert","400","1389612","0.0-6.0-2.56","3154169","co38251","norming","","","{""curiosity"":2,""confidence"":0}","[0,1]","../img/tt/1046tt.jpg","",""
"1414.0199999962933","","","recognition","survey-text","401","1391028","0.0-6.0-3.56","3154169","co38251","norming","","","{""guess"":""""}","","../img/tt/1046tt.jpg","",""
"null","../img/gs/1046gs.jpg","null","reveal","image-keyboard-response","402","1393037","0.0-6.0-4.56","3154169","co38251","norming","","","","","","",""
"null","../img/tt/1046tt.jpg","null","mooney2","image-keyboard-response","403","1395041","0.0-6.0-5.56","3154169","co38251","norming","","","","","","",""
"3336.1900000018068","","","post_reveal_questions","survey-likert","404","1398380","0.0-6.0-6.56","3154169","co38251","norming","","","{""aha"":3}","[0]","../img/tt/1046tt.jpg","",""
"null","<div style=""font-size:60px;""> </div>","null","fixation","html-keyboard-response","405","1398590","0.0-6.0-0.57","3154169","co38251","norming","","","","","","",""
"null","../img/tt/111tt.jpg","null","mooney1","image-keyboard-response","406","1401591","0.0-6.0-1.57","3154169","co38251","norming","","","","","","",""
"3937.634999994654","","","post_mooney1_questions","survey-likert","407","1405533","0.0-6.0-2.57","3154169","co38251","norming","","","{""curiosity"":3,""confidence"":5}","[0,1]","../img/tt/111tt.jpg","",""
"6325.775000005029","","","recognition","survey-text","408","1411860","0.0-6.0-3.57","3154169","co38251","norming","","","{""guess"":""douchekop""}","","../img/tt/111tt.jpg","",""
"null","../img/gs/111gs.jpg","null","reveal","image-keyboard-response","409","1413863","0.0-6.0-4.57","3154169","co38251","norming","","","","","","",""
"null","../img/tt/111tt.jpg","null","mooney2","image-keyboard-response","410","1415865","0.0-6.0-5.57","3154169","co38251","norming","","","","","","",""
"4400.59000000474","","","post_reveal_questions","survey-likert","411","1420269","0.0-6.0-6.57","3154169","co38251","norming","","","{""aha"":1}","[0]","../img/tt/111tt.jpg","",""
"null","<div style=""font-size:60px;""> </div>","null","fixation","html-keyboard-response","412","1420477","0.0-6.0-0.58","3154169","co38251","norming","","","","","","",""
"null","../img/tt/079tt.jpg","null","mooney1","image-keyboard-response","413","1423480","0.0-6.0-1.58","3154169","co38251","norming","","","","","","",""
"4489.860000001732","","","post_mooney1_questions","survey-likert","414","1427973","0.0-6.0-2.58","3154169","co38251","norming","","","{""curiosity"":3,""confidence"":6}","[0,1]","../img/tt/079tt.jpg","",""
"4510.040000008419","","","recognition","survey-text","415","1432484","0.0-6.0-3.58","3154169","co38251","norming","","","{""guess"":""beer""}","","../img/tt/079tt.jpg","",""
"null","../img/gs/079gs.jpg","null","reveal","image-keyboard-response","416","1434491","0.0-6.0-4.58","3154169","co38251","norming","","","","","","",""
"null","../img/tt/079tt.jpg","null","mooney2","image-keyboard-response","417","1436493","0.0-6.0-5.58","3154169","co38251","norming","","","","","","",""
"3493.555000008084","","","post_reveal_questions","survey-likert","418","1439989","0.0-6.0-6.58","3154169","co38251","norming","","","{""aha"":0}","[0]","../img/tt/079tt.jpg","",""
"null","<div style=""font-size:60px;""> </div>","null","fixation","html-keyboard-response","419","1440198","0.0-6.0-0.59","3154169","co38251","norming","","","","","","",""
"null","../img/tt/1234tt.jpg","null","mooney1","image-keyboard-response","420","1443209","0.0-6.0-1.59","3154169","co38251","norming","","","","","","",""
"4520.66500000353","","","post_mooney1_questions","survey-likert","421","1447733","0.0-6.0-2.59","3154169","co38251","norming","","","{""curiosity"":3,""confidence"":4}","[0,1]","../img/tt/1234tt.jpg","",""
"6894.029999995604","","","recognition","survey-text","422","1454628","0.0-6.0-3.59","3154169","co38251","norming","","","{""guess"":""veerboot""}","","../img/tt/1234tt.jpg","",""
"null","../img/gs/1234gs.jpg","null","reveal","image-keyboard-response","423","1456630","0.0-6.0-4.59","3154169","co38251","norming","","","","","","",""
"null","../img/tt/1234tt.jpg","null","mooney2","image-keyboard-response","424","1458639","0.0-6.0-5.59","3154169","co38251","norming","","","","","","",""
"2106.6500000017695","","","post_reveal_questions","survey-likert","425","1460748","0.0-6.0-6.59","3154169","co38251","norming","","","{""aha"":4}","[0]","../img/tt/1234tt.jpg","",""
"null","<div style=""font-size:60px;""> </div>","null","fixation","html-keyboard-response","426","1460951","0.0-6.0-0.60","3154169","co38251","norming","","","","","","",""
"null","../img/tt/357tt.jpg","null","mooney1","image-keyboard-response","427","1463958","0.0-6.0-1.60","3154169","co38251","norming","","","","","","",""
"4759.700000009732","","","post_mooney1_questions","survey-likert","428","1468720","0.0-6.0-2.60","3154169","co38251","norming","","","{""curiosity"":3,""confidence"":0}","[0,1]","../img/tt/357tt.jpg","",""
"1046.1499999945518","","","recognition","survey-text","429","1469768","0.0-6.0-3.60","3154169","co38251","norming","","","{""guess"":""""}","","../img/tt/357tt.jpg","",""
"null","../img/gs/357gs.jpg","null","reveal","image-keyboard-response","430","1471776","0.0-6.0-4.60","3154169","co38251","norming","","","","","","",""
"null","../img/tt/357tt.jpg","null","mooney2","image-keyboard-response","431","1473784","0.0-6.0-5.60","3154169","co38251","norming","","","","","","",""
"2405.5800000058953","","","post_reveal_questions","survey-likert","432","1476193","0.0-6.0-6.60","3154169","co38251","norming","","","{""aha"":3}","[0]","../img/tt/357tt.jpg","",""
"null","<div style=""font-size:60px;""> </div>","null","fixation","html-keyboard-response","433","1476394","0.0-6.0-0.61","3154169","co38251","norming","","","","","","",""
"null","../img/tt/1069tt.jpg","null","mooney1","image-keyboard-response","434","1479406","0.0-6.0-1.61","3154169","co38251","norming","","","","","","",""
"3359.0999999870546","","","post_mooney1_questions","survey-likert","435","1482768","0.0-6.0-2.61","3154169","co38251","norming","","","{""curiosity"":4,""confidence"":4}","[0,1]","../img/tt/1069tt.jpg","",""
"4414.154999991413","","","recognition","survey-text","436","1487184","0.0-6.0-3.61","3154169","co38251","norming","","","{""guess"":""uil""}","","../img/tt/1069tt.jpg","",""
"null","../img/gs/1069gs.jpg","null","reveal","image-keyboard-response","437","1489192","0.0-6.0-4.61","3154169","co38251","norming","","","","","","",""
"null","../img/tt/1069tt.jpg","null","mooney2","image-keyboard-response","438","1491196","0.0-6.0-5.61","3154169","co38251","norming","","","","","","",""
"2473.9649999975227","","","post_reveal_questions","survey-likert","439","1493672","0.0-6.0-6.61","3154169","co38251","norming","","","{""aha"":4}","[0]","../img/tt/1069tt.jpg","",""
"null","<div style=""font-size:60px;""> </div>","null","fixation","html-keyboard-response","440","1493877","0.0-6.0-0.62","3154169","co38251","norming","","","","","","",""
"null","../img/tt/053tt.jpg","null","mooney1","image-keyboard-response","441","1496884","0.0-6.0-1.62","3154169","co38251","norming","","","","","","",""
"5467.290000000503","","","post_mooney1_questions","survey-likert","442","1502353","0.0-6.0-2.62","3154169","co38251","norming","","","{""curiosity"":4,""confidence"":5}","[0,1]","../img/tt/053tt.jpg","",""
"4629.780000002822","","","recognition","survey-text","443","1506984","0.0-6.0-3.62","3154169","co38251","norming","","","{""guess"":""surfers""}","","../img/tt/053tt.jpg","",""
"null","../img/gs/053gs.jpg","null","reveal","image-keyboard-response","444","1508985","0.0-6.0-4.62","3154169","co38251","norming","","","","","","",""
"null","../img/tt/053tt.jpg","null","mooney2","image-keyboard-response","445","1510995","0.0-6.0-5.62","3154169","co38251","norming","","","","","","",""
"2203.3350000127684","","","post_reveal_questions","survey-likert","446","1513200","0.0-6.0-6.62","3154169","co38251","norming","","","{""aha"":4}","[0]","../img/tt/053tt.jpg","",""
"null","<div style=""font-size:60px;""> </div>","null","fixation","html-keyboard-response","447","1513403","0.0-6.0-0.63","3154169","co38251","norming","","","","","","",""
"null","../img/tt/020tt.jpg","null","mooney1","image-keyboard-response","448","1516409","0.0-6.0-1.63","3154169","co38251","norming","","","","","","",""
"4636.165000003297","","","post_mooney1_questions","survey-likert","449","1521049","0.0-6.0-2.63","3154169","co38251","norming","","","{""curiosity"":2,""confidence"":3}","[0,1]","../img/tt/020tt.jpg","",""
"3589.9950000022072","","","recognition","survey-text","450","1524635","0.0-6.0-3.63","3154169","co38251","norming","","","{""guess"":""man""}","","../img/tt/020tt.jpg","",""
"null","../img/gs/020gs.jpg","null","reveal","image-keyboard-response","451","1526645","0.0-6.0-4.63","3154169","co38251","norming","","","","","","",""
"null","../img/tt/020tt.jpg","null","mooney2","image-keyboard-response","452","1528647","0.0-6.0-5.63","3154169","co38251","norming","","","","","","",""
"2066.4749999996275","","","post_reveal_questions","survey-likert","453","1530716","0.0-6.0-6.63","3154169","co38251","norming","","","{""aha"":0}","[0]","../img/tt/020tt.jpg","",""
"null","<div style=""font-size:60px;""> </div>","null","fixation","html-keyboard-response","454","1530918","0.0-6.0-0.64","3154169","co38251","norming","","","","","","",""
"null","../img/tt/1066tt.jpg","null","mooney1","image-keyboard-response","455","1533927","0.0-6.0-1.64","3154169","co38251","norming","","","","","","",""
"3393.0399999953806","","","post_mooney1_questions","survey-likert","456","1537324","0.0-6.0-2.64","3154169","co38251","norming","","","{""curiosity"":4,""confidence"":5}","[0,1]","../img/tt/1066tt.jpg","",""
"3005.715000006603","","","recognition","survey-text","457","1540331","0.0-6.0-3.64","3154169","co38251","norming","","","{""guess"":""bus""}","","../img/tt/1066tt.jpg","",""
"null","../img/gs/1066gs.jpg","null","reveal","image-keyboard-response","458","1542336","0.0-6.0-4.64","3154169","co38251","norming","","","","","","",""
"null","../img/tt/1066tt.jpg","null","mooney2","image-keyboard-response","459","1544338","0.0-6.0-5.64","3154169","co38251","norming","","","","","","",""
"5982.715000005439","","","post_reveal_questions","survey-likert","460","1550323","0.0-6.0-6.64","3154169","co38251","norming","","","{""aha"":1}","[0]","../img/tt/1066tt.jpg","",""
"null","<div style=""font-size:60px;""> </div>","null","fixation","html-keyboard-response","461","1550531","0.0-6.0-0.65","3154169","co38251","norming","","","","","","",""
"null","../img/tt/1043tt.jpg","null","mooney1","image-keyboard-response","462","1553540","0.0-6.0-1.65","3154169","co38251","norming","","","","","","",""
"4188.815000001341","","","post_mooney1_questions","survey-likert","463","1557732","0.0-6.0-2.65","3154169","co38251","norming","","","{""curiosity"":3,""confidence"":0}","[0,1]","../img/tt/1043tt.jpg","",""
"677.8449999983422","","","recognition","survey-text","464","1558411","0.0-6.0-3.65","3154169","co38251","norming","","","{""guess"":""""}","","../img/tt/1043tt.jpg","",""
"null","../img/gs/1043gs.jpg","null","reveal","image-keyboard-response","465","1560415","0.0-6.0-4.65","3154169","co38251","norming","","","","","","",""
"null","../img/tt/1043tt.jpg","null","mooney2","image-keyboard-response","466","1562416","0.0-6.0-5.65","3154169","co38251","norming","","","","","","",""
"1920.5350000120234","","","post_reveal_questions","survey-likert","467","1564339","0.0-6.0-6.65","3154169","co38251","norming","","","{""aha"":2}","[0]","../img/tt/1043tt.jpg","",""
"null","<div style=""font-size:60px;""> </div>","null","fixation","html-keyboard-response","468","1564546","0.0-6.0-0.66","3154169","co38251","norming","","","","","","",""
"null","../img/tt/1189tt.jpg","null","mooney1","image-keyboard-response","469","1567553","0.0-6.0-1.66","3154169","co38251","norming","","","","","","",""
"5343.199999988545","","","post_mooney1_questions","survey-likert","470","1572899","0.0-6.0-2.66","3154169","co38251","norming","","","{""curiosity"":2,""confidence"":0}","[0,1]","../img/tt/1189tt.jpg","",""
"726.3450000029989","","","recognition","survey-text","471","1573627","0.0-6.0-3.66","3154169","co38251","norming","","","{""guess"":""""}","","../img/tt/1189tt.jpg","",""
"null","../img/gs/1189gs.jpg","null","reveal","image-keyboard-response","472","1575634","0.0-6.0-4.66","3154169","co38251","norming","","","","","","",""
"null","../img/tt/1189tt.jpg","null","mooney2","image-keyboard-response","473","1577636","0.0-6.0-5.66","3154169","co38251","norming","","","","","","",""
"2366.0850000013597","","","post_reveal_questions","survey-likert","474","1580003","0.0-6.0-6.66","3154169","co38251","norming","","","{""aha"":3}","[0]","../img/tt/1189tt.jpg","",""
"null","<div style=""font-size:60px;""> </div>","null","fixation","html-keyboard-response","475","1580206","0.0-6.0-0.67","3154169","co38251","norming","","","","","","",""
"null","../img/tt/477tt.jpg","null","mooney1","image-keyboard-response","476","1583212","0.0-6.0-1.67","3154169","co38251","norming","","","","","","",""
"5388.445000004023","","","post_mooney1_questions","survey-likert","477","1588600","0.0-6.0-2.67","3154169","co38251","norming","","","{""curiosity"":3,""confidence"":2}","[0,1]","../img/tt/477tt.jpg","",""
"5542.07000001031","","","recognition","survey-text","478","1594144","0.0-6.0-3.67","3154169","co38251","norming","","","{""guess"":""burrito""}","","../img/tt/477tt.jpg","",""
"null","../img/gs/477gs.jpg","null","reveal","image-keyboard-response","479","1596151","0.0-6.0-4.67","3154169","co38251","norming","","","","","","",""
"null","../img/tt/477tt.jpg","null","mooney2","image-keyboard-response","480","1598159","0.0-6.0-5.67","3154169","co38251","norming","","","","","","",""
"2863.0999999875203","","","post_reveal_questions","survey-likert","481","1601024","0.0-6.0-6.67","3154169","co38251","norming","","","{""aha"":2}","[0]","../img/tt/477tt.jpg","",""
"null","<div style=""font-size:60px;""> </div>","null","fixation","html-keyboard-response","482","1601234","0.0-6.0-0.68","3154169","co38251","norming","","","","","","",""
"null","../img/tt/060tt.jpg","null","mooney1","image-keyboard-response","483","1604242","0.0-6.0-1.68","3154169","co38251","norming","","","","","","",""
"3746.7849999957252","","","post_mooney1_questions","survey-likert","484","1607992","0.0-6.0-2.68","3154169","co38251","norming","","","{""curiosity"":2,""confidence"":3}","[0,1]","../img/tt/060tt.jpg","",""
"3886.1100000066217","","","recognition","survey-text","485","1611880","0.0-6.0-3.68","3154169","co38251","norming","","","{""guess"":""riem""}","","../img/tt/060tt.jpg","",""
"null","../img/gs/060gs.jpg","null","reveal","image-keyboard-response","486","1613885","0.0-6.0-4.68","3154169","co38251","norming","","","","","","",""
"null","../img/tt/060tt.jpg","null","mooney2","image-keyboard-response","487","1615892","0.0-6.0-5.68","3154169","co38251","norming","","","","","","",""
"2281.3499999903142","","","post_reveal_questions","survey-likert","488","1618176","0.0-6.0-6.68","3154169","co38251","norming","","","{""aha"":4}","[0]","../img/tt/060tt.jpg","",""
"null","<div style=""font-size:60px;""> </div>","null","fixation","html-keyboard-response","489","1618384","0.0-6.0-0.69","3154169","co38251","norming","","","","","","",""
"null","../img/tt/301tt.jpg","null","mooney1","image-keyboard-response","490","1621395","0.0-6.0-1.69","3154169","co38251","norming","","","","","","",""
"3922.239999999758","","","post_mooney1_questions","survey-likert","491","1625320","0.0-6.0-2.69","3154169","co38251","norming","","","{""curiosity"":2,""confidence"":3}","[0,1]","../img/tt/301tt.jpg","",""
"6270.020000010729","","","recognition","survey-text","492","1631592","0.0-6.0-3.69","3154169","co38251","norming","","","{""guess"":""cinemazaal""}","","../img/tt/301tt.jpg","",""
"null","../img/gs/301gs.jpg","null","reveal","image-keyboard-response","493","1633598","0.0-6.0-4.69","3154169","co38251","norming","","","","","","",""
"null","../img/tt/301tt.jpg","null","mooney2","image-keyboard-response","494","1635607","0.0-6.0-5.69","3154169","co38251","norming","","","","","","",""
"2118.614999999525","","","post_reveal_questions","survey-likert","495","1637729","0.0-6.0-6.69","3154169","co38251","norming","","","{""aha"":4}","[0]","../img/tt/301tt.jpg","",""
"null","<div style=""font-size:60px;""> </div>","null","fixation","html-keyboard-response","496","1637936","0.0-6.0-0.70","3154169","co38251","norming","","","","","","",""
"null","../img/tt/1224tt.jpg","null","mooney1","image-keyboard-response","497","1640944","0.0-6.0-1.70","3154169","co38251","norming","","","","","","",""
"5222.515000001527","","","post_mooney1_questions","survey-likert","498","1646168","0.0-6.0-2.70","3154169","co38251","norming","","","{""curiosity"":6,""confidence"":3}","[0,1]","../img/tt/1224tt.jpg","",""
"9389.934999999357","","","recognition","survey-text","499","1655565","0.0-6.0-3.70","3154169","co38251","norming","","","{""guess"":""basketbalspeler""}","","../img/tt/1224tt.jpg","",""
"null","../img/gs/1224gs.jpg","null","reveal","image-keyboard-response","500","1657574","0.0-6.0-4.70","3154169","co38251","norming","","","","","","",""
"null","../img/tt/1224tt.jpg","null","mooney2","image-keyboard-response","501","1659585","0.0-6.0-5.70","3154169","co38251","norming","","","","","","",""
"3065.419999998994","","","post_reveal_questions","survey-likert","502","1662653","0.0-6.0-6.70","3154169","co38251","norming","","","{""aha"":3}","[0]","../img/tt/1224tt.jpg","",""
"null","<div style=""font-size:60px;""> </div>","null","fixation","html-keyboard-response","503","1662855","0.0-6.0-0.71","3154169","co38251","norming","","","","","","",""
"null","../img/tt/1146tt.jpg","null","mooney1","image-keyboard-response","504","1665858","0.0-6.0-1.71","3154169","co38251","norming","","","","","","",""
"5360.010000003967","","","post_mooney1_questions","survey-likert","505","1671221","0.0-6.0-2.71","3154169","co38251","norming","","","{""curiosity"":5,""confidence"":3}","[0,1]","../img/tt/1146tt.jpg","",""
"3725.9950000008103","","","recognition","survey-text","506","1674949","0.0-6.0-3.71","3154169","co38251","norming","","","{""guess"":""brug""}","","../img/tt/1146tt.jpg","",""
"null","../img/gs/1146gs.jpg","null","reveal","image-keyboard-response","507","1676950","0.0-6.0-4.71","3154169","co38251","norming","","","","","","",""
"null","../img/tt/1146tt.jpg","null","mooney2","image-keyboard-response","508","1678954","0.0-6.0-5.71","3154169","co38251","norming","","","","","","",""
"2730.234999995446","","","post_reveal_questions","survey-likert","509","1681685","0.0-6.0-6.71","3154169","co38251","norming","","","{""aha"":4}","[0]","../img/tt/1146tt.jpg","",""
"null","<div style=""font-size:60px;""> </div>","null","fixation","html-keyboard-response","510","1681894","0.0-6.0-0.72","3154169","co38251","norming","","","","","","",""
"null","../img/tt/1241tt.jpg","null","mooney1","image-keyboard-response","511","1684899","0.0-6.0-1.72","3154169","co38251","norming","","","","","","",""
"3632.654999994207","","","post_mooney1_questions","survey-likert","512","1688533","0.0-6.0-2.72","3154169","co38251","norming","","","{""curiosity"":3,""confidence"":0}","[0,1]","../img/tt/1241tt.jpg","",""
"573.7999999984168","","","recognition","survey-text","513","1689109","0.0-6.0-3.72","3154169","co38251","norming","","","{""guess"":""""}","","../img/tt/1241tt.jpg","",""
"null","../img/gs/1241gs.jpg","null","reveal","image-keyboard-response","514","1691113","0.0-6.0-4.72","3154169","co38251","norming","","","","","","",""
"null","../img/tt/1241tt.jpg","null","mooney2","image-keyboard-response","515","1693117","0.0-6.0-5.72","3154169","co38251","norming","","","","","","",""
"2708.695000008447","","","post_reveal_questions","survey-likert","516","1695829","0.0-6.0-6.72","3154169","co38251","norming","","","{""aha"":2}","[0]","../img/tt/1241tt.jpg","",""
"null","<div style=""font-size:60px;""> </div>","null","fixation","html-keyboard-response","517","1696031","0.0-6.0-0.73","3154169","co38251","norming","","","","","","",""
"null","../img/tt/1236tt.jpg","null","mooney1","image-keyboard-response","518","1699038","0.0-6.0-1.73","3154169","co38251","norming","","","","","","",""
"6235.269999990007","","","post_mooney1_questions","survey-likert","519","1705277","0.0-6.0-2.73","3154169","co38251","norming","","","{""curiosity"":3,""confidence"":1}","[0,1]","../img/tt/1236tt.jpg","",""
"4301.990000007208","","","recognition","survey-text","520","1709584","0.0-6.0-3.73","3154169","co38251","norming","","","{""guess"":""vogel""}","","../img/tt/1236tt.jpg","",""
"null","../img/gs/1236gs.jpg","null","reveal","image-keyboard-response","521","1711586","0.0-6.0-4.73","3154169","co38251","norming","","","","","","",""
"null","../img/tt/1236tt.jpg","null","mooney2","image-keyboard-response","522","1713588","0.0-6.0-5.73","3154169","co38251","norming","","","","","","",""
"2703.5750000069384","","","post_reveal_questions","survey-likert","523","1716297","0.0-6.0-6.73","3154169","co38251","norming","","","{""aha"":3}","[0]","../img/tt/1236tt.jpg","",""
"null","<div style=""font-size:60px;""> </div>","null","fixation","html-keyboard-response","524","1716498","0.0-6.0-0.74","3154169","co38251","norming","","","","","","",""
"null","../img/tt/1188tt.jpg","null","mooney1","image-keyboard-response","525","1719500","0.0-6.0-1.74","3154169","co38251","norming","","","","","","",""
"7394.469999999274","","","post_mooney1_questions","survey-likert","526","1726898","0.0-6.0-2.74","3154169","co38251","norming","","","{""curiosity"":4,""confidence"":2}","[0,1]","../img/tt/1188tt.jpg","",""
"5636.80500000203","","","recognition","survey-text","527","1732537","0.0-6.0-3.74","3154169","co38251","norming","","","{""guess"":""racetracker""}","","../img/tt/1188tt.jpg","",""
"null","../img/gs/1188gs.jpg","null","reveal","image-keyboard-response","528","1734546","0.0-6.0-4.74","3154169","co38251","norming","","","","","","",""
"null","../img/tt/1188tt.jpg","null","mooney2","image-keyboard-response","529","1736548","0.0-6.0-5.74","3154169","co38251","norming","","","","","","",""
"4090.110000004759","","","post_reveal_questions","survey-likert","530","1740641","0.0-6.0-6.74","3154169","co38251","norming","","","{""aha"":5}","[0]","../img/tt/1188tt.jpg","",""
"null","<div style=""font-size:60px;""> </div>","null","fixation","html-keyboard-response","531","1740843","0.0-6.0-0.75","3154169","co38251","norming","","","","","","",""
"null","../img/tt/481tt.jpg","null","mooney1","image-keyboard-response","532","1743844","0.0-6.0-1.75","3154169","co38251","norming","","","","","","",""
"4225.009999994654","","","post_mooney1_questions","survey-likert","533","1748073","0.0-6.0-2.75","3154169","co38251","norming","","","{""curiosity"":4,""confidence"":5}","[0,1]","../img/tt/481tt.jpg","",""
"4277.675000004703","","","recognition","survey-text","534","1752352","0.0-6.0-3.75","3154169","co38251","norming","","","{""guess"":""hond""}","","../img/tt/481tt.jpg","",""
"null","../img/gs/481gs.jpg","null","reveal","image-keyboard-response","535","1754355","0.0-6.0-4.75","3154169","co38251","norming","","","","","","",""
"null","../img/tt/481tt.jpg","null","mooney2","image-keyboard-response","536","1756357","0.0-6.0-5.75","3154169","co38251","norming","","","","","","",""
"2617.129999998724","","","post_reveal_questions","survey-likert","537","1758976","0.0-6.0-6.75","3154169","co38251","norming","","","{""aha"":5}","[0]","../img/tt/481tt.jpg","",""
"null","<div style=""font-size:60px;""> </div>","null","fixation","html-keyboard-response","538","1759180","0.0-6.0-0.76","3154169","co38251","norming","","","","","","",""
"null","../img/tt/1205tt.jpg","null","mooney1","image-keyboard-response","539","1762189","0.0-6.0-1.76","3154169","co38251","norming","","","","","","",""
"5090.395000006538","","","post_mooney1_questions","survey-likert","540","1767281","0.0-6.0-2.76","3154169","co38251","norming","","","{""curiosity"":4,""confidence"":3}","[0,1]","../img/tt/1205tt.jpg","",""
"4630.109999998007","","","recognition","survey-text","541","1771911","0.0-6.0-3.76","3154169","co38251","norming","","","{""guess"":""podium""}","","../img/tt/1205tt.jpg","",""
"null","../img/gs/1205gs.jpg","null","reveal","image-keyboard-response","542","1773916","0.0-6.0-4.76","3154169","co38251","norming","","","","","","",""
"null","../img/tt/1205tt.jpg","null","mooney2","image-keyboard-response","543","1775924","0.0-6.0-5.76","3154169","co38251","norming","","","","","","",""
"2184.5500000054017","","","post_reveal_questions","survey-likert","544","1778111","0.0-6.0-6.76","3154169","co38251","norming","","","{""aha"":4}","[0]","../img/tt/1205tt.jpg","",""
"null","<div style=""font-size:60px;""> </div>","null","fixation","html-keyboard-response","545","1778314","0.0-6.0-0.77","3154169","co38251","norming","","","","","","",""
"null","../img/tt/1255tt.jpg","null","mooney1","image-keyboard-response","546","1781317","0.0-6.0-1.77","3154169","co38251","norming","","","","","","",""
"4383.320000008214","","","post_mooney1_questions","survey-likert","547","1785703","0.0-6.0-2.77","3154169","co38251","norming","","","{""curiosity"":5,""confidence"":3}","[0,1]","../img/tt/1255tt.jpg","",""
"4382.025000013644","","","recognition","survey-text","548","1790087","0.0-6.0-3.77","3154169","co38251","norming","","","{""guess"":""konijn""}","","../img/tt/1255tt.jpg","",""
"null","../img/gs/1255gs.jpg","null","reveal","image-keyboard-response","549","1792094","0.0-6.0-4.77","3154169","co38251","norming","","","","","","",""
"null","../img/tt/1255tt.jpg","null","mooney2","image-keyboard-response","550","1794105","0.0-6.0-5.77","3154169","co38251","norming","","","","","","",""
"1803.6100000026636","","","post_reveal_questions","survey-likert","551","1795911","0.0-6.0-6.77","3154169","co38251","norming","","","{""aha"":2}","[0]","../img/tt/1255tt.jpg","",""
"null","<div style=""font-size:60px;""> </div>","null","fixation","html-keyboard-response","552","1796113","0.0-6.0-0.78","3154169","co38251","norming","","","","","","",""
