"rt","stimulus","key_press","test_part","trial_type","trial_index","time_elapsed","internal_node_id","totalTime","subject","experiment_name","button_pressed","success","responses","question_order","currentStim","old","correct"
"7803.800000000023","Welcome to the experiment. This is an online experiment so please don't close the tab/window until we say goodbye.  Press any key to begin.","32","instructions","html-keyboard-response","0","7817","0.0-0.0","2841308","co38659","norming","","","","","","",""
"20782.385000000035","<div style='word-wrap: break-word; width: 900px'><h3>Please consider this information carefully before deciding whether to participate in this research</h3><ul style='text-align: left; font-size: .8em;'><li><b>Purpose of the research</b>: To examine how people process images.</li><li><b>What you will do in this research</b>:  Stimuli (images) will be presented on the computer and you will be asked different questions about them.</li><li><b>Time required</b>: Participation will take between 45 and 60 minutes to complete.</li><li><b>Risks</b>:  There are no anticipated risks associated with participating in this study. The effects of participating should be comparable to those you would experience from viewing a computer monitor for 30 minutes and using a mouse or keyboard.</li><li><b>Benefits</b>:  This study provides no benefits to you individually except for the credit. The study provides important information about the nature of perception and learning.</li><li><b>Confidentiality</b>:  Your participation in this study will remain confidential. No personally identifiable information will be associated with your data. Your de-identified data may be shared with other researchers and used in future projects.</li><li><b>Participation and withdrawal</b>:  Your participation in this study is completely voluntary and you may refuse to participate or you may choose to withdraw at any time without penalty.</li><li><b>How to contact the researchers</b>: If you have questions or concerns about your participation or payment, or want to request a summary of research findings, please contact Sander Van de Cruys (KU Leuven), at sander.vandecruys@kuleuven.be.</li></ul><p>The nature and purpose of this research have been sufficiently explained and I agree to participate in this study.  I understand that I am free to withdraw at any time without incurring any penalty.</p><p>Please consent by clicking the button below to continue. Otherwise, please exit the study at this time.</p></div>","","instructions","html-button-response","1","28456","0.0-1.0","2841308","co38659","norming","0","","","","","",""
"","","","instructions","fullscreen","2","39913","0.0-2.0","2841308","co38659","norming","","true","","","","",""
"62069.795000000006","","","sona","survey-html-form","3","101820","0.0-3.0","2841308","co38659","norming","","","[{""name"":""sonaid"",""value"":""38659""},{""name"":""debrief"",""value"":""yes""},{""name"":""datajoin"",""value"":""yes""}]","","","",""
"38963.90500000001","<div style='word-wrap: break-word; width: 900px'><h3>Instructions</h3><p>This experiment will have 3 parts. In the first part you will see a series of distorted images like the one below on the left. As you can see in the righthand image, the distorted images are derived from actual photographs. In what follows, you will <strong>briefly</strong> be presented with <strong>only</strong> the distorted image.</p> <div style='float: left; margin-right: 20px;'><img src='../img/018tt.jpg' height='250' width='250'></img></div><div style='float: right; margin-left: 20px;'><img src='../img/018gs.jpg' height='250' width='250'></img></div><p>Subsequently you will be asked a few questions about the image: One question on how <strong>curious</strong> you are about the solution and one on how <strong>confident</strong> you are that you know the solution.</p>Next, we ask you to make a guess on what is in the image. Note that it is OK to name just the <strong>basic level category</strong>. For example when you see a parrot in the image, 'parrot' will obviously be a correct answer but also correct is 'bird'. However, 'animal' will <strong>not</strong> be counted as a correct response. For the example above, 'rose' would be correct or 'flower', but not 'plant'. When soccer players are depicted, 'soccer', 'football', 'soccer players' will be correct, but not 'humans', 'outdoors', or 'sports'. You do not need to describe the image in full, just name the main object in it <strong>in one or two words</strong>. All images depict objects from one of the following broad level categories: animals, inanimate objects, plants, sports, vehicles, and food. Recognizing means knowing <strong>more</strong> than these broad labels for a given image. But we always encourage you to <strong>make a guess</strong> if you can. Note that you are allowed to use <strong>Dutch and English</strong> in your answers, whatever comes easiest for you.</p><p>Press any key to continue.</p></div>","32","instructions","html-keyboard-response","4","140789","0.0-4.0","2841308","co38659","norming","","","","","","",""
"107086.57000000007","<div style='word-wrap: break-word; width: 900px'><h3>Instructions</h3> <p>Next, the solution image will be revealed to you and you'll be asked to indicate how strong your <strong>aha-experience</strong> was after seeing the solution. This describes the positive feeling of the 'click' you sometimes experience, when the pieces of the 'puzzle' fall together and you suddenly have 'insight' in the image.</p><img src='aha.jpg' height='188' width='250'></img><p>Note that there are no right or wrong answers. We are interested in what <strong>you</strong> see in the image and how <strong>you</strong> feel about it.</p><p>Press any key to start the experiment.</p></div>","32","instructions","html-keyboard-response","5","247517","0.0-5.0","2841308","co38659","norming","","","","","","",""
"null","<div style=""font-size:60px;""> </div>","null","fixation","html-keyboard-response","6","247724","0.0-6.0-0.0","2841308","co38659","norming","","","","","","",""
"null","../img/tt/1272tt.jpg","null","mooney1","image-keyboard-response","7","250726","0.0-6.0-1.0","2841308","co38659","norming","","","","","","",""
"13577.540000000008","","","post_mooney1_questions","survey-likert","8","264308","0.0-6.0-2.0","2841308","co38659","norming","","","{""curiosity"":1,""confidence"":5}","[0,1]","../img/tt/1272tt.jpg","",""
"8220.825000000128","","","recognition","survey-text","9","272531","0.0-6.0-3.0","2841308","co38659","norming","","","{""guess"":""een koe""}","","../img/tt/1272tt.jpg","",""
"null","../img/gs/1272gs.jpg","null","reveal","image-keyboard-response","10","274533","0.0-6.0-4.0","2841308","co38659","norming","","","","","","",""
"null","../img/tt/1272tt.jpg","null","mooney2","image-keyboard-response","11","276541","0.0-6.0-5.0","2841308","co38659","norming","","","","","","",""
"9651.865000000049","","","post_reveal_questions","survey-likert","12","286195","0.0-6.0-6.0","2841308","co38659","norming","","","{""aha"":5}","[0]","../img/tt/1272tt.jpg","",""
"null","<div style=""font-size:60px;""> </div>","null","fixation","html-keyboard-response","13","286399","0.0-6.0-0.1","2841308","co38659","norming","","","","","","",""
"null","../img/tt/1066tt.jpg","null","mooney1","image-keyboard-response","14","289400","0.0-6.0-1.1","2841308","co38659","norming","","","","","","",""
"4546.899999999965","","","post_mooney1_questions","survey-likert","15","293947","0.0-6.0-2.1","2841308","co38659","norming","","","{""curiosity"":6,""confidence"":1}","[0,1]","../img/tt/1066tt.jpg","",""
"9614.13500000001","","","recognition","survey-text","16","303563","0.0-6.0-3.1","2841308","co38659","norming","","","{""guess"":""tuin""}","","../img/tt/1066tt.jpg","",""
"null","../img/gs/1066gs.jpg","null","reveal","image-keyboard-response","17","305567","0.0-6.0-4.1","2841308","co38659","norming","","","","","","",""
"null","../img/tt/1066tt.jpg","null","mooney2","image-keyboard-response","18","307534","0.0-6.0-5.1","2841308","co38659","norming","","","","","","",""
"3974.8950000000186","","","post_reveal_questions","survey-likert","19","311511","0.0-6.0-6.1","2841308","co38659","norming","","","{""aha"":6}","[0]","../img/tt/1066tt.jpg","",""
"null","<div style=""font-size:60px;""> </div>","null","fixation","html-keyboard-response","20","311719","0.0-6.0-0.2","2841308","co38659","norming","","","","","","",""
"null","../img/tt/1261tt.jpg","null","mooney1","image-keyboard-response","21","314727","0.0-6.0-1.2","2841308","co38659","norming","","","","","","",""
"4253.755000000121","","","post_mooney1_questions","survey-likert","22","318983","0.0-6.0-2.2","2841308","co38659","norming","","","{""curiosity"":5,""confidence"":3}","[0,1]","../img/tt/1261tt.jpg","",""
"3846.2050000000745","","","recognition","survey-text","23","322831","0.0-6.0-3.2","2841308","co38659","norming","","","{""guess"":""berg""}","","../img/tt/1261tt.jpg","",""
"null","../img/gs/1261gs.jpg","null","reveal","image-keyboard-response","24","324833","0.0-6.0-4.2","2841308","co38659","norming","","","","","","",""
"null","../img/tt/1261tt.jpg","null","mooney2","image-keyboard-response","25","326837","0.0-6.0-5.2","2841308","co38659","norming","","","","","","",""
"3111.6650000000373","","","post_reveal_questions","survey-likert","26","329951","0.0-6.0-6.2","2841308","co38659","norming","","","{""aha"":6}","[0]","../img/tt/1261tt.jpg","",""
"null","<div style=""font-size:60px;""> </div>","null","fixation","html-keyboard-response","27","330153","0.0-6.0-0.3","2841308","co38659","norming","","","","","","",""
"null","../img/tt/222tt.jpg","null","mooney1","image-keyboard-response","28","333157","0.0-6.0-1.3","2841308","co38659","norming","","","","","","",""
"4471.445000000007","","","post_mooney1_questions","survey-likert","29","337631","0.0-6.0-2.3","2841308","co38659","norming","","","{""curiosity"":6,""confidence"":0}","[0,1]","../img/tt/222tt.jpg","",""
"5566.405000000086","","","recognition","survey-text","30","343199","0.0-6.0-3.3","2841308","co38659","norming","","","{""guess"":""jezus""}","","../img/tt/222tt.jpg","",""
"null","../img/gs/222gs.jpg","null","reveal","image-keyboard-response","31","345207","0.0-6.0-4.3","2841308","co38659","norming","","","","","","",""
"null","../img/tt/222tt.jpg","null","mooney2","image-keyboard-response","32","347218","0.0-6.0-5.3","2841308","co38659","norming","","","","","","",""
"1746.7449999999371","","","post_reveal_questions","survey-likert","33","348967","0.0-6.0-6.3","2841308","co38659","norming","","","{""aha"":6}","[0]","../img/tt/222tt.jpg","",""
"null","<div style=""font-size:60px;""> </div>","null","fixation","html-keyboard-response","34","349169","0.0-6.0-0.4","2841308","co38659","norming","","","","","","",""
"null","../img/tt/019tt.jpg","null","mooney1","image-keyboard-response","35","352173","0.0-6.0-1.4","2841308","co38659","norming","","","","","","",""
"7639.560000000114","","","post_mooney1_questions","survey-likert","36","359815","0.0-6.0-2.4","2841308","co38659","norming","","","{""curiosity"":2,""confidence"":0}","[0,1]","../img/tt/019tt.jpg","",""
"8022.124999999942","","","recognition","survey-text","37","367832","0.0-6.0-3.4","2841308","co38659","norming","","","{""guess"":""weg""}","","../img/tt/019tt.jpg","",""
"null","../img/gs/019gs.jpg","null","reveal","image-keyboard-response","38","369841","0.0-6.0-4.4","2841308","co38659","norming","","","","","","",""
"null","../img/tt/019tt.jpg","null","mooney2","image-keyboard-response","39","371854","0.0-6.0-5.4","2841308","co38659","norming","","","","","","",""
"2544.6700000001","","","post_reveal_questions","survey-likert","40","374401","0.0-6.0-6.4","2841308","co38659","norming","","","{""aha"":6}","[0]","../img/tt/019tt.jpg","",""
"null","<div style=""font-size:60px;""> </div>","null","fixation","html-keyboard-response","41","374607","0.0-6.0-0.5","2841308","co38659","norming","","","","","","",""
"null","../img/tt/1255tt.jpg","null","mooney1","image-keyboard-response","42","377611","0.0-6.0-1.5","2841308","co38659","norming","","","","","","",""
"4724.994999999995","","","post_mooney1_questions","survey-likert","43","382337","0.0-6.0-2.5","2841308","co38659","norming","","","{""curiosity"":4,""confidence"":2}","[0,1]","../img/tt/1255tt.jpg","",""
"1670.070000000007","","","recognition","survey-text","44","384008","0.0-6.0-3.5","2841308","co38659","norming","","","{""guess"":""dier""}","","../img/tt/1255tt.jpg","",""
"null","../img/gs/1255gs.jpg","null","reveal","image-keyboard-response","45","386018","0.0-6.0-4.5","2841308","co38659","norming","","","","","","",""
"null","../img/tt/1255tt.jpg","null","mooney2","image-keyboard-response","46","388021","0.0-6.0-5.5","2841308","co38659","norming","","","","","","",""
"1809.1400000000722","","","post_reveal_questions","survey-likert","47","389832","0.0-6.0-6.5","2841308","co38659","norming","","","{""aha"":1}","[0]","../img/tt/1255tt.jpg","",""
"null","<div style=""font-size:60px;""> </div>","null","fixation","html-keyboard-response","48","390039","0.0-6.0-0.6","2841308","co38659","norming","","","","","","",""
"null","../img/tt/1143tt.jpg","null","mooney1","image-keyboard-response","49","393043","0.0-6.0-1.6","2841308","co38659","norming","","","","","","",""
"4210.569999999949","","","post_mooney1_questions","survey-likert","50","397257","0.0-6.0-2.6","2841308","co38659","norming","","","{""curiosity"":4,""confidence"":4}","[0,1]","../img/tt/1143tt.jpg","",""
"1758.2500000000582","","","recognition","survey-text","51","399016","0.0-6.0-3.6","2841308","co38659","norming","","","{""guess"":""piano""}","","../img/tt/1143tt.jpg","",""
"null","../img/gs/1143gs.jpg","null","reveal","image-keyboard-response","52","401023","0.0-6.0-4.6","2841308","co38659","norming","","","","","","",""
"null","../img/tt/1143tt.jpg","null","mooney2","image-keyboard-response","53","403034","0.0-6.0-5.6","2841308","co38659","norming","","","","","","",""
"4212.369999999995","","","post_reveal_questions","survey-likert","54","407249","0.0-6.0-6.6","2841308","co38659","norming","","","{""aha"":5}","[0]","../img/tt/1143tt.jpg","",""
"null","<div style=""font-size:60px;""> </div>","null","fixation","html-keyboard-response","55","407455","0.0-6.0-0.7","2841308","co38659","norming","","","","","","",""
"null","../img/tt/1217tt.jpg","null","mooney1","image-keyboard-response","56","410460","0.0-6.0-1.7","2841308","co38659","norming","","","","","","",""
"5434.089999999967","","","post_mooney1_questions","survey-likert","57","415897","0.0-6.0-2.7","2841308","co38659","norming","","","{""curiosity"":6,""confidence"":5}","[0,1]","../img/tt/1217tt.jpg","",""
"3518.0849999999627","","","recognition","survey-text","58","419416","0.0-6.0-3.7","2841308","co38659","norming","","","{""guess"":""sport""}","","../img/tt/1217tt.jpg","",""
"null","../img/gs/1217gs.jpg","null","reveal","image-keyboard-response","59","421425","0.0-6.0-4.7","2841308","co38659","norming","","","","","","",""
"null","../img/tt/1217tt.jpg","null","mooney2","image-keyboard-response","60","423427","0.0-6.0-5.7","2841308","co38659","norming","","","","","","",""
"3044.729999999923","","","post_reveal_questions","survey-likert","61","426473","0.0-6.0-6.7","2841308","co38659","norming","","","{""aha"":2}","[0]","../img/tt/1217tt.jpg","",""
"null","<div style=""font-size:60px;""> </div>","null","fixation","html-keyboard-response","62","426674","0.0-6.0-0.8","2841308","co38659","norming","","","","","","",""
"null","../img/tt/380tt.jpg","null","mooney1","image-keyboard-response","63","429683","0.0-6.0-1.8","2841308","co38659","norming","","","","","","",""
"4179.379999999888","","","post_mooney1_questions","survey-likert","64","433864","0.0-6.0-2.8","2841308","co38659","norming","","","{""curiosity"":6,""confidence"":0}","[0,1]","../img/tt/380tt.jpg","",""
"1765.594999999972","","","recognition","survey-text","65","435631","0.0-6.0-3.8","2841308","co38659","norming","","","{""guess"":""paard""}","","../img/tt/380tt.jpg","",""
"null","../img/gs/380gs.jpg","null","reveal","image-keyboard-response","66","437633","0.0-6.0-4.8","2841308","co38659","norming","","","","","","",""
"null","../img/tt/380tt.jpg","null","mooney2","image-keyboard-response","67","439635","0.0-6.0-5.8","2841308","co38659","norming","","","","","","",""
"1508.1049999999814","","","post_reveal_questions","survey-likert","68","441144","0.0-6.0-6.8","2841308","co38659","norming","","","{""aha"":6}","[0]","../img/tt/380tt.jpg","",""
"null","<div style=""font-size:60px;""> </div>","null","fixation","html-keyboard-response","69","441352","0.0-6.0-0.9","2841308","co38659","norming","","","","","","",""
"null","../img/tt/063tt.jpg","null","mooney1","image-keyboard-response","70","444362","0.0-6.0-1.9","2841308","co38659","norming","","","","","","",""
"5282.835000000021","","","post_mooney1_questions","survey-likert","71","449647","0.0-6.0-2.9","2841308","co38659","norming","","","{""curiosity"":5,""confidence"":2}","[0,1]","../img/tt/063tt.jpg","",""
"3006.3850000000093","","","recognition","survey-text","72","452655","0.0-6.0-3.9","2841308","co38659","norming","","","{""guess"":""rekenmachine""}","","../img/tt/063tt.jpg","",""
"null","../img/gs/063gs.jpg","null","reveal","image-keyboard-response","73","454661","0.0-6.0-4.9","2841308","co38659","norming","","","","","","",""
"null","../img/tt/063tt.jpg","null","mooney2","image-keyboard-response","74","456668","0.0-6.0-5.9","2841308","co38659","norming","","","","","","",""
"3528.4200000001","","","post_reveal_questions","survey-likert","75","460199","0.0-6.0-6.9","2841308","co38659","norming","","","{""aha"":4}","[0]","../img/tt/063tt.jpg","",""
"null","<div style=""font-size:60px;""> </div>","null","fixation","html-keyboard-response","76","460404","0.0-6.0-0.10","2841308","co38659","norming","","","","","","",""
"null","../img/tt/378tt.jpg","null","mooney1","image-keyboard-response","77","463409","0.0-6.0-1.10","2841308","co38659","norming","","","","","","",""
"7083.59500000003","","","post_mooney1_questions","survey-likert","78","470496","0.0-6.0-2.10","2841308","co38659","norming","","","{""curiosity"":6,""confidence"":0}","[0,1]","../img/tt/378tt.jpg","",""
"2462.1300000000047","","","recognition","survey-text","79","472960","0.0-6.0-3.10","2841308","co38659","norming","","","{""guess"":""gezicht""}","","../img/tt/378tt.jpg","",""
"null","../img/gs/378gs.jpg","null","reveal","image-keyboard-response","80","474961","0.0-6.0-4.10","2841308","co38659","norming","","","","","","",""
"null","../img/tt/378tt.jpg","null","mooney2","image-keyboard-response","81","476971","0.0-6.0-5.10","2841308","co38659","norming","","","","","","",""
"2642.140000000014","","","post_reveal_questions","survey-likert","82","479615","0.0-6.0-6.10","2841308","co38659","norming","","","{""aha"":6}","[0]","../img/tt/378tt.jpg","",""
"null","<div style=""font-size:60px;""> </div>","null","fixation","html-keyboard-response","83","479817","0.0-6.0-0.11","2841308","co38659","norming","","","","","","",""
"null","../img/tt/300tt.jpg","null","mooney1","image-keyboard-response","84","482822","0.0-6.0-1.11","2841308","co38659","norming","","","","","","",""
"3158.4099999999744","","","post_mooney1_questions","survey-likert","85","485984","0.0-6.0-2.11","2841308","co38659","norming","","","{""curiosity"":6,""confidence"":5}","[0,1]","../img/tt/300tt.jpg","",""
"1310.375","","","recognition","survey-text","86","487295","0.0-6.0-3.11","2841308","co38659","norming","","","{""guess"":""aap""}","","../img/tt/300tt.jpg","",""
"null","../img/gs/300gs.jpg","null","reveal","image-keyboard-response","87","489297","0.0-6.0-4.11","2841308","co38659","norming","","","","","","",""
"null","../img/tt/300tt.jpg","null","mooney2","image-keyboard-response","88","491307","0.0-6.0-5.11","2841308","co38659","norming","","","","","","",""
"3065.7949999999837","","","post_reveal_questions","survey-likert","89","494375","0.0-6.0-6.11","2841308","co38659","norming","","","{""aha"":6}","[0]","../img/tt/300tt.jpg","",""
"null","<div style=""font-size:60px;""> </div>","null","fixation","html-keyboard-response","90","494583","0.0-6.0-0.12","2841308","co38659","norming","","","","","","",""
"null","../img/tt/567tt.jpg","null","mooney1","image-keyboard-response","91","497587","0.0-6.0-1.12","2841308","co38659","norming","","","","","","",""
"5531.974999999977","","","post_mooney1_questions","survey-likert","92","503119","0.0-6.0-2.12","2841308","co38659","norming","","","{""curiosity"":0,""confidence"":6}","[0,1]","../img/tt/567tt.jpg","",""
"3054.1849999999395","","","recognition","survey-text","93","506175","0.0-6.0-3.12","2841308","co38659","norming","","","{""guess"":""toaster""}","","../img/tt/567tt.jpg","",""
"null","../img/gs/567gs.jpg","null","reveal","image-keyboard-response","94","508177","0.0-6.0-4.12","2841308","co38659","norming","","","","","","",""
"null","../img/tt/567tt.jpg","null","mooney2","image-keyboard-response","95","510182","0.0-6.0-5.12","2841308","co38659","norming","","","","","","",""
"2182.694999999949","","","post_reveal_questions","survey-likert","96","512367","0.0-6.0-6.12","2841308","co38659","norming","","","{""aha"":0}","[0]","../img/tt/567tt.jpg","",""
"null","<div style=""font-size:60px;""> </div>","null","fixation","html-keyboard-response","97","512571","0.0-6.0-0.13","2841308","co38659","norming","","","","","","",""
"null","../img/tt/118tt.jpg","null","mooney1","image-keyboard-response","98","515574","0.0-6.0-1.13","2841308","co38659","norming","","","","","","",""
"4912.0299999999115","","","post_mooney1_questions","survey-likert","99","520487","0.0-6.0-2.13","2841308","co38659","norming","","","{""curiosity"":3,""confidence"":4}","[0,1]","../img/tt/118tt.jpg","",""
"4822.1350000000675","","","recognition","survey-text","100","525311","0.0-6.0-3.13","2841308","co38659","norming","","","{""guess"":""rollercoaster""}","","../img/tt/118tt.jpg","",""
"null","../img/gs/118gs.jpg","null","reveal","image-keyboard-response","101","527321","0.0-6.0-4.13","2841308","co38659","norming","","","","","","",""
"null","../img/tt/118tt.jpg","null","mooney2","image-keyboard-response","102","529328","0.0-6.0-5.13","2841308","co38659","norming","","","","","","",""
"3902.089999999851","","","post_reveal_questions","survey-likert","103","533231","0.0-6.0-6.13","2841308","co38659","norming","","","{""aha"":4}","[0]","../img/tt/118tt.jpg","",""
"null","<div style=""font-size:60px;""> </div>","null","fixation","html-keyboard-response","104","533434","0.0-6.0-0.14","2841308","co38659","norming","","","","","","",""
"null","../img/tt/081tt.jpg","null","mooney1","image-keyboard-response","105","536437","0.0-6.0-1.14","2841308","co38659","norming","","","","","","",""
"4136.120000000112","","","post_mooney1_questions","survey-likert","106","540575","0.0-6.0-2.14","2841308","co38659","norming","","","{""curiosity"":1,""confidence"":4}","[0,1]","../img/tt/081tt.jpg","",""
"1838.5599999999395","","","recognition","survey-text","107","542416","0.0-6.0-3.14","2841308","co38659","norming","","","{""guess"":""kikker""}","","../img/tt/081tt.jpg","",""
"null","../img/gs/081gs.jpg","null","reveal","image-keyboard-response","108","544418","0.0-6.0-4.14","2841308","co38659","norming","","","","","","",""
"null","../img/tt/081tt.jpg","null","mooney2","image-keyboard-response","109","546420","0.0-6.0-5.14","2841308","co38659","norming","","","","","","",""
"2496.854999999865","","","post_reveal_questions","survey-likert","110","548919","0.0-6.0-6.14","2841308","co38659","norming","","","{""aha"":1}","[0]","../img/tt/081tt.jpg","",""
"null","<div style=""font-size:60px;""> </div>","null","fixation","html-keyboard-response","111","549122","0.0-6.0-0.15","2841308","co38659","norming","","","","","","",""
"null","../img/tt/1205tt.jpg","null","mooney1","image-keyboard-response","112","552130","0.0-6.0-1.15","2841308","co38659","norming","","","","","","",""
"4395.099999999977","","","post_mooney1_questions","survey-likert","113","556528","0.0-6.0-2.15","2841308","co38659","norming","","","{""curiosity"":3,""confidence"":4}","[0,1]","../img/tt/1205tt.jpg","",""
"2654.0500000000466","","","recognition","survey-text","114","559183","0.0-6.0-3.15","2841308","co38659","norming","","","{""guess"":""publiek""}","","../img/tt/1205tt.jpg","",""
"null","../img/gs/1205gs.jpg","null","reveal","image-keyboard-response","115","561192","0.0-6.0-4.15","2841308","co38659","norming","","","","","","",""
"null","../img/tt/1205tt.jpg","null","mooney2","image-keyboard-response","116","563203","0.0-6.0-5.15","2841308","co38659","norming","","","","","","",""
"2657.8300000000745","","","post_reveal_questions","survey-likert","117","565863","0.0-6.0-6.15","2841308","co38659","norming","","","{""aha"":2}","[0]","../img/tt/1205tt.jpg","",""
"null","<div style=""font-size:60px;""> </div>","null","fixation","html-keyboard-response","118","566067","0.0-6.0-0.16","2841308","co38659","norming","","","","","","",""
"null","../img/tt/1190tt.jpg","null","mooney1","image-keyboard-response","119","569074","0.0-6.0-1.16","2841308","co38659","norming","","","","","","",""
"3889.20000000007","","","post_mooney1_questions","survey-likert","120","572968","0.0-6.0-2.16","2841308","co38659","norming","","","{""curiosity"":6,""confidence"":1}","[0,1]","../img/tt/1190tt.jpg","",""
"1494.2250000000931","","","recognition","survey-text","121","574463","0.0-6.0-3.16","2841308","co38659","norming","","","{""guess"":""bos""}","","../img/tt/1190tt.jpg","",""
"null","../img/gs/1190gs.jpg","null","reveal","image-keyboard-response","122","576465","0.0-6.0-4.16","2841308","co38659","norming","","","","","","",""
"null","../img/tt/1190tt.jpg","null","mooney2","image-keyboard-response","123","578475","0.0-6.0-5.16","2841308","co38659","norming","","","","","","",""
"1770.344999999972","","","post_reveal_questions","survey-likert","124","580247","0.0-6.0-6.16","2841308","co38659","norming","","","{""aha"":3}","[0]","../img/tt/1190tt.jpg","",""
"null","<div style=""font-size:60px;""> </div>","null","fixation","html-keyboard-response","125","580457","0.0-6.0-0.17","2841308","co38659","norming","","","","","","",""
"null","../img/tt/590tt.jpg","null","mooney1","image-keyboard-response","126","583466","0.0-6.0-1.17","2841308","co38659","norming","","","","","","",""
"3395.2850000000326","","","post_mooney1_questions","survey-likert","127","586864","0.0-6.0-2.17","2841308","co38659","norming","","","{""curiosity"":6,""confidence"":1}","[0,1]","../img/tt/590tt.jpg","",""
"2878.1049999999814","","","recognition","survey-text","128","589743","0.0-6.0-3.17","2841308","co38659","norming","","","{""guess"":""timmerman""}","","../img/tt/590tt.jpg","",""
"null","../img/gs/590gs.jpg","null","reveal","image-keyboard-response","129","591746","0.0-6.0-4.17","2841308","co38659","norming","","","","","","",""
"null","../img/tt/590tt.jpg","null","mooney2","image-keyboard-response","130","593755","0.0-6.0-5.17","2841308","co38659","norming","","","","","","",""
"2066.2099999999627","","","post_reveal_questions","survey-likert","131","595824","0.0-6.0-6.17","2841308","co38659","norming","","","{""aha"":6}","[0]","../img/tt/590tt.jpg","",""
"null","<div style=""font-size:60px;""> </div>","null","fixation","html-keyboard-response","132","596029","0.0-6.0-0.18","2841308","co38659","norming","","","","","","",""
"null","../img/tt/522tt.jpg","null","mooney1","image-keyboard-response","133","599036","0.0-6.0-1.18","2841308","co38659","norming","","","","","","",""
"4672.1849999999395","","","post_mooney1_questions","survey-likert","134","603712","0.0-6.0-2.18","2841308","co38659","norming","","","{""curiosity"":6,""confidence"":0}","[0,1]","../img/tt/522tt.jpg","",""
"5566.274999999907","","","recognition","survey-text","135","609280","0.0-6.0-3.18","2841308","co38659","norming","","","{""guess"":""slang""}","","../img/tt/522tt.jpg","",""
"null","../img/gs/522gs.jpg","null","reveal","image-keyboard-response","136","611282","0.0-6.0-4.18","2841308","co38659","norming","","","","","","",""
"null","../img/tt/522tt.jpg","null","mooney2","image-keyboard-response","137","613284","0.0-6.0-5.18","2841308","co38659","norming","","","","","","",""
"4344.920000000042","","","post_reveal_questions","survey-likert","138","617631","0.0-6.0-6.18","2841308","co38659","norming","","","{""aha"":6}","[0]","../img/tt/522tt.jpg","",""
"null","<div style=""font-size:60px;""> </div>","null","fixation","html-keyboard-response","139","617832","0.0-6.0-0.19","2841308","co38659","norming","","","","","","",""
"null","../img/tt/076tt.jpg","null","mooney1","image-keyboard-response","140","620836","0.0-6.0-1.19","2841308","co38659","norming","","","","","","",""
"4217.284999999916","","","post_mooney1_questions","survey-likert","141","625056","0.0-6.0-2.19","2841308","co38659","norming","","","{""curiosity"":4,""confidence"":2}","[0,1]","../img/tt/076tt.jpg","",""
"2654.054999999935","","","recognition","survey-text","142","627711","0.0-6.0-3.19","2841308","co38659","norming","","","{""guess"":""schoenen""}","","../img/tt/076tt.jpg","",""
"null","../img/gs/076gs.jpg","null","reveal","image-keyboard-response","143","629714","0.0-6.0-4.19","2841308","co38659","norming","","","","","","",""
"null","../img/tt/076tt.jpg","null","mooney2","image-keyboard-response","144","631720","0.0-6.0-5.19","2841308","co38659","norming","","","","","","",""
"2102.8249999999534","","","post_reveal_questions","survey-likert","145","633823","0.0-6.0-6.19","2841308","co38659","norming","","","{""aha"":1}","[0]","../img/tt/076tt.jpg","",""
"null","<div style=""font-size:60px;""> </div>","null","fixation","html-keyboard-response","146","634031","0.0-6.0-0.20","2841308","co38659","norming","","","","","","",""
"null","../img/tt/1002tt.jpg","null","mooney1","image-keyboard-response","147","637038","0.0-6.0-1.20","2841308","co38659","norming","","","","","","",""
"6631.080000000191","","","post_mooney1_questions","survey-likert","148","643672","0.0-6.0-2.20","2841308","co38659","norming","","","{""curiosity"":2,""confidence"":2}","[0,1]","../img/tt/1002tt.jpg","",""
"2182.6149999999907","","","recognition","survey-text","149","645856","0.0-6.0-3.20","2841308","co38659","norming","","","{""guess"":""beer""}","","../img/tt/1002tt.jpg","",""
"null","../img/gs/1002gs.jpg","null","reveal","image-keyboard-response","150","647866","0.0-6.0-4.20","2841308","co38659","norming","","","","","","",""
"null","../img/tt/1002tt.jpg","null","mooney2","image-keyboard-response","151","649868","0.0-6.0-5.20","2841308","co38659","norming","","","","","","",""
"1633.1499999999069","","","post_reveal_questions","survey-likert","152","651503","0.0-6.0-6.20","2841308","co38659","norming","","","{""aha"":0}","[0]","../img/tt/1002tt.jpg","",""
"null","<div style=""font-size:60px;""> </div>","null","fixation","html-keyboard-response","153","651704","0.0-6.0-0.21","2841308","co38659","norming","","","","","","",""
"null","../img/tt/055tt.jpg","null","mooney1","image-keyboard-response","154","654713","0.0-6.0-1.21","2841308","co38659","norming","","","","","","",""
"5627.435000000056","","","post_mooney1_questions","survey-likert","155","660344","0.0-6.0-2.21","2841308","co38659","norming","","","{""curiosity"":5,""confidence"":2}","[0,1]","../img/tt/055tt.jpg","",""
"5078.035000000033","","","recognition","survey-text","156","665423","0.0-6.0-3.21","2841308","co38659","norming","","","{""guess"":""man in bad""}","","../img/tt/055tt.jpg","",""
"null","../img/gs/055gs.jpg","null","reveal","image-keyboard-response","157","667425","0.0-6.0-4.21","2841308","co38659","norming","","","","","","",""
"null","../img/tt/055tt.jpg","null","mooney2","image-keyboard-response","158","669427","0.0-6.0-5.21","2841308","co38659","norming","","","","","","",""
"2346.105000000098","","","post_reveal_questions","survey-likert","159","671775","0.0-6.0-6.21","2841308","co38659","norming","","","{""aha"":6}","[0]","../img/tt/055tt.jpg","",""
"null","<div style=""font-size:60px;""> </div>","null","fixation","html-keyboard-response","160","671985","0.0-6.0-0.22","2841308","co38659","norming","","","","","","",""
"null","../img/tt/1027tt.jpg","null","mooney1","image-keyboard-response","161","674992","0.0-6.0-1.22","2841308","co38659","norming","","","","","","",""
"3732.930000000051","","","post_mooney1_questions","survey-likert","162","678728","0.0-6.0-2.22","2841308","co38659","norming","","","{""curiosity"":6,""confidence"":0}","[0,1]","../img/tt/1027tt.jpg","",""
"2198.29999999993","","","recognition","survey-text","163","680928","0.0-6.0-3.22","2841308","co38659","norming","","","{""guess"":""koeien""}","","../img/tt/1027tt.jpg","",""
"null","../img/gs/1027gs.jpg","null","reveal","image-keyboard-response","164","682929","0.0-6.0-4.22","2841308","co38659","norming","","","","","","",""
"null","../img/tt/1027tt.jpg","null","mooney2","image-keyboard-response","165","684931","0.0-6.0-5.22","2841308","co38659","norming","","","","","","",""
"2618.170000000042","","","post_reveal_questions","survey-likert","166","687552","0.0-6.0-6.22","2841308","co38659","norming","","","{""aha"":6}","[0]","../img/tt/1027tt.jpg","",""
"null","<div style=""font-size:60px;""> </div>","null","fixation","html-keyboard-response","167","687758","0.0-6.0-0.23","2841308","co38659","norming","","","","","","",""
"null","../img/tt/1278tt.jpg","null","mooney1","image-keyboard-response","168","690764","0.0-6.0-1.23","2841308","co38659","norming","","","","","","",""
"5840.969999999972","","","post_mooney1_questions","survey-likert","169","696608","0.0-6.0-2.23","2841308","co38659","norming","","","{""curiosity"":5,""confidence"":4}","[0,1]","../img/tt/1278tt.jpg","",""
"2078.2149999999674","","","recognition","survey-text","170","698687","0.0-6.0-3.23","2841308","co38659","norming","","","{""guess"":""honden""}","","../img/tt/1278tt.jpg","",""
"null","../img/gs/1278gs.jpg","null","reveal","image-keyboard-response","171","700690","0.0-6.0-4.23","2841308","co38659","norming","","","","","","",""
"null","../img/tt/1278tt.jpg","null","mooney2","image-keyboard-response","172","702692","0.0-6.0-5.23","2841308","co38659","norming","","","","","","",""
"2457.2349999998696","","","post_reveal_questions","survey-likert","173","705152","0.0-6.0-6.23","2841308","co38659","norming","","","{""aha"":4}","[0]","../img/tt/1278tt.jpg","",""
"null","<div style=""font-size:60px;""> </div>","null","fixation","html-keyboard-response","174","705361","0.0-6.0-0.24","2841308","co38659","norming","","","","","","",""
"null","../img/tt/1146tt.jpg","null","mooney1","image-keyboard-response","175","708367","0.0-6.0-1.24","2841308","co38659","norming","","","","","","",""
"3301.7600000001257","","","post_mooney1_questions","survey-likert","176","711672","0.0-6.0-2.24","2841308","co38659","norming","","","{""curiosity"":6,""confidence"":2}","[0,1]","../img/tt/1146tt.jpg","",""
"2918.260000000242","","","recognition","survey-text","177","714591","0.0-6.0-3.24","2841308","co38659","norming","","","{""guess"":""man in auto""}","","../img/tt/1146tt.jpg","",""
"null","../img/gs/1146gs.jpg","null","reveal","image-keyboard-response","178","716593","0.0-6.0-4.24","2841308","co38659","norming","","","","","","",""
"null","../img/tt/1146tt.jpg","null","mooney2","image-keyboard-response","179","718603","0.0-6.0-5.24","2841308","co38659","norming","","","","","","",""
"3603.0100000001257","","","post_reveal_questions","survey-likert","180","722207","0.0-6.0-6.24","2841308","co38659","norming","","","{""aha"":1}","[0]","../img/tt/1146tt.jpg","",""
"null","<div style=""font-size:60px;""> </div>","null","fixation","html-keyboard-response","181","722417","0.0-6.0-0.25","2841308","co38659","norming","","","","","","",""
"null","../img/tt/1175tt.jpg","null","mooney1","image-keyboard-response","182","725421","0.0-6.0-1.25","2841308","co38659","norming","","","","","","",""
"4408.214999999967","","","post_mooney1_questions","survey-likert","183","729832","0.0-6.0-2.25","2841308","co38659","norming","","","{""curiosity"":2,""confidence"":2}","[0,1]","../img/tt/1175tt.jpg","",""
"3765.934999999823","","","recognition","survey-text","184","733599","0.0-6.0-3.25","2841308","co38659","norming","","","{""guess"":""gevecht""}","","../img/tt/1175tt.jpg","",""
"null","../img/gs/1175gs.jpg","null","reveal","image-keyboard-response","185","735606","0.0-6.0-4.25","2841308","co38659","norming","","","","","","",""
"null","../img/tt/1175tt.jpg","null","mooney2","image-keyboard-response","186","737611","0.0-6.0-5.25","2841308","co38659","norming","","","","","","",""
"5308.819999999949","","","post_reveal_questions","survey-likert","187","742921","0.0-6.0-6.25","2841308","co38659","norming","","","{""aha"":1}","[0]","../img/tt/1175tt.jpg","",""
"null","<div style=""font-size:60px;""> </div>","null","fixation","html-keyboard-response","188","743121","0.0-6.0-0.26","2841308","co38659","norming","","","","","","",""
"null","../img/tt/1269tt.jpg","null","mooney1","image-keyboard-response","189","746125","0.0-6.0-1.26","2841308","co38659","norming","","","","","","",""
"5345.390000000014","","","post_mooney1_questions","survey-likert","190","751473","0.0-6.0-2.26","2841308","co38659","norming","","","{""curiosity"":1,""confidence"":4}","[0,1]","../img/tt/1269tt.jpg","",""
"2302.189999999944","","","recognition","survey-text","191","753777","0.0-6.0-3.26","2841308","co38659","norming","","","{""guess"":""hond""}","","../img/tt/1269tt.jpg","",""
"null","../img/gs/1269gs.jpg","null","reveal","image-keyboard-response","192","755786","0.0-6.0-4.26","2841308","co38659","norming","","","","","","",""
"null","../img/tt/1269tt.jpg","null","mooney2","image-keyboard-response","193","757788","0.0-6.0-5.26","2841308","co38659","norming","","","","","","",""
"1746.4749999999767","","","post_reveal_questions","survey-likert","194","759537","0.0-6.0-6.26","2841308","co38659","norming","","","{""aha"":6}","[0]","../img/tt/1269tt.jpg","",""
"null","<div style=""font-size:60px;""> </div>","null","fixation","html-keyboard-response","195","759737","0.0-6.0-0.27","2841308","co38659","norming","","","","","","",""
"null","../img/tt/1159tt.jpg","null","mooney1","image-keyboard-response","196","762740","0.0-6.0-1.27","2841308","co38659","norming","","","","","","",""
"5025.895000000019","","","post_mooney1_questions","survey-likert","197","767769","0.0-6.0-2.27","2841308","co38659","norming","","","{""curiosity"":5,""confidence"":3}","[0,1]","../img/tt/1159tt.jpg","",""
"1814.2600000000093","","","recognition","survey-text","198","769585","0.0-6.0-3.27","2841308","co38659","norming","","","{""guess"":""skater""}","","../img/tt/1159tt.jpg","",""
"null","../img/gs/1159gs.jpg","null","reveal","image-keyboard-response","199","771588","0.0-6.0-4.27","2841308","co38659","norming","","","","","","",""
"null","../img/tt/1159tt.jpg","null","mooney2","image-keyboard-response","200","773598","0.0-6.0-5.27","2841308","co38659","norming","","","","","","",""
"3488.515000000014","","","post_reveal_questions","survey-likert","201","777089","0.0-6.0-6.27","2841308","co38659","norming","","","{""aha"":5}","[0]","../img/tt/1159tt.jpg","",""
"null","<div style=""font-size:60px;""> </div>","null","fixation","html-keyboard-response","202","777299","0.0-6.0-0.28","2841308","co38659","norming","","","","","","",""
"null","../img/tt/049tt.jpg","null","mooney1","image-keyboard-response","203","780305","0.0-6.0-1.28","2841308","co38659","norming","","","","","","",""
"3676.6500000000233","","","post_mooney1_questions","survey-likert","204","783985","0.0-6.0-2.28","2841308","co38659","norming","","","{""curiosity"":6,""confidence"":0}","[0,1]","../img/tt/049tt.jpg","",""
"2398.154999999795","","","recognition","survey-text","205","786385","0.0-6.0-3.28","2841308","co38659","norming","","","{""guess"":""vlinder""}","","../img/tt/049tt.jpg","",""
"null","../img/gs/049gs.jpg","null","reveal","image-keyboard-response","206","788390","0.0-6.0-4.28","2841308","co38659","norming","","","","","","",""
"null","../img/tt/049tt.jpg","null","mooney2","image-keyboard-response","207","790391","0.0-6.0-5.28","2841308","co38659","norming","","","","","","",""
"3376.394999999902","","","post_reveal_questions","survey-likert","208","793769","0.0-6.0-6.28","2841308","co38659","norming","","","{""aha"":1}","[0]","../img/tt/049tt.jpg","",""
"null","<div style=""font-size:60px;""> </div>","null","fixation","html-keyboard-response","209","793975","0.0-6.0-0.29","2841308","co38659","norming","","","","","","",""
"null","../img/tt/306tt.jpg","null","mooney1","image-keyboard-response","210","796985","0.0-6.0-1.29","2841308","co38659","norming","","","","","","",""
"4533.420000000042","","","post_mooney1_questions","survey-likert","211","801522","0.0-6.0-2.29","2841308","co38659","norming","","","{""curiosity"":6,""confidence"":0}","[0,1]","../img/tt/306tt.jpg","",""
"1661.8649999999907","","","recognition","survey-text","212","803185","0.0-6.0-3.29","2841308","co38659","norming","","","{""guess"":""dier""}","","../img/tt/306tt.jpg","",""
"null","../img/gs/306gs.jpg","null","reveal","image-keyboard-response","213","805188","0.0-6.0-4.29","2841308","co38659","norming","","","","","","",""
"null","../img/tt/306tt.jpg","null","mooney2","image-keyboard-response","214","807189","0.0-6.0-5.29","2841308","co38659","norming","","","","","","",""
"2481.509999999893","","","post_reveal_questions","survey-likert","215","809673","0.0-6.0-6.29","2841308","co38659","norming","","","{""aha"":0}","[0]","../img/tt/306tt.jpg","",""
"null","<div style=""font-size:60px;""> </div>","null","fixation","html-keyboard-response","216","809878","0.0-6.0-0.30","2841308","co38659","norming","","","","","","",""
"null","../img/tt/020tt.jpg","null","mooney1","image-keyboard-response","217","812886","0.0-6.0-1.30","2841308","co38659","norming","","","","","","",""
"4200.254999999888","","","post_mooney1_questions","survey-likert","218","817090","0.0-6.0-2.30","2841308","co38659","norming","","","{""curiosity"":4,""confidence"":3}","[0,1]","../img/tt/020tt.jpg","",""
"1998.3350000000792","","","recognition","survey-text","219","819090","0.0-6.0-3.30","2841308","co38659","norming","","","{""guess"":""man""}","","../img/tt/020tt.jpg","",""
"null","../img/gs/020gs.jpg","null","reveal","image-keyboard-response","220","821096","0.0-6.0-4.30","2841308","co38659","norming","","","","","","",""
"null","../img/tt/020tt.jpg","null","mooney2","image-keyboard-response","221","823103","0.0-6.0-5.30","2841308","co38659","norming","","","","","","",""
"5337.3150000000605","","","post_reveal_questions","survey-likert","222","828441","0.0-6.0-6.30","2841308","co38659","norming","","","{""aha"":4}","[0]","../img/tt/020tt.jpg","",""
"null","<div style=""font-size:60px;""> </div>","null","fixation","html-keyboard-response","223","828646","0.0-6.0-0.31","2841308","co38659","norming","","","","","","",""
"null","../img/tt/412tt.jpg","null","mooney1","image-keyboard-response","224","831653","0.0-6.0-1.31","2841308","co38659","norming","","","","","","",""
"4459.59999999986","","","post_mooney1_questions","survey-likert","225","836113","0.0-6.0-2.31","2841308","co38659","norming","","","{""curiosity"":4,""confidence"":1}","[0,1]","../img/tt/412tt.jpg","",""
"2302.2350000001024","","","recognition","survey-text","226","838418","0.0-6.0-3.31","2841308","co38659","norming","","","{""guess"":""boeken""}","","../img/tt/412tt.jpg","",""
"null","../img/gs/412gs.jpg","null","reveal","image-keyboard-response","227","840425","0.0-6.0-4.31","2841308","co38659","norming","","","","","","",""
"null","../img/tt/412tt.jpg","null","mooney2","image-keyboard-response","228","842426","0.0-6.0-5.31","2841308","co38659","norming","","","","","","",""
"2030.3749999998836","","","post_reveal_questions","survey-likert","229","844457","0.0-6.0-6.31","2841308","co38659","norming","","","{""aha"":4}","[0]","../img/tt/412tt.jpg","",""
"null","<div style=""font-size:60px;""> </div>","null","fixation","html-keyboard-response","230","844660","0.0-6.0-0.32","2841308","co38659","norming","","","","","","",""
"null","../img/tt/1270tt.jpg","null","mooney1","image-keyboard-response","231","847666","0.0-6.0-1.32","2841308","co38659","norming","","","","","","",""
"5285.685000000056","","","post_mooney1_questions","survey-likert","232","852953","0.0-6.0-2.32","2841308","co38659","norming","","","{""curiosity"":6,""confidence"":0}","[0,1]","../img/tt/1270tt.jpg","",""
"2390.3649999999907","","","recognition","survey-text","233","855345","0.0-6.0-3.32","2841308","co38659","norming","","","{""guess"":""kikker""}","","../img/tt/1270tt.jpg","",""
"null","../img/gs/1270gs.jpg","null","reveal","image-keyboard-response","234","857349","0.0-6.0-4.32","2841308","co38659","norming","","","","","","",""
"null","../img/tt/1270tt.jpg","null","mooney2","image-keyboard-response","235","859356","0.0-6.0-5.32","2841308","co38659","norming","","","","","","",""
"1453.4100000000326","","","post_reveal_questions","survey-likert","236","860811","0.0-6.0-6.32","2841308","co38659","norming","","","{""aha"":0}","[0]","../img/tt/1270tt.jpg","",""
"null","<div style=""font-size:60px;""> </div>","null","fixation","html-keyboard-response","237","861012","0.0-6.0-0.33","2841308","co38659","norming","","","","","","",""
"null","../img/tt/1309tt.jpg","null","mooney1","image-keyboard-response","238","864017","0.0-6.0-1.33","2841308","co38659","norming","","","","","","",""
"5088.52500000014","","","post_mooney1_questions","survey-likert","239","869107","0.0-6.0-2.33","2841308","co38659","norming","","","{""curiosity"":0,""confidence"":1}","[0,1]","../img/tt/1309tt.jpg","",""
"1597.964999999851","","","recognition","survey-text","240","870707","0.0-6.0-3.33","2841308","co38659","norming","","","{""guess"":""auto""}","","../img/tt/1309tt.jpg","",""
"null","../img/gs/1309gs.jpg","null","reveal","image-keyboard-response","241","872708","0.0-6.0-4.33","2841308","co38659","norming","","","","","","",""
"null","../img/tt/1309tt.jpg","null","mooney2","image-keyboard-response","242","874710","0.0-6.0-5.33","2841308","co38659","norming","","","","","","",""
"1299.6450000000186","","","post_reveal_questions","survey-likert","243","876011","0.0-6.0-6.33","2841308","co38659","norming","","","{""aha"":1}","[0]","../img/tt/1309tt.jpg","",""
"null","<div style=""font-size:60px;""> </div>","null","fixation","html-keyboard-response","244","876219","0.0-6.0-0.34","2841308","co38659","norming","","","","","","",""
"null","../img/tt/1069tt.jpg","null","mooney1","image-keyboard-response","245","879226","0.0-6.0-1.34","2841308","co38659","norming","","","","","","",""
"4720.054999999935","","","post_mooney1_questions","survey-likert","246","883947","0.0-6.0-2.34","2841308","co38659","norming","","","{""curiosity"":3,""confidence"":3}","[0,1]","../img/tt/1069tt.jpg","",""
"7046.145000000019","","","recognition","survey-text","247","890995","0.0-6.0-3.34","2841308","co38659","norming","","","{""guess"":""grote dier""}","","../img/tt/1069tt.jpg","",""
"null","../img/gs/1069gs.jpg","null","reveal","image-keyboard-response","248","893000","0.0-6.0-4.34","2841308","co38659","norming","","","","","","",""
"null","../img/tt/1069tt.jpg","null","mooney2","image-keyboard-response","249","895005","0.0-6.0-5.34","2841308","co38659","norming","","","","","","",""
"2404.985000000219","","","post_reveal_questions","survey-likert","250","897411","0.0-6.0-6.34","2841308","co38659","norming","","","{""aha"":6}","[0]","../img/tt/1069tt.jpg","",""
"null","<div style=""font-size:60px;""> </div>","null","fixation","html-keyboard-response","251","897614","0.0-6.0-0.35","2841308","co38659","norming","","","","","","",""
"null","../img/tt/357tt.jpg","null","mooney1","image-keyboard-response","252","900617","0.0-6.0-1.35","2841308","co38659","norming","","","","","","",""
"4745.035000000149","","","post_mooney1_questions","survey-likert","253","905363","0.0-6.0-2.35","2841308","co38659","norming","","","{""curiosity"":5,""confidence"":2}","[0,1]","../img/tt/357tt.jpg","",""
"2381.460000000079","","","recognition","survey-text","254","907747","0.0-6.0-3.35","2841308","co38659","norming","","","{""guess"":""pinguin""}","","../img/tt/357tt.jpg","",""
"null","../img/gs/357gs.jpg","null","reveal","image-keyboard-response","255","909757","0.0-6.0-4.35","2841308","co38659","norming","","","","","","",""
"null","../img/tt/357tt.jpg","null","mooney2","image-keyboard-response","256","911760","0.0-6.0-5.35","2841308","co38659","norming","","","","","","",""
"5578.10999999987","","","post_reveal_questions","survey-likert","257","917339","0.0-6.0-6.35","2841308","co38659","norming","","","{""aha"":5}","[0]","../img/tt/357tt.jpg","",""
"null","<div style=""font-size:60px;""> </div>","null","fixation","html-keyboard-response","258","917547","0.0-6.0-0.36","2841308","co38659","norming","","","","","","",""
"null","../img/tt/1226tt.jpg","null","mooney1","image-keyboard-response","259","920553","0.0-6.0-1.36","2841308","co38659","norming","","","","","","",""
"7498.319999999949","","","post_mooney1_questions","survey-likert","260","928052","0.0-6.0-2.36","2841308","co38659","norming","","","{""curiosity"":0,""confidence"":0}","[0,1]","../img/tt/1226tt.jpg","",""
"4061.990000000107","","","recognition","survey-text","261","932116","0.0-6.0-3.36","2841308","co38659","norming","","","{""guess"":""zwaan""}","","../img/tt/1226tt.jpg","",""
"null","../img/gs/1226gs.jpg","null","reveal","image-keyboard-response","262","934126","0.0-6.0-4.36","2841308","co38659","norming","","","","","","",""
"null","../img/tt/1226tt.jpg","null","mooney2","image-keyboard-response","263","936129","0.0-6.0-5.36","2841308","co38659","norming","","","","","","",""
"3289.2449999999953","","","post_reveal_questions","survey-likert","264","939420","0.0-6.0-6.36","2841308","co38659","norming","","","{""aha"":4}","[0]","../img/tt/1226tt.jpg","",""
"null","<div style=""font-size:60px;""> </div>","null","fixation","html-keyboard-response","265","939622","0.0-6.0-0.37","2841308","co38659","norming","","","","","","",""
"null","../img/tt/1126tt.jpg","null","mooney1","image-keyboard-response","266","942631","0.0-6.0-1.37","2841308","co38659","norming","","","","","","",""
"5322.849999999977","","","post_mooney1_questions","survey-likert","267","947957","0.0-6.0-2.37","2841308","co38659","norming","","","{""curiosity"":0,""confidence"":6}","[0,1]","../img/tt/1126tt.jpg","",""
"3022.0500000000466","","","recognition","survey-text","268","950980","0.0-6.0-3.37","2841308","co38659","norming","","","{""guess"":""bergklimmer""}","","../img/tt/1126tt.jpg","",""
"null","../img/gs/1126gs.jpg","null","reveal","image-keyboard-response","269","952988","0.0-6.0-4.37","2841308","co38659","norming","","","","","","",""
"null","../img/tt/1126tt.jpg","null","mooney2","image-keyboard-response","270","954989","0.0-6.0-5.37","2841308","co38659","norming","","","","","","",""
"8588.659999999916","","","post_reveal_questions","survey-likert","271","963580","0.0-6.0-6.37","2841308","co38659","norming","","","{""aha"":2}","[0]","../img/tt/1126tt.jpg","",""
"null","<div style=""font-size:60px;""> </div>","null","fixation","html-keyboard-response","272","963782","0.0-6.0-0.38","2841308","co38659","norming","","","","","","",""
"null","../img/tt/1096tt.jpg","null","mooney1","image-keyboard-response","273","966786","0.0-6.0-1.38","2841308","co38659","norming","","","","","","",""
"4271.864999999874","","","post_mooney1_questions","survey-likert","274","971061","0.0-6.0-2.38","2841308","co38659","norming","","","{""curiosity"":1,""confidence"":5}","[0,1]","../img/tt/1096tt.jpg","",""
"2526.1100000001024","","","recognition","survey-text","275","973588","0.0-6.0-3.38","2841308","co38659","norming","","","{""guess"":""huis""}","","../img/tt/1096tt.jpg","",""
"null","../img/gs/1096gs.jpg","null","reveal","image-keyboard-response","276","975590","0.0-6.0-4.38","2841308","co38659","norming","","","","","","",""
"null","../img/tt/1096tt.jpg","null","mooney2","image-keyboard-response","277","977593","0.0-6.0-5.38","2841308","co38659","norming","","","","","","",""
"1464.369999999879","","","post_reveal_questions","survey-likert","278","979061","0.0-6.0-6.38","2841308","co38659","norming","","","{""aha"":6}","[0]","../img/tt/1096tt.jpg","",""
"null","<div style=""font-size:60px;""> </div>","null","fixation","html-keyboard-response","279","979265","0.0-6.0-0.39","2841308","co38659","norming","","","","","","",""
"null","../img/tt/353tt.jpg","null","mooney1","image-keyboard-response","280","982273","0.0-6.0-1.39","2841308","co38659","norming","","","","","","",""
"3945.8649999999907","","","post_mooney1_questions","survey-likert","281","986222","0.0-6.0-2.39","2841308","co38659","norming","","","{""curiosity"":5,""confidence"":2}","[0,1]","../img/tt/353tt.jpg","",""
"2326.045000000042","","","recognition","survey-text","282","988549","0.0-6.0-3.39","2841308","co38659","norming","","","{""guess"":""pinguin""}","","../img/tt/353tt.jpg","",""
"null","../img/gs/353gs.jpg","null","reveal","image-keyboard-response","283","990555","0.0-6.0-4.39","2841308","co38659","norming","","","","","","",""
"null","../img/tt/353tt.jpg","null","mooney2","image-keyboard-response","284","992565","0.0-6.0-5.39","2841308","co38659","norming","","","","","","",""
"1669.920000000042","","","post_reveal_questions","survey-likert","285","994237","0.0-6.0-6.39","2841308","co38659","norming","","","{""aha"":6}","[0]","../img/tt/353tt.jpg","",""
"null","<div style=""font-size:60px;""> </div>","null","fixation","html-keyboard-response","286","994445","0.0-6.0-0.40","2841308","co38659","norming","","","","","","",""
"null","../img/tt/1211tt.jpg","null","mooney1","image-keyboard-response","287","997453","0.0-6.0-1.40","2841308","co38659","norming","","","","","","",""
"4365.51500000013","","","post_mooney1_questions","survey-likert","288","1001822","0.0-6.0-2.40","2841308","co38659","norming","","","{""curiosity"":6,""confidence"":2}","[0,1]","../img/tt/1211tt.jpg","",""
"1686.1249999998836","","","recognition","survey-text","289","1003509","0.0-6.0-3.40","2841308","co38659","norming","","","{""guess"":""boot""}","","../img/tt/1211tt.jpg","",""
"null","../img/gs/1211gs.jpg","null","reveal","image-keyboard-response","290","1005518","0.0-6.0-4.40","2841308","co38659","norming","","","","","","",""
"null","../img/tt/1211tt.jpg","null","mooney2","image-keyboard-response","291","1007521","0.0-6.0-5.40","2841308","co38659","norming","","","","","","",""
"3354.1350000000093","","","post_reveal_questions","survey-likert","292","1010877","0.0-6.0-6.40","2841308","co38659","norming","","","{""aha"":6}","[0]","../img/tt/1211tt.jpg","",""
"null","<div style=""font-size:60px;""> </div>","null","fixation","html-keyboard-response","293","1011087","0.0-6.0-0.41","2841308","co38659","norming","","","","","","",""
"null","../img/tt/436tt.jpg","null","mooney1","image-keyboard-response","294","1014092","0.0-6.0-1.41","2841308","co38659","norming","","","","","","",""
"4142.055000000051","","","post_mooney1_questions","survey-likert","295","1018238","0.0-6.0-2.41","2841308","co38659","norming","","","{""curiosity"":6,""confidence"":3}","[0,1]","../img/tt/436tt.jpg","",""
"3862.015000000247","","","recognition","survey-text","296","1022101","0.0-6.0-3.41","2841308","co38659","norming","","","{""guess"":""crocodille""}","","../img/tt/436tt.jpg","",""
"null","../img/gs/436gs.jpg","null","reveal","image-keyboard-response","297","1024103","0.0-6.0-4.41","2841308","co38659","norming","","","","","","",""
"null","../img/tt/436tt.jpg","null","mooney2","image-keyboard-response","298","1026108","0.0-6.0-5.41","2841308","co38659","norming","","","","","","",""
"2176.490000000107","","","post_reveal_questions","survey-likert","299","1028285","0.0-6.0-6.41","2841308","co38659","norming","","","{""aha"":6}","[0]","../img/tt/436tt.jpg","",""
"null","<div style=""font-size:60px;""> </div>","null","fixation","html-keyboard-response","300","1028487","0.0-6.0-0.42","2841308","co38659","norming","","","","","","",""
"null","../img/tt/126tt.jpg","null","mooney1","image-keyboard-response","301","1031498","0.0-6.0-1.42","2841308","co38659","norming","","","","","","",""
"4935.740000000107","","","post_mooney1_questions","survey-likert","302","1036437","0.0-6.0-2.42","2841308","co38659","norming","","","{""curiosity"":6,""confidence"":3}","[0,1]","../img/tt/126tt.jpg","",""
"3454.25","","","recognition","survey-text","303","1039894","0.0-6.0-3.42","2841308","co38659","norming","","","{""guess"":""rat""}","","../img/tt/126tt.jpg","",""
"null","../img/gs/126gs.jpg","null","reveal","image-keyboard-response","304","1041899","0.0-6.0-4.42","2841308","co38659","norming","","","","","","",""
"null","../img/tt/126tt.jpg","null","mooney2","image-keyboard-response","305","1043905","0.0-6.0-5.42","2841308","co38659","norming","","","","","","",""
"3078.770000000135","","","post_reveal_questions","survey-likert","306","1046990","0.0-6.0-6.42","2841308","co38659","norming","","","{""aha"":6}","[0]","../img/tt/126tt.jpg","",""
"null","<div style=""font-size:60px;""> </div>","null","fixation","html-keyboard-response","307","1047198","0.0-6.0-0.43","2841308","co38659","norming","","","","","","",""
"null","../img/tt/052tt.jpg","null","mooney1","image-keyboard-response","308","1050204","0.0-6.0-1.43","2841308","co38659","norming","","","","","","",""
"4736.27500000014","","","post_mooney1_questions","survey-likert","309","1054942","0.0-6.0-2.43","2841308","co38659","norming","","","{""curiosity"":5,""confidence"":3}","[0,1]","../img/tt/052tt.jpg","",""
"2182.2450000001118","","","recognition","survey-text","310","1057126","0.0-6.0-3.43","2841308","co38659","norming","","","{""guess"":""emmer""}","","../img/tt/052tt.jpg","",""
"null","../img/gs/052gs.jpg","null","reveal","image-keyboard-response","311","1059129","0.0-6.0-4.43","2841308","co38659","norming","","","","","","",""
"null","../img/tt/052tt.jpg","null","mooney2","image-keyboard-response","312","1061139","0.0-6.0-5.43","2841308","co38659","norming","","","","","","",""
"1599.969999999972","","","post_reveal_questions","survey-likert","313","1062742","0.0-6.0-6.43","2841308","co38659","norming","","","{""aha"":5}","[0]","../img/tt/052tt.jpg","",""
"null","<div style=""font-size:60px;""> </div>","null","fixation","html-keyboard-response","314","1062944","0.0-6.0-0.44","2841308","co38659","norming","","","","","","",""
"null","../img/tt/112tt.jpg","null","mooney1","image-keyboard-response","315","1065953","0.0-6.0-1.44","2841308","co38659","norming","","","","","","",""
"4657.685000000056","","","post_mooney1_questions","survey-likert","316","1070614","0.0-6.0-2.44","2841308","co38659","norming","","","{""curiosity"":6,""confidence"":0}","[0,1]","../img/tt/112tt.jpg","",""
"2366.119999999879","","","recognition","survey-text","317","1072982","0.0-6.0-3.44","2841308","co38659","norming","","","{""guess"":""riem""}","","../img/tt/112tt.jpg","",""
"null","../img/gs/112gs.jpg","null","reveal","image-keyboard-response","318","1074983","0.0-6.0-4.44","2841308","co38659","norming","","","","","","",""
"null","../img/tt/112tt.jpg","null","mooney2","image-keyboard-response","319","1076994","0.0-6.0-5.44","2841308","co38659","norming","","","","","","",""
"3241.3349999999627","","","post_reveal_questions","survey-likert","320","1080238","0.0-6.0-6.44","2841308","co38659","norming","","","{""aha"":6}","[0]","../img/tt/112tt.jpg","",""
"null","<div style=""font-size:60px;""> </div>","null","fixation","html-keyboard-response","321","1080440","0.0-6.0-0.45","2841308","co38659","norming","","","","","","",""
"null","../img/tt/1040tt.jpg","null","mooney1","image-keyboard-response","322","1083446","0.0-6.0-1.45","2841308","co38659","norming","","","","","","",""
"5124.155000000261","","","post_mooney1_questions","survey-likert","323","1088574","0.0-6.0-2.45","2841308","co38659","norming","","","{""curiosity"":6,""confidence"":0}","[0,1]","../img/tt/1040tt.jpg","",""
"2021.9300000001676","","","recognition","survey-text","324","1090597","0.0-6.0-3.45","2841308","co38659","norming","","","{""guess"":""man""}","","../img/tt/1040tt.jpg","",""
"null","../img/gs/1040gs.jpg","null","reveal","image-keyboard-response","325","1092598","0.0-6.0-4.45","2841308","co38659","norming","","","","","","",""
"null","../img/tt/1040tt.jpg","null","mooney2","image-keyboard-response","326","1094600","0.0-6.0-5.45","2841308","co38659","norming","","","","","","",""
"2659.219999999972","","","post_reveal_questions","survey-likert","327","1097262","0.0-6.0-6.45","2841308","co38659","norming","","","{""aha"":6}","[0]","../img/tt/1040tt.jpg","",""
"null","<div style=""font-size:60px;""> </div>","null","fixation","html-keyboard-response","328","1097471","0.0-6.0-0.46","2841308","co38659","norming","","","","","","",""
"null","../img/tt/1275tt.jpg","null","mooney1","image-keyboard-response","329","1100478","0.0-6.0-1.46","2841308","co38659","norming","","","","","","",""
"9444.84999999986","","","post_mooney1_questions","survey-likert","330","1109926","0.0-6.0-2.46","2841308","co38659","norming","","","{""curiosity"":6,""confidence"":1}","[0,1]","../img/tt/1275tt.jpg","",""
"2301.969999999972","","","recognition","survey-text","331","1112229","0.0-6.0-3.46","2841308","co38659","norming","","","{""guess"":""monster""}","","../img/tt/1275tt.jpg","",""
"null","../img/gs/1275gs.jpg","null","reveal","image-keyboard-response","332","1114231","0.0-6.0-4.46","2841308","co38659","norming","","","","","","",""
"null","../img/tt/1275tt.jpg","null","mooney2","image-keyboard-response","333","1116238","0.0-6.0-5.46","2841308","co38659","norming","","","","","","",""
"4966.034999999916","","","post_reveal_questions","survey-likert","334","1121205","0.0-6.0-6.46","2841308","co38659","norming","","","{""aha"":6}","[0]","../img/tt/1275tt.jpg","",""
"null","<div style=""font-size:60px;""> </div>","null","fixation","html-keyboard-response","335","1121410","0.0-6.0-0.47","2841308","co38659","norming","","","","","","",""
"null","../img/tt/008tt.jpg","null","mooney1","image-keyboard-response","336","1124415","0.0-6.0-1.47","2841308","co38659","norming","","","","","","",""
"4482.855000000214","","","post_mooney1_questions","survey-likert","337","1128902","0.0-6.0-2.47","2841308","co38659","norming","","","{""curiosity"":1,""confidence"":5}","[0,1]","../img/tt/008tt.jpg","",""
"6285.780000000028","","","recognition","survey-text","338","1135189","0.0-6.0-3.47","2841308","co38659","norming","","","{""guess"":""man met pistool""}","","../img/tt/008tt.jpg","",""
"null","../img/gs/008gs.jpg","null","reveal","image-keyboard-response","339","1137191","0.0-6.0-4.47","2841308","co38659","norming","","","","","","",""
"null","../img/tt/008tt.jpg","null","mooney2","image-keyboard-response","340","1139193","0.0-6.0-5.47","2841308","co38659","norming","","","","","","",""
"1242.0949999997392","","","post_reveal_questions","survey-likert","341","1140437","0.0-6.0-6.47","2841308","co38659","norming","","","{""aha"":0}","[0]","../img/tt/008tt.jpg","",""
"null","<div style=""font-size:60px;""> </div>","null","fixation","html-keyboard-response","342","1140640","0.0-6.0-0.48","2841308","co38659","norming","","","","","","",""
"null","../img/tt/1044tt.jpg","null","mooney1","image-keyboard-response","343","1143644","0.0-6.0-1.48","2841308","co38659","norming","","","","","","",""
"5824.899999999674","","","post_mooney1_questions","survey-likert","344","1149470","0.0-6.0-2.48","2841308","co38659","norming","","","{""curiosity"":1,""confidence"":5}","[0,1]","../img/tt/1044tt.jpg","",""
"2646.005000000121","","","recognition","survey-text","345","1152117","0.0-6.0-3.48","2841308","co38659","norming","","","{""guess"":""jezus""}","","../img/tt/1044tt.jpg","",""
"null","../img/gs/1044gs.jpg","null","reveal","image-keyboard-response","346","1154119","0.0-6.0-4.48","2841308","co38659","norming","","","","","","",""
"null","../img/tt/1044tt.jpg","null","mooney2","image-keyboard-response","347","1156126","0.0-6.0-5.48","2841308","co38659","norming","","","","","","",""
"1677.125","","","post_reveal_questions","survey-likert","348","1157805","0.0-6.0-6.48","2841308","co38659","norming","","","{""aha"":6}","[0]","../img/tt/1044tt.jpg","",""
"null","<div style=""font-size:60px;""> </div>","null","fixation","html-keyboard-response","349","1158011","0.0-6.0-0.49","2841308","co38659","norming","","","","","","",""
"null","../img/tt/1251tt.jpg","null","mooney1","image-keyboard-response","350","1161018","0.0-6.0-1.49","2841308","co38659","norming","","","","","","",""
"3688.3249999997206","","","post_mooney1_questions","survey-likert","351","1164710","0.0-6.0-2.49","2841308","co38659","norming","","","{""curiosity"":1,""confidence"":3}","[0,1]","../img/tt/1251tt.jpg","",""
"2046.005000000354","","","recognition","survey-text","352","1166758","0.0-6.0-3.49","2841308","co38659","norming","","","{""guess"":""muur""}","","../img/tt/1251tt.jpg","",""
"null","../img/gs/1251gs.jpg","null","reveal","image-keyboard-response","353","1168761","0.0-6.0-4.49","2841308","co38659","norming","","","","","","",""
"null","../img/tt/1251tt.jpg","null","mooney2","image-keyboard-response","354","1170763","0.0-6.0-5.49","2841308","co38659","norming","","","","","","",""
"2041.8249999997206","","","post_reveal_questions","survey-likert","355","1172806","0.0-6.0-6.49","2841308","co38659","norming","","","{""aha"":6}","[0]","../img/tt/1251tt.jpg","",""
"null","<div style=""font-size:60px;""> </div>","null","fixation","html-keyboard-response","356","1173009","0.0-6.0-0.50","2841308","co38659","norming","","","","","","",""
"null","../img/tt/418tt.jpg","null","mooney1","image-keyboard-response","357","1176022","0.0-6.0-1.50","2841308","co38659","norming","","","","","","",""
"3796.840000000084","","","post_mooney1_questions","survey-likert","358","1179822","0.0-6.0-2.50","2841308","co38659","norming","","","{""curiosity"":6,""confidence"":0}","[0,1]","../img/tt/418tt.jpg","",""
"2150.1650000000373","","","recognition","survey-text","359","1181974","0.0-6.0-3.50","2841308","co38659","norming","","","{""guess"":""dier""}","","../img/tt/418tt.jpg","",""
"null","../img/gs/418gs.jpg","null","reveal","image-keyboard-response","360","1183975","0.0-6.0-4.50","2841308","co38659","norming","","","","","","",""
"null","../img/tt/418tt.jpg","null","mooney2","image-keyboard-response","361","1185982","0.0-6.0-5.50","2841308","co38659","norming","","","","","","",""
"1493.220000000205","","","post_reveal_questions","survey-likert","362","1187478","0.0-6.0-6.50","2841308","co38659","norming","","","{""aha"":0}","[0]","../img/tt/418tt.jpg","",""
"null","<div style=""font-size:60px;""> </div>","null","fixation","html-keyboard-response","363","1187680","0.0-6.0-0.51","2841308","co38659","norming","","","","","","",""
"null","../img/tt/1061tt.jpg","null","mooney1","image-keyboard-response","364","1190681","0.0-6.0-1.51","2841308","co38659","norming","","","","","","",""
"3457.560000000056","","","post_mooney1_questions","survey-likert","365","1194142","0.0-6.0-2.51","2841308","co38659","norming","","","{""curiosity"":6,""confidence"":3}","[0,1]","../img/tt/1061tt.jpg","",""
"1398.2350000001024","","","recognition","survey-text","366","1195542","0.0-6.0-3.51","2841308","co38659","norming","","","{""guess"":""parc""}","","../img/tt/1061tt.jpg","",""
"null","../img/gs/1061gs.jpg","null","reveal","image-keyboard-response","367","1197550","0.0-6.0-4.51","2841308","co38659","norming","","","","","","",""
"null","../img/tt/1061tt.jpg","null","mooney2","image-keyboard-response","368","1199552","0.0-6.0-5.51","2841308","co38659","norming","","","","","","",""
"2291.1200000001118","","","post_reveal_questions","survey-likert","369","1201845","0.0-6.0-6.51","2841308","co38659","norming","","","{""aha"":4}","[0]","../img/tt/1061tt.jpg","",""
"null","<div style=""font-size:60px;""> </div>","null","fixation","html-keyboard-response","370","1202054","0.0-6.0-0.52","2841308","co38659","norming","","","","","","",""
"null","../img/tt/1181tt.jpg","null","mooney1","image-keyboard-response","371","1205062","0.0-6.0-1.52","2841308","co38659","norming","","","","","","",""
"6916.52500000014","","","post_mooney1_questions","survey-likert","372","1211982","0.0-6.0-2.52","2841308","co38659","norming","","","{""curiosity"":0,""confidence"":5}","[0,1]","../img/tt/1181tt.jpg","",""
"4358.105000000214","","","recognition","survey-text","373","1216342","0.0-6.0-3.52","2841308","co38659","norming","","","{""guess"":""mannenavond""}","","../img/tt/1181tt.jpg","",""
"null","../img/gs/1181gs.jpg","null","reveal","image-keyboard-response","374","1218352","0.0-6.0-4.52","2841308","co38659","norming","","","","","","",""
"null","../img/tt/1181tt.jpg","null","mooney2","image-keyboard-response","375","1220358","0.0-6.0-5.52","2841308","co38659","norming","","","","","","",""
"2516.769999999786","","","post_reveal_questions","survey-likert","376","1222869","0.0-6.0-6.52","2841308","co38659","norming","","","{""aha"":4}","[0]","../img/tt/1181tt.jpg","",""
"null","<div style=""font-size:60px;""> </div>","null","fixation","html-keyboard-response","377","1223076","0.0-6.0-0.53","2841308","co38659","norming","","","","","","",""
"null","../img/tt/534tt.jpg","null","mooney1","image-keyboard-response","378","1226084","0.0-6.0-1.53","2841308","co38659","norming","","","","","","",""
"5533.3950000002515","","","post_mooney1_questions","survey-likert","379","1231621","0.0-6.0-2.53","2841308","co38659","norming","","","{""curiosity"":2,""confidence"":3}","[0,1]","../img/tt/534tt.jpg","",""
"1542.2249999998603","","","recognition","survey-text","380","1233165","0.0-6.0-3.53","2841308","co38659","norming","","","{""guess"":""woud""}","","../img/tt/534tt.jpg","",""
"null","../img/gs/534gs.jpg","null","reveal","image-keyboard-response","381","1235168","0.0-6.0-4.53","2841308","co38659","norming","","","","","","",""
"null","../img/tt/534tt.jpg","null","mooney2","image-keyboard-response","382","1237175","0.0-6.0-5.53","2841308","co38659","norming","","","","","","",""
"2820.7949999999255","","","post_reveal_questions","survey-likert","383","1239997","0.0-6.0-6.53","2841308","co38659","norming","","","{""aha"":2}","[0]","../img/tt/534tt.jpg","",""
"null","<div style=""font-size:60px;""> </div>","null","fixation","html-keyboard-response","384","1240199","0.0-6.0-0.54","2841308","co38659","norming","","","","","","",""
"null","../img/tt/315tt.jpg","null","mooney1","image-keyboard-response","385","1243211","0.0-6.0-1.54","2841308","co38659","norming","","","","","","",""
"3814.4849999998696","","","post_mooney1_questions","survey-likert","386","1247029","0.0-6.0-2.54","2841308","co38659","norming","","","{""curiosity"":1,""confidence"":3}","[0,1]","../img/tt/315tt.jpg","",""
"2613.9699999997392","","","recognition","survey-text","387","1249645","0.0-6.0-3.54","2841308","co38659","norming","","","{""guess"":""boom""}","","../img/tt/315tt.jpg","",""
"null","../img/gs/315gs.jpg","null","reveal","image-keyboard-response","388","1251650","0.0-6.0-4.54","2841308","co38659","norming","","","","","","",""
"null","../img/tt/315tt.jpg","null","mooney2","image-keyboard-response","389","1253659","0.0-6.0-5.54","2841308","co38659","norming","","","","","","",""
"2209.4199999999255","","","post_reveal_questions","survey-likert","390","1255869","0.0-6.0-6.54","2841308","co38659","norming","","","{""aha"":6}","[0]","../img/tt/315tt.jpg","",""
"null","<div style=""font-size:60px;""> </div>","null","fixation","html-keyboard-response","391","1256072","0.0-6.0-0.55","2841308","co38659","norming","","","","","","",""
"null","../img/tt/1006tt.jpg","null","mooney1","image-keyboard-response","392","1259082","0.0-6.0-1.55","2841308","co38659","norming","","","","","","",""
"5000.310000000289","","","post_mooney1_questions","survey-likert","393","1264085","0.0-6.0-2.55","2841308","co38659","norming","","","{""curiosity"":4,""confidence"":2}","[0,1]","../img/tt/1006tt.jpg","",""
"1878.130000000121","","","recognition","survey-text","394","1265965","0.0-6.0-3.55","2841308","co38659","norming","","","{""guess"":""bizon""}","","../img/tt/1006tt.jpg","",""
"null","../img/gs/1006gs.jpg","null","reveal","image-keyboard-response","395","1267975","0.0-6.0-4.55","2841308","co38659","norming","","","","","","",""
"null","../img/tt/1006tt.jpg","null","mooney2","image-keyboard-response","396","1269978","0.0-6.0-5.55","2841308","co38659","norming","","","","","","",""
"1960.2900000000373","","","post_reveal_questions","survey-likert","397","1271941","0.0-6.0-6.55","2841308","co38659","norming","","","{""aha"":4}","[0]","../img/tt/1006tt.jpg","",""
"null","<div style=""font-size:60px;""> </div>","null","fixation","html-keyboard-response","398","1272146","0.0-6.0-0.56","2841308","co38659","norming","","","","","","",""
"null","../img/tt/1055tt.jpg","null","mooney1","image-keyboard-response","399","1275157","0.0-6.0-1.56","2841308","co38659","norming","","","","","","",""
"3573.3249999997206","","","post_mooney1_questions","survey-likert","400","1278733","0.0-6.0-2.56","2841308","co38659","norming","","","{""curiosity"":4,""confidence"":3}","[0,1]","../img/tt/1055tt.jpg","",""
"12302.09999999986","","","recognition","survey-text","401","1291046","0.0-6.0-3.56","2841308","co38659","norming","","","{""guess"":""insect""}","","../img/tt/1055tt.jpg","",""
"null","../img/gs/1055gs.jpg","null","reveal","image-keyboard-response","402","1293047","0.0-6.0-4.56","2841308","co38659","norming","","","","","","",""
"null","../img/tt/1055tt.jpg","null","mooney2","image-keyboard-response","403","1295054","0.0-6.0-5.56","2841308","co38659","norming","","","","","","",""
"3463.0200000002515","","","post_reveal_questions","survey-likert","404","1298518","0.0-6.0-6.56","2841308","co38659","norming","","","{""aha"":0}","[0]","../img/tt/1055tt.jpg","",""
"null","<div style=""font-size:60px;""> </div>","null","fixation","html-keyboard-response","405","1298721","0.0-6.0-0.57","2841308","co38659","norming","","","","","","",""
"null","../img/tt/438tt.jpg","null","mooney1","image-keyboard-response","406","1301725","0.0-6.0-1.57","2841308","co38659","norming","","","","","","",""
"4671.989999999991","","","post_mooney1_questions","survey-likert","407","1306398","0.0-6.0-2.57","2841308","co38659","norming","","","{""curiosity"":6,""confidence"":0}","[0,1]","../img/tt/438tt.jpg","",""
"4534.089999999851","","","recognition","survey-text","408","1310934","0.0-6.0-3.57","2841308","co38659","norming","","","{""guess"":""ketting""}","","../img/tt/438tt.jpg","",""
"null","../img/gs/438gs.jpg","null","reveal","image-keyboard-response","409","1312938","0.0-6.0-4.57","2841308","co38659","norming","","","","","","",""
"null","../img/tt/438tt.jpg","null","mooney2","image-keyboard-response","410","1314940","0.0-6.0-5.57","2841308","co38659","norming","","","","","","",""
"2254.750000000233","","","post_reveal_questions","survey-likert","411","1317198","0.0-6.0-6.57","2841308","co38659","norming","","","{""aha"":6}","[0]","../img/tt/438tt.jpg","",""
"null","<div style=""font-size:60px;""> </div>","null","fixation","html-keyboard-response","412","1317399","0.0-6.0-0.58","2841308","co38659","norming","","","","","","",""
"null","../img/tt/1101tt.jpg","null","mooney1","image-keyboard-response","413","1320403","0.0-6.0-1.58","2841308","co38659","norming","","","","","","",""
"4879.85999999987","","","post_mooney1_questions","survey-likert","414","1325286","0.0-6.0-2.58","2841308","co38659","norming","","","{""curiosity"":3,""confidence"":2}","[0,1]","../img/tt/1101tt.jpg","",""
"1581.9800000002142","","","recognition","survey-text","415","1326870","0.0-6.0-3.58","2841308","co38659","norming","","","{""guess"":""man""}","","../img/tt/1101tt.jpg","",""
"null","../img/gs/1101gs.jpg","null","reveal","image-keyboard-response","416","1328871","0.0-6.0-4.58","2841308","co38659","norming","","","","","","",""
"null","../img/tt/1101tt.jpg","null","mooney2","image-keyboard-response","417","1330879","0.0-6.0-5.58","2841308","co38659","norming","","","","","","",""
"2435.9950000001118","","","post_reveal_questions","survey-likert","418","1333318","0.0-6.0-6.58","2841308","co38659","norming","","","{""aha"":3}","[0]","../img/tt/1101tt.jpg","",""
"null","<div style=""font-size:60px;""> </div>","null","fixation","html-keyboard-response","419","1333522","0.0-6.0-0.59","2841308","co38659","norming","","","","","","",""
"null","../img/tt/1186tt.jpg","null","mooney1","image-keyboard-response","420","1336533","0.0-6.0-1.59","2841308","co38659","norming","","","","","","",""
"4165.850000000093","","","post_mooney1_questions","survey-likert","421","1340702","0.0-6.0-2.59","2841308","co38659","norming","","","{""curiosity"":2,""confidence"":5}","[0,1]","../img/tt/1186tt.jpg","",""
"3798.1800000001676","","","recognition","survey-text","422","1344502","0.0-6.0-3.59","2841308","co38659","norming","","","{""guess"":""roller""}","","../img/tt/1186tt.jpg","",""
"null","../img/gs/1186gs.jpg","null","reveal","image-keyboard-response","423","1346505","0.0-6.0-4.59","2841308","co38659","norming","","","","","","",""
"null","../img/tt/1186tt.jpg","null","mooney2","image-keyboard-response","424","1348510","0.0-6.0-5.59","2841308","co38659","norming","","","","","","",""
"2788.4550000000745","","","post_reveal_questions","survey-likert","425","1351302","0.0-6.0-6.59","2841308","co38659","norming","","","{""aha"":0}","[0]","../img/tt/1186tt.jpg","",""
"null","<div style=""font-size:60px;""> </div>","null","fixation","html-keyboard-response","426","1351506","0.0-6.0-0.60","2841308","co38659","norming","","","","","","",""
"null","../img/tt/559tt.jpg","null","mooney1","image-keyboard-response","427","1354513","0.0-6.0-1.60","2841308","co38659","norming","","","","","","",""
"4729.649999999907","","","post_mooney1_questions","survey-likert","428","1359246","0.0-6.0-2.60","2841308","co38659","norming","","","{""curiosity"":3,""confidence"":2}","[0,1]","../img/tt/559tt.jpg","",""
"2645.7700000002515","","","recognition","survey-text","429","1361894","0.0-6.0-3.60","2841308","co38659","norming","","","{""guess"":""bureau""}","","../img/tt/559tt.jpg","",""
"null","../img/gs/559gs.jpg","null","reveal","image-keyboard-response","430","1363900","0.0-6.0-4.60","2841308","co38659","norming","","","","","","",""
"null","../img/tt/559tt.jpg","null","mooney2","image-keyboard-response","431","1365902","0.0-6.0-5.60","2841308","co38659","norming","","","","","","",""
"8133.159999999916","","","post_reveal_questions","survey-likert","432","1374038","0.0-6.0-6.60","2841308","co38659","norming","","","{""aha"":5}","[0]","../img/tt/559tt.jpg","",""
"null","<div style=""font-size:60px;""> </div>","null","fixation","html-keyboard-response","433","1374245","0.0-6.0-0.61","2841308","co38659","norming","","","","","","",""
"null","../img/tt/1033tt.jpg","null","mooney1","image-keyboard-response","434","1377249","0.0-6.0-1.61","2841308","co38659","norming","","","","","","",""
"4881.479999999981","","","post_mooney1_questions","survey-likert","435","1382134","0.0-6.0-2.61","2841308","co38659","norming","","","{""curiosity"":1,""confidence"":5}","[0,1]","../img/tt/1033tt.jpg","",""
"3358.190000000177","","","recognition","survey-text","436","1385494","0.0-6.0-3.61","2841308","co38659","norming","","","{""guess"":""baseball""}","","../img/tt/1033tt.jpg","",""
"null","../img/gs/1033gs.jpg","null","reveal","image-keyboard-response","437","1387499","0.0-6.0-4.61","2841308","co38659","norming","","","","","","",""
"null","../img/tt/1033tt.jpg","null","mooney2","image-keyboard-response","438","1389509","0.0-6.0-5.61","2841308","co38659","norming","","","","","","",""
"4870.590000000084","","","post_reveal_questions","survey-likert","439","1394382","0.0-6.0-6.61","2841308","co38659","norming","","","{""aha"":6}","[0]","../img/tt/1033tt.jpg","",""
"null","<div style=""font-size:60px;""> </div>","null","fixation","html-keyboard-response","440","1394588","0.0-6.0-0.62","2841308","co38659","norming","","","","","","",""
"null","../img/tt/1151tt.jpg","null","mooney1","image-keyboard-response","441","1397597","0.0-6.0-1.62","2841308","co38659","norming","","","","","","",""
"4215.660000000149","","","post_mooney1_questions","survey-likert","442","1401814","0.0-6.0-2.62","2841308","co38659","norming","","","{""curiosity"":5,""confidence"":1}","[0,1]","../img/tt/1151tt.jpg","",""
"3198.0749999999534","","","recognition","survey-text","443","1405005","0.0-6.0-3.62","2841308","co38659","norming","","","{""guess"":""bergklimmer""}","","../img/tt/1151tt.jpg","",""
"null","../img/gs/1151gs.jpg","null","reveal","image-keyboard-response","444","1407006","0.0-6.0-4.62","2841308","co38659","norming","","","","","","",""
"null","../img/tt/1151tt.jpg","null","mooney2","image-keyboard-response","445","1409009","0.0-6.0-5.62","2841308","co38659","norming","","","","","","",""
"1921.5549999999348","","","post_reveal_questions","survey-likert","446","1410933","0.0-6.0-6.62","2841308","co38659","norming","","","{""aha"":5}","[0]","../img/tt/1151tt.jpg","",""
"null","<div style=""font-size:60px;""> </div>","null","fixation","html-keyboard-response","447","1411135","0.0-6.0-0.63","2841308","co38659","norming","","","","","","",""
"null","../img/tt/1307tt.jpg","null","mooney1","image-keyboard-response","448","1414139","0.0-6.0-1.63","2841308","co38659","norming","","","","","","",""
"6654.185000000056","","","post_mooney1_questions","survey-likert","449","1420797","0.0-6.0-2.63","2841308","co38659","norming","","","{""curiosity"":6,""confidence"":0}","[0,1]","../img/tt/1307tt.jpg","",""
"7870.120000000112","","","recognition","survey-text","450","1428669","0.0-6.0-3.63","2841308","co38659","norming","","","{""guess"":""grote rad""}","","../img/tt/1307tt.jpg","",""
"null","../img/gs/1307gs.jpg","null","reveal","image-keyboard-response","451","1430670","0.0-6.0-4.63","2841308","co38659","norming","","","","","","",""
"null","../img/tt/1307tt.jpg","null","mooney2","image-keyboard-response","452","1432679","0.0-6.0-5.63","2841308","co38659","norming","","","","","","",""
"3378.844999999972","","","post_reveal_questions","survey-likert","453","1436061","0.0-6.0-6.63","2841308","co38659","norming","","","{""aha"":6}","[0]","../img/tt/1307tt.jpg","",""
"null","<div style=""font-size:60px;""> </div>","null","fixation","html-keyboard-response","454","1436267","0.0-6.0-0.64","2841308","co38659","norming","","","","","","",""
"null","../img/tt/1072tt.jpg","null","mooney1","image-keyboard-response","455","1439270","0.0-6.0-1.64","2841308","co38659","norming","","","","","","",""
"5211.314999999944","","","post_mooney1_questions","survey-likert","456","1444485","0.0-6.0-2.64","2841308","co38659","norming","","","{""curiosity"":1,""confidence"":5}","[0,1]","../img/tt/1072tt.jpg","",""
"2389.1650000000373","","","recognition","survey-text","457","1446876","0.0-6.0-3.64","2841308","co38659","norming","","","{""guess"":""brommer""}","","../img/tt/1072tt.jpg","",""
"null","../img/gs/1072gs.jpg","null","reveal","image-keyboard-response","458","1448881","0.0-6.0-4.64","2841308","co38659","norming","","","","","","",""
"null","../img/tt/1072tt.jpg","null","mooney2","image-keyboard-response","459","1450883","0.0-6.0-5.64","2841308","co38659","norming","","","","","","",""
"2816.320000000065","","","post_reveal_questions","survey-likert","460","1453700","0.0-6.0-6.64","2841308","co38659","norming","","","{""aha"":4}","[0]","../img/tt/1072tt.jpg","",""
"null","<div style=""font-size:60px;""> </div>","null","fixation","html-keyboard-response","461","1453902","0.0-6.0-0.65","2841308","co38659","norming","","","","","","",""
"null","../img/tt/1191tt.jpg","null","mooney1","image-keyboard-response","462","1456912","0.0-6.0-1.65","2841308","co38659","norming","","","","","","",""
"4776.905000000028","","","post_mooney1_questions","survey-likert","463","1461693","0.0-6.0-2.65","2841308","co38659","norming","","","{""curiosity"":6,""confidence"":2}","[0,1]","../img/tt/1191tt.jpg","",""
"2974.130000000121","","","recognition","survey-text","464","1464668","0.0-6.0-3.65","2841308","co38659","norming","","","{""guess"":""paardrijder""}","","../img/tt/1191tt.jpg","",""
"null","../img/gs/1191gs.jpg","null","reveal","image-keyboard-response","465","1466670","0.0-6.0-4.65","2841308","co38659","norming","","","","","","",""
"null","../img/tt/1191tt.jpg","null","mooney2","image-keyboard-response","466","1468672","0.0-6.0-5.65","2841308","co38659","norming","","","","","","",""
"2273.6149999999907","","","post_reveal_questions","survey-likert","467","1470949","0.0-6.0-6.65","2841308","co38659","norming","","","{""aha"":6}","[0]","../img/tt/1191tt.jpg","",""
"null","<div style=""font-size:60px;""> </div>","null","fixation","html-keyboard-response","468","1471156","0.0-6.0-0.66","2841308","co38659","norming","","","","","","",""
"null","../img/tt/1123tt.jpg","null","mooney1","image-keyboard-response","469","1474158","0.0-6.0-1.66","2841308","co38659","norming","","","","","","",""
"4131.784999999916","","","post_mooney1_questions","survey-likert","470","1478293","0.0-6.0-2.66","2841308","co38659","norming","","","{""curiosity"":5,""confidence"":2}","[0,1]","../img/tt/1123tt.jpg","",""
"2390.0500000000466","","","recognition","survey-text","471","1480685","0.0-6.0-3.66","2841308","co38659","norming","","","{""guess"":""famillie""}","","../img/tt/1123tt.jpg","",""
"null","../img/gs/1123gs.jpg","null","reveal","image-keyboard-response","472","1482686","0.0-6.0-4.66","2841308","co38659","norming","","","","","","",""
"null","../img/tt/1123tt.jpg","null","mooney2","image-keyboard-response","473","1484688","0.0-6.0-5.66","2841308","co38659","norming","","","","","","",""
"3601.4300000001676","","","post_reveal_questions","survey-likert","474","1488293","0.0-6.0-6.66","2841308","co38659","norming","","","{""aha"":2}","[0]","../img/tt/1123tt.jpg","",""
"null","<div style=""font-size:60px;""> </div>","null","fixation","html-keyboard-response","475","1488496","0.0-6.0-0.67","2841308","co38659","norming","","","","","","",""
"null","../img/tt/1084tt.jpg","null","mooney1","image-keyboard-response","476","1491502","0.0-6.0-1.67","2841308","co38659","norming","","","","","","",""
"4042.6099999998696","","","post_mooney1_questions","survey-likert","477","1495549","0.0-6.0-2.67","2841308","co38659","norming","","","{""curiosity"":5,""confidence"":4}","[0,1]","../img/tt/1084tt.jpg","",""
"2414.2600000000093","","","recognition","survey-text","478","1497965","0.0-6.0-3.67","2841308","co38659","norming","","","{""guess"":""taart""}","","../img/tt/1084tt.jpg","",""
"null","../img/gs/1084gs.jpg","null","reveal","image-keyboard-response","479","1499972","0.0-6.0-4.67","2841308","co38659","norming","","","","","","",""
"null","../img/tt/1084tt.jpg","null","mooney2","image-keyboard-response","480","1501985","0.0-6.0-5.67","2841308","co38659","norming","","","","","","",""
"2441.089999999851","","","post_reveal_questions","survey-likert","481","1504429","0.0-6.0-6.67","2841308","co38659","norming","","","{""aha"":4}","[0]","../img/tt/1084tt.jpg","",""
"null","<div style=""font-size:60px;""> </div>","null","fixation","html-keyboard-response","482","1504632","0.0-6.0-0.68","2841308","co38659","norming","","","","","","",""
"null","../img/tt/1279tt.jpg","null","mooney1","image-keyboard-response","483","1507636","0.0-6.0-1.68","2841308","co38659","norming","","","","","","",""
"2982.820000000065","","","post_mooney1_questions","survey-likert","484","1510621","0.0-6.0-2.68","2841308","co38659","norming","","","{""curiosity"":5,""confidence"":2}","[0,1]","../img/tt/1279tt.jpg","",""
"3294.1049999999814","","","recognition","survey-text","485","1513916","0.0-6.0-3.68","2841308","co38659","norming","","","{""guess"":""honden""}","","../img/tt/1279tt.jpg","",""
"null","../img/gs/1279gs.jpg","null","reveal","image-keyboard-response","486","1515918","0.0-6.0-4.68","2841308","co38659","norming","","","","","","",""
"null","../img/tt/1279tt.jpg","null","mooney2","image-keyboard-response","487","1517921","0.0-6.0-5.68","2841308","co38659","norming","","","","","","",""
"1929.2099999999627","","","post_reveal_questions","survey-likert","488","1519853","0.0-6.0-6.68","2841308","co38659","norming","","","{""aha"":1}","[0]","../img/tt/1279tt.jpg","",""
"null","<div style=""font-size:60px;""> </div>","null","fixation","html-keyboard-response","489","1520054","0.0-6.0-0.69","2841308","co38659","norming","","","","","","",""
"null","../img/tt/296tt.jpg","null","mooney1","image-keyboard-response","490","1523058","0.0-6.0-1.69","2841308","co38659","norming","","","","","","",""
"5096.1150000002235","","","post_mooney1_questions","survey-likert","491","1528165","0.0-6.0-2.69","2841308","co38659","norming","","","{""curiosity"":3,""confidence"":3}","[0,1]","../img/tt/296tt.jpg","",""
"2014.035000000149","","","recognition","survey-text","492","1530181","0.0-6.0-3.69","2841308","co38659","norming","","","{""guess"":""bed""}","","../img/tt/296tt.jpg","",""
"null","../img/gs/296gs.jpg","null","reveal","image-keyboard-response","493","1532190","0.0-6.0-4.69","2841308","co38659","norming","","","","","","",""
"null","../img/tt/296tt.jpg","null","mooney2","image-keyboard-response","494","1534192","0.0-6.0-5.69","2841308","co38659","norming","","","","","","",""
"2769.625","","","post_reveal_questions","survey-likert","495","1536965","0.0-6.0-6.69","2841308","co38659","norming","","","{""aha"":6}","[0]","../img/tt/296tt.jpg","",""
"null","<div style=""font-size:60px;""> </div>","null","fixation","html-keyboard-response","496","1537169","0.0-6.0-0.70","2841308","co38659","norming","","","","","","",""
"null","../img/tt/094tt.jpg","null","mooney1","image-keyboard-response","497","1540172","0.0-6.0-1.70","2841308","co38659","norming","","","","","","",""
"3781.5149999998976","","","post_mooney1_questions","survey-likert","498","1543957","0.0-6.0-2.70","2841308","co38659","norming","","","{""curiosity"":1,""confidence"":1}","[0,1]","../img/tt/094tt.jpg","",""
"3870.035000000149","","","recognition","survey-text","499","1547829","0.0-6.0-3.70","2841308","co38659","norming","","","{""guess"":""dier""}","","../img/tt/094tt.jpg","",""
"null","../img/gs/094gs.jpg","null","reveal","image-keyboard-response","500","1549839","0.0-6.0-4.70","2841308","co38659","norming","","","","","","",""
"null","../img/tt/094tt.jpg","null","mooney2","image-keyboard-response","501","1551850","0.0-6.0-5.70","2841308","co38659","norming","","","","","","",""
"14191.98999999999","","","post_reveal_questions","survey-likert","502","1566045","0.0-6.0-6.70","2841308","co38659","norming","","","{""aha"":4}","[0]","../img/tt/094tt.jpg","",""
"null","<div style=""font-size:60px;""> </div>","null","fixation","html-keyboard-response","503","1566247","0.0-6.0-0.71","2841308","co38659","norming","","","","","","",""
"null","../img/tt/435tt.jpg","null","mooney1","image-keyboard-response","504","1569251","0.0-6.0-1.71","2841308","co38659","norming","","","","","","",""
"3126.524999999907","","","post_mooney1_questions","survey-likert","505","1572381","0.0-6.0-2.71","2841308","co38659","norming","","","{""curiosity"":3,""confidence"":1}","[0,1]","../img/tt/435tt.jpg","",""
"1317.839999999851","","","recognition","survey-text","506","1573700","0.0-6.0-3.71","2841308","co38659","norming","","","{""guess"":""huis""}","","../img/tt/435tt.jpg","",""
"null","../img/gs/435gs.jpg","null","reveal","image-keyboard-response","507","1575703","0.0-6.0-4.71","2841308","co38659","norming","","","","","","",""
"null","../img/tt/435tt.jpg","null","mooney2","image-keyboard-response","508","1577704","0.0-6.0-5.71","2841308","co38659","norming","","","","","","",""
"1975.3999999999069","","","post_reveal_questions","survey-likert","509","1579685","0.0-6.0-6.71","2841308","co38659","norming","","","{""aha"":6}","[0]","../img/tt/435tt.jpg","",""
"null","<div style=""font-size:60px;""> </div>","null","fixation","html-keyboard-response","510","1579886","0.0-6.0-0.72","2841308","co38659","norming","","","","","","",""
"null","../img/tt/1247tt.jpg","null","mooney1","image-keyboard-response","511","1582890","0.0-6.0-1.72","2841308","co38659","norming","","","","","","",""
"3775.5949999997392","","","post_mooney1_questions","survey-likert","512","1586666","0.0-6.0-2.72","2841308","co38659","norming","","","{""curiosity"":3,""confidence"":1}","[0,1]","../img/tt/1247tt.jpg","",""
"2022.3499999998603","","","recognition","survey-text","513","1588690","0.0-6.0-3.72","2841308","co38659","norming","","","{""guess"":""vrouw""}","","../img/tt/1247tt.jpg","",""
"null","../img/gs/1247gs.jpg","null","reveal","image-keyboard-response","514","1590692","0.0-6.0-4.72","2841308","co38659","norming","","","","","","",""
"null","../img/tt/1247tt.jpg","null","mooney2","image-keyboard-response","515","1592700","0.0-6.0-5.72","2841308","co38659","norming","","","","","","",""
"1987.9650000000838","","","post_reveal_questions","survey-likert","516","1594691","0.0-6.0-6.72","2841308","co38659","norming","","","{""aha"":6}","[0]","../img/tt/1247tt.jpg","",""
"null","<div style=""font-size:60px;""> </div>","null","fixation","html-keyboard-response","517","1594898","0.0-6.0-0.73","2841308","co38659","norming","","","","","","",""
"null","../img/tt/1200tt.jpg","null","mooney1","image-keyboard-response","518","1597911","0.0-6.0-1.73","2841308","co38659","norming","","","","","","",""
"5472.254999999888","","","post_mooney1_questions","survey-likert","519","1603387","0.0-6.0-2.73","2841308","co38659","norming","","","{""curiosity"":0,""confidence"":0}","[0,1]","../img/tt/1200tt.jpg","",""
"3189.869999999879","","","recognition","survey-text","520","1606578","0.0-6.0-3.73","2841308","co38659","norming","","","{""guess"":""leeuw""}","","../img/tt/1200tt.jpg","",""
"null","../img/gs/1200gs.jpg","null","reveal","image-keyboard-response","521","1608588","0.0-6.0-4.73","2841308","co38659","norming","","","","","","",""
"null","../img/tt/1200tt.jpg","null","mooney2","image-keyboard-response","522","1610591","0.0-6.0-5.73","2841308","co38659","norming","","","","","","",""
"2312.159999999916","","","post_reveal_questions","survey-likert","523","1612906","0.0-6.0-6.73","2841308","co38659","norming","","","{""aha"":0}","[0]","../img/tt/1200tt.jpg","",""
"null","<div style=""font-size:60px;""> </div>","null","fixation","html-keyboard-response","524","1613112","0.0-6.0-0.74","2841308","co38659","norming","","","","","","",""
"null","../img/tt/1362tt.jpg","null","mooney1","image-keyboard-response","525","1616116","0.0-6.0-1.74","2841308","co38659","norming","","","","","","",""
"4459.120000000112","","","post_mooney1_questions","survey-likert","526","1620579","0.0-6.0-2.74","2841308","co38659","norming","","","{""curiosity"":3,""confidence"":2}","[0,1]","../img/tt/1362tt.jpg","",""
"2606.0800000000745","","","recognition","survey-text","527","1623186","0.0-6.0-3.74","2841308","co38659","norming","","","{""guess"":""eten""}","","../img/tt/1362tt.jpg","",""
"null","../img/gs/1362gs.jpg","null","reveal","image-keyboard-response","528","1625195","0.0-6.0-4.74","2841308","co38659","norming","","","","","","",""
"null","../img/tt/1362tt.jpg","null","mooney2","image-keyboard-response","529","1627197","0.0-6.0-5.74","2841308","co38659","norming","","","","","","",""
"2443.179999999935","","","post_reveal_questions","survey-likert","530","1629642","0.0-6.0-6.74","2841308","co38659","norming","","","{""aha"":3}","[0]","../img/tt/1362tt.jpg","",""
"null","<div style=""font-size:60px;""> </div>","null","fixation","html-keyboard-response","531","1629849","0.0-6.0-0.75","2841308","co38659","norming","","","","","","",""
"null","../img/tt/056tt.jpg","null","mooney1","image-keyboard-response","532","1632858","0.0-6.0-1.75","2841308","co38659","norming","","","","","","",""
"4748.354999999981","","","post_mooney1_questions","survey-likert","533","1637610","0.0-6.0-2.75","2841308","co38659","norming","","","{""curiosity"":6,""confidence"":0}","[0,1]","../img/tt/056tt.jpg","",""
"6085.825000000186","","","recognition","survey-text","534","1643698","0.0-6.0-3.75","2841308","co38659","norming","","","{""guess"":""plassende man""}","","../img/tt/056tt.jpg","",""
"null","../img/gs/056gs.jpg","null","reveal","image-keyboard-response","535","1645704","0.0-6.0-4.75","2841308","co38659","norming","","","","","","",""
"null","../img/tt/056tt.jpg","null","mooney2","image-keyboard-response","536","1647706","0.0-6.0-5.75","2841308","co38659","norming","","","","","","",""
"2002.9500000001863","","","post_reveal_questions","survey-likert","537","1649710","0.0-6.0-6.75","2841308","co38659","norming","","","{""aha"":6}","[0]","../img/tt/056tt.jpg","",""
"null","<div style=""font-size:60px;""> </div>","null","fixation","html-keyboard-response","538","1649912","0.0-6.0-0.76","2841308","co38659","norming","","","","","","",""
"null","../img/tt/442tt.jpg","null","mooney1","image-keyboard-response","539","1652915","0.0-6.0-1.76","2841308","co38659","norming","","","","","","",""
"7631.760000000009","","","post_mooney1_questions","survey-likert","540","1660550","0.0-6.0-2.76","2841308","co38659","norming","","","{""curiosity"":6,""confidence"":0}","[0,1]","../img/tt/442tt.jpg","",""
"4318.039999999804","","","recognition","survey-text","541","1664870","0.0-6.0-3.76","2841308","co38659","norming","","","{""guess"":""dier""}","","../img/tt/442tt.jpg","",""
"null","../img/gs/442gs.jpg","null","reveal","image-keyboard-response","542","1666871","0.0-6.0-4.76","2841308","co38659","norming","","","","","","",""
"null","../img/tt/442tt.jpg","null","mooney2","image-keyboard-response","543","1668875","0.0-6.0-5.76","2841308","co38659","norming","","","","","","",""
"5248.985000000102","","","post_reveal_questions","survey-likert","544","1674126","0.0-6.0-6.76","2841308","co38659","norming","","","{""aha"":0}","[0]","../img/tt/442tt.jpg","",""
"null","<div style=""font-size:60px;""> </div>","null","fixation","html-keyboard-response","545","1674330","0.0-6.0-0.77","2841308","co38659","norming","","","","","","",""
"null","../img/tt/111tt.jpg","null","mooney1","image-keyboard-response","546","1677334","0.0-6.0-1.77","2841308","co38659","norming","","","","","","",""
"5172.574999999953","","","post_mooney1_questions","survey-likert","547","1682510","0.0-6.0-2.77","2841308","co38659","norming","","","{""curiosity"":5,""confidence"":1}","[0,1]","../img/tt/111tt.jpg","",""
"2086.249999999767","","","recognition","survey-text","548","1684598","0.0-6.0-3.77","2841308","co38659","norming","","","{""guess"":""douche""}","","../img/tt/111tt.jpg","",""
"null","../img/gs/111gs.jpg","null","reveal","image-keyboard-response","549","1686608","0.0-6.0-4.77","2841308","co38659","norming","","","","","","",""
"null","../img/tt/111tt.jpg","null","mooney2","image-keyboard-response","550","1688610","0.0-6.0-5.77","2841308","co38659","norming","","","","","","",""
"1441.2899999998044","","","post_reveal_questions","survey-likert","551","1690054","0.0-6.0-6.77","2841308","co38659","norming","","","{""aha"":6}","[0]","../img/tt/111tt.jpg","",""
