"rt","stimulus","key_press","test_part","trial_type","trial_index","time_elapsed","internal_node_id","totalTime","subject","experiment_name","button_pressed","success","responses","question_order","currentStim","old","correct"
"12071.024999997462","Welcome to the experiment. This is an online experiment so please don't close the tab/window until we say goodbye.  Press any key to begin.","75","instructions","html-keyboard-response","0","12119","0.0-0.0","3276666","co38392","norming","","","","","","",""
"39897.92999999918","<div style='word-wrap: break-word; width: 900px'><h3>Please consider this information carefully before deciding whether to participate in this research</h3><ul style='text-align: left; font-size: .8em;'><li><b>Purpose of the research</b>: To examine how people process images.</li><li><b>What you will do in this research</b>:  Stimuli (images) will be presented on the computer and you will be asked different questions about them.</li><li><b>Time required</b>: Participation will take between 45 and 60 minutes to complete.</li><li><b>Risks</b>:  There are no anticipated risks associated with participating in this study. The effects of participating should be comparable to those you would experience from viewing a computer monitor for 30 minutes and using a mouse or keyboard.</li><li><b>Benefits</b>:  This study provides no benefits to you individually except for the credit. The study provides important information about the nature of perception and learning.</li><li><b>Confidentiality</b>:  Your participation in this study will remain confidential. No personally identifiable information will be associated with your data. Your de-identified data may be shared with other researchers and used in future projects.</li><li><b>Participation and withdrawal</b>:  Your participation in this study is completely voluntary and you may refuse to participate or you may choose to withdraw at any time without penalty.</li><li><b>How to contact the researchers</b>: If you have questions or concerns about your participation or payment, or want to request a summary of research findings, please contact Sander Van de Cruys (KU Leuven), at sander.vandecruys@kuleuven.be.</li></ul><p>The nature and purpose of this research have been sufficiently explained and I agree to participate in this study.  I understand that I am free to withdraw at any time without incurring any penalty.</p><p>Please consent by clicking the button below to continue. Otherwise, please exit the study at this time.</p></div>","","instructions","html-button-response","1","52020","0.0-1.0","3276666","co38392","norming","0","","","","","",""
"","","","instructions","fullscreen","2","56507","0.0-2.0","3276666","co38392","norming","","true","","","","",""
"51300.87499999718","","","sona","survey-html-form","3","107808","0.0-3.0","3276666","co38392","norming","","","[{""name"":""sonaid"",""value"":""38392""},{""name"":""debrief"",""value"":""yes""},{""name"":""datajoin"",""value"":""yes""}]","","","",""
"198124.02500000098","<div style='word-wrap: break-word; width: 900px'><h3>Instructions</h3><p>This experiment will have 3 parts. In the first part you will see a series of distorted images like the one below on the left. As you can see in the righthand image, the distorted images are derived from actual photographs. In what follows, you will <strong>briefly</strong> be presented with <strong>only</strong> the distorted image.</p> <div style='float: left; margin-right: 20px;'><img src='../img/018tt.jpg' height='250' width='250'></img></div><div style='float: right; margin-left: 20px;'><img src='../img/018gs.jpg' height='250' width='250'></img></div><p>Subsequently you will be asked a few questions about the image: One question on how <strong>curious</strong> you are about the solution and one on how <strong>confident</strong> you are that you know the solution.</p>Next, we ask you to make a guess on what is in the image. Note that it is OK to name just the <strong>basic level category</strong>. For example when you see a parrot in the image, 'parrot' will obviously be a correct answer but also correct is 'bird'. However, 'animal' will <strong>not</strong> be counted as a correct response. For the example above, 'rose' would be correct or 'flower', but not 'plant'. When soccer players are depicted, 'soccer', 'football', 'soccer players' will be correct, but not 'humans', 'outdoors', or 'sports'. You do not need to describe the image in full, just name the main object in it <strong>in one or two words</strong>. All images depict objects from one of the following broad level categories: animals, inanimate objects, plants, sports, vehicles, and food. Recognizing means knowing <strong>more</strong> than these broad labels for a given image. But we always encourage you to <strong>make a guess</strong> if you can. Note that you are allowed to use <strong>Dutch and English</strong> in your answers, whatever comes easiest for you.</p><p>Press any key to continue.</p></div>","85","instructions","html-keyboard-response","4","305937","0.0-4.0","3276666","co38392","norming","","","","","","",""
"233854.080000001","<div style='word-wrap: break-word; width: 900px'><h3>Instructions</h3> <p>Next, the solution image will be revealed to you and you'll be asked to indicate how strong your <strong>aha-experience</strong> was after seeing the solution. This describes the positive feeling of the 'click' you sometimes experience, when the pieces of the 'puzzle' fall together and you suddenly have 'insight' in the image.</p><img src='aha.jpg' height='188' width='250'></img><p>Note that there are no right or wrong answers. We are interested in what <strong>you</strong> see in the image and how <strong>you</strong> feel about it.</p><p>Press any key to start the experiment.</p></div>","32","instructions","html-keyboard-response","5","539791","0.0-5.0","3276666","co38392","norming","","","","","","",""
"null","<div style=""font-size:60px;""> </div>","null","fixation","html-keyboard-response","6","539995","0.0-6.0-0.0","3276666","co38392","norming","","","","","","",""
"null","../img/tt/1142tt.jpg","null","mooney1","image-keyboard-response","7","543003","0.0-6.0-1.0","3276666","co38392","norming","","","","","","",""
"10593.550000001444","","","post_mooney1_questions","survey-likert","8","553598","0.0-6.0-2.0","3276666","co38392","norming","","","{""curiosity"":2,""confidence"":6}","[0,1]","../img/tt/1142tt.jpg","",""
"6805.519999998156","","","recognition","survey-text","9","560405","0.0-6.0-3.0","3276666","co38392","norming","","","{""guess"":""boogschieter""}","","../img/tt/1142tt.jpg","",""
"null","../img/gs/1142gs.jpg","null","reveal","image-keyboard-response","10","562406","0.0-6.0-4.0","3276666","co38392","norming","","","","","","",""
"null","../img/tt/1142tt.jpg","null","mooney2","image-keyboard-response","11","564414","0.0-6.0-5.0","3276666","co38392","norming","","","","","","",""
"8276.485000002198","","","post_reveal_questions","survey-likert","12","572693","0.0-6.0-6.0","3276666","co38392","norming","","","{""aha"":5}","[0]","../img/tt/1142tt.jpg","",""
"null","<div style=""font-size:60px;""> </div>","null","fixation","html-keyboard-response","13","572895","0.0-6.0-0.1","3276666","co38392","norming","","","","","","",""
"null","../img/tt/001tt.jpg","null","mooney1","image-keyboard-response","14","575899","0.0-6.0-1.1","3276666","co38392","norming","","","","","","",""
"4751.425000002142","","","post_mooney1_questions","survey-likert","15","580653","0.0-6.0-2.1","3276666","co38392","norming","","","{""curiosity"":5,""confidence"":2}","[0,1]","../img/tt/001tt.jpg","",""
"7037.305000001565","","","recognition","survey-text","16","587693","0.0-6.0-3.1","3276666","co38392","norming","","","{""guess"":""cow""}","","../img/tt/001tt.jpg","",""
"null","../img/gs/001gs.jpg","null","reveal","image-keyboard-response","17","589694","0.0-6.0-4.1","3276666","co38392","norming","","","","","","",""
"null","../img/tt/001tt.jpg","null","mooney2","image-keyboard-response","18","591698","0.0-6.0-5.1","3276666","co38392","norming","","","","","","",""
"3025.2899999978254","","","post_reveal_questions","survey-likert","19","594725","0.0-6.0-6.1","3276666","co38392","norming","","","{""aha"":6}","[0]","../img/tt/001tt.jpg","",""
"null","<div style=""font-size:60px;""> </div>","null","fixation","html-keyboard-response","20","594928","0.0-6.0-0.2","3276666","co38392","norming","","","","","","",""
"null","../img/tt/1307tt.jpg","null","mooney1","image-keyboard-response","21","597931","0.0-6.0-1.2","3276666","co38392","norming","","","","","","",""
"5991.965000001015","","","post_mooney1_questions","survey-likert","22","603928","0.0-6.0-2.2","3276666","co38392","norming","","","{""curiosity"":5,""confidence"":2}","[0,1]","../img/tt/1307tt.jpg","",""
"4949.809999998193","","","recognition","survey-text","23","608879","0.0-6.0-3.2","3276666","co38392","norming","","","{""guess"":""car""}","","../img/tt/1307tt.jpg","",""
"null","../img/gs/1307gs.jpg","null","reveal","image-keyboard-response","24","610888","0.0-6.0-4.2","3276666","co38392","norming","","","","","","",""
"null","../img/tt/1307tt.jpg","null","mooney2","image-keyboard-response","25","612891","0.0-6.0-5.2","3276666","co38392","norming","","","","","","",""
"2610.6049999980023","","","post_reveal_questions","survey-likert","26","615503","0.0-6.0-6.2","3276666","co38392","norming","","","{""aha"":4}","[0]","../img/tt/1307tt.jpg","",""
"null","<div style=""font-size:60px;""> </div>","null","fixation","html-keyboard-response","27","615705","0.0-6.0-0.3","3276666","co38392","norming","","","","","","",""
"null","../img/tt/1125tt.jpg","null","mooney1","image-keyboard-response","28","618718","0.0-6.0-1.3","3276666","co38392","norming","","","","","","",""
"4119.384999998147","","","post_mooney1_questions","survey-likert","29","622840","0.0-6.0-2.3","3276666","co38392","norming","","","{""curiosity"":5,""confidence"":1}","[0,1]","../img/tt/1125tt.jpg","",""
"3149.869999997434","","","recognition","survey-text","30","625991","0.0-6.0-3.3","3276666","co38392","norming","","","{""guess"":""boat""}","","../img/tt/1125tt.jpg","",""
"null","../img/gs/1125gs.jpg","null","reveal","image-keyboard-response","31","627996","0.0-6.0-4.3","3276666","co38392","norming","","","","","","",""
"null","../img/tt/1125tt.jpg","null","mooney2","image-keyboard-response","32","630002","0.0-6.0-5.3","3276666","co38392","norming","","","","","","",""
"3747.869999999297","","","post_reveal_questions","survey-likert","33","633752","0.0-6.0-6.3","3276666","co38392","norming","","","{""aha"":6}","[0]","../img/tt/1125tt.jpg","",""
"null","<div style=""font-size:60px;""> </div>","null","fixation","html-keyboard-response","34","633956","0.0-6.0-0.4","3276666","co38392","norming","","","","","","",""
"null","../img/tt/007tt.jpg","null","mooney1","image-keyboard-response","35","636960","0.0-6.0-1.4","3276666","co38392","norming","","","","","","",""
"4239.155000002938","","","post_mooney1_questions","survey-likert","36","641200","0.0-6.0-2.4","3276666","co38392","norming","","","{""curiosity"":4,""confidence"":2}","[0,1]","../img/tt/007tt.jpg","",""
"3533.9899999998743","","","recognition","survey-text","37","644735","0.0-6.0-3.4","3276666","co38392","norming","","","{""guess"":""chicken""}","","../img/tt/007tt.jpg","",""
"null","../img/gs/007gs.jpg","null","reveal","image-keyboard-response","38","646741","0.0-6.0-4.4","3276666","co38392","norming","","","","","","",""
"null","../img/tt/007tt.jpg","null","mooney2","image-keyboard-response","39","648754","0.0-6.0-5.4","3276666","co38392","norming","","","","","","",""
"3003.215000000666","","","post_reveal_questions","survey-likert","40","651760","0.0-6.0-6.4","3276666","co38392","norming","","","{""aha"":1}","[0]","../img/tt/007tt.jpg","",""
"null","<div style=""font-size:60px;""> </div>","null","fixation","html-keyboard-response","41","651967","0.0-6.0-0.5","3276666","co38392","norming","","","","","","",""
"null","../img/tt/515tt.jpg","null","mooney1","image-keyboard-response","42","654976","0.0-6.0-1.5","3276666","co38392","norming","","","","","","",""
"5038.305000001797","","","post_mooney1_questions","survey-likert","43","660016","0.0-6.0-2.5","3276666","co38392","norming","","","{""curiosity"":4,""confidence"":3}","[0,1]","../img/tt/515tt.jpg","",""
"3286.025000001304","","","recognition","survey-text","44","663305","0.0-6.0-3.5","3276666","co38392","norming","","","{""guess"":""person""}","","../img/tt/515tt.jpg","",""
"null","../img/gs/515gs.jpg","null","reveal","image-keyboard-response","45","665308","0.0-6.0-4.5","3276666","co38392","norming","","","","","","",""
"null","../img/tt/515tt.jpg","null","mooney2","image-keyboard-response","46","667314","0.0-6.0-5.5","3276666","co38392","norming","","","","","","",""
"3132.675000000745","","","post_reveal_questions","survey-likert","47","670449","0.0-6.0-6.5","3276666","co38392","norming","","","{""aha"":6}","[0]","../img/tt/515tt.jpg","",""
"null","<div style=""font-size:60px;""> </div>","null","fixation","html-keyboard-response","48","670660","0.0-6.0-0.6","3276666","co38392","norming","","","","","","",""
"null","../img/tt/1123tt.jpg","null","mooney1","image-keyboard-response","49","673663","0.0-6.0-1.6","3276666","co38392","norming","","","","","","",""
"4863.519999998971","","","post_mooney1_questions","survey-likert","50","678529","0.0-6.0-2.6","3276666","co38392","norming","","","{""curiosity"":5,""confidence"":2}","[0,1]","../img/tt/1123tt.jpg","",""
"6294.17000000109","","","recognition","survey-text","51","684825","0.0-6.0-3.6","3276666","co38392","norming","","","{""guess"":""landscape""}","","../img/tt/1123tt.jpg","",""
"null","../img/gs/1123gs.jpg","null","reveal","image-keyboard-response","52","686834","0.0-6.0-4.6","3276666","co38392","norming","","","","","","",""
"null","../img/tt/1123tt.jpg","null","mooney2","image-keyboard-response","53","688844","0.0-6.0-5.6","3276666","co38392","norming","","","","","","",""
"2122.219999997411","","","post_reveal_questions","survey-likert","54","690969","0.0-6.0-6.6","3276666","co38392","norming","","","{""aha"":5}","[0]","../img/tt/1123tt.jpg","",""
"null","<div style=""font-size:60px;""> </div>","null","fixation","html-keyboard-response","55","691170","0.0-6.0-0.7","3276666","co38392","norming","","","","","","",""
"null","../img/tt/091tt.jpg","null","mooney1","image-keyboard-response","56","694175","0.0-6.0-1.7","3276666","co38392","norming","","","","","","",""
"5783.339999998105","","","post_mooney1_questions","survey-likert","57","699961","0.0-6.0-2.7","3276666","co38392","norming","","","{""curiosity"":5,""confidence"":5}","[0,1]","../img/tt/091tt.jpg","",""
"3646.06000000285","","","recognition","survey-text","58","703609","0.0-6.0-3.7","3276666","co38392","norming","","","{""guess"":""dog""}","","../img/tt/091tt.jpg","",""
"null","../img/gs/091gs.jpg","null","reveal","image-keyboard-response","59","705617","0.0-6.0-4.7","3276666","co38392","norming","","","","","","",""
"null","../img/tt/091tt.jpg","null","mooney2","image-keyboard-response","60","707622","0.0-6.0-5.7","3276666","co38392","norming","","","","","","",""
"3320.6849999987753","","","post_reveal_questions","survey-likert","61","710945","0.0-6.0-6.7","3276666","co38392","norming","","","{""aha"":6}","[0]","../img/tt/091tt.jpg","",""
"null","<div style=""font-size:60px;""> </div>","null","fixation","html-keyboard-response","62","711146","0.0-6.0-0.8","3276666","co38392","norming","","","","","","",""
"null","../img/tt/040tt.jpg","null","mooney1","image-keyboard-response","63","714153","0.0-6.0-1.8","3276666","co38392","norming","","","","","","",""
"5485.06499999715","","","post_mooney1_questions","survey-likert","64","719641","0.0-6.0-2.8","3276666","co38392","norming","","","{""curiosity"":6,""confidence"":0}","[0,1]","../img/tt/040tt.jpg","",""
"5206.130000002333","","","recognition","survey-text","65","724854","0.0-6.0-3.8","3276666","co38392","norming","","","{""guess"":""cow""}","","../img/tt/040tt.jpg","",""
"null","../img/gs/040gs.jpg","null","reveal","image-keyboard-response","66","726864","0.0-6.0-4.8","3276666","co38392","norming","","","","","","",""
"null","../img/tt/040tt.jpg","null","mooney2","image-keyboard-response","67","728866","0.0-6.0-5.8","3276666","co38392","norming","","","","","","",""
"2161.78000000224","","","post_reveal_questions","survey-likert","68","731030","0.0-6.0-6.8","3276666","co38392","norming","","","{""aha"":6}","[0]","../img/tt/040tt.jpg","",""
"null","<div style=""font-size:60px;""> </div>","null","fixation","html-keyboard-response","69","731234","0.0-6.0-0.9","3276666","co38392","norming","","","","","","",""
"null","../img/tt/1159tt.jpg","null","mooney1","image-keyboard-response","70","734243","0.0-6.0-1.9","3276666","co38392","norming","","","","","","",""
"5520.524999999907","","","post_mooney1_questions","survey-likert","71","739766","0.0-6.0-2.9","3276666","co38392","norming","","","{""curiosity"":6,""confidence"":1}","[0,1]","../img/tt/1159tt.jpg","",""
"3350.080000000191","","","recognition","survey-text","72","743118","0.0-6.0-3.9","3276666","co38392","norming","","","{""guess"":""train""}","","../img/tt/1159tt.jpg","",""
"null","../img/gs/1159gs.jpg","null","reveal","image-keyboard-response","73","745125","0.0-6.0-4.9","3276666","co38392","norming","","","","","","",""
"null","../img/tt/1159tt.jpg","null","mooney2","image-keyboard-response","74","747135","0.0-6.0-5.9","3276666","co38392","norming","","","","","","",""
"2500.7400000030175","","","post_reveal_questions","survey-likert","75","749638","0.0-6.0-6.9","3276666","co38392","norming","","","{""aha"":4}","[0]","../img/tt/1159tt.jpg","",""
"null","<div style=""font-size:60px;""> </div>","null","fixation","html-keyboard-response","76","749844","0.0-6.0-0.10","3276666","co38392","norming","","","","","","",""
"null","../img/tt/1188tt.jpg","null","mooney1","image-keyboard-response","77","752849","0.0-6.0-1.10","3276666","co38392","norming","","","","","","",""
"5770.110000001383","","","post_mooney1_questions","survey-likert","78","758622","0.0-6.0-2.10","3276666","co38392","norming","","","{""curiosity"":4,""confidence"":0}","[0,1]","../img/tt/1188tt.jpg","",""
"4085.7250000007916","","","recognition","survey-text","79","762710","0.0-6.0-3.10","3276666","co38392","norming","","","{""guess"":""person""}","","../img/tt/1188tt.jpg","",""
"null","../img/gs/1188gs.jpg","null","reveal","image-keyboard-response","80","764713","0.0-6.0-4.10","3276666","co38392","norming","","","","","","",""
"null","../img/tt/1188tt.jpg","null","mooney2","image-keyboard-response","81","766723","0.0-6.0-5.10","3276666","co38392","norming","","","","","","",""
"3968.8700000005774","","","post_reveal_questions","survey-likert","82","770694","0.0-6.0-6.10","3276666","co38392","norming","","","{""aha"":6}","[0]","../img/tt/1188tt.jpg","",""
"null","<div style=""font-size:60px;""> </div>","null","fixation","html-keyboard-response","83","770899","0.0-6.0-0.11","3276666","co38392","norming","","","","","","",""
"null","../img/tt/1236tt.jpg","null","mooney1","image-keyboard-response","84","773906","0.0-6.0-1.11","3276666","co38392","norming","","","","","","",""
"4321.909999998752","","","post_mooney1_questions","survey-likert","85","778230","0.0-6.0-2.11","3276666","co38392","norming","","","{""curiosity"":5,""confidence"":3}","[0,1]","../img/tt/1236tt.jpg","",""
"4158.120000000112","","","recognition","survey-text","86","782390","0.0-6.0-3.11","3276666","co38392","norming","","","{""guess"":""fontain""}","","../img/tt/1236tt.jpg","",""
"null","../img/gs/1236gs.jpg","null","reveal","image-keyboard-response","87","784392","0.0-6.0-4.11","3276666","co38392","norming","","","","","","",""
"null","../img/tt/1236tt.jpg","null","mooney2","image-keyboard-response","88","786396","0.0-6.0-5.11","3276666","co38392","norming","","","","","","",""
"2407.7500000020955","","","post_reveal_questions","survey-likert","89","788805","0.0-6.0-6.11","3276666","co38392","norming","","","{""aha"":6}","[0]","../img/tt/1236tt.jpg","",""
"null","<div style=""font-size:60px;""> </div>","null","fixation","html-keyboard-response","90","789011","0.0-6.0-0.12","3276666","co38392","norming","","","","","","",""
"null","../img/tt/1086tt.jpg","null","mooney1","image-keyboard-response","91","792019","0.0-6.0-1.12","3276666","co38392","norming","","","","","","",""
"3304.0549999967916","","","post_mooney1_questions","survey-likert","92","795326","0.0-6.0-2.12","3276666","co38392","norming","","","{""curiosity"":5,""confidence"":5}","[0,1]","../img/tt/1086tt.jpg","",""
"3270.069999998668","","","recognition","survey-text","93","798597","0.0-6.0-3.12","3276666","co38392","norming","","","{""guess"":""dog""}","","../img/tt/1086tt.jpg","",""
"null","../img/gs/1086gs.jpg","null","reveal","image-keyboard-response","94","800599","0.0-6.0-4.12","3276666","co38392","norming","","","","","","",""
"null","../img/tt/1086tt.jpg","null","mooney2","image-keyboard-response","95","802607","0.0-6.0-5.12","3276666","co38392","norming","","","","","","",""
"6451.890000000247","","","post_reveal_questions","survey-likert","96","809061","0.0-6.0-6.12","3276666","co38392","norming","","","{""aha"":1}","[0]","../img/tt/1086tt.jpg","",""
"null","<div style=""font-size:60px;""> </div>","null","fixation","html-keyboard-response","97","809272","0.0-6.0-0.13","3276666","co38392","norming","","","","","","",""
"null","../img/tt/1275tt.jpg","null","mooney1","image-keyboard-response","98","812276","0.0-6.0-1.13","3276666","co38392","norming","","","","","","",""
"7039.209999999031","","","post_mooney1_questions","survey-likert","99","819318","0.0-6.0-2.13","3276666","co38392","norming","","","{""curiosity"":5,""confidence"":1}","[0,1]","../img/tt/1275tt.jpg","",""
"2014.1899999980815","","","recognition","survey-text","100","821334","0.0-6.0-3.13","3276666","co38392","norming","","","{""guess"":""tiger""}","","../img/tt/1275tt.jpg","",""
"null","../img/gs/1275gs.jpg","null","reveal","image-keyboard-response","101","823342","0.0-6.0-4.13","3276666","co38392","norming","","","","","","",""
"null","../img/tt/1275tt.jpg","null","mooney2","image-keyboard-response","102","825344","0.0-6.0-5.13","3276666","co38392","norming","","","","","","",""
"3019.945000000065","","","post_reveal_questions","survey-likert","103","828365","0.0-6.0-6.13","3276666","co38392","norming","","","{""aha"":4}","[0]","../img/tt/1275tt.jpg","",""
"null","<div style=""font-size:60px;""> </div>","null","fixation","html-keyboard-response","104","828572","0.0-6.0-0.14","3276666","co38392","norming","","","","","","",""
"null","../img/tt/082tt.jpg","null","mooney1","image-keyboard-response","105","831579","0.0-6.0-1.14","3276666","co38392","norming","","","","","","",""
"4240.325000002515","","","post_mooney1_questions","survey-likert","106","835822","0.0-6.0-2.14","3276666","co38392","norming","","","{""curiosity"":5,""confidence"":1}","[0,1]","../img/tt/082tt.jpg","",""
"3733.959999997751","","","recognition","survey-text","107","839557","0.0-6.0-3.14","3276666","co38392","norming","","","{""guess"":""bird""}","","../img/tt/082tt.jpg","",""
"null","../img/gs/082gs.jpg","null","reveal","image-keyboard-response","108","841559","0.0-6.0-4.14","3276666","co38392","norming","","","","","","",""
"null","../img/tt/082tt.jpg","null","mooney2","image-keyboard-response","109","843560","0.0-6.0-5.14","3276666","co38392","norming","","","","","","",""
"3611.684999999823","","","post_reveal_questions","survey-likert","110","847165","0.0-6.0-6.14","3276666","co38392","norming","","","{""aha"":2}","[0]","../img/tt/082tt.jpg","",""
"null","<div style=""font-size:60px;""> </div>","null","fixation","html-keyboard-response","111","847372","0.0-6.0-0.15","3276666","co38392","norming","","","","","","",""
"null","../img/tt/353tt.jpg","null","mooney1","image-keyboard-response","112","850375","0.0-6.0-1.15","3276666","co38392","norming","","","","","","",""
"4651.35999999987","","","post_mooney1_questions","survey-likert","113","855029","0.0-6.0-2.15","3276666","co38392","norming","","","{""curiosity"":6,""confidence"":6}","[0,1]","../img/tt/353tt.jpg","",""
"4046.0600000005215","","","recognition","survey-text","114","859077","0.0-6.0-3.15","3276666","co38392","norming","","","{""guess"":""penguin""}","","../img/tt/353tt.jpg","",""
"null","../img/gs/353gs.jpg","null","reveal","image-keyboard-response","115","861084","0.0-6.0-4.15","3276666","co38392","norming","","","","","","",""
"null","../img/tt/353tt.jpg","null","mooney2","image-keyboard-response","116","863086","0.0-6.0-5.15","3276666","co38392","norming","","","","","","",""
"5405.900000001537","","","post_reveal_questions","survey-likert","117","868493","0.0-6.0-6.15","3276666","co38392","norming","","","{""aha"":6}","[0]","../img/tt/353tt.jpg","",""
"null","<div style=""font-size:60px;""> </div>","null","fixation","html-keyboard-response","118","868701","0.0-6.0-0.16","3276666","co38392","norming","","","","","","",""
"null","../img/tt/357tt.jpg","null","mooney1","image-keyboard-response","119","871711","0.0-6.0-1.16","3276666","co38392","norming","","","","","","",""
"3315.355000002426","","","post_mooney1_questions","survey-likert","120","875029","0.0-6.0-2.16","3276666","co38392","norming","","","{""curiosity"":6,""confidence"":2}","[0,1]","../img/tt/357tt.jpg","",""
"7382.02000000095","","","recognition","survey-text","121","882413","0.0-6.0-3.16","3276666","co38392","norming","","","{""guess"":""egel""}","","../img/tt/357tt.jpg","",""
"null","../img/gs/357gs.jpg","null","reveal","image-keyboard-response","122","884423","0.0-6.0-4.16","3276666","co38392","norming","","","","","","",""
"null","../img/tt/357tt.jpg","null","mooney2","image-keyboard-response","123","886427","0.0-6.0-5.16","3276666","co38392","norming","","","","","","",""
"2246.9600000004284","","","post_reveal_questions","survey-likert","124","888677","0.0-6.0-6.16","3276666","co38392","norming","","","{""aha"":5}","[0]","../img/tt/357tt.jpg","",""
"null","<div style=""font-size:60px;""> </div>","null","fixation","html-keyboard-response","125","888887","0.0-6.0-0.17","3276666","co38392","norming","","","","","","",""
"null","../img/tt/1084tt.jpg","null","mooney1","image-keyboard-response","126","891894","0.0-6.0-1.17","3276666","co38392","norming","","","","","","",""
"3116.1900000006426","","","post_mooney1_questions","survey-likert","127","895013","0.0-6.0-2.17","3276666","co38392","norming","","","{""curiosity"":4,""confidence"":1}","[0,1]","../img/tt/1084tt.jpg","",""
"3397.6599999986356","","","recognition","survey-text","128","898412","0.0-6.0-3.17","3276666","co38392","norming","","","{""guess"":""food""}","","../img/tt/1084tt.jpg","",""
"null","../img/gs/1084gs.jpg","null","reveal","image-keyboard-response","129","900414","0.0-6.0-4.17","3276666","co38392","norming","","","","","","",""
"null","../img/tt/1084tt.jpg","null","mooney2","image-keyboard-response","130","902419","0.0-6.0-5.17","3276666","co38392","norming","","","","","","",""
"3857.0550000004005","","","post_reveal_questions","survey-likert","131","906277","0.0-6.0-6.17","3276666","co38392","norming","","","{""aha"":5}","[0]","../img/tt/1084tt.jpg","",""
"null","<div style=""font-size:60px;""> </div>","null","fixation","html-keyboard-response","132","906486","0.0-6.0-0.18","3276666","co38392","norming","","","","","","",""
"null","../img/tt/1255tt.jpg","null","mooney1","image-keyboard-response","133","909488","0.0-6.0-1.18","3276666","co38392","norming","","","","","","",""
"3004.4000000015367","","","post_mooney1_questions","survey-likert","134","912493","0.0-6.0-2.18","3276666","co38392","norming","","","{""curiosity"":6,""confidence"":6}","[0,1]","../img/tt/1255tt.jpg","",""
"6534.404999998398","","","recognition","survey-text","135","919029","0.0-6.0-3.18","3276666","co38392","norming","","","{""guess"":""rabbit""}","","../img/tt/1255tt.jpg","",""
"null","../img/gs/1255gs.jpg","null","reveal","image-keyboard-response","136","921030","0.0-6.0-4.18","3276666","co38392","norming","","","","","","",""
"null","../img/tt/1255tt.jpg","null","mooney2","image-keyboard-response","137","923032","0.0-6.0-5.18","3276666","co38392","norming","","","","","","",""
"3852.069999997155","","","post_reveal_questions","survey-likert","138","926885","0.0-6.0-6.18","3276666","co38392","norming","","","{""aha"":4}","[0]","../img/tt/1255tt.jpg","",""
"null","<div style=""font-size:60px;""> </div>","null","fixation","html-keyboard-response","139","927094","0.0-6.0-0.19","3276666","co38392","norming","","","","","","",""
"null","../img/tt/060tt.jpg","null","mooney1","image-keyboard-response","140","930097","0.0-6.0-1.19","3276666","co38392","norming","","","","","","",""
"4315.644999998738","","","post_mooney1_questions","survey-likert","141","934413","0.0-6.0-2.19","3276666","co38392","norming","","","{""curiosity"":5,""confidence"":0}","[0,1]","../img/tt/060tt.jpg","",""
"4877.994999998948","","","recognition","survey-text","142","939293","0.0-6.0-3.19","3276666","co38392","norming","","","{""guess"":""drums""}","","../img/tt/060tt.jpg","",""
"null","../img/gs/060gs.jpg","null","reveal","image-keyboard-response","143","941299","0.0-6.0-4.19","3276666","co38392","norming","","","","","","",""
"null","../img/tt/060tt.jpg","null","mooney2","image-keyboard-response","144","943305","0.0-6.0-5.19","3276666","co38392","norming","","","","","","",""
"5130.4700000000885","","","post_reveal_questions","survey-likert","145","948437","0.0-6.0-6.19","3276666","co38392","norming","","","{""aha"":6}","[0]","../img/tt/060tt.jpg","",""
"null","<div style=""font-size:60px;""> </div>","null","fixation","html-keyboard-response","146","948647","0.0-6.0-0.20","3276666","co38392","norming","","","","","","",""
"null","../img/tt/318tt.jpg","null","mooney1","image-keyboard-response","147","951657","0.0-6.0-1.20","3276666","co38392","norming","","","","","","",""
"5017.659999997704","","","post_mooney1_questions","survey-likert","148","956677","0.0-6.0-2.20","3276666","co38392","norming","","","{""curiosity"":4,""confidence"":1}","[0,1]","../img/tt/318tt.jpg","",""
"4422.14999999851","","","recognition","survey-text","149","961101","0.0-6.0-3.20","3276666","co38392","norming","","","{""guess"":""helment""}","","../img/tt/318tt.jpg","",""
"null","../img/gs/318gs.jpg","null","reveal","image-keyboard-response","150","963104","0.0-6.0-4.20","3276666","co38392","norming","","","","","","",""
"null","../img/tt/318tt.jpg","null","mooney2","image-keyboard-response","151","965113","0.0-6.0-5.20","3276666","co38392","norming","","","","","","",""
"3578.2650000001304","","","post_reveal_questions","survey-likert","152","968698","0.0-6.0-6.20","3276666","co38392","norming","","","{""aha"":6}","[0]","../img/tt/318tt.jpg","",""
"null","<div style=""font-size:60px;""> </div>","null","fixation","html-keyboard-response","153","968903","0.0-6.0-0.21","3276666","co38392","norming","","","","","","",""
"null","../img/tt/079tt.jpg","null","mooney1","image-keyboard-response","154","971906","0.0-6.0-1.21","3276666","co38392","norming","","","","","","",""
"4742.290000002016","","","post_mooney1_questions","survey-likert","155","976651","0.0-6.0-2.21","3276666","co38392","norming","","","{""curiosity"":5,""confidence"":6}","[0,1]","../img/tt/079tt.jpg","",""
"2798.050000001327","","","recognition","survey-text","156","979450","0.0-6.0-3.21","3276666","co38392","norming","","","{""guess"":""bear""}","","../img/tt/079tt.jpg","",""
"null","../img/gs/079gs.jpg","null","reveal","image-keyboard-response","157","981461","0.0-6.0-4.21","3276666","co38392","norming","","","","","","",""
"null","../img/tt/079tt.jpg","null","mooney2","image-keyboard-response","158","983463","0.0-6.0-5.21","3276666","co38392","norming","","","","","","",""
"2713.3149999972666","","","post_reveal_questions","survey-likert","159","986178","0.0-6.0-6.21","3276666","co38392","norming","","","{""aha"":5}","[0]","../img/tt/079tt.jpg","",""
"null","<div style=""font-size:60px;""> </div>","null","fixation","html-keyboard-response","160","986386","0.0-6.0-0.22","3276666","co38392","norming","","","","","","",""
"null","../img/tt/096tt.jpg","null","mooney1","image-keyboard-response","161","989397","0.0-6.0-1.22","3276666","co38392","norming","","","","","","",""
"3514.4199999995762","","","post_mooney1_questions","survey-likert","162","992914","0.0-6.0-2.22","3276666","co38392","norming","","","{""curiosity"":5,""confidence"":6}","[0,1]","../img/tt/096tt.jpg","",""
"3110.2200000023004","","","recognition","survey-text","163","996026","0.0-6.0-3.22","3276666","co38392","norming","","","{""guess"":""piano""}","","../img/tt/096tt.jpg","",""
"null","../img/gs/096gs.jpg","null","reveal","image-keyboard-response","164","998036","0.0-6.0-4.22","3276666","co38392","norming","","","","","","",""
"null","../img/tt/096tt.jpg","null","mooney2","image-keyboard-response","165","1000045","0.0-6.0-5.22","3276666","co38392","norming","","","","","","",""
"3138.6850000016857","","","post_reveal_questions","survey-likert","166","1003186","0.0-6.0-6.22","3276666","co38392","norming","","","{""aha"":3}","[0]","../img/tt/096tt.jpg","",""
"null","<div style=""font-size:60px;""> </div>","null","fixation","html-keyboard-response","167","1003395","0.0-6.0-0.23","3276666","co38392","norming","","","","","","",""
"null","../img/tt/108tt.jpg","null","mooney1","image-keyboard-response","168","1006401","0.0-6.0-1.23","3276666","co38392","norming","","","","","","",""
"6847.215000001597","","","post_mooney1_questions","survey-likert","169","1013251","0.0-6.0-2.23","3276666","co38392","norming","","","{""curiosity"":6,""confidence"":2}","[0,1]","../img/tt/108tt.jpg","",""
"7053.970000000787","","","recognition","survey-text","170","1020306","0.0-6.0-3.23","3276666","co38392","norming","","","{""guess"":""cat""}","","../img/tt/108tt.jpg","",""
"null","../img/gs/108gs.jpg","null","reveal","image-keyboard-response","171","1022315","0.0-6.0-4.23","3276666","co38392","norming","","","","","","",""
"null","../img/tt/108tt.jpg","null","mooney2","image-keyboard-response","172","1024326","0.0-6.0-5.23","3276666","co38392","norming","","","","","","",""
"2497.9199999979464","","","post_reveal_questions","survey-likert","173","1026826","0.0-6.0-6.23","3276666","co38392","norming","","","{""aha"":5}","[0]","../img/tt/108tt.jpg","",""
"null","<div style=""font-size:60px;""> </div>","null","fixation","html-keyboard-response","174","1027027","0.0-6.0-0.24","3276666","co38392","norming","","","","","","",""
"null","../img/tt/1242tt.jpg","null","mooney1","image-keyboard-response","175","1030034","0.0-6.0-1.24","3276666","co38392","norming","","","","","","",""
"5705.069999999949","","","post_mooney1_questions","survey-likert","176","1035742","0.0-6.0-2.24","3276666","co38392","norming","","","{""curiosity"":6,""confidence"":4}","[0,1]","../img/tt/1242tt.jpg","",""
"3126.0250000014203","","","recognition","survey-text","177","1038869","0.0-6.0-3.24","3276666","co38392","norming","","","{""guess"":""fox""}","","../img/tt/1242tt.jpg","",""
"null","../img/gs/1242gs.jpg","null","reveal","image-keyboard-response","178","1040871","0.0-6.0-4.24","3276666","co38392","norming","","","","","","",""
"null","../img/tt/1242tt.jpg","null","mooney2","image-keyboard-response","179","1042876","0.0-6.0-5.24","3276666","co38392","norming","","","","","","",""
"2237.605000002077","","","post_reveal_questions","survey-likert","180","1045117","0.0-6.0-6.24","3276666","co38392","norming","","","{""aha"":5}","[0]","../img/tt/1242tt.jpg","",""
"null","<div style=""font-size:60px;""> </div>","null","fixation","html-keyboard-response","181","1045324","0.0-6.0-0.25","3276666","co38392","norming","","","","","","",""
"null","../img/tt/1118tt.jpg","null","mooney1","image-keyboard-response","182","1048332","0.0-6.0-1.25","3276666","co38392","norming","","","","","","",""
"4926.2950000013225","","","post_mooney1_questions","survey-likert","183","1053262","0.0-6.0-2.25","3276666","co38392","norming","","","{""curiosity"":6,""confidence"":0}","[0,1]","../img/tt/1118tt.jpg","",""
"5590.195000000764","","","recognition","survey-text","184","1058853","0.0-6.0-3.25","3276666","co38392","norming","","","{""guess"":""dog""}","","../img/tt/1118tt.jpg","",""
"null","../img/gs/1118gs.jpg","null","reveal","image-keyboard-response","185","1060856","0.0-6.0-4.25","3276666","co38392","norming","","","","","","",""
"null","../img/tt/1118tt.jpg","null","mooney2","image-keyboard-response","186","1062867","0.0-6.0-5.25","3276666","co38392","norming","","","","","","",""
"9120.620000001509","","","post_reveal_questions","survey-likert","187","1071989","0.0-6.0-6.25","3276666","co38392","norming","","","{""aha"":6}","[0]","../img/tt/1118tt.jpg","",""
"null","<div style=""font-size:60px;""> </div>","null","fixation","html-keyboard-response","188","1072199","0.0-6.0-0.26","3276666","co38392","norming","","","","","","",""
"null","../img/tt/1270tt.jpg","null","mooney1","image-keyboard-response","189","1075202","0.0-6.0-1.26","3276666","co38392","norming","","","","","","",""
"4961.390000000596","","","post_mooney1_questions","survey-likert","190","1080166","0.0-6.0-2.26","3276666","co38392","norming","","","{""curiosity"":4,""confidence"":5}","[0,1]","../img/tt/1270tt.jpg","",""
"6550.129999999655","","","recognition","survey-text","191","1086718","0.0-6.0-3.26","3276666","co38392","norming","","","{""guess"":""beaber""}","","../img/tt/1270tt.jpg","",""
"null","../img/gs/1270gs.jpg","null","reveal","image-keyboard-response","192","1088720","0.0-6.0-4.26","3276666","co38392","norming","","","","","","",""
"null","../img/tt/1270tt.jpg","null","mooney2","image-keyboard-response","193","1090727","0.0-6.0-5.26","3276666","co38392","norming","","","","","","",""
"2268.144999998156","","","post_reveal_questions","survey-likert","194","1092998","0.0-6.0-6.26","3276666","co38392","norming","","","{""aha"":6}","[0]","../img/tt/1270tt.jpg","",""
"null","<div style=""font-size:60px;""> </div>","null","fixation","html-keyboard-response","195","1093201","0.0-6.0-0.27","3276666","co38392","norming","","","","","","",""
"null","../img/tt/1196tt.jpg","null","mooney1","image-keyboard-response","196","1096209","0.0-6.0-1.27","3276666","co38392","norming","","","","","","",""
"4650.195000002161","","","post_mooney1_questions","survey-likert","197","1100862","0.0-6.0-2.27","3276666","co38392","norming","","","{""curiosity"":5,""confidence"":0}","[0,1]","../img/tt/1196tt.jpg","",""
"2198.244999999646","","","recognition","survey-text","198","1103062","0.0-6.0-3.27","3276666","co38392","norming","","","{""guess"":""car""}","","../img/tt/1196tt.jpg","",""
"null","../img/gs/1196gs.jpg","null","reveal","image-keyboard-response","199","1105066","0.0-6.0-4.27","3276666","co38392","norming","","","","","","",""
"null","../img/tt/1196tt.jpg","null","mooney2","image-keyboard-response","200","1107067","0.0-6.0-5.27","3276666","co38392","norming","","","","","","",""
"2282.295000000857","","","post_reveal_questions","survey-likert","201","1109350","0.0-6.0-6.27","3276666","co38392","norming","","","{""aha"":6}","[0]","../img/tt/1196tt.jpg","",""
"null","<div style=""font-size:60px;""> </div>","null","fixation","html-keyboard-response","202","1109556","0.0-6.0-0.28","3276666","co38392","norming","","","","","","",""
"null","../img/tt/497tt.jpg","null","mooney1","image-keyboard-response","203","1112568","0.0-6.0-1.28","3276666","co38392","norming","","","","","","",""
"5155.479999997653","","","post_mooney1_questions","survey-likert","204","1117726","0.0-6.0-2.28","3276666","co38392","norming","","","{""curiosity"":6,""confidence"":4}","[0,1]","../img/tt/497tt.jpg","",""
"8669.915000002133","","","recognition","survey-text","205","1126397","0.0-6.0-3.28","3276666","co38392","norming","","","{""guess"":""cd speler""}","","../img/tt/497tt.jpg","",""
"null","../img/gs/497gs.jpg","null","reveal","image-keyboard-response","206","1128399","0.0-6.0-4.28","3276666","co38392","norming","","","","","","",""
"null","../img/tt/497tt.jpg","null","mooney2","image-keyboard-response","207","1130400","0.0-6.0-5.28","3276666","co38392","norming","","","","","","",""
"2554.8600000003353","","","post_reveal_questions","survey-likert","208","1132957","0.0-6.0-6.28","3276666","co38392","norming","","","{""aha"":1}","[0]","../img/tt/497tt.jpg","",""
"null","<div style=""font-size:60px;""> </div>","null","fixation","html-keyboard-response","209","1133161","0.0-6.0-0.29","3276666","co38392","norming","","","","","","",""
"null","../img/tt/440tt.jpg","null","mooney1","image-keyboard-response","210","1136164","0.0-6.0-1.29","3276666","co38392","norming","","","","","","",""
"5583.069999997038","","","post_mooney1_questions","survey-likert","211","1141750","0.0-6.0-2.29","3276666","co38392","norming","","","{""curiosity"":5,""confidence"":3}","[0,1]","../img/tt/440tt.jpg","",""
"3949.9600000018254","","","recognition","survey-text","212","1145702","0.0-6.0-3.29","3276666","co38392","norming","","","{""guess"":""tv""}","","../img/tt/440tt.jpg","",""
"null","../img/gs/440gs.jpg","null","reveal","image-keyboard-response","213","1147705","0.0-6.0-4.29","3276666","co38392","norming","","","","","","",""
"null","../img/tt/440tt.jpg","null","mooney2","image-keyboard-response","214","1149708","0.0-6.0-5.29","3276666","co38392","norming","","","","","","",""
"3399.2849999994505","","","post_reveal_questions","survey-likert","215","1153101","0.0-6.0-6.29","3276666","co38392","norming","","","{""aha"":6}","[0]","../img/tt/440tt.jpg","",""
"null","<div style=""font-size:60px;""> </div>","null","fixation","html-keyboard-response","216","1153302","0.0-6.0-0.30","3276666","co38392","norming","","","","","","",""
"null","../img/tt/1066tt.jpg","null","mooney1","image-keyboard-response","217","1156307","0.0-6.0-1.30","3276666","co38392","norming","","","","","","",""
"4591.375","","","post_mooney1_questions","survey-likert","218","1160901","0.0-6.0-2.30","3276666","co38392","norming","","","{""curiosity"":4,""confidence"":6}","[0,1]","../img/tt/1066tt.jpg","",""
"3518.0350000008475","","","recognition","survey-text","219","1164421","0.0-6.0-3.30","3276666","co38392","norming","","","{""guess"":""bus""}","","../img/tt/1066tt.jpg","",""
"null","../img/gs/1066gs.jpg","null","reveal","image-keyboard-response","220","1166428","0.0-6.0-4.30","3276666","co38392","norming","","","","","","",""
"null","../img/tt/1066tt.jpg","null","mooney2","image-keyboard-response","221","1168431","0.0-6.0-5.30","3276666","co38392","norming","","","","","","",""
"2915.055000001332","","","post_reveal_questions","survey-likert","222","1171349","0.0-6.0-6.30","3276666","co38392","norming","","","{""aha"":4}","[0]","../img/tt/1066tt.jpg","",""
"null","<div style=""font-size:60px;""> </div>","null","fixation","html-keyboard-response","223","1171553","0.0-6.0-0.31","3276666","co38392","norming","","","","","","",""
"null","../img/tt/019tt.jpg","null","mooney1","image-keyboard-response","224","1174555","0.0-6.0-1.31","3276666","co38392","norming","","","","","","",""
"5590.799999998184","","","post_mooney1_questions","survey-likert","225","1180149","0.0-6.0-2.31","3276666","co38392","norming","","","{""curiosity"":5,""confidence"":1}","[0,1]","../img/tt/019tt.jpg","",""
"5069.910000002012","","","recognition","survey-text","226","1185220","0.0-6.0-3.31","3276666","co38392","norming","","","{""guess"":""gas station""}","","../img/tt/019tt.jpg","",""
"null","../img/gs/019gs.jpg","null","reveal","image-keyboard-response","227","1187225","0.0-6.0-4.31","3276666","co38392","norming","","","","","","",""
"null","../img/tt/019tt.jpg","null","mooney2","image-keyboard-response","228","1189226","0.0-6.0-5.31","3276666","co38392","norming","","","","","","",""
"3007.9999999979045","","","post_reveal_questions","survey-likert","229","1192237","0.0-6.0-6.31","3276666","co38392","norming","","","{""aha"":5}","[0]","../img/tt/019tt.jpg","",""
"null","<div style=""font-size:60px;""> </div>","null","fixation","html-keyboard-response","230","1192437","0.0-6.0-0.32","3276666","co38392","norming","","","","","","",""
"null","../img/tt/194tt.jpg","null","mooney1","image-keyboard-response","231","1195443","0.0-6.0-1.32","3276666","co38392","norming","","","","","","",""
"6037.159999999916","","","post_mooney1_questions","survey-likert","232","1201485","0.0-6.0-2.32","3276666","co38392","norming","","","{""curiosity"":5,""confidence"":1}","[0,1]","../img/tt/194tt.jpg","",""
"5086.185000000056","","","recognition","survey-text","233","1206573","0.0-6.0-3.32","3276666","co38392","norming","","","{""guess"":""bench""}","","../img/tt/194tt.jpg","",""
"null","../img/gs/194gs.jpg","null","reveal","image-keyboard-response","234","1208576","0.0-6.0-4.32","3276666","co38392","norming","","","","","","",""
"null","../img/tt/194tt.jpg","null","mooney2","image-keyboard-response","235","1210585","0.0-6.0-5.32","3276666","co38392","norming","","","","","","",""
"7657.409999999683","","","post_reveal_questions","survey-likert","236","1218246","0.0-6.0-6.32","3276666","co38392","norming","","","{""aha"":1}","[0]","../img/tt/194tt.jpg","",""
"null","<div style=""font-size:60px;""> </div>","null","fixation","html-keyboard-response","237","1218456","0.0-6.0-0.33","3276666","co38392","norming","","","","","","",""
"null","../img/tt/416tt.jpg","null","mooney1","image-keyboard-response","238","1221466","0.0-6.0-1.33","3276666","co38392","norming","","","","","","",""
"6265.19000000204","","","post_mooney1_questions","survey-likert","239","1227734","0.0-6.0-2.33","3276666","co38392","norming","","","{""curiosity"":5,""confidence"":6}","[0,1]","../img/tt/416tt.jpg","",""
"6582.360000000335","","","recognition","survey-text","240","1234318","0.0-6.0-3.33","3276666","co38392","norming","","","{""guess"":""bird""}","","../img/tt/416tt.jpg","",""
"null","../img/gs/416gs.jpg","null","reveal","image-keyboard-response","241","1236326","0.0-6.0-4.33","3276666","co38392","norming","","","","","","",""
"null","../img/tt/416tt.jpg","null","mooney2","image-keyboard-response","242","1238327","0.0-6.0-5.33","3276666","co38392","norming","","","","","","",""
"3708.1250000009313","","","post_reveal_questions","survey-likert","243","1242038","0.0-6.0-6.33","3276666","co38392","norming","","","{""aha"":5}","[0]","../img/tt/416tt.jpg","",""
"null","<div style=""font-size:60px;""> </div>","null","fixation","html-keyboard-response","244","1242244","0.0-6.0-0.34","3276666","co38392","norming","","","","","","",""
"null","../img/tt/1096tt.jpg","null","mooney1","image-keyboard-response","245","1245249","0.0-6.0-1.34","3276666","co38392","norming","","","","","","",""
"4929.954999999609","","","post_mooney1_questions","survey-likert","246","1250182","0.0-6.0-2.34","3276666","co38392","norming","","","{""curiosity"":5,""confidence"":1}","[0,1]","../img/tt/1096tt.jpg","",""
"4494.149999998743","","","recognition","survey-text","247","1254678","0.0-6.0-3.34","3276666","co38392","norming","","","{""guess"":""dog""}","","../img/tt/1096tt.jpg","",""
"null","../img/gs/1096gs.jpg","null","reveal","image-keyboard-response","248","1256688","0.0-6.0-4.34","3276666","co38392","norming","","","","","","",""
"null","../img/tt/1096tt.jpg","null","mooney2","image-keyboard-response","249","1258696","0.0-6.0-5.34","3276666","co38392","norming","","","","","","",""
"3187.4199999982957","","","post_reveal_questions","survey-likert","250","1261886","0.0-6.0-6.34","3276666","co38392","norming","","","{""aha"":3}","[0]","../img/tt/1096tt.jpg","",""
"null","<div style=""font-size:60px;""> </div>","null","fixation","html-keyboard-response","251","1262095","0.0-6.0-0.35","3276666","co38392","norming","","","","","","",""
"null","../img/tt/1175tt.jpg","null","mooney1","image-keyboard-response","252","1265100","0.0-6.0-1.35","3276666","co38392","norming","","","","","","",""
"3344.4450000023935","","","post_mooney1_questions","survey-likert","253","1268446","0.0-6.0-2.35","3276666","co38392","norming","","","{""curiosity"":6,""confidence"":5}","[0,1]","../img/tt/1175tt.jpg","",""
"5782.129999999655","","","recognition","survey-text","254","1274230","0.0-6.0-3.35","3276666","co38392","norming","","","{""guess"":""sombrero""}","","../img/tt/1175tt.jpg","",""
"null","../img/gs/1175gs.jpg","null","reveal","image-keyboard-response","255","1276245","0.0-6.0-4.35","3276666","co38392","norming","","","","","","",""
"null","../img/tt/1175tt.jpg","null","mooney2","image-keyboard-response","256","1278253","0.0-6.0-5.35","3276666","co38392","norming","","","","","","",""
"3871.8299999998417","","","post_reveal_questions","survey-likert","257","1282126","0.0-6.0-6.35","3276666","co38392","norming","","","{""aha"":6}","[0]","../img/tt/1175tt.jpg","",""
"null","<div style=""font-size:60px;""> </div>","null","fixation","html-keyboard-response","258","1282327","0.0-6.0-0.36","3276666","co38392","norming","","","","","","",""
"null","../img/tt/1024tt.jpg","null","mooney1","image-keyboard-response","259","1285332","0.0-6.0-1.36","3276666","co38392","norming","","","","","","",""
"4471.424999999814","","","post_mooney1_questions","survey-likert","260","1289806","0.0-6.0-2.36","3276666","co38392","norming","","","{""curiosity"":5,""confidence"":4}","[0,1]","../img/tt/1024tt.jpg","",""
"3374.059999998426","","","recognition","survey-text","261","1293182","0.0-6.0-3.36","3276666","co38392","norming","","","{""guess"":""runner""}","","../img/tt/1024tt.jpg","",""
"null","../img/gs/1024gs.jpg","null","reveal","image-keyboard-response","262","1295189","0.0-6.0-4.36","3276666","co38392","norming","","","","","","",""
"null","../img/tt/1024tt.jpg","null","mooney2","image-keyboard-response","263","1297192","0.0-6.0-5.36","3276666","co38392","norming","","","","","","",""
"2667.929999999702","","","post_reveal_questions","survey-likert","264","1299862","0.0-6.0-6.36","3276666","co38392","norming","","","{""aha"":6}","[0]","../img/tt/1024tt.jpg","",""
"null","<div style=""font-size:60px;""> </div>","null","fixation","html-keyboard-response","265","1300071","0.0-6.0-0.37","3276666","co38392","norming","","","","","","",""
"null","../img/tt/1205tt.jpg","null","mooney1","image-keyboard-response","266","1303078","0.0-6.0-1.37","3276666","co38392","norming","","","","","","",""
"8078.785000001546","","","post_mooney1_questions","survey-likert","267","1311158","0.0-6.0-2.37","3276666","co38392","norming","","","{""curiosity"":5,""confidence"":0}","[0,1]","../img/tt/1205tt.jpg","",""
"6941.889999998268","","","recognition","survey-text","268","1318101","0.0-6.0-3.37","3276666","co38392","norming","","","{""guess"":""car""}","","../img/tt/1205tt.jpg","",""
"null","../img/gs/1205gs.jpg","null","reveal","image-keyboard-response","269","1320112","0.0-6.0-4.37","3276666","co38392","norming","","","","","","",""
"null","../img/tt/1205tt.jpg","null","mooney2","image-keyboard-response","270","1322115","0.0-6.0-5.37","3276666","co38392","norming","","","","","","",""
"1952.7600000002421","","","post_reveal_questions","survey-likert","271","1324070","0.0-6.0-6.37","3276666","co38392","norming","","","{""aha"":6}","[0]","../img/tt/1205tt.jpg","",""
"null","<div style=""font-size:60px;""> </div>","null","fixation","html-keyboard-response","272","1324276","0.0-6.0-0.38","3276666","co38392","norming","","","","","","",""
"null","../img/tt/085tt.jpg","null","mooney1","image-keyboard-response","273","1327286","0.0-6.0-1.38","3276666","co38392","norming","","","","","","",""
"6772.889999996405","","","post_mooney1_questions","survey-likert","274","1334062","0.0-6.0-2.38","3276666","co38392","norming","","","{""curiosity"":4,""confidence"":0}","[0,1]","../img/tt/085tt.jpg","",""
"2118.115000001155","","","recognition","survey-text","275","1336182","0.0-6.0-3.38","3276666","co38392","norming","","","{""guess"":""dog""}","","../img/tt/085tt.jpg","",""
"null","../img/gs/085gs.jpg","null","reveal","image-keyboard-response","276","1338176","0.0-6.0-4.38","3276666","co38392","norming","","","","","","",""
"null","../img/tt/085tt.jpg","null","mooney2","image-keyboard-response","277","1340180","0.0-6.0-5.38","3276666","co38392","norming","","","","","","",""
"3599.200000000419","","","post_reveal_questions","survey-likert","278","1343782","0.0-6.0-6.38","3276666","co38392","norming","","","{""aha"":6}","[0]","../img/tt/085tt.jpg","",""
"null","<div style=""font-size:60px;""> </div>","null","fixation","html-keyboard-response","279","1343986","0.0-6.0-0.39","3276666","co38392","norming","","","","","","",""
"null","../img/tt/124tt.jpg","null","mooney1","image-keyboard-response","280","1346996","0.0-6.0-1.39","3276666","co38392","norming","","","","","","",""
"4969.529999998631","","","post_mooney1_questions","survey-likert","281","1351966","0.0-6.0-2.39","3276666","co38392","norming","","","{""curiosity"":5,""confidence"":6}","[0,1]","../img/tt/124tt.jpg","",""
"8254.345000001136","","","recognition","survey-text","282","1360222","0.0-6.0-3.39","3276666","co38392","norming","","","{""guess"":""beaver""}","","../img/tt/124tt.jpg","",""
"null","../img/gs/124gs.jpg","null","reveal","image-keyboard-response","283","1362229","0.0-6.0-4.39","3276666","co38392","norming","","","","","","",""
"null","../img/tt/124tt.jpg","null","mooney2","image-keyboard-response","284","1364237","0.0-6.0-5.39","3276666","co38392","norming","","","","","","",""
"2054.785000000149","","","post_reveal_questions","survey-likert","285","1366294","0.0-6.0-6.39","3276666","co38392","norming","","","{""aha"":1}","[0]","../img/tt/124tt.jpg","",""
"null","<div style=""font-size:60px;""> </div>","null","fixation","html-keyboard-response","286","1366497","0.0-6.0-0.40","3276666","co38392","norming","","","","","","",""
"null","../img/tt/1181tt.jpg","null","mooney1","image-keyboard-response","287","1369505","0.0-6.0-1.40","3276666","co38392","norming","","","","","","",""
"3961.8750000009313","","","post_mooney1_questions","survey-likert","288","1373470","0.0-6.0-2.40","3276666","co38392","norming","","","{""curiosity"":6,""confidence"":6}","[0,1]","../img/tt/1181tt.jpg","",""
"2542.444999999134","","","recognition","survey-text","289","1376014","0.0-6.0-3.40","3276666","co38392","norming","","","{""guess"":""boxer""}","","../img/tt/1181tt.jpg","",""
"null","../img/gs/1181gs.jpg","null","reveal","image-keyboard-response","290","1378024","0.0-6.0-4.40","3276666","co38392","norming","","","","","","",""
"null","../img/tt/1181tt.jpg","null","mooney2","image-keyboard-response","291","1380029","0.0-6.0-5.40","3276666","co38392","norming","","","","","","",""
"2287.16999999946","","","post_reveal_questions","survey-likert","292","1382318","0.0-6.0-6.40","3276666","co38392","norming","","","{""aha"":1}","[0]","../img/tt/1181tt.jpg","",""
"null","<div style=""font-size:60px;""> </div>","null","fixation","html-keyboard-response","293","1382521","0.0-6.0-0.41","3276666","co38392","norming","","","","","","",""
"null","../img/tt/567tt.jpg","null","mooney1","image-keyboard-response","294","1385526","0.0-6.0-1.41","3276666","co38392","norming","","","","","","",""
"4813.169999997597","","","post_mooney1_questions","survey-likert","295","1390342","0.0-6.0-2.41","3276666","co38392","norming","","","{""curiosity"":6,""confidence"":0}","[0,1]","../img/tt/567tt.jpg","",""
"2182.210000002524","","","recognition","survey-text","296","1392526","0.0-6.0-3.41","3276666","co38392","norming","","","{""guess"":""car""}","","../img/tt/567tt.jpg","",""
"null","../img/gs/567gs.jpg","null","reveal","image-keyboard-response","297","1394532","0.0-6.0-4.41","3276666","co38392","norming","","","","","","",""
"null","../img/tt/567tt.jpg","null","mooney2","image-keyboard-response","298","1396543","0.0-6.0-5.41","3276666","co38392","norming","","","","","","",""
"2613.025000002235","","","post_reveal_questions","survey-likert","299","1399158","0.0-6.0-6.41","3276666","co38392","norming","","","{""aha"":5}","[0]","../img/tt/567tt.jpg","",""
"null","<div style=""font-size:60px;""> </div>","null","fixation","html-keyboard-response","300","1399360","0.0-6.0-0.42","3276666","co38392","norming","","","","","","",""
"null","../img/tt/580tt.jpg","null","mooney1","image-keyboard-response","301","1402364","0.0-6.0-1.42","3276666","co38392","norming","","","","","","",""
"4215.359999998473","","","post_mooney1_questions","survey-likert","302","1406582","0.0-6.0-2.42","3276666","co38392","norming","","","{""curiosity"":6,""confidence"":0}","[0,1]","../img/tt/580tt.jpg","",""
"6909.974999998463","","","recognition","survey-text","303","1413494","0.0-6.0-3.42","3276666","co38392","norming","","","{""guess"":""tree""}","","../img/tt/580tt.jpg","",""
"null","../img/gs/580gs.jpg","null","reveal","image-keyboard-response","304","1415496","0.0-6.0-4.42","3276666","co38392","norming","","","","","","",""
"null","../img/tt/580tt.jpg","null","mooney2","image-keyboard-response","305","1417507","0.0-6.0-5.42","3276666","co38392","norming","","","","","","",""
"3273.5950000023004","","","post_reveal_questions","survey-likert","306","1420782","0.0-6.0-6.42","3276666","co38392","norming","","","{""aha"":1}","[0]","../img/tt/580tt.jpg","",""
"null","<div style=""font-size:60px;""> </div>","null","fixation","html-keyboard-response","307","1420983","0.0-6.0-0.43","3276666","co38392","norming","","","","","","",""
"null","../img/tt/1087tt.jpg","null","mooney1","image-keyboard-response","308","1423992","0.0-6.0-1.43","3276666","co38392","norming","","","","","","",""
"4195.079999997746","","","post_mooney1_questions","survey-likert","309","1428190","0.0-6.0-2.43","3276666","co38392","norming","","","{""curiosity"":5,""confidence"":1}","[0,1]","../img/tt/1087tt.jpg","",""
"2310.000000001164","","","recognition","survey-text","310","1430502","0.0-6.0-3.43","3276666","co38392","norming","","","{""guess"":""goat""}","","../img/tt/1087tt.jpg","",""
"null","../img/gs/1087gs.jpg","null","reveal","image-keyboard-response","311","1432511","0.0-6.0-4.43","3276666","co38392","norming","","","","","","",""
"null","../img/tt/1087tt.jpg","null","mooney2","image-keyboard-response","312","1434521","0.0-6.0-5.43","3276666","co38392","norming","","","","","","",""
"4042.2500000023283","","","post_reveal_questions","survey-likert","313","1438566","0.0-6.0-6.43","3276666","co38392","norming","","","{""aha"":6}","[0]","../img/tt/1087tt.jpg","",""
"null","<div style=""font-size:60px;""> </div>","null","fixation","html-keyboard-response","314","1438769","0.0-6.0-0.44","3276666","co38392","norming","","","","","","",""
"null","../img/tt/1102tt.jpg","null","mooney1","image-keyboard-response","315","1441776","0.0-6.0-1.44","3276666","co38392","norming","","","","","","",""
"6243.194999999134","","","post_mooney1_questions","survey-likert","316","1448022","0.0-6.0-2.44","3276666","co38392","norming","","","{""curiosity"":1,""confidence"":0}","[0,1]","../img/tt/1102tt.jpg","",""
"4286.155000001658","","","recognition","survey-text","317","1452310","0.0-6.0-3.44","3276666","co38392","norming","","","{""guess"":""car""}","","../img/tt/1102tt.jpg","",""
"null","../img/gs/1102gs.jpg","null","reveal","image-keyboard-response","318","1454311","0.0-6.0-4.44","3276666","co38392","norming","","","","","","",""
"null","../img/tt/1102tt.jpg","null","mooney2","image-keyboard-response","319","1456314","0.0-6.0-5.44","3276666","co38392","norming","","","","","","",""
"3521.8249999997206","","","post_reveal_questions","survey-likert","320","1459840","0.0-6.0-6.44","3276666","co38392","norming","","","{""aha"":1}","[0]","../img/tt/1102tt.jpg","",""
"null","<div style=""font-size:60px;""> </div>","null","fixation","html-keyboard-response","321","1460049","0.0-6.0-0.45","3276666","co38392","norming","","","","","","",""
"null","../img/tt/1234tt.jpg","null","mooney1","image-keyboard-response","322","1463053","0.0-6.0-1.45","3276666","co38392","norming","","","","","","",""
"3913.7850000008475","","","post_mooney1_questions","survey-likert","323","1466968","0.0-6.0-2.45","3276666","co38392","norming","","","{""curiosity"":5,""confidence"":5}","[0,1]","../img/tt/1234tt.jpg","",""
"2398.354999997653","","","recognition","survey-text","324","1469368","0.0-6.0-3.45","3276666","co38392","norming","","","{""guess"":""boat""}","","../img/tt/1234tt.jpg","",""
"null","../img/gs/1234gs.jpg","null","reveal","image-keyboard-response","325","1471375","0.0-6.0-4.45","3276666","co38392","norming","","","","","","",""
"null","../img/tt/1234tt.jpg","null","mooney2","image-keyboard-response","326","1473384","0.0-6.0-5.45","3276666","co38392","norming","","","","","","",""
"3333.4149999972433","","","post_reveal_questions","survey-likert","327","1476720","0.0-6.0-6.45","3276666","co38392","norming","","","{""aha"":6}","[0]","../img/tt/1234tt.jpg","",""
"null","<div style=""font-size:60px;""> </div>","null","fixation","html-keyboard-response","328","1476921","0.0-6.0-0.46","3276666","co38392","norming","","","","","","",""
"null","../img/tt/1053tt.jpg","null","mooney1","image-keyboard-response","329","1479925","0.0-6.0-1.46","3276666","co38392","norming","","","","","","",""
"4119.780000000959","","","post_mooney1_questions","survey-likert","330","1484048","0.0-6.0-2.46","3276666","co38392","norming","","","{""curiosity"":5,""confidence"":6}","[0,1]","../img/tt/1053tt.jpg","",""
"4901.995000000345","","","recognition","survey-text","331","1488952","0.0-6.0-3.46","3276666","co38392","norming","","","{""guess"":""cows""}","","../img/tt/1053tt.jpg","",""
"null","../img/gs/1053gs.jpg","null","reveal","image-keyboard-response","332","1490954","0.0-6.0-4.46","3276666","co38392","norming","","","","","","",""
"null","../img/tt/1053tt.jpg","null","mooney2","image-keyboard-response","333","1492957","0.0-6.0-5.46","3276666","co38392","norming","","","","","","",""
"2800.650000000838","","","post_reveal_questions","survey-likert","334","1495760","0.0-6.0-6.46","3276666","co38392","norming","","","{""aha"":6}","[0]","../img/tt/1053tt.jpg","",""
"null","<div style=""font-size:60px;""> </div>","null","fixation","html-keyboard-response","335","1495965","0.0-6.0-0.47","3276666","co38392","norming","","","","","","",""
"null","../img/tt/1044tt.jpg","null","mooney1","image-keyboard-response","336","1498976","0.0-6.0-1.47","3276666","co38392","norming","","","","","","",""
"5277.450000001583","","","post_mooney1_questions","survey-likert","337","1504256","0.0-6.0-2.47","3276666","co38392","norming","","","{""curiosity"":2,""confidence"":1}","[0,1]","../img/tt/1044tt.jpg","",""
"2805.830000001006","","","recognition","survey-text","338","1507064","0.0-6.0-3.47","3276666","co38392","norming","","","{""guess"":""hat""}","","../img/tt/1044tt.jpg","",""
"null","../img/gs/1044gs.jpg","null","reveal","image-keyboard-response","339","1509070","0.0-6.0-4.47","3276666","co38392","norming","","","","","","",""
"null","../img/tt/1044tt.jpg","null","mooney2","image-keyboard-response","340","1511071","0.0-6.0-5.47","3276666","co38392","norming","","","","","","",""
"1903.815000001574","","","post_reveal_questions","survey-likert","341","1512976","0.0-6.0-6.47","3276666","co38392","norming","","","{""aha"":5}","[0]","../img/tt/1044tt.jpg","",""
"null","<div style=""font-size:60px;""> </div>","null","fixation","html-keyboard-response","342","1513181","0.0-6.0-0.48","3276666","co38392","norming","","","","","","",""
"null","../img/tt/078tt.jpg","null","mooney1","image-keyboard-response","343","1516188","0.0-6.0-1.48","3276666","co38392","norming","","","","","","",""
"5113.040000000037","","","post_mooney1_questions","survey-likert","344","1521305","0.0-6.0-2.48","3276666","co38392","norming","","","{""curiosity"":4,""confidence"":1}","[0,1]","../img/tt/078tt.jpg","",""
"8437.910000000382","","","recognition","survey-text","345","1529744","0.0-6.0-3.48","3276666","co38392","norming","","","{""guess"":""grapes""}","","../img/tt/078tt.jpg","",""
"null","../img/gs/078gs.jpg","null","reveal","image-keyboard-response","346","1531750","0.0-6.0-4.48","3276666","co38392","norming","","","","","","",""
"null","../img/tt/078tt.jpg","null","mooney2","image-keyboard-response","347","1533756","0.0-6.0-5.48","3276666","co38392","norming","","","","","","",""
"4361.134999999078","","","post_reveal_questions","survey-likert","348","1538120","0.0-6.0-6.48","3276666","co38392","norming","","","{""aha"":6}","[0]","../img/tt/078tt.jpg","",""
"null","<div style=""font-size:60px;""> </div>","null","fixation","html-keyboard-response","349","1538331","0.0-6.0-0.49","3276666","co38392","norming","","","","","","",""
"null","../img/tt/1146tt.jpg","null","mooney1","image-keyboard-response","350","1541339","0.0-6.0-1.49","3276666","co38392","norming","","","","","","",""
"3290.91999999946","","","post_mooney1_questions","survey-likert","351","1544633","0.0-6.0-2.49","3276666","co38392","norming","","","{""curiosity"":5,""confidence"":6}","[0,1]","../img/tt/1146tt.jpg","",""
"2317.8750000006985","","","recognition","survey-text","352","1546952","0.0-6.0-3.49","3276666","co38392","norming","","","{""guess"":""car""}","","../img/tt/1146tt.jpg","",""
"null","../img/gs/1146gs.jpg","null","reveal","image-keyboard-response","353","1548953","0.0-6.0-4.49","3276666","co38392","norming","","","","","","",""
"null","../img/tt/1146tt.jpg","null","mooney2","image-keyboard-response","354","1550957","0.0-6.0-5.49","3276666","co38392","norming","","","","","","",""
"3984.9250000005122","","","post_reveal_questions","survey-likert","355","1554944","0.0-6.0-6.49","3276666","co38392","norming","","","{""aha"":2}","[0]","../img/tt/1146tt.jpg","",""
"null","<div style=""font-size:60px;""> </div>","null","fixation","html-keyboard-response","356","1555147","0.0-6.0-0.50","3276666","co38392","norming","","","","","","",""
"null","../img/tt/081tt.jpg","null","mooney1","image-keyboard-response","357","1558151","0.0-6.0-1.50","3276666","co38392","norming","","","","","","",""
"3734.344999997178","","","post_mooney1_questions","survey-likert","358","1561889","0.0-6.0-2.50","3276666","co38392","norming","","","{""curiosity"":5,""confidence"":5}","[0,1]","../img/tt/081tt.jpg","",""
"5117.734999999637","","","recognition","survey-text","359","1567008","0.0-6.0-3.50","3276666","co38392","norming","","","{""guess"":""speerwerper""}","","../img/tt/081tt.jpg","",""
"null","../img/gs/081gs.jpg","null","reveal","image-keyboard-response","360","1569014","0.0-6.0-4.50","3276666","co38392","norming","","","","","","",""
"null","../img/tt/081tt.jpg","null","mooney2","image-keyboard-response","361","1571015","0.0-6.0-5.50","3276666","co38392","norming","","","","","","",""
"2224.3050000034273","","","post_reveal_questions","survey-likert","362","1573240","0.0-6.0-6.50","3276666","co38392","norming","","","{""aha"":1}","[0]","../img/tt/081tt.jpg","",""
"null","<div style=""font-size:60px;""> </div>","null","fixation","html-keyboard-response","363","1573443","0.0-6.0-0.51","3276666","co38392","norming","","","","","","",""
"null","../img/tt/222tt.jpg","null","mooney1","image-keyboard-response","364","1576450","0.0-6.0-1.51","3276666","co38392","norming","","","","","","",""
"7931.8100000019185","","","post_mooney1_questions","survey-likert","365","1584385","0.0-6.0-2.51","3276666","co38392","norming","","","{""curiosity"":6,""confidence"":0}","[0,1]","../img/tt/222tt.jpg","",""
"7461.950000000652","","","recognition","survey-text","366","1591848","0.0-6.0-3.51","3276666","co38392","norming","","","{""guess"":""bad""}","","../img/tt/222tt.jpg","",""
"null","../img/gs/222gs.jpg","null","reveal","image-keyboard-response","367","1593855","0.0-6.0-4.51","3276666","co38392","norming","","","","","","",""
"null","../img/tt/222tt.jpg","null","mooney2","image-keyboard-response","368","1595857","0.0-6.0-5.51","3276666","co38392","norming","","","","","","",""
"4828.665000000736","","","post_reveal_questions","survey-likert","369","1600688","0.0-6.0-6.51","3276666","co38392","norming","","","{""aha"":6}","[0]","../img/tt/222tt.jpg","",""
"null","<div style=""font-size:60px;""> </div>","null","fixation","html-keyboard-response","370","1600893","0.0-6.0-0.52","3276666","co38392","norming","","","","","","",""
"null","../img/tt/1309tt.jpg","null","mooney1","image-keyboard-response","371","1603904","0.0-6.0-1.52","3276666","co38392","norming","","","","","","",""
"4317.179999998072","","","post_mooney1_questions","survey-likert","372","1608225","0.0-6.0-2.52","3276666","co38392","norming","","","{""curiosity"":5,""confidence"":6}","[0,1]","../img/tt/1309tt.jpg","",""
"6942.104999998119","","","recognition","survey-text","373","1615168","0.0-6.0-3.52","3276666","co38392","norming","","","{""guess"":""forest car""}","","../img/tt/1309tt.jpg","",""
"null","../img/gs/1309gs.jpg","null","reveal","image-keyboard-response","374","1617170","0.0-6.0-4.52","3276666","co38392","norming","","","","","","",""
"null","../img/tt/1309tt.jpg","null","mooney2","image-keyboard-response","375","1619180","0.0-6.0-5.52","3276666","co38392","norming","","","","","","",""
"1410.030000002822","","","post_reveal_questions","survey-likert","376","1620593","0.0-6.0-6.52","3276666","co38392","norming","","","{""aha"":4}","[0]","../img/tt/1309tt.jpg","",""
"null","<div style=""font-size:60px;""> </div>","null","fixation","html-keyboard-response","377","1620795","0.0-6.0-0.53","3276666","co38392","norming","","","","","","",""
"null","../img/tt/1200tt.jpg","null","mooney1","image-keyboard-response","378","1623800","0.0-6.0-1.53","3276666","co38392","norming","","","","","","",""
"4301.120000000112","","","post_mooney1_questions","survey-likert","379","1628105","0.0-6.0-2.53","3276666","co38392","norming","","","{""curiosity"":5,""confidence"":1}","[0,1]","../img/tt/1200tt.jpg","",""
"2982.2050000000745","","","recognition","survey-text","380","1631088","0.0-6.0-3.53","3276666","co38392","norming","","","{""guess"":""spider""}","","../img/tt/1200tt.jpg","",""
"null","../img/gs/1200gs.jpg","null","reveal","image-keyboard-response","381","1633091","0.0-6.0-4.53","3276666","co38392","norming","","","","","","",""
"null","../img/tt/1200tt.jpg","null","mooney2","image-keyboard-response","382","1635092","0.0-6.0-5.53","3276666","co38392","norming","","","","","","",""
"1763.1750000000466","","","post_reveal_questions","survey-likert","383","1636857","0.0-6.0-6.53","3276666","co38392","norming","","","{""aha"":0}","[0]","../img/tt/1200tt.jpg","",""
"null","<div style=""font-size:60px;""> </div>","null","fixation","html-keyboard-response","384","1637058","0.0-6.0-0.54","3276666","co38392","norming","","","","","","",""
"null","../img/tt/1276tt.jpg","null","mooney1","image-keyboard-response","385","1640063","0.0-6.0-1.54","3276666","co38392","norming","","","","","","",""
"4678.404999998864","","","post_mooney1_questions","survey-likert","386","1644748","0.0-6.0-2.54","3276666","co38392","norming","","","{""curiosity"":5,""confidence"":2}","[0,1]","../img/tt/1276tt.jpg","",""
"3229.8950000002515","","","recognition","survey-text","387","1647979","0.0-6.0-3.54","3276666","co38392","norming","","","{""guess"":""rabbit""}","","../img/tt/1276tt.jpg","",""
"null","../img/gs/1276gs.jpg","null","reveal","image-keyboard-response","388","1649987","0.0-6.0-4.54","3276666","co38392","norming","","","","","","",""
"null","../img/tt/1276tt.jpg","null","mooney2","image-keyboard-response","389","1651990","0.0-6.0-5.54","3276666","co38392","norming","","","","","","",""
"2539.0549999973737","","","post_reveal_questions","survey-likert","390","1654532","0.0-6.0-6.54","3276666","co38392","norming","","","{""aha"":2}","[0]","../img/tt/1276tt.jpg","",""
"null","<div style=""font-size:60px;""> </div>","null","fixation","html-keyboard-response","391","1654735","0.0-6.0-0.55","3276666","co38392","norming","","","","","","",""
"null","../img/tt/1353tt.jpg","null","mooney1","image-keyboard-response","392","1657744","0.0-6.0-1.55","3276666","co38392","norming","","","","","","",""
"5031.455000000307","","","post_mooney1_questions","survey-likert","393","1662780","0.0-6.0-2.55","3276666","co38392","norming","","","{""curiosity"":5,""confidence"":3}","[0,1]","../img/tt/1353tt.jpg","",""
"3838.0350000006147","","","recognition","survey-text","394","1666620","0.0-6.0-3.55","3276666","co38392","norming","","","{""guess"":""butterfly""}","","../img/tt/1353tt.jpg","",""
"null","../img/gs/1353gs.jpg","null","reveal","image-keyboard-response","395","1668622","0.0-6.0-4.55","3276666","co38392","norming","","","","","","",""
"null","../img/tt/1353tt.jpg","null","mooney2","image-keyboard-response","396","1670626","0.0-6.0-5.55","3276666","co38392","norming","","","","","","",""
"3319.1650000007357","","","post_reveal_questions","survey-likert","397","1673948","0.0-6.0-6.55","3276666","co38392","norming","","","{""aha"":4}","[0]","../img/tt/1353tt.jpg","",""
"null","<div style=""font-size:60px;""> </div>","null","fixation","html-keyboard-response","398","1674152","0.0-6.0-0.56","3276666","co38392","norming","","","","","","",""
"null","../img/tt/008tt.jpg","null","mooney1","image-keyboard-response","399","1677155","0.0-6.0-1.56","3276666","co38392","norming","","","","","","",""
"6854.14500000095","","","post_mooney1_questions","survey-likert","400","1684012","0.0-6.0-2.56","3276666","co38392","norming","","","{""curiosity"":6,""confidence"":0}","[0,1]","../img/tt/008tt.jpg","",""
"5886.074999998556","","","recognition","survey-text","401","1689899","0.0-6.0-3.56","3276666","co38392","norming","","","{""guess"":""car""}","","../img/tt/008tt.jpg","",""
"null","../img/gs/008gs.jpg","null","reveal","image-keyboard-response","402","1691901","0.0-6.0-4.56","3276666","co38392","norming","","","","","","",""
"null","../img/tt/008tt.jpg","null","mooney2","image-keyboard-response","403","1693904","0.0-6.0-5.56","3276666","co38392","norming","","","","","","",""
"4272.434999998892","","","post_reveal_questions","survey-likert","404","1698180","0.0-6.0-6.56","3276666","co38392","norming","","","{""aha"":5}","[0]","../img/tt/008tt.jpg","",""
"null","<div style=""font-size:60px;""> </div>","null","fixation","html-keyboard-response","405","1698384","0.0-6.0-0.57","3276666","co38392","norming","","","","","","",""
"null","../img/tt/1190tt.jpg","null","mooney1","image-keyboard-response","406","1701393","0.0-6.0-1.57","3276666","co38392","norming","","","","","","",""
"5167.325000002282","","","post_mooney1_questions","survey-likert","407","1706568","0.0-6.0-2.57","3276666","co38392","norming","","","{""curiosity"":5,""confidence"":4}","[0,1]","../img/tt/1190tt.jpg","",""
"2950.1249999993015","","","recognition","survey-text","408","1709520","0.0-6.0-3.57","3276666","co38392","norming","","","{""guess"":""insect""}","","../img/tt/1190tt.jpg","",""
"null","../img/gs/1190gs.jpg","null","reveal","image-keyboard-response","409","1711527","0.0-6.0-4.57","3276666","co38392","norming","","","","","","",""
"null","../img/tt/1190tt.jpg","null","mooney2","image-keyboard-response","410","1713528","0.0-6.0-5.57","3276666","co38392","norming","","","","","","",""
"3669.4050000004936","","","post_reveal_questions","survey-likert","411","1717200","0.0-6.0-6.57","3276666","co38392","norming","","","{""aha"":4}","[0]","../img/tt/1190tt.jpg","",""
"null","<div style=""font-size:60px;""> </div>","null","fixation","html-keyboard-response","412","1717406","0.0-6.0-0.58","3276666","co38392","norming","","","","","","",""
"null","../img/tt/1235tt.jpg","null","mooney1","image-keyboard-response","413","1720418","0.0-6.0-1.58","3276666","co38392","norming","","","","","","",""
"4707.395000001183","","","post_mooney1_questions","survey-likert","414","1725128","0.0-6.0-2.58","3276666","co38392","norming","","","{""curiosity"":5,""confidence"":2}","[0,1]","../img/tt/1235tt.jpg","",""
"4542.274999999674","","","recognition","survey-text","415","1729672","0.0-6.0-3.58","3276666","co38392","norming","","","{""guess"":""children""}","","../img/tt/1235tt.jpg","",""
"null","../img/gs/1235gs.jpg","null","reveal","image-keyboard-response","416","1731675","0.0-6.0-4.58","3276666","co38392","norming","","","","","","",""
"null","../img/tt/1235tt.jpg","null","mooney2","image-keyboard-response","417","1733685","0.0-6.0-5.58","3276666","co38392","norming","","","","","","",""
"2648.495000001276","","","post_reveal_questions","survey-likert","418","1736336","0.0-6.0-6.58","3276666","co38392","norming","","","{""aha"":6}","[0]","../img/tt/1235tt.jpg","",""
"null","<div style=""font-size:60px;""> </div>","null","fixation","html-keyboard-response","419","1736544","0.0-6.0-0.59","3276666","co38392","norming","","","","","","",""
"null","../img/tt/1261tt.jpg","null","mooney1","image-keyboard-response","420","1739552","0.0-6.0-1.59","3276666","co38392","norming","","","","","","",""
"4829.19000000041","","","post_mooney1_questions","survey-likert","421","1744385","0.0-6.0-2.59","3276666","co38392","norming","","","{""curiosity"":5,""confidence"":1}","[0,1]","../img/tt/1261tt.jpg","",""
"4302.035000000615","","","recognition","survey-text","422","1748688","0.0-6.0-3.59","3276666","co38392","norming","","","{""guess"":""sheep""}","","../img/tt/1261tt.jpg","",""
"null","../img/gs/1261gs.jpg","null","reveal","image-keyboard-response","423","1750690","0.0-6.0-4.59","3276666","co38392","norming","","","","","","",""
"null","../img/tt/1261tt.jpg","null","mooney2","image-keyboard-response","424","1752698","0.0-6.0-5.59","3276666","co38392","norming","","","","","","",""
"1995.6199999977835","","","post_reveal_questions","survey-likert","425","1754696","0.0-6.0-6.59","3276666","co38392","norming","","","{""aha"":1}","[0]","../img/tt/1261tt.jpg","",""
"null","<div style=""font-size:60px;""> </div>","null","fixation","html-keyboard-response","426","1754907","0.0-6.0-0.60","3276666","co38392","norming","","","","","","",""
"null","../img/tt/378tt.jpg","null","mooney1","image-keyboard-response","427","1757919","0.0-6.0-1.60","3276666","co38392","norming","","","","","","",""
"4606.550000000512","","","post_mooney1_questions","survey-likert","428","1762529","0.0-6.0-2.60","3276666","co38392","norming","","","{""curiosity"":5,""confidence"":0}","[0,1]","../img/tt/378tt.jpg","",""
"3662.1300000005867","","","recognition","survey-text","429","1766196","0.0-6.0-3.60","3276666","co38392","norming","","","{""guess"":""walvis""}","","../img/tt/378tt.jpg","",""
"null","../img/gs/378gs.jpg","null","reveal","image-keyboard-response","430","1768202","0.0-6.0-4.60","3276666","co38392","norming","","","","","","",""
"null","../img/tt/378tt.jpg","null","mooney2","image-keyboard-response","431","1770209","0.0-6.0-5.60","3276666","co38392","norming","","","","","","",""
"2616.114999996964","","","post_reveal_questions","survey-likert","432","1772828","0.0-6.0-6.60","3276666","co38392","norming","","","{""aha"":6}","[0]","../img/tt/378tt.jpg","",""
"null","<div style=""font-size:60px;""> </div>","null","fixation","html-keyboard-response","433","1773033","0.0-6.0-0.61","3276666","co38392","norming","","","","","","",""
"null","../img/tt/412tt.jpg","null","mooney1","image-keyboard-response","434","1776041","0.0-6.0-1.61","3276666","co38392","norming","","","","","","",""
"6231.710000000196","","","post_mooney1_questions","survey-likert","435","1782276","0.0-6.0-2.61","3276666","co38392","norming","","","{""curiosity"":6,""confidence"":0}","[0,1]","../img/tt/412tt.jpg","",""
"3621.975000001956","","","recognition","survey-text","436","1785900","0.0-6.0-3.61","3276666","co38392","norming","","","{""guess"":""bottle""}","","../img/tt/412tt.jpg","",""
"null","../img/gs/412gs.jpg","null","reveal","image-keyboard-response","437","1787909","0.0-6.0-4.61","3276666","co38392","norming","","","","","","",""
"null","../img/tt/412tt.jpg","null","mooney2","image-keyboard-response","438","1789912","0.0-6.0-5.61","3276666","co38392","norming","","","","","","",""
"1977.6649999986403","","","post_reveal_questions","survey-likert","439","1791892","0.0-6.0-6.61","3276666","co38392","norming","","","{""aha"":0}","[0]","../img/tt/412tt.jpg","",""
"null","<div style=""font-size:60px;""> </div>","null","fixation","html-keyboard-response","440","1792094","0.0-6.0-0.62","3276666","co38392","norming","","","","","","",""
"null","../img/tt/1027tt.jpg","null","mooney1","image-keyboard-response","441","1795104","0.0-6.0-1.62","3276666","co38392","norming","","","","","","",""
"4466.4100000008475","","","post_mooney1_questions","survey-likert","442","1799572","0.0-6.0-2.62","3276666","co38392","norming","","","{""curiosity"":6,""confidence"":1}","[0,1]","../img/tt/1027tt.jpg","",""
"3805.6250000009313","","","recognition","survey-text","443","1803380","0.0-6.0-3.62","3276666","co38392","norming","","","{""guess"":""cow""}","","../img/tt/1027tt.jpg","",""
"null","../img/gs/1027gs.jpg","null","reveal","image-keyboard-response","444","1805385","0.0-6.0-4.62","3276666","co38392","norming","","","","","","",""
"null","../img/tt/1027tt.jpg","null","mooney2","image-keyboard-response","445","1807391","0.0-6.0-5.62","3276666","co38392","norming","","","","","","",""
"2595.0549999978393","","","post_reveal_questions","survey-likert","446","1809988","0.0-6.0-6.62","3276666","co38392","norming","","","{""aha"":6}","[0]","../img/tt/1027tt.jpg","",""
"null","<div style=""font-size:60px;""> </div>","null","fixation","html-keyboard-response","447","1810193","0.0-6.0-0.63","3276666","co38392","norming","","","","","","",""
"null","../img/tt/1148tt.jpg","null","mooney1","image-keyboard-response","448","1813204","0.0-6.0-1.63","3276666","co38392","norming","","","","","","",""
"3772.4650000017136","","","post_mooney1_questions","survey-likert","449","1816980","0.0-6.0-2.63","3276666","co38392","norming","","","{""curiosity"":6,""confidence"":1}","[0,1]","../img/tt/1148tt.jpg","",""
"2717.9550000000745","","","recognition","survey-text","450","1819700","0.0-6.0-3.63","3276666","co38392","norming","","","{""guess"":""car""}","","../img/tt/1148tt.jpg","",""
"null","../img/gs/1148gs.jpg","null","reveal","image-keyboard-response","451","1821701","0.0-6.0-4.63","3276666","co38392","norming","","","","","","",""
"null","../img/tt/1148tt.jpg","null","mooney2","image-keyboard-response","452","1823716","0.0-6.0-5.63","3276666","co38392","norming","","","","","","",""
"1641.1699999987613","","","post_reveal_questions","survey-likert","453","1825360","0.0-6.0-6.63","3276666","co38392","norming","","","{""aha"":5}","[0]","../img/tt/1148tt.jpg","",""
"null","<div style=""font-size:60px;""> </div>","null","fixation","html-keyboard-response","454","1825571","0.0-6.0-0.64","3276666","co38392","norming","","","","","","",""
"null","../img/tt/189tt.jpg","null","mooney1","image-keyboard-response","455","1828580","0.0-6.0-1.64","3276666","co38392","norming","","","","","","",""
"6408.640000001527","","","post_mooney1_questions","survey-likert","456","1834992","0.0-6.0-2.64","3276666","co38392","norming","","","{""curiosity"":5,""confidence"":1}","[0,1]","../img/tt/189tt.jpg","",""
"5845.81500000041","","","recognition","survey-text","457","1840840","0.0-6.0-3.64","3276666","co38392","norming","","","{""guess"":""pony""}","","../img/tt/189tt.jpg","",""
"null","../img/gs/189gs.jpg","null","reveal","image-keyboard-response","458","1842848","0.0-6.0-4.64","3276666","co38392","norming","","","","","","",""
"null","../img/tt/189tt.jpg","null","mooney2","image-keyboard-response","459","1844849","0.0-6.0-5.64","3276666","co38392","norming","","","","","","",""
"3700.2350000003353","","","post_reveal_questions","survey-likert","460","1848552","0.0-6.0-6.64","3276666","co38392","norming","","","{""aha"":0}","[0]","../img/tt/189tt.jpg","",""
"null","<div style=""font-size:60px;""> </div>","null","fixation","html-keyboard-response","461","1848755","0.0-6.0-0.65","3276666","co38392","norming","","","","","","",""
"null","../img/tt/584tt.jpg","null","mooney1","image-keyboard-response","462","1851766","0.0-6.0-1.65","3276666","co38392","norming","","","","","","",""
"5952.844999999739","","","post_mooney1_questions","survey-likert","463","1857720","0.0-6.0-2.65","3276666","co38392","norming","","","{""curiosity"":5,""confidence"":5}","[0,1]","../img/tt/584tt.jpg","",""
"2590.2649999989662","","","recognition","survey-text","464","1860312","0.0-6.0-3.65","3276666","co38392","norming","","","{""guess"":""tools""}","","../img/tt/584tt.jpg","",""
"null","../img/gs/584gs.jpg","null","reveal","image-keyboard-response","465","1862313","0.0-6.0-4.65","3276666","co38392","norming","","","","","","",""
"null","../img/tt/584tt.jpg","null","mooney2","image-keyboard-response","466","1864318","0.0-6.0-5.65","3276666","co38392","norming","","","","","","",""
"3311.3300000003073","","","post_reveal_questions","survey-likert","467","1867632","0.0-6.0-6.65","3276666","co38392","norming","","","{""aha"":1}","[0]","../img/tt/584tt.jpg","",""
"null","<div style=""font-size:60px;""> </div>","null","fixation","html-keyboard-response","468","1867838","0.0-6.0-0.66","3276666","co38392","norming","","","","","","",""
"null","../img/tt/098tt.jpg","null","mooney1","image-keyboard-response","469","1870848","0.0-6.0-1.66","3276666","co38392","norming","","","","","","",""
"5109.054999997141","","","post_mooney1_questions","survey-likert","470","1875960","0.0-6.0-2.66","3276666","co38392","norming","","","{""curiosity"":5,""confidence"":6}","[0,1]","../img/tt/098tt.jpg","",""
"3101.5399999995716","","","recognition","survey-text","471","1879064","0.0-6.0-3.66","3276666","co38392","norming","","","{""guess"":""colibri""}","","../img/tt/098tt.jpg","",""
"null","../img/gs/098gs.jpg","null","reveal","image-keyboard-response","472","1881066","0.0-6.0-4.66","3276666","co38392","norming","","","","","","",""
"null","../img/tt/098tt.jpg","null","mooney2","image-keyboard-response","473","1883067","0.0-6.0-5.66","3276666","co38392","norming","","","","","","",""
"2396.5500000012107","","","post_reveal_questions","survey-likert","474","1885465","0.0-6.0-6.66","3276666","co38392","norming","","","{""aha"":2}","[0]","../img/tt/098tt.jpg","",""
"null","<div style=""font-size:60px;""> </div>","null","fixation","html-keyboard-response","475","1885673","0.0-6.0-0.67","3276666","co38392","norming","","","","","","",""
"null","../img/tt/496tt.jpg","null","mooney1","image-keyboard-response","476","1888678","0.0-6.0-1.67","3276666","co38392","norming","","","","","","",""
"5543.610000000801","","","post_mooney1_questions","survey-likert","477","1894225","0.0-6.0-2.67","3276666","co38392","norming","","","{""curiosity"":5,""confidence"":1}","[0,1]","../img/tt/496tt.jpg","",""
"3621.9650000021793","","","recognition","survey-text","478","1897849","0.0-6.0-3.67","3276666","co38392","norming","","","{""guess"":""hiena""}","","../img/tt/496tt.jpg","",""
"null","../img/gs/496gs.jpg","null","reveal","image-keyboard-response","479","1899858","0.0-6.0-4.67","3276666","co38392","norming","","","","","","",""
"null","../img/tt/496tt.jpg","null","mooney2","image-keyboard-response","480","1901864","0.0-6.0-5.67","3276666","co38392","norming","","","","","","",""
"2686.249999998836","","","post_reveal_questions","survey-likert","481","1904553","0.0-6.0-6.67","3276666","co38392","norming","","","{""aha"":3}","[0]","../img/tt/496tt.jpg","",""
"null","<div style=""font-size:60px;""> </div>","null","fixation","html-keyboard-response","482","1904756","0.0-6.0-0.68","3276666","co38392","norming","","","","","","",""
"null","../img/tt/456tt.jpg","null","mooney1","image-keyboard-response","483","1907768","0.0-6.0-1.68","3276666","co38392","norming","","","","","","",""
"4077.62500000163","","","post_mooney1_questions","survey-likert","484","1911849","0.0-6.0-2.68","3276666","co38392","norming","","","{""curiosity"":5,""confidence"":3}","[0,1]","../img/tt/456tt.jpg","",""
"2093.959999998333","","","recognition","survey-text","485","1913945","0.0-6.0-3.68","3276666","co38392","norming","","","{""guess"":""cow""}","","../img/tt/456tt.jpg","",""
"null","../img/gs/456gs.jpg","null","reveal","image-keyboard-response","486","1915947","0.0-6.0-4.68","3276666","co38392","norming","","","","","","",""
"null","../img/tt/456tt.jpg","null","mooney2","image-keyboard-response","487","1917950","0.0-6.0-5.68","3276666","co38392","norming","","","","","","",""
"2015.9600000006612","","","post_reveal_questions","survey-likert","488","1919969","0.0-6.0-6.68","3276666","co38392","norming","","","{""aha"":6}","[0]","../img/tt/456tt.jpg","",""
"null","<div style=""font-size:60px;""> </div>","null","fixation","html-keyboard-response","489","1920170","0.0-6.0-0.69","3276666","co38392","norming","","","","","","",""
"null","../img/tt/094tt.jpg","null","mooney1","image-keyboard-response","490","1923181","0.0-6.0-1.69","3276666","co38392","norming","","","","","","",""
"5465.270000000717","","","post_mooney1_questions","survey-likert","491","1928649","0.0-6.0-2.69","3276666","co38392","norming","","","{""curiosity"":1,""confidence"":6}","[0,1]","../img/tt/094tt.jpg","",""
"3086.0950000023004","","","recognition","survey-text","492","1931737","0.0-6.0-3.69","3276666","co38392","norming","","","{""guess"":""wolf""}","","../img/tt/094tt.jpg","",""
"null","../img/gs/094gs.jpg","null","reveal","image-keyboard-response","493","1933740","0.0-6.0-4.69","3276666","co38392","norming","","","","","","",""
"null","../img/tt/094tt.jpg","null","mooney2","image-keyboard-response","494","1935742","0.0-6.0-5.69","3276666","co38392","norming","","","","","","",""
"3552.1999999983236","","","post_reveal_questions","survey-likert","495","1939297","0.0-6.0-6.69","3276666","co38392","norming","","","{""aha"":1}","[0]","../img/tt/094tt.jpg","",""
"null","<div style=""font-size:60px;""> </div>","null","fixation","html-keyboard-response","496","1939505","0.0-6.0-0.70","3276666","co38392","norming","","","","","","",""
"null","../img/tt/055tt.jpg","null","mooney1","image-keyboard-response","497","1942514","0.0-6.0-1.70","3276666","co38392","norming","","","","","","",""
"4595.9000000003725","","","post_mooney1_questions","survey-likert","498","1947112","0.0-6.0-2.70","3276666","co38392","norming","","","{""curiosity"":5,""confidence"":1}","[0,1]","../img/tt/055tt.jpg","",""
"2526.149999998044","","","recognition","survey-text","499","1949640","0.0-6.0-3.70","3276666","co38392","norming","","","{""guess"":""bull""}","","../img/tt/055tt.jpg","",""
"null","../img/gs/055gs.jpg","null","reveal","image-keyboard-response","500","1951644","0.0-6.0-4.70","3276666","co38392","norming","","","","","","",""
"null","../img/tt/055tt.jpg","null","mooney2","image-keyboard-response","501","1953646","0.0-6.0-5.70","3276666","co38392","norming","","","","","","",""
"2838.9700000006706","","","post_reveal_questions","survey-likert","502","1956488","0.0-6.0-6.70","3276666","co38392","norming","","","{""aha"":5}","[0]","../img/tt/055tt.jpg","",""
"null","<div style=""font-size:60px;""> </div>","null","fixation","html-keyboard-response","503","1956695","0.0-6.0-0.71","3276666","co38392","norming","","","","","","",""
"null","../img/tt/522tt.jpg","null","mooney1","image-keyboard-response","504","1959703","0.0-6.0-1.71","3276666","co38392","norming","","","","","","",""
"5189.764999999199","","","post_mooney1_questions","survey-likert","505","1964896","0.0-6.0-2.71","3276666","co38392","norming","","","{""curiosity"":6,""confidence"":0}","[0,1]","../img/tt/522tt.jpg","",""
"2694.2350000026636","","","recognition","survey-text","506","1967592","0.0-6.0-3.71","3276666","co38392","norming","","","{""guess"":""bug""}","","../img/tt/522tt.jpg","",""
"null","../img/gs/522gs.jpg","null","reveal","image-keyboard-response","507","1969595","0.0-6.0-4.71","3276666","co38392","norming","","","","","","",""
"null","../img/tt/522tt.jpg","null","mooney2","image-keyboard-response","508","1971601","0.0-6.0-5.71","3276666","co38392","norming","","","","","","",""
"2724.2150000019465","","","post_reveal_questions","survey-likert","509","1974328","0.0-6.0-6.71","3276666","co38392","norming","","","{""aha"":4}","[0]","../img/tt/522tt.jpg","",""
"null","<div style=""font-size:60px;""> </div>","null","fixation","html-keyboard-response","510","1974534","0.0-6.0-0.72","3276666","co38392","norming","","","","","","",""
"null","../img/tt/315tt.jpg","null","mooney1","image-keyboard-response","511","1977545","0.0-6.0-1.72","3276666","co38392","norming","","","","","","",""
"4747.745000000577","","","post_mooney1_questions","survey-likert","512","1982296","0.0-6.0-2.72","3276666","co38392","norming","","","{""curiosity"":6,""confidence"":5}","[0,1]","../img/tt/315tt.jpg","",""
"2302.240000000922","","","recognition","survey-text","513","1984600","0.0-6.0-3.72","3276666","co38392","norming","","","{""guess"":""owl""}","","../img/tt/315tt.jpg","",""
"null","../img/gs/315gs.jpg","null","reveal","image-keyboard-response","514","1986609","0.0-6.0-4.72","3276666","co38392","norming","","","","","","",""
"null","../img/tt/315tt.jpg","null","mooney2","image-keyboard-response","515","1988616","0.0-6.0-5.72","3276666","co38392","norming","","","","","","",""
"3236.14999999688","","","post_reveal_questions","survey-likert","516","1991856","0.0-6.0-6.72","3276666","co38392","norming","","","{""aha"":3}","[0]","../img/tt/315tt.jpg","",""
"null","<div style=""font-size:60px;""> </div>","null","fixation","html-keyboard-response","517","1992060","0.0-6.0-0.73","3276666","co38392","norming","","","","","","",""
"null","../img/tt/1049tt.jpg","null","mooney1","image-keyboard-response","518","1995066","0.0-6.0-1.73","3276666","co38392","norming","","","","","","",""
"4285.145000001648","","","post_mooney1_questions","survey-likert","519","1999352","0.0-6.0-2.73","3276666","co38392","norming","","","{""curiosity"":6,""confidence"":3}","[0,1]","../img/tt/1049tt.jpg","",""
"4190.245000001509","","","recognition","survey-text","520","2003544","0.0-6.0-3.73","3276666","co38392","norming","","","{""guess"":""astronaut""}","","../img/tt/1049tt.jpg","",""
"null","../img/gs/1049gs.jpg","null","reveal","image-keyboard-response","521","2005553","0.0-6.0-4.73","3276666","co38392","norming","","","","","","",""
"null","../img/tt/1049tt.jpg","null","mooney2","image-keyboard-response","522","2007561","0.0-6.0-5.73","3276666","co38392","norming","","","","","","",""
"2755.3249999983236","","","post_reveal_questions","survey-likert","523","2010319","0.0-6.0-6.73","3276666","co38392","norming","","","{""aha"":6}","[0]","../img/tt/1049tt.jpg","",""
"null","<div style=""font-size:60px;""> </div>","null","fixation","html-keyboard-response","524","2010524","0.0-6.0-0.74","3276666","co38392","norming","","","","","","",""
"null","../img/tt/358tt.jpg","null","mooney1","image-keyboard-response","525","2013532","0.0-6.0-1.74","3276666","co38392","norming","","","","","","",""
"3951.219999998808","","","post_mooney1_questions","survey-likert","526","2017487","0.0-6.0-2.74","3276666","co38392","norming","","","{""curiosity"":6,""confidence"":0}","[0,1]","../img/tt/358tt.jpg","",""
"2878.08000000217","","","recognition","survey-text","527","2020367","0.0-6.0-3.74","3276666","co38392","norming","","","{""guess"":""dog""}","","../img/tt/358tt.jpg","",""
"null","../img/gs/358gs.jpg","null","reveal","image-keyboard-response","528","2022375","0.0-6.0-4.74","3276666","co38392","norming","","","","","","",""
"null","../img/tt/358tt.jpg","null","mooney2","image-keyboard-response","529","2024380","0.0-6.0-5.74","3276666","co38392","norming","","","","","","",""
"2288.0399999995716","","","post_reveal_questions","survey-likert","530","2026671","0.0-6.0-6.74","3276666","co38392","norming","","","{""aha"":6}","[0]","../img/tt/358tt.jpg","",""
"null","<div style=""font-size:60px;""> </div>","null","fixation","html-keyboard-response","531","2026872","0.0-6.0-0.75","3276666","co38392","norming","","","","","","",""
"null","../img/tt/013tt.jpg","null","mooney1","image-keyboard-response","532","2029875","0.0-6.0-1.75","3276666","co38392","norming","","","","","","",""
"6527.94499999797","","","post_mooney1_questions","survey-likert","533","2036407","0.0-6.0-2.75","3276666","co38392","norming","","","{""curiosity"":3,""confidence"":5}","[0,1]","../img/tt/013tt.jpg","",""
"1701.9699999981094","","","recognition","survey-text","534","2038110","0.0-6.0-3.75","3276666","co38392","norming","","","{""guess"":""camel""}","","../img/tt/013tt.jpg","",""
"null","../img/gs/013gs.jpg","null","reveal","image-keyboard-response","535","2040116","0.0-6.0-4.75","3276666","co38392","norming","","","","","","",""
"null","../img/tt/013tt.jpg","null","mooney2","image-keyboard-response","536","2042126","0.0-6.0-5.75","3276666","co38392","norming","","","","","","",""
"6709.689999999711","","","post_reveal_questions","survey-likert","537","2048839","0.0-6.0-6.75","3276666","co38392","norming","","","{""aha"":3}","[0]","../img/tt/013tt.jpg","",""
"null","<div style=""font-size:60px;""> </div>","null","fixation","html-keyboard-response","538","2049048","0.0-6.0-0.76","3276666","co38392","norming","","","","","","",""
"null","../img/tt/270tt.jpg","null","mooney1","image-keyboard-response","539","2052053","0.0-6.0-1.76","3276666","co38392","norming","","","","","","",""
"4670.494999998482","","","post_mooney1_questions","survey-likert","540","2056727","0.0-6.0-2.76","3276666","co38392","norming","","","{""curiosity"":4,""confidence"":3}","[0,1]","../img/tt/270tt.jpg","",""
"3637.6700000001583","","","recognition","survey-text","541","2060366","0.0-6.0-3.76","3276666","co38392","norming","","","{""guess"":""cowboy""}","","../img/tt/270tt.jpg","",""
"null","../img/gs/270gs.jpg","null","reveal","image-keyboard-response","542","2062368","0.0-6.0-4.76","3276666","co38392","norming","","","","","","",""
"null","../img/tt/270tt.jpg","null","mooney2","image-keyboard-response","543","2064369","0.0-6.0-5.76","3276666","co38392","norming","","","","","","",""
"5866.030000000959","","","post_reveal_questions","survey-likert","544","2070239","0.0-6.0-6.76","3276666","co38392","norming","","","{""aha"":5}","[0]","../img/tt/270tt.jpg","",""
"null","<div style=""font-size:60px;""> </div>","null","fixation","html-keyboard-response","545","2070444","0.0-6.0-0.77","3276666","co38392","norming","","","","","","",""
"null","../img/tt/053tt.jpg","null","mooney1","image-keyboard-response","546","2073454","0.0-6.0-1.77","3276666","co38392","norming","","","","","","",""
"6213.319999999134","","","post_mooney1_questions","survey-likert","547","2079671","0.0-6.0-2.77","3276666","co38392","norming","","","{""curiosity"":4,""confidence"":1}","[0,1]","../img/tt/053tt.jpg","",""
"2982.045000000624","","","recognition","survey-text","548","2082655","0.0-6.0-3.77","3276666","co38392","norming","","","{""guess"":""waterfall""}","","../img/tt/053tt.jpg","",""
"null","../img/gs/053gs.jpg","null","reveal","image-keyboard-response","549","2084665","0.0-6.0-4.77","3276666","co38392","norming","","","","","","",""
"null","../img/tt/053tt.jpg","null","mooney2","image-keyboard-response","550","2086667","0.0-6.0-5.77","3276666","co38392","norming","","","","","","",""
"2929.2849999982864","","","post_reveal_questions","survey-likert","551","2089599","0.0-6.0-6.77","3276666","co38392","norming","","","{""aha"":6}","[0]","../img/tt/053tt.jpg","",""
