"rt","stimulus","key_press","test_part","trial_type","trial_index","time_elapsed","internal_node_id","totalTime","subject","experiment_name","button_pressed","success","responses","question_order","currentStim","old","correct"
"9438.790000000012","Welcome to the experiment. This is an online experiment so please don't close the tab/window until we say goodbye.  Press any key to begin.","77","instructions","html-keyboard-response","0","9452","0.0-0.0","3244261","co38182","norming","","","","","","",""
"68734.48999999999","<div style='word-wrap: break-word; width: 900px'><h3>Please consider this information carefully before deciding whether to participate in this research</h3><ul style='text-align: left; font-size: .8em;'><li><b>Purpose of the research</b>: To examine how people process images.</li><li><b>What you will do in this research</b>:  Stimuli (images) will be presented on the computer and you will be asked different questions about them.</li><li><b>Time required</b>: Participation will take between 45 and 60 minutes to complete.</li><li><b>Risks</b>:  There are no anticipated risks associated with participating in this study. The effects of participating should be comparable to those you would experience from viewing a computer monitor for 30 minutes and using a mouse or keyboard.</li><li><b>Benefits</b>:  This study provides no benefits to you individually except for the credit. The study provides important information about the nature of perception and learning.</li><li><b>Confidentiality</b>:  Your participation in this study will remain confidential. No personally identifiable information will be associated with your data. Your de-identified data may be shared with other researchers and used in future projects.</li><li><b>Participation and withdrawal</b>:  Your participation in this study is completely voluntary and you may refuse to participate or you may choose to withdraw at any time without penalty.</li><li><b>How to contact the researchers</b>: If you have questions or concerns about your participation or payment, or want to request a summary of research findings, please contact Sander Van de Cruys (KU Leuven), at sander.vandecruys@kuleuven.be.</li></ul><p>The nature and purpose of this research have been sufficiently explained and I agree to participate in this study.  I understand that I am free to withdraw at any time without incurring any penalty.</p><p>Please consent by clicking the button below to continue. Otherwise, please exit the study at this time.</p></div>","","instructions","html-button-response","1","78183","0.0-1.0","3244261","co38182","norming","0","","","","","",""
"","","","instructions","fullscreen","2","84773","0.0-2.0","3244261","co38182","norming","","true","","","","",""
"52488.12500000003","","","sona","survey-html-form","3","137267","0.0-3.0","3244261","co38182","norming","","","[{""name"":""sonaid"",""value"":""38182""},{""name"":""debrief"",""value"":""no""},{""name"":""datajoin"",""value"":""yes""}]","","","",""
"171282.845","<div style='word-wrap: break-word; width: 900px'><h3>Instructions</h3><p>This experiment will have 3 parts. In the first part you will see a series of distorted images like the one below on the left. As you can see in the righthand image, the distorted images are derived from actual photographs. In what follows, you will <strong>briefly</strong> be presented with <strong>only</strong> the distorted image.</p> <div style='float: left; margin-right: 20px;'><img src='../img/018tt.jpg' height='250' width='250'></img></div><div style='float: right; margin-left: 20px;'><img src='../img/018gs.jpg' height='250' width='250'></img></div><p>Subsequently you will be asked a few questions about the image: One question on how <strong>curious</strong> you are about the solution and one on how <strong>confident</strong> you are that you know the solution.</p>Next, we ask you to make a guess on what is in the image. Note that it is OK to name just the <strong>basic level category</strong>. For example when you see a parrot in the image, 'parrot' will obviously be a correct answer but also correct is 'bird'. However, 'animal' will <strong>not</strong> be counted as a correct response. For the example above, 'rose' would be correct or 'flower', but not 'plant'. When soccer players are depicted, 'soccer', 'football', 'soccer players' will be correct, but not 'humans', 'outdoors', or 'sports'. You do not need to describe the image in full, just name the main object in it <strong>in one or two words</strong>. All images depict objects from one of the following broad level categories: animals, inanimate objects, plants, sports, vehicles, and food. Recognizing means knowing <strong>more</strong> than these broad labels for a given image. But we always encourage you to <strong>make a guess</strong> if you can. Note that you are allowed to use <strong>Dutch and English</strong> in your answers, whatever comes easiest for you.</p><p>Press any key to continue.</p></div>","13","instructions","html-keyboard-response","4","308754","0.0-4.0","3244261","co38182","norming","","","","","","",""
"62878.530000000086","<div style='word-wrap: break-word; width: 900px'><h3>Instructions</h3> <p>Next, the solution image will be revealed to you and you'll be asked to indicate how strong your <strong>aha-experience</strong> was after seeing the solution. This describes the positive feeling of the 'click' you sometimes experience, when the pieces of the 'puzzle' fall together and you suddenly have 'insight' in the image.</p><img src='aha.jpg' height='188' width='250'></img><p>Note that there are no right or wrong answers. We are interested in what <strong>you</strong> see in the image and how <strong>you</strong> feel about it.</p><p>Press any key to start the experiment.</p></div>","13","instructions","html-keyboard-response","5","371772","0.0-5.0","3244261","co38182","norming","","","","","","",""
"null","<div style=""font-size:60px;""> </div>","null","fixation","html-keyboard-response","6","371979","0.0-6.0-0.0","3244261","co38182","norming","","","","","","",""
"null","../img/tt/1102tt.jpg","null","mooney1","image-keyboard-response","7","374985","0.0-6.0-1.0","3244261","co38182","norming","","","","","","",""
"12745.365000000107","","","post_mooney1_questions","survey-likert","8","387733","0.0-6.0-2.0","3244261","co38182","norming","","","{""curiosity"":4,""confidence"":1}","[0,1]","../img/tt/1102tt.jpg","",""
"7965.3450000000885","","","recognition","survey-text","9","395700","0.0-6.0-3.0","3244261","co38182","norming","","","{""guess"":""boot""}","","../img/tt/1102tt.jpg","",""
"null","../img/gs/1102gs.jpg","null","reveal","image-keyboard-response","10","397708","0.0-6.0-4.0","3244261","co38182","norming","","","","","","",""
"null","../img/tt/1102tt.jpg","null","mooney2","image-keyboard-response","11","399709","0.0-6.0-5.0","3244261","co38182","norming","","","","","","",""
"4788.820000000007","","","post_reveal_questions","survey-likert","12","404501","0.0-6.0-6.0","3244261","co38182","norming","","","{""aha"":0}","[0]","../img/tt/1102tt.jpg","",""
"null","<div style=""font-size:60px;""> </div>","null","fixation","html-keyboard-response","13","404702","0.0-6.0-0.1","3244261","co38182","norming","","","","","","",""
"null","../img/tt/1123tt.jpg","null","mooney1","image-keyboard-response","14","407708","0.0-6.0-1.1","3244261","co38182","norming","","","","","","",""
"15871.250000000058","","","post_mooney1_questions","survey-likert","15","423581","0.0-6.0-2.1","3244261","co38182","norming","","","{""curiosity"":1,""confidence"":0}","[0,1]","../img/tt/1123tt.jpg","",""
"2765.804999999993","","","recognition","survey-text","16","426348","0.0-6.0-3.1","3244261","co38182","norming","","","{""guess"":""""}","","../img/tt/1123tt.jpg","",""
"null","../img/gs/1123gs.jpg","null","reveal","image-keyboard-response","17","428355","0.0-6.0-4.1","3244261","co38182","norming","","","","","","",""
"null","../img/tt/1123tt.jpg","null","mooney2","image-keyboard-response","18","430366","0.0-6.0-5.1","3244261","co38182","norming","","","","","","",""
"7028.554999999993","","","post_reveal_questions","survey-likert","19","437524","0.0-6.0-6.1","3244261","co38182","norming","","","{""aha"":2}","[0]","../img/tt/1123tt.jpg","",""
"null","<div style=""font-size:60px;""> </div>","null","fixation","html-keyboard-response","20","437729","0.0-6.0-0.2","3244261","co38182","norming","","","","","","",""
"null","../img/tt/517tt.jpg","null","mooney1","image-keyboard-response","21","440732","0.0-6.0-1.2","3244261","co38182","norming","","","","","","",""
"7589.074999999953","","","post_mooney1_questions","survey-likert","22","448324","0.0-6.0-2.2","3244261","co38182","norming","","","{""curiosity"":4,""confidence"":0}","[0,1]","../img/tt/517tt.jpg","",""
"2894.024999999907","","","recognition","survey-text","23","451220","0.0-6.0-3.2","3244261","co38182","norming","","","{""guess"":""""}","","../img/tt/517tt.jpg","",""
"null","../img/gs/517gs.jpg","null","reveal","image-keyboard-response","24","453222","0.0-6.0-4.2","3244261","co38182","norming","","","","","","",""
"null","../img/tt/517tt.jpg","null","mooney2","image-keyboard-response","25","455224","0.0-6.0-5.2","3244261","co38182","norming","","","","","","",""
"3737.8300000000163","","","post_reveal_questions","survey-likert","26","458964","0.0-6.0-6.2","3244261","co38182","norming","","","{""aha"":0}","[0]","../img/tt/517tt.jpg","",""
"null","<div style=""font-size:60px;""> </div>","null","fixation","html-keyboard-response","27","459168","0.0-6.0-0.3","3244261","co38182","norming","","","","","","",""
"null","../img/tt/1260tt.jpg","null","mooney1","image-keyboard-response","28","462180","0.0-6.0-1.3","3244261","co38182","norming","","","","","","",""
"8429.835000000021","","","post_mooney1_questions","survey-likert","29","470612","0.0-6.0-2.3","3244261","co38182","norming","","","{""curiosity"":5,""confidence"":3}","[0,1]","../img/tt/1260tt.jpg","",""
"5374.215000000026","","","recognition","survey-text","30","475988","0.0-6.0-3.3","3244261","co38182","norming","","","{""guess"":""krokkodil""}","","../img/tt/1260tt.jpg","",""
"null","../img/gs/1260gs.jpg","null","reveal","image-keyboard-response","31","477989","0.0-6.0-4.3","3244261","co38182","norming","","","","","","",""
"null","../img/tt/1260tt.jpg","null","mooney2","image-keyboard-response","32","479992","0.0-6.0-5.3","3244261","co38182","norming","","","","","","",""
"8866.16499999992","","","post_reveal_questions","survey-likert","33","488860","0.0-6.0-6.3","3244261","co38182","norming","","","{""aha"":2}","[0]","../img/tt/1260tt.jpg","",""
"null","<div style=""font-size:60px;""> </div>","null","fixation","html-keyboard-response","34","489061","0.0-6.0-0.4","3244261","co38182","norming","","","","","","",""
"null","../img/tt/296tt.jpg","null","mooney1","image-keyboard-response","35","492064","0.0-6.0-1.4","3244261","co38182","norming","","","","","","",""
"11401.849999999977","","","post_mooney1_questions","survey-likert","36","503608","0.0-6.0-2.4","3244261","co38182","norming","","","{""curiosity"":0,""confidence"":0}","[0,1]","../img/tt/296tt.jpg","",""
"846.0149999999558","","","recognition","survey-text","37","504456","0.0-6.0-3.4","3244261","co38182","norming","","","{""guess"":""""}","","../img/tt/296tt.jpg","",""
"null","../img/gs/296gs.jpg","null","reveal","image-keyboard-response","38","506460","0.0-6.0-4.4","3244261","co38182","norming","","","","","","",""
"null","../img/tt/296tt.jpg","null","mooney2","image-keyboard-response","39","508470","0.0-6.0-5.4","3244261","co38182","norming","","","","","","",""
"4567.8850000000675","","","post_reveal_questions","survey-likert","40","513040","0.0-6.0-6.4","3244261","co38182","norming","","","{""aha"":0}","[0]","../img/tt/296tt.jpg","",""
"null","<div style=""font-size:60px;""> </div>","null","fixation","html-keyboard-response","41","513242","0.0-6.0-0.5","3244261","co38182","norming","","","","","","",""
"null","../img/tt/1146tt.jpg","null","mooney1","image-keyboard-response","42","516250","0.0-6.0-1.5","3244261","co38182","norming","","","","","","",""
"4195.500000000058","","","post_mooney1_questions","survey-likert","43","520448","0.0-6.0-2.5","3244261","co38182","norming","","","{""curiosity"":4,""confidence"":3}","[0,1]","../img/tt/1146tt.jpg","",""
"4502.305000000051","","","recognition","survey-text","44","524952","0.0-6.0-3.5","3244261","co38182","norming","","","{""guess"":""visser""}","","../img/tt/1146tt.jpg","",""
"null","../img/gs/1146gs.jpg","null","reveal","image-keyboard-response","45","526953","0.0-6.0-4.5","3244261","co38182","norming","","","","","","",""
"null","../img/tt/1146tt.jpg","null","mooney2","image-keyboard-response","46","528954","0.0-6.0-5.5","3244261","co38182","norming","","","","","","",""
"3508.560000000056","","","post_reveal_questions","survey-likert","47","532464","0.0-6.0-6.5","3244261","co38182","norming","","","{""aha"":3}","[0]","../img/tt/1146tt.jpg","",""
"null","<div style=""font-size:60px;""> </div>","null","fixation","html-keyboard-response","48","532670","0.0-6.0-0.6","3244261","co38182","norming","","","","","","",""
"null","../img/tt/358tt.jpg","null","mooney1","image-keyboard-response","49","535679","0.0-6.0-1.6","3244261","co38182","norming","","","","","","",""
"8432.43499999994","","","post_mooney1_questions","survey-likert","50","544112","0.0-6.0-2.6","3244261","co38182","norming","","","{""curiosity"":2,""confidence"":0}","[0,1]","../img/tt/358tt.jpg","",""
"1006.2750000000233","","","recognition","survey-text","51","545120","0.0-6.0-3.6","3244261","co38182","norming","","","{""guess"":""""}","","../img/tt/358tt.jpg","",""
"null","../img/gs/358gs.jpg","null","reveal","image-keyboard-response","52","547131","0.0-6.0-4.6","3244261","co38182","norming","","","","","","",""
"null","../img/tt/358tt.jpg","null","mooney2","image-keyboard-response","53","549133","0.0-6.0-5.6","3244261","co38182","norming","","","","","","",""
"2497.109999999986","","","post_reveal_questions","survey-likert","54","551632","0.0-6.0-6.6","3244261","co38182","norming","","","{""aha"":0}","[0]","../img/tt/358tt.jpg","",""
"null","<div style=""font-size:60px;""> </div>","null","fixation","html-keyboard-response","55","551836","0.0-6.0-0.7","3244261","co38182","norming","","","","","","",""
"null","../img/tt/1037tt.jpg","null","mooney1","image-keyboard-response","56","554841","0.0-6.0-1.7","3244261","co38182","norming","","","","","","",""
"6821.105000000098","","","post_mooney1_questions","survey-likert","57","561664","0.0-6.0-2.7","3244261","co38182","norming","","","{""curiosity"":4,""confidence"":0}","[0,1]","../img/tt/1037tt.jpg","",""
"1598.015000000014","","","recognition","survey-text","58","563287","0.0-6.0-3.7","3244261","co38182","norming","","","{""guess"":""""}","","../img/tt/1037tt.jpg","",""
"null","../img/gs/1037gs.jpg","null","reveal","image-keyboard-response","59","565296","0.0-6.0-4.7","3244261","co38182","norming","","","","","","",""
"null","../img/tt/1037tt.jpg","null","mooney2","image-keyboard-response","60","567301","0.0-6.0-5.7","3244261","co38182","norming","","","","","","",""
"6064.755000000121","","","post_reveal_questions","survey-likert","61","573367","0.0-6.0-6.7","3244261","co38182","norming","","","{""aha"":4}","[0]","../img/tt/1037tt.jpg","",""
"null","<div style=""font-size:60px;""> </div>","null","fixation","html-keyboard-response","62","573573","0.0-6.0-0.8","3244261","co38182","norming","","","","","","",""
"null","../img/tt/380tt.jpg","null","mooney1","image-keyboard-response","63","576581","0.0-6.0-1.8","3244261","co38182","norming","","","","","","",""
"5991.265000000014","","","post_mooney1_questions","survey-likert","64","582575","0.0-6.0-2.8","3244261","co38182","norming","","","{""curiosity"":4,""confidence"":3}","[0,1]","../img/tt/380tt.jpg","",""
"2494.2500000001164","","","recognition","survey-text","65","585071","0.0-6.0-3.8","3244261","co38182","norming","","","{""guess"":""vogel""}","","../img/tt/380tt.jpg","",""
"null","../img/gs/380gs.jpg","null","reveal","image-keyboard-response","66","587075","0.0-6.0-4.8","3244261","co38182","norming","","","","","","",""
"null","../img/tt/380tt.jpg","null","mooney2","image-keyboard-response","67","589086","0.0-6.0-5.8","3244261","co38182","norming","","","","","","",""
"5390.885000000009","","","post_reveal_questions","survey-likert","68","594479","0.0-6.0-6.8","3244261","co38182","norming","","","{""aha"":1}","[0]","../img/tt/380tt.jpg","",""
"null","<div style=""font-size:60px;""> </div>","null","fixation","html-keyboard-response","69","594682","0.0-6.0-0.9","3244261","co38182","norming","","","","","","",""
"null","../img/tt/1002tt.jpg","null","mooney1","image-keyboard-response","70","597689","0.0-6.0-1.9","3244261","co38182","norming","","","","","","",""
"8117.350000000093","","","post_mooney1_questions","survey-likert","71","605807","0.0-6.0-2.9","3244261","co38182","norming","","","{""curiosity"":4,""confidence"":1}","[0,1]","../img/tt/1002tt.jpg","",""
"1758.030000000028","","","recognition","survey-text","72","607567","0.0-6.0-3.9","3244261","co38182","norming","","","{""guess"":""hond""}","","../img/tt/1002tt.jpg","",""
"null","../img/gs/1002gs.jpg","null","reveal","image-keyboard-response","73","609576","0.0-6.0-4.9","3244261","co38182","norming","","","","","","",""
"null","../img/tt/1002tt.jpg","null","mooney2","image-keyboard-response","74","611581","0.0-6.0-5.9","3244261","co38182","norming","","","","","","",""
"3049.109999999986","","","post_reveal_questions","survey-likert","75","614631","0.0-6.0-6.9","3244261","co38182","norming","","","{""aha"":5}","[0]","../img/tt/1002tt.jpg","",""
"null","<div style=""font-size:60px;""> </div>","null","fixation","html-keyboard-response","76","614837","0.0-6.0-0.10","3244261","co38182","norming","","","","","","",""
"null","../img/tt/118tt.jpg","null","mooney1","image-keyboard-response","77","617843","0.0-6.0-1.10","3244261","co38182","norming","","","","","","",""
"8217.899999999907","","","post_mooney1_questions","survey-likert","78","626056","0.0-6.0-2.10","3244261","co38182","norming","","","{""curiosity"":2,""confidence"":0}","[0,1]","../img/tt/118tt.jpg","",""
"806.0700000000652","","","recognition","survey-text","79","626864","0.0-6.0-3.10","3244261","co38182","norming","","","{""guess"":""""}","","../img/tt/118tt.jpg","",""
"null","../img/gs/118gs.jpg","null","reveal","image-keyboard-response","80","628866","0.0-6.0-4.10","3244261","co38182","norming","","","","","","",""
"null","../img/tt/118tt.jpg","null","mooney2","image-keyboard-response","81","630871","0.0-6.0-5.10","3244261","co38182","norming","","","","","","",""
"2399.4400000000605","","","post_reveal_questions","survey-likert","82","633272","0.0-6.0-6.10","3244261","co38182","norming","","","{""aha"":0}","[0]","../img/tt/118tt.jpg","",""
"null","<div style=""font-size:60px;""> </div>","null","fixation","html-keyboard-response","83","633474","0.0-6.0-0.11","3244261","co38182","norming","","","","","","",""
"null","../img/tt/123tt.jpg","null","mooney1","image-keyboard-response","84","636477","0.0-6.0-1.11","3244261","co38182","norming","","","","","","",""
"3992.359999999986","","","post_mooney1_questions","survey-likert","85","640472","0.0-6.0-2.11","3244261","co38182","norming","","","{""curiosity"":3,""confidence"":1}","[0,1]","../img/tt/123tt.jpg","",""
"4974.290000000037","","","recognition","survey-text","86","645448","0.0-6.0-3.11","3244261","co38182","norming","","","{""guess"":""boekentas""}","","../img/tt/123tt.jpg","",""
"null","../img/gs/123gs.jpg","null","reveal","image-keyboard-response","87","647453","0.0-6.0-4.11","3244261","co38182","norming","","","","","","",""
"null","../img/tt/123tt.jpg","null","mooney2","image-keyboard-response","88","649461","0.0-6.0-5.11","3244261","co38182","norming","","","","","","",""
"5184.240000000107","","","post_reveal_questions","survey-likert","89","654648","0.0-6.0-6.11","3244261","co38182","norming","","","{""aha"":2}","[0]","../img/tt/123tt.jpg","",""
"null","<div style=""font-size:60px;""> </div>","null","fixation","html-keyboard-response","90","654852","0.0-6.0-0.12","3244261","co38182","norming","","","","","","",""
"null","../img/tt/567tt.jpg","null","mooney1","image-keyboard-response","91","657855","0.0-6.0-1.12","3244261","co38182","norming","","","","","","",""
"5294.979999999981","","","post_mooney1_questions","survey-likert","92","663152","0.0-6.0-2.12","3244261","co38182","norming","","","{""curiosity"":4,""confidence"":4}","[0,1]","../img/tt/567tt.jpg","",""
"5478.130000000005","","","recognition","survey-text","93","668632","0.0-6.0-3.12","3244261","co38182","norming","","","{""guess"":""broodrooster""}","","../img/tt/567tt.jpg","",""
"null","../img/gs/567gs.jpg","null","reveal","image-keyboard-response","94","670641","0.0-6.0-4.12","3244261","co38182","norming","","","","","","",""
"null","../img/tt/567tt.jpg","null","mooney2","image-keyboard-response","95","672650","0.0-6.0-5.12","3244261","co38182","norming","","","","","","",""
"3683.140000000014","","","post_reveal_questions","survey-likert","96","676336","0.0-6.0-6.12","3244261","co38182","norming","","","{""aha"":4}","[0]","../img/tt/567tt.jpg","",""
"null","<div style=""font-size:60px;""> </div>","null","fixation","html-keyboard-response","97","676546","0.0-6.0-0.13","3244261","co38182","norming","","","","","","",""
"null","../img/tt/007tt.jpg","null","mooney1","image-keyboard-response","98","679548","0.0-6.0-1.13","3244261","co38182","norming","","","","","","",""
"4945.2200000000885","","","post_mooney1_questions","survey-likert","99","684497","0.0-6.0-2.13","3244261","co38182","norming","","","{""curiosity"":4,""confidence"":5}","[0,1]","../img/tt/007tt.jpg","",""
"2902.0250000000233","","","recognition","survey-text","100","687400","0.0-6.0-3.13","3244261","co38182","norming","","","{""guess"":""kikker""}","","../img/tt/007tt.jpg","",""
"null","../img/gs/007gs.jpg","null","reveal","image-keyboard-response","101","689410","0.0-6.0-4.13","3244261","co38182","norming","","","","","","",""
"null","../img/tt/007tt.jpg","null","mooney2","image-keyboard-response","102","691412","0.0-6.0-5.13","3244261","co38182","norming","","","","","","",""
"3705.5400000000373","","","post_reveal_questions","survey-likert","103","695120","0.0-6.0-6.13","3244261","co38182","norming","","","{""aha"":5}","[0]","../img/tt/007tt.jpg","",""
"null","<div style=""font-size:60px;""> </div>","null","fixation","html-keyboard-response","104","695324","0.0-6.0-0.14","3244261","co38182","norming","","","","","","",""
"null","../img/tt/319tt.jpg","null","mooney1","image-keyboard-response","105","698329","0.0-6.0-1.14","3244261","co38182","norming","","","","","","",""
"5692.685000000056","","","post_mooney1_questions","survey-likert","106","704024","0.0-6.0-2.14","3244261","co38182","norming","","","{""curiosity"":2,""confidence"":1}","[0,1]","../img/tt/319tt.jpg","",""
"3102.3850000000093","","","recognition","survey-text","107","707128","0.0-6.0-3.14","3244261","co38182","norming","","","{""guess"":""vlinder""}","","../img/tt/319tt.jpg","",""
"null","../img/gs/319gs.jpg","null","reveal","image-keyboard-response","108","709129","0.0-6.0-4.14","3244261","co38182","norming","","","","","","",""
"null","../img/tt/319tt.jpg","null","mooney2","image-keyboard-response","109","711139","0.0-6.0-5.14","3244261","co38182","norming","","","","","","",""
"2610.719999999972","","","post_reveal_questions","survey-likert","110","713752","0.0-6.0-6.14","3244261","co38182","norming","","","{""aha"":0}","[0]","../img/tt/319tt.jpg","",""
"null","<div style=""font-size:60px;""> </div>","null","fixation","html-keyboard-response","111","713962","0.0-6.0-0.15","3244261","co38182","norming","","","","","","",""
"null","../img/tt/020tt.jpg","null","mooney1","image-keyboard-response","112","716971","0.0-6.0-1.15","3244261","co38182","norming","","","","","","",""
"5460.290000000037","","","post_mooney1_questions","survey-likert","113","722432","0.0-6.0-2.15","3244261","co38182","norming","","","{""curiosity"":4,""confidence"":0}","[0,1]","../img/tt/020tt.jpg","",""
"6101.910000000033","","","recognition","survey-text","114","728536","0.0-6.0-3.15","3244261","co38182","norming","","","{""guess"":""""}","","../img/tt/020tt.jpg","",""
"null","../img/gs/020gs.jpg","null","reveal","image-keyboard-response","115","730540","0.0-6.0-4.15","3244261","co38182","norming","","","","","","",""
"null","../img/tt/020tt.jpg","null","mooney2","image-keyboard-response","116","732552","0.0-6.0-5.15","3244261","co38182","norming","","","","","","",""
"4950.2949999999255","","","post_reveal_questions","survey-likert","117","737504","0.0-6.0-6.15","3244261","co38182","norming","","","{""aha"":4}","[0]","../img/tt/020tt.jpg","",""
"null","<div style=""font-size:60px;""> </div>","null","fixation","html-keyboard-response","118","737709","0.0-6.0-0.16","3244261","co38182","norming","","","","","","",""
"null","../img/tt/091tt.jpg","null","mooney1","image-keyboard-response","119","740711","0.0-6.0-1.16","3244261","co38182","norming","","","","","","",""
"13294.545000000042","","","post_mooney1_questions","survey-likert","120","754013","0.0-6.0-2.16","3244261","co38182","norming","","","{""curiosity"":2,""confidence"":1}","[0,1]","../img/tt/091tt.jpg","",""
"4077.8300000000745","","","recognition","survey-text","121","758093","0.0-6.0-3.16","3244261","co38182","norming","","","{""guess"":""krokkodil""}","","../img/tt/091tt.jpg","",""
"null","../img/gs/091gs.jpg","null","reveal","image-keyboard-response","122","760101","0.0-6.0-4.16","3244261","co38182","norming","","","","","","",""
"null","../img/tt/091tt.jpg","null","mooney2","image-keyboard-response","123","762109","0.0-6.0-5.16","3244261","co38182","norming","","","","","","",""
"2749.780000000028","","","post_reveal_questions","survey-likert","124","764861","0.0-6.0-6.16","3244261","co38182","norming","","","{""aha"":3}","[0]","../img/tt/091tt.jpg","",""
"null","<div style=""font-size:60px;""> </div>","null","fixation","html-keyboard-response","125","765063","0.0-6.0-0.17","3244261","co38182","norming","","","","","","",""
"null","../img/tt/468tt.jpg","null","mooney1","image-keyboard-response","126","768067","0.0-6.0-1.17","3244261","co38182","norming","","","","","","",""
"8559.574999999953","","","post_mooney1_questions","survey-likert","127","776629","0.0-6.0-2.17","3244261","co38182","norming","","","{""curiosity"":4,""confidence"":2}","[0,1]","../img/tt/468tt.jpg","",""
"3574.145000000135","","","recognition","survey-text","128","780205","0.0-6.0-3.17","3244261","co38182","norming","","","{""guess"":""boogschieter""}","","../img/tt/468tt.jpg","",""
"null","../img/gs/468gs.jpg","null","reveal","image-keyboard-response","129","782216","0.0-6.0-4.17","3244261","co38182","norming","","","","","","",""
"null","../img/tt/468tt.jpg","null","mooney2","image-keyboard-response","130","784224","0.0-6.0-5.17","3244261","co38182","norming","","","","","","",""
"2995.149999999907","","","post_reveal_questions","survey-likert","131","787221","0.0-6.0-6.17","3244261","co38182","norming","","","{""aha"":1}","[0]","../img/tt/468tt.jpg","",""
"null","<div style=""font-size:60px;""> </div>","null","fixation","html-keyboard-response","132","787429","0.0-6.0-0.18","3244261","co38182","norming","","","","","","",""
"null","../img/tt/1097tt.jpg","null","mooney1","image-keyboard-response","133","790436","0.0-6.0-1.18","3244261","co38182","norming","","","","","","",""
"7206.665000000037","","","post_mooney1_questions","survey-likert","134","797645","0.0-6.0-2.18","3244261","co38182","norming","","","{""curiosity"":4,""confidence"":3}","[0,1]","../img/tt/1097tt.jpg","",""
"3997.865000000107","","","recognition","survey-text","135","801645","0.0-6.0-3.18","3244261","co38182","norming","","","{""guess"":""herder""}","","../img/tt/1097tt.jpg","",""
"null","../img/gs/1097gs.jpg","null","reveal","image-keyboard-response","136","803649","0.0-6.0-4.18","3244261","co38182","norming","","","","","","",""
"null","../img/tt/1097tt.jpg","null","mooney2","image-keyboard-response","137","805650","0.0-6.0-5.18","3244261","co38182","norming","","","","","","",""
"4762.195000000065","","","post_reveal_questions","survey-likert","138","810413","0.0-6.0-6.18","3244261","co38182","norming","","","{""aha"":1}","[0]","../img/tt/1097tt.jpg","",""
"null","<div style=""font-size:60px;""> </div>","null","fixation","html-keyboard-response","139","810615","0.0-6.0-0.19","3244261","co38182","norming","","","","","","",""
"null","../img/tt/1283tt.jpg","null","mooney1","image-keyboard-response","140","813623","0.0-6.0-1.19","3244261","co38182","norming","","","","","","",""
"10215.790000000037","","","post_mooney1_questions","survey-likert","141","823840","0.0-6.0-2.19","3244261","co38182","norming","","","{""curiosity"":0,""confidence"":0}","[0,1]","../img/tt/1283tt.jpg","",""
"934","","","recognition","survey-text","142","824776","0.0-6.0-3.19","3244261","co38182","norming","","","{""guess"":""""}","","../img/tt/1283tt.jpg","",""
"null","../img/gs/1283gs.jpg","null","reveal","image-keyboard-response","143","826778","0.0-6.0-4.19","3244261","co38182","norming","","","","","","",""
"null","../img/tt/1283tt.jpg","null","mooney2","image-keyboard-response","144","828788","0.0-6.0-5.19","3244261","co38182","norming","","","","","","",""
"2537.6999999999534","","","post_reveal_questions","survey-likert","145","831328","0.0-6.0-6.19","3244261","co38182","norming","","","{""aha"":0}","[0]","../img/tt/1283tt.jpg","",""
"null","<div style=""font-size:60px;""> </div>","null","fixation","html-keyboard-response","146","831530","0.0-6.0-0.20","3244261","co38182","norming","","","","","","",""
"null","../img/tt/1181tt.jpg","null","mooney1","image-keyboard-response","147","834535","0.0-6.0-1.20","3244261","co38182","norming","","","","","","",""
"14413.964999999967","","","post_mooney1_questions","survey-likert","148","848952","0.0-6.0-2.20","3244261","co38182","norming","","","{""curiosity"":4,""confidence"":0}","[0,1]","../img/tt/1181tt.jpg","",""
"1197.7849999999162","","","recognition","survey-text","149","850152","0.0-6.0-3.20","3244261","co38182","norming","","","{""guess"":""""}","","../img/tt/1181tt.jpg","",""
"null","../img/gs/1181gs.jpg","null","reveal","image-keyboard-response","150","852153","0.0-6.0-4.20","3244261","co38182","norming","","","","","","",""
"null","../img/tt/1181tt.jpg","null","mooney2","image-keyboard-response","151","854155","0.0-6.0-5.20","3244261","co38182","norming","","","","","","",""
"2930.280000000028","","","post_reveal_questions","survey-likert","152","857088","0.0-6.0-6.20","3244261","co38182","norming","","","{""aha"":0}","[0]","../img/tt/1181tt.jpg","",""
"null","<div style=""font-size:60px;""> </div>","null","fixation","html-keyboard-response","153","857293","0.0-6.0-0.21","3244261","co38182","norming","","","","","","",""
"null","../img/tt/1069tt.jpg","null","mooney1","image-keyboard-response","154","860296","0.0-6.0-1.21","3244261","co38182","norming","","","","","","",""
"6693.114999999874","","","post_mooney1_questions","survey-likert","155","866992","0.0-6.0-2.21","3244261","co38182","norming","","","{""curiosity"":0,""confidence"":0}","[0,1]","../img/tt/1069tt.jpg","",""
"814.0250000000233","","","recognition","survey-text","156","867808","0.0-6.0-3.21","3244261","co38182","norming","","","{""guess"":""""}","","../img/tt/1069tt.jpg","",""
"null","../img/gs/1069gs.jpg","null","reveal","image-keyboard-response","157","869812","0.0-6.0-4.21","3244261","co38182","norming","","","","","","",""
"null","../img/tt/1069tt.jpg","null","mooney2","image-keyboard-response","158","871820","0.0-6.0-5.21","3244261","co38182","norming","","","","","","",""
"3553.795000000042","","","post_reveal_questions","survey-likert","159","875375","0.0-6.0-6.21","3244261","co38182","norming","","","{""aha"":4}","[0]","../img/tt/1069tt.jpg","",""
"null","<div style=""font-size:60px;""> </div>","null","fixation","html-keyboard-response","160","875580","0.0-6.0-0.22","3244261","co38182","norming","","","","","","",""
"null","../img/tt/1202tt.jpg","null","mooney1","image-keyboard-response","161","878586","0.0-6.0-1.22","3244261","co38182","norming","","","","","","",""
"3730.414999999921","","","post_mooney1_questions","survey-likert","162","882319","0.0-6.0-2.22","3244261","co38182","norming","","","{""curiosity"":2,""confidence"":0}","[0,1]","../img/tt/1202tt.jpg","",""
"974.390000000014","","","recognition","survey-text","163","883295","0.0-6.0-3.22","3244261","co38182","norming","","","{""guess"":""""}","","../img/tt/1202tt.jpg","",""
"null","../img/gs/1202gs.jpg","null","reveal","image-keyboard-response","164","885302","0.0-6.0-4.22","3244261","co38182","norming","","","","","","",""
"null","../img/tt/1202tt.jpg","null","mooney2","image-keyboard-response","165","887304","0.0-6.0-5.22","3244261","co38182","norming","","","","","","",""
"2933.039999999921","","","post_reveal_questions","survey-likert","166","890239","0.0-6.0-6.22","3244261","co38182","norming","","","{""aha"":0}","[0]","../img/tt/1202tt.jpg","",""
"null","<div style=""font-size:60px;""> </div>","null","fixation","html-keyboard-response","167","890447","0.0-6.0-0.23","3244261","co38182","norming","","","","","","",""
"null","../img/tt/279tt.jpg","null","mooney1","image-keyboard-response","168","893449","0.0-6.0-1.23","3244261","co38182","norming","","","","","","",""
"6179.119999999995","","","post_mooney1_questions","survey-likert","169","899631","0.0-6.0-2.23","3244261","co38182","norming","","","{""curiosity"":6,""confidence"":6}","[0,1]","../img/tt/279tt.jpg","",""
"2238.3950000000186","","","recognition","survey-text","170","901871","0.0-6.0-3.23","3244261","co38182","norming","","","{""guess"":""koala""}","","../img/tt/279tt.jpg","",""
"null","../img/gs/279gs.jpg","null","reveal","image-keyboard-response","171","903878","0.0-6.0-4.23","3244261","co38182","norming","","","","","","",""
"null","../img/tt/279tt.jpg","null","mooney2","image-keyboard-response","172","905884","0.0-6.0-5.23","3244261","co38182","norming","","","","","","",""
"3312.8950000000186","","","post_reveal_questions","survey-likert","173","909199","0.0-6.0-6.23","3244261","co38182","norming","","","{""aha"":6}","[0]","../img/tt/279tt.jpg","",""
"null","<div style=""font-size:60px;""> </div>","null","fixation","html-keyboard-response","174","909405","0.0-6.0-0.24","3244261","co38182","norming","","","","","","",""
"null","../img/tt/440tt.jpg","null","mooney1","image-keyboard-response","175","912407","0.0-6.0-1.24","3244261","co38182","norming","","","","","","",""
"4607.005000000121","","","post_mooney1_questions","survey-likert","176","917015","0.0-6.0-2.24","3244261","co38182","norming","","","{""curiosity"":3,""confidence"":3}","[0,1]","../img/tt/440tt.jpg","",""
"4470.130000000005","","","recognition","survey-text","177","921487","0.0-6.0-3.24","3244261","co38182","norming","","","{""guess"":""rolstoel""}","","../img/tt/440tt.jpg","",""
"null","../img/gs/440gs.jpg","null","reveal","image-keyboard-response","178","923493","0.0-6.0-4.24","3244261","co38182","norming","","","","","","",""
"null","../img/tt/440tt.jpg","null","mooney2","image-keyboard-response","179","925502","0.0-6.0-5.24","3244261","co38182","norming","","","","","","",""
"3239.9150000001537","","","post_reveal_questions","survey-likert","180","928743","0.0-6.0-6.24","3244261","co38182","norming","","","{""aha"":1}","[0]","../img/tt/440tt.jpg","",""
"null","<div style=""font-size:60px;""> </div>","null","fixation","html-keyboard-response","181","928944","0.0-6.0-0.25","3244261","co38182","norming","","","","","","",""
"null","../img/tt/055tt.jpg","null","mooney1","image-keyboard-response","182","931945","0.0-6.0-1.25","3244261","co38182","norming","","","","","","",""
"3892.5250000000233","","","post_mooney1_questions","survey-likert","183","935839","0.0-6.0-2.25","3244261","co38182","norming","","","{""curiosity"":1,""confidence"":0}","[0,1]","../img/tt/055tt.jpg","",""
"1366.2299999999814","","","recognition","survey-text","184","937207","0.0-6.0-3.25","3244261","co38182","norming","","","{""guess"":""""}","","../img/tt/055tt.jpg","",""
"null","../img/gs/055gs.jpg","null","reveal","image-keyboard-response","185","939210","0.0-6.0-4.25","3244261","co38182","norming","","","","","","",""
"null","../img/tt/055tt.jpg","null","mooney2","image-keyboard-response","186","941212","0.0-6.0-5.25","3244261","co38182","norming","","","","","","",""
"3193.659999999916","","","post_reveal_questions","survey-likert","187","944407","0.0-6.0-6.25","3244261","co38182","norming","","","{""aha"":1}","[0]","../img/tt/055tt.jpg","",""
"null","<div style=""font-size:60px;""> </div>","null","fixation","html-keyboard-response","188","944608","0.0-6.0-0.26","3244261","co38182","norming","","","","","","",""
"null","../img/tt/194tt.jpg","null","mooney1","image-keyboard-response","189","947618","0.0-6.0-1.26","3244261","co38182","norming","","","","","","",""
"6763.304999999935","","","post_mooney1_questions","survey-likert","190","954383","0.0-6.0-2.26","3244261","co38182","norming","","","{""curiosity"":1,""confidence"":1}","[0,1]","../img/tt/194tt.jpg","",""
"2174.465000000084","","","recognition","survey-text","191","956559","0.0-6.0-3.26","3244261","co38182","norming","","","{""guess"":""tas""}","","../img/tt/194tt.jpg","",""
"null","../img/gs/194gs.jpg","null","reveal","image-keyboard-response","192","958562","0.0-6.0-4.26","3244261","co38182","norming","","","","","","",""
"null","../img/tt/194tt.jpg","null","mooney2","image-keyboard-response","193","960569","0.0-6.0-5.26","3244261","co38182","norming","","","","","","",""
"3212.7750000000233","","","post_reveal_questions","survey-likert","194","963783","0.0-6.0-6.26","3244261","co38182","norming","","","{""aha"":2}","[0]","../img/tt/194tt.jpg","",""
"null","<div style=""font-size:60px;""> </div>","null","fixation","html-keyboard-response","195","963989","0.0-6.0-0.27","3244261","co38182","norming","","","","","","",""
"null","../img/tt/1226tt.jpg","null","mooney1","image-keyboard-response","196","967002","0.0-6.0-1.27","3244261","co38182","norming","","","","","","",""
"15002.925000000047","","","post_mooney1_questions","survey-likert","197","982007","0.0-6.0-2.27","3244261","co38182","norming","","","{""curiosity"":2,""confidence"":0}","[0,1]","../img/tt/1226tt.jpg","",""
"1398.3050000001676","","","recognition","survey-text","198","983407","0.0-6.0-3.27","3244261","co38182","norming","","","{""guess"":""""}","","../img/tt/1226tt.jpg","",""
"null","../img/gs/1226gs.jpg","null","reveal","image-keyboard-response","199","985413","0.0-6.0-4.27","3244261","co38182","norming","","","","","","",""
"null","../img/tt/1226tt.jpg","null","mooney2","image-keyboard-response","200","987424","0.0-6.0-5.27","3244261","co38182","norming","","","","","","",""
"2356.8700000001118","","","post_reveal_questions","survey-likert","201","989783","0.0-6.0-6.27","3244261","co38182","norming","","","{""aha"":0}","[0]","../img/tt/1226tt.jpg","",""
"null","<div style=""font-size:60px;""> </div>","null","fixation","html-keyboard-response","202","989984","0.0-6.0-0.28","3244261","co38182","norming","","","","","","",""
"null","../img/tt/053tt.jpg","null","mooney1","image-keyboard-response","203","992993","0.0-6.0-1.28","3244261","co38182","norming","","","","","","",""
"11819.614999999874","","","post_mooney1_questions","survey-likert","204","1004817","0.0-6.0-2.28","3244261","co38182","norming","","","{""curiosity"":1,""confidence"":0}","[0,1]","../img/tt/053tt.jpg","",""
"1406.204999999958","","","recognition","survey-text","205","1006225","0.0-6.0-3.28","3244261","co38182","norming","","","{""guess"":""""}","","../img/tt/053tt.jpg","",""
"null","../img/gs/053gs.jpg","null","reveal","image-keyboard-response","206","1008235","0.0-6.0-4.28","3244261","co38182","norming","","","","","","",""
"null","../img/tt/053tt.jpg","null","mooney2","image-keyboard-response","207","1010238","0.0-6.0-5.28","3244261","co38182","norming","","","","","","",""
"2224.865000000107","","","post_reveal_questions","survey-likert","208","1012465","0.0-6.0-6.28","3244261","co38182","norming","","","{""aha"":0}","[0]","../img/tt/053tt.jpg","",""
"null","<div style=""font-size:60px;""> </div>","null","fixation","html-keyboard-response","209","1012673","0.0-6.0-0.29","3244261","co38182","norming","","","","","","",""
"null","../img/tt/442tt.jpg","null","mooney1","image-keyboard-response","210","1015680","0.0-6.0-1.29","3244261","co38182","norming","","","","","","",""
"4104.075000000186","","","post_mooney1_questions","survey-likert","211","1019785","0.0-6.0-2.29","3244261","co38182","norming","","","{""curiosity"":5,""confidence"":3}","[0,1]","../img/tt/442tt.jpg","",""
"2198.115000000107","","","recognition","survey-text","212","1021985","0.0-6.0-3.29","3244261","co38182","norming","","","{""guess"":""hoed""}","","../img/tt/442tt.jpg","",""
"null","../img/gs/442gs.jpg","null","reveal","image-keyboard-response","213","1023994","0.0-6.0-4.29","3244261","co38182","norming","","","","","","",""
"null","../img/tt/442tt.jpg","null","mooney2","image-keyboard-response","214","1026004","0.0-6.0-5.29","3244261","co38182","norming","","","","","","",""
"3570.564999999944","","","post_reveal_questions","survey-likert","215","1029577","0.0-6.0-6.29","3244261","co38182","norming","","","{""aha"":1}","[0]","../img/tt/442tt.jpg","",""
"null","<div style=""font-size:60px;""> </div>","null","fixation","html-keyboard-response","216","1029784","0.0-6.0-0.30","3244261","co38182","norming","","","","","","",""
"null","../img/tt/1189tt.jpg","null","mooney1","image-keyboard-response","217","1032790","0.0-6.0-1.30","3244261","co38182","norming","","","","","","",""
"10383.854999999749","","","post_mooney1_questions","survey-likert","218","1043177","0.0-6.0-2.30","3244261","co38182","norming","","","{""curiosity"":2,""confidence"":0}","[0,1]","../img/tt/1189tt.jpg","",""
"933.8700000001118","","","recognition","survey-text","219","1044113","0.0-6.0-3.30","3244261","co38182","norming","","","{""guess"":""""}","","../img/tt/1189tt.jpg","",""
"null","../img/gs/1189gs.jpg","null","reveal","image-keyboard-response","220","1046114","0.0-6.0-4.30","3244261","co38182","norming","","","","","","",""
"null","../img/tt/1189tt.jpg","null","mooney2","image-keyboard-response","221","1048119","0.0-6.0-5.30","3244261","co38182","norming","","","","","","",""
"3384.9000000000233","","","post_reveal_questions","survey-likert","222","1051505","0.0-6.0-6.30","3244261","co38182","norming","","","{""aha"":4}","[0]","../img/tt/1189tt.jpg","",""
"null","<div style=""font-size:60px;""> </div>","null","fixation","html-keyboard-response","223","1051706","0.0-6.0-0.31","3244261","co38182","norming","","","","","","",""
"null","../img/tt/078tt.jpg","null","mooney1","image-keyboard-response","224","1054711","0.0-6.0-1.31","3244261","co38182","norming","","","","","","",""
"4807.265000000363","","","post_mooney1_questions","survey-likert","225","1059522","0.0-6.0-2.31","3244261","co38182","norming","","","{""curiosity"":5,""confidence"":2}","[0,1]","../img/tt/078tt.jpg","",""
"3614.2050000000745","","","recognition","survey-text","226","1063138","0.0-6.0-3.31","3244261","co38182","norming","","","{""guess"":""druiven""}","","../img/tt/078tt.jpg","",""
"null","../img/gs/078gs.jpg","null","reveal","image-keyboard-response","227","1065143","0.0-6.0-4.31","3244261","co38182","norming","","","","","","",""
"null","../img/tt/078tt.jpg","null","mooney2","image-keyboard-response","228","1067153","0.0-6.0-5.31","3244261","co38182","norming","","","","","","",""
"4974.739999999991","","","post_reveal_questions","survey-likert","229","1072130","0.0-6.0-6.31","3244261","co38182","norming","","","{""aha"":1}","[0]","../img/tt/078tt.jpg","",""
"null","<div style=""font-size:60px;""> </div>","null","fixation","html-keyboard-response","230","1072334","0.0-6.0-0.32","3244261","co38182","norming","","","","","","",""
"null","../img/tt/1046tt.jpg","null","mooney1","image-keyboard-response","231","1075343","0.0-6.0-1.32","3244261","co38182","norming","","","","","","",""
"6376.389999999898","","","post_mooney1_questions","survey-likert","232","1081723","0.0-6.0-2.32","3244261","co38182","norming","","","{""curiosity"":2,""confidence"":1}","[0,1]","../img/tt/1046tt.jpg","",""
"2709.975000000093","","","recognition","survey-text","233","1084434","0.0-6.0-3.32","3244261","co38182","norming","","","{""guess"":""wok""}","","../img/tt/1046tt.jpg","",""
"null","../img/gs/1046gs.jpg","null","reveal","image-keyboard-response","234","1086437","0.0-6.0-4.32","3244261","co38182","norming","","","","","","",""
"null","../img/tt/1046tt.jpg","null","mooney2","image-keyboard-response","235","1088438","0.0-6.0-5.32","3244261","co38182","norming","","","","","","",""
"3225.7549999998882","","","post_reveal_questions","survey-likert","236","1091666","0.0-6.0-6.32","3244261","co38182","norming","","","{""aha"":1}","[0]","../img/tt/1046tt.jpg","",""
"null","<div style=""font-size:60px;""> </div>","null","fixation","html-keyboard-response","237","1091872","0.0-6.0-0.33","3244261","co38182","norming","","","","","","",""
"null","../img/tt/416tt.jpg","null","mooney1","image-keyboard-response","238","1094880","0.0-6.0-1.33","3244261","co38182","norming","","","","","","",""
"13439.419999999925","","","post_mooney1_questions","survey-likert","239","1108323","0.0-6.0-2.33","3244261","co38182","norming","","","{""curiosity"":1,""confidence"":0}","[0,1]","../img/tt/416tt.jpg","",""
"1021.9949999998789","","","recognition","survey-text","240","1109346","0.0-6.0-3.33","3244261","co38182","norming","","","{""guess"":""""}","","../img/tt/416tt.jpg","",""
"null","../img/gs/416gs.jpg","null","reveal","image-keyboard-response","241","1111347","0.0-6.0-4.33","3244261","co38182","norming","","","","","","",""
"null","../img/tt/416tt.jpg","null","mooney2","image-keyboard-response","242","1113349","0.0-6.0-5.33","3244261","co38182","norming","","","","","","",""
"2475.1049999999814","","","post_reveal_questions","survey-likert","243","1115826","0.0-6.0-6.33","3244261","co38182","norming","","","{""aha"":0}","[0]","../img/tt/416tt.jpg","",""
"null","<div style=""font-size:60px;""> </div>","null","fixation","html-keyboard-response","244","1116029","0.0-6.0-0.34","3244261","co38182","norming","","","","","","",""
"null","../img/tt/1217tt.jpg","null","mooney1","image-keyboard-response","245","1119040","0.0-6.0-1.34","3244261","co38182","norming","","","","","","",""
"15289.354999999981","","","post_mooney1_questions","survey-likert","246","1134332","0.0-6.0-2.34","3244261","co38182","norming","","","{""curiosity"":2,""confidence"":0}","[0,1]","../img/tt/1217tt.jpg","",""
"1774.094999999972","","","recognition","survey-text","247","1136108","0.0-6.0-3.34","3244261","co38182","norming","","","{""guess"":""""}","","../img/tt/1217tt.jpg","",""
"null","../img/gs/1217gs.jpg","null","reveal","image-keyboard-response","248","1138114","0.0-6.0-4.34","3244261","co38182","norming","","","","","","",""
"null","../img/tt/1217tt.jpg","null","mooney2","image-keyboard-response","249","1140121","0.0-6.0-5.34","3244261","co38182","norming","","","","","","",""
"3240.219999999972","","","post_reveal_questions","survey-likert","250","1143364","0.0-6.0-6.34","3244261","co38182","norming","","","{""aha"":1}","[0]","../img/tt/1217tt.jpg","",""
"null","<div style=""font-size:60px;""> </div>","null","fixation","html-keyboard-response","251","1143575","0.0-6.0-0.35","3244261","co38182","norming","","","","","","",""
"null","../img/tt/1224tt.jpg","null","mooney1","image-keyboard-response","252","1146578","0.0-6.0-1.35","3244261","co38182","norming","","","","","","",""
"6551.054999999935","","","post_mooney1_questions","survey-likert","253","1153132","0.0-6.0-2.35","3244261","co38182","norming","","","{""curiosity"":4,""confidence"":2}","[0,1]","../img/tt/1224tt.jpg","",""
"2613.975000000093","","","recognition","survey-text","254","1155748","0.0-6.0-3.35","3244261","co38182","norming","","","{""guess"":""bidden""}","","../img/tt/1224tt.jpg","",""
"null","../img/gs/1224gs.jpg","null","reveal","image-keyboard-response","255","1157751","0.0-6.0-4.35","3244261","co38182","norming","","","","","","",""
"null","../img/tt/1224tt.jpg","null","mooney2","image-keyboard-response","256","1159752","0.0-6.0-5.35","3244261","co38182","norming","","","","","","",""
"3371.019999999786","","","post_reveal_questions","survey-likert","257","1163124","0.0-6.0-6.35","3244261","co38182","norming","","","{""aha"":2}","[0]","../img/tt/1224tt.jpg","",""
"null","<div style=""font-size:60px;""> </div>","null","fixation","html-keyboard-response","258","1163333","0.0-6.0-0.36","3244261","co38182","norming","","","","","","",""
"null","../img/tt/580tt.jpg","null","mooney1","image-keyboard-response","259","1166336","0.0-6.0-1.36","3244261","co38182","norming","","","","","","",""
"12449.26500000013","","","post_mooney1_questions","survey-likert","260","1178788","0.0-6.0-2.36","3244261","co38182","norming","","","{""curiosity"":2,""confidence"":1}","[0,1]","../img/tt/580tt.jpg","",""
"6894.034999999916","","","recognition","survey-text","261","1185678","0.0-6.0-3.36","3244261","co38182","norming","","","{""guess"":""muziekinstrument""}","","../img/tt/580tt.jpg","",""
"null","../img/gs/580gs.jpg","null","reveal","image-keyboard-response","262","1187686","0.0-6.0-4.36","3244261","co38182","norming","","","","","","",""
"null","../img/tt/580tt.jpg","null","mooney2","image-keyboard-response","263","1189693","0.0-6.0-5.36","3244261","co38182","norming","","","","","","",""
"3544.320000000065","","","post_reveal_questions","survey-likert","264","1193238","0.0-6.0-6.36","3244261","co38182","norming","","","{""aha"":0}","[0]","../img/tt/580tt.jpg","",""
"null","<div style=""font-size:60px;""> </div>","null","fixation","html-keyboard-response","265","1193448","0.0-6.0-0.37","3244261","co38182","norming","","","","","","",""
"null","../img/tt/184tt.jpg","null","mooney1","image-keyboard-response","266","1196451","0.0-6.0-1.37","3244261","co38182","norming","","","","","","",""
"3616.344999999972","","","post_mooney1_questions","survey-likert","267","1200071","0.0-6.0-2.37","3244261","co38182","norming","","","{""curiosity"":4,""confidence"":1}","[0,1]","../img/tt/184tt.jpg","",""
"2646.3649999999907","","","recognition","survey-text","268","1202719","0.0-6.0-3.37","3244261","co38182","norming","","","{""guess"":""viool""}","","../img/tt/184tt.jpg","",""
"null","../img/gs/184gs.jpg","null","reveal","image-keyboard-response","269","1204727","0.0-6.0-4.37","3244261","co38182","norming","","","","","","",""
"null","../img/tt/184tt.jpg","null","mooney2","image-keyboard-response","270","1206729","0.0-6.0-5.37","3244261","co38182","norming","","","","","","",""
"3579.5200000000186","","","post_reveal_questions","survey-likert","271","1210310","0.0-6.0-6.37","3244261","co38182","norming","","","{""aha"":0}","[0]","../img/tt/184tt.jpg","",""
"null","<div style=""font-size:60px;""> </div>","null","fixation","html-keyboard-response","272","1210514","0.0-6.0-0.38","3244261","co38182","norming","","","","","","",""
"null","../img/tt/096tt.jpg","null","mooney1","image-keyboard-response","273","1213520","0.0-6.0-1.38","3244261","co38182","norming","","","","","","",""
"6827.689999999944","","","post_mooney1_questions","survey-likert","274","1220351","0.0-6.0-2.38","3244261","co38182","norming","","","{""curiosity"":4,""confidence"":2}","[0,1]","../img/tt/096tt.jpg","",""
"3902.179999999702","","","recognition","survey-text","275","1224254","0.0-6.0-3.38","3244261","co38182","norming","","","{""guess"":""naaimachine""}","","../img/tt/096tt.jpg","",""
"null","../img/gs/096gs.jpg","null","reveal","image-keyboard-response","276","1226261","0.0-6.0-4.38","3244261","co38182","norming","","","","","","",""
"null","../img/tt/096tt.jpg","null","mooney2","image-keyboard-response","277","1228263","0.0-6.0-5.38","3244261","co38182","norming","","","","","","",""
"3597.3649999999907","","","post_reveal_questions","survey-likert","278","1231862","0.0-6.0-6.38","3244261","co38182","norming","","","{""aha"":1}","[0]","../img/tt/096tt.jpg","",""
"null","<div style=""font-size:60px;""> </div>","null","fixation","html-keyboard-response","279","1232071","0.0-6.0-0.39","3244261","co38182","norming","","","","","","",""
"null","../img/tt/1353tt.jpg","null","mooney1","image-keyboard-response","280","1235074","0.0-6.0-1.39","3244261","co38182","norming","","","","","","",""
"4537.030000000028","","","post_mooney1_questions","survey-likert","281","1239614","0.0-6.0-2.39","3244261","co38182","norming","","","{""curiosity"":5,""confidence"":0}","[0,1]","../img/tt/1353tt.jpg","",""
"902.315000000177","","","recognition","survey-text","282","1240522","0.0-6.0-3.39","3244261","co38182","norming","","","{""guess"":""""}","","../img/tt/1353tt.jpg","",""
"null","../img/gs/1353gs.jpg","null","reveal","image-keyboard-response","283","1242523","0.0-6.0-4.39","3244261","co38182","norming","","","","","","",""
"null","../img/tt/1353tt.jpg","null","mooney2","image-keyboard-response","284","1244527","0.0-6.0-5.39","3244261","co38182","norming","","","","","","",""
"2968.3300000003073","","","post_reveal_questions","survey-likert","285","1247498","0.0-6.0-6.39","3244261","co38182","norming","","","{""aha"":0}","[0]","../img/tt/1353tt.jpg","",""
"null","<div style=""font-size:60px;""> </div>","null","fixation","html-keyboard-response","286","1247699","0.0-6.0-0.40","3244261","co38182","norming","","","","","","",""
"null","../img/tt/1196tt.jpg","null","mooney1","image-keyboard-response","287","1250709","0.0-6.0-1.40","3244261","co38182","norming","","","","","","",""
"4250.485000000102","","","post_mooney1_questions","survey-likert","288","1254962","0.0-6.0-2.40","3244261","co38182","norming","","","{""curiosity"":1,""confidence"":0}","[0,1]","../img/tt/1196tt.jpg","",""
"965.9949999996461","","","recognition","survey-text","289","1255930","0.0-6.0-3.40","3244261","co38182","norming","","","{""guess"":""""}","","../img/tt/1196tt.jpg","",""
"null","../img/gs/1196gs.jpg","null","reveal","image-keyboard-response","290","1257935","0.0-6.0-4.40","3244261","co38182","norming","","","","","","",""
"null","../img/tt/1196tt.jpg","null","mooney2","image-keyboard-response","291","1259938","0.0-6.0-5.40","3244261","co38182","norming","","","","","","",""
"2517.314999999944","","","post_reveal_questions","survey-likert","292","1262458","0.0-6.0-6.40","3244261","co38182","norming","","","{""aha"":0}","[0]","../img/tt/1196tt.jpg","",""
"null","<div style=""font-size:60px;""> </div>","null","fixation","html-keyboard-response","293","1262662","0.0-6.0-0.41","3244261","co38182","norming","","","","","","",""
"null","../img/tt/081tt.jpg","null","mooney1","image-keyboard-response","294","1265670","0.0-6.0-1.41","3244261","co38182","norming","","","","","","",""
"8554.899999999674","","","post_mooney1_questions","survey-likert","295","1274226","0.0-6.0-2.41","3244261","co38182","norming","","","{""curiosity"":4,""confidence"":1}","[0,1]","../img/tt/081tt.jpg","",""
"2029.6649999998044","","","recognition","survey-text","296","1276258","0.0-6.0-3.41","3244261","co38182","norming","","","{""guess"":""aap""}","","../img/tt/081tt.jpg","",""
"null","../img/gs/081gs.jpg","null","reveal","image-keyboard-response","297","1278266","0.0-6.0-4.41","3244261","co38182","norming","","","","","","",""
"null","../img/tt/081tt.jpg","null","mooney2","image-keyboard-response","298","1280267","0.0-6.0-5.41","3244261","co38182","norming","","","","","","",""
"4076.534999999916","","","post_reveal_questions","survey-likert","299","1284346","0.0-6.0-6.41","3244261","co38182","norming","","","{""aha"":2}","[0]","../img/tt/081tt.jpg","",""
"null","<div style=""font-size:60px;""> </div>","null","fixation","html-keyboard-response","300","1284549","0.0-6.0-0.42","3244261","co38182","norming","","","","","","",""
"null","../img/tt/1275tt.jpg","null","mooney1","image-keyboard-response","301","1287554","0.0-6.0-1.42","3244261","co38182","norming","","","","","","",""
"5381.945000000065","","","post_mooney1_questions","survey-likert","302","1292938","0.0-6.0-2.42","3244261","co38182","norming","","","{""curiosity"":5,""confidence"":3}","[0,1]","../img/tt/1275tt.jpg","",""
"3333.9599999999627","","","recognition","survey-text","303","1296274","0.0-6.0-3.42","3244261","co38182","norming","","","{""guess"":""varken""}","","../img/tt/1275tt.jpg","",""
"null","../img/gs/1275gs.jpg","null","reveal","image-keyboard-response","304","1298281","0.0-6.0-4.42","3244261","co38182","norming","","","","","","",""
"null","../img/tt/1275tt.jpg","null","mooney2","image-keyboard-response","305","1300289","0.0-6.0-5.42","3244261","co38182","norming","","","","","","",""
"3467.5150000001304","","","post_reveal_questions","survey-likert","306","1303767","0.0-6.0-6.42","3244261","co38182","norming","","","{""aha"":6}","[0]","../img/tt/1275tt.jpg","",""
"null","<div style=""font-size:60px;""> </div>","null","fixation","html-keyboard-response","307","1303973","0.0-6.0-0.43","3244261","co38182","norming","","","","","","",""
"null","../img/tt/1078tt.jpg","null","mooney1","image-keyboard-response","308","1306977","0.0-6.0-1.43","3244261","co38182","norming","","","","","","",""
"6026.910000000149","","","post_mooney1_questions","survey-likert","309","1313007","0.0-6.0-2.43","3244261","co38182","norming","","","{""curiosity"":2,""confidence"":2}","[0,1]","../img/tt/1078tt.jpg","",""
"3542.070000000065","","","recognition","survey-text","310","1316550","0.0-6.0-3.43","3244261","co38182","norming","","","{""guess"":""orkest""}","","../img/tt/1078tt.jpg","",""
"null","../img/gs/1078gs.jpg","null","reveal","image-keyboard-response","311","1318561","0.0-6.0-4.43","3244261","co38182","norming","","","","","","",""
"null","../img/tt/1078tt.jpg","null","mooney2","image-keyboard-response","312","1320563","0.0-6.0-5.43","3244261","co38182","norming","","","","","","",""
"2744.905000000028","","","post_reveal_questions","survey-likert","313","1323310","0.0-6.0-6.43","3244261","co38182","norming","","","{""aha"":0}","[0]","../img/tt/1078tt.jpg","",""
"null","<div style=""font-size:60px;""> </div>","null","fixation","html-keyboard-response","314","1323514","0.0-6.0-0.44","3244261","co38182","norming","","","","","","",""
"null","../img/tt/1278tt.jpg","null","mooney1","image-keyboard-response","315","1326519","0.0-6.0-1.44","3244261","co38182","norming","","","","","","",""
"7220.244999999879","","","post_mooney1_questions","survey-likert","316","1333743","0.0-6.0-2.44","3244261","co38182","norming","","","{""curiosity"":1,""confidence"":0}","[0,1]","../img/tt/1278tt.jpg","",""
"1014.3699999998789","","","recognition","survey-text","317","1334759","0.0-6.0-3.44","3244261","co38182","norming","","","{""guess"":""""}","","../img/tt/1278tt.jpg","",""
"null","../img/gs/1278gs.jpg","null","reveal","image-keyboard-response","318","1336760","0.0-6.0-4.44","3244261","co38182","norming","","","","","","",""
"null","../img/tt/1278tt.jpg","null","mooney2","image-keyboard-response","319","1338762","0.0-6.0-5.44","3244261","co38182","norming","","","","","","",""
"2866.034999999916","","","post_reveal_questions","survey-likert","320","1341630","0.0-6.0-6.44","3244261","co38182","norming","","","{""aha"":0}","[0]","../img/tt/1278tt.jpg","",""
"null","<div style=""font-size:60px;""> </div>","null","fixation","html-keyboard-response","321","1341837","0.0-6.0-0.45","3244261","co38182","norming","","","","","","",""
"null","../img/tt/1261tt.jpg","null","mooney1","image-keyboard-response","322","1344840","0.0-6.0-1.45","3244261","co38182","norming","","","","","","",""
"5827.485000000102","","","post_mooney1_questions","survey-likert","323","1350671","0.0-6.0-2.45","3244261","co38182","norming","","","{""curiosity"":4,""confidence"":1}","[0,1]","../img/tt/1261tt.jpg","",""
"3158.0750000001863","","","recognition","survey-text","324","1353830","0.0-6.0-3.45","3244261","co38182","norming","","","{""guess"":""giraffe""}","","../img/tt/1261tt.jpg","",""
"null","../img/gs/1261gs.jpg","null","reveal","image-keyboard-response","325","1355838","0.0-6.0-4.45","3244261","co38182","norming","","","","","","",""
"null","../img/tt/1261tt.jpg","null","mooney2","image-keyboard-response","326","1357846","0.0-6.0-5.45","3244261","co38182","norming","","","","","","",""
"2701.405000000028","","","post_reveal_questions","survey-likert","327","1360550","0.0-6.0-6.45","3244261","co38182","norming","","","{""aha"":2}","[0]","../img/tt/1261tt.jpg","",""
"null","<div style=""font-size:60px;""> </div>","null","fixation","html-keyboard-response","328","1360761","0.0-6.0-0.46","3244261","co38182","norming","","","","","","",""
"null","../img/tt/031tt.jpg","null","mooney1","image-keyboard-response","329","1363767","0.0-6.0-1.46","3244261","co38182","norming","","","","","","",""
"5030.185000000056","","","post_mooney1_questions","survey-likert","330","1368799","0.0-6.0-2.46","3244261","co38182","norming","","","{""curiosity"":4,""confidence"":0}","[0,1]","../img/tt/031tt.jpg","",""
"909.7950000001583","","","recognition","survey-text","331","1369710","0.0-6.0-3.46","3244261","co38182","norming","","","{""guess"":""""}","","../img/tt/031tt.jpg","",""
"null","../img/gs/031gs.jpg","null","reveal","image-keyboard-response","332","1371713","0.0-6.0-4.46","3244261","co38182","norming","","","","","","",""
"null","../img/tt/031tt.jpg","null","mooney2","image-keyboard-response","333","1373716","0.0-6.0-5.46","3244261","co38182","norming","","","","","","",""
"6817.380000000121","","","post_reveal_questions","survey-likert","334","1380535","0.0-6.0-6.46","3244261","co38182","norming","","","{""aha"":0}","[0]","../img/tt/031tt.jpg","",""
"null","<div style=""font-size:60px;""> </div>","null","fixation","html-keyboard-response","335","1380738","0.0-6.0-0.47","3244261","co38182","norming","","","","","","",""
"null","../img/tt/1272tt.jpg","null","mooney1","image-keyboard-response","336","1383745","0.0-6.0-1.47","3244261","co38182","norming","","","","","","",""
"7716.040000000037","","","post_mooney1_questions","survey-likert","337","1391462","0.0-6.0-2.47","3244261","co38182","norming","","","{""curiosity"":2,""confidence"":0}","[0,1]","../img/tt/1272tt.jpg","",""
"1253.529999999795","","","recognition","survey-text","338","1392718","0.0-6.0-3.47","3244261","co38182","norming","","","{""guess"":""""}","","../img/tt/1272tt.jpg","",""
"null","../img/gs/1272gs.jpg","null","reveal","image-keyboard-response","339","1394720","0.0-6.0-4.47","3244261","co38182","norming","","","","","","",""
"null","../img/tt/1272tt.jpg","null","mooney2","image-keyboard-response","340","1396729","0.0-6.0-5.47","3244261","co38182","norming","","","","","","",""
"3330.905000000028","","","post_reveal_questions","survey-likert","341","1400063","0.0-6.0-6.47","3244261","co38182","norming","","","{""aha"":0}","[0]","../img/tt/1272tt.jpg","",""
"null","<div style=""font-size:60px;""> </div>","null","fixation","html-keyboard-response","342","1400266","0.0-6.0-0.48","3244261","co38182","norming","","","","","","",""
"null","../img/tt/001tt.jpg","null","mooney1","image-keyboard-response","343","1403268","0.0-6.0-1.48","3244261","co38182","norming","","","","","","",""
"4071.030000000028","","","post_mooney1_questions","survey-likert","344","1407343","0.0-6.0-2.48","3244261","co38182","norming","","","{""curiosity"":4,""confidence"":3}","[0,1]","../img/tt/001tt.jpg","",""
"4646.164999999804","","","recognition","survey-text","345","1411990","0.0-6.0-3.48","3244261","co38182","norming","","","{""guess"":""giraffe ""}","","../img/tt/001tt.jpg","",""
"null","../img/gs/001gs.jpg","null","reveal","image-keyboard-response","346","1413995","0.0-6.0-4.48","3244261","co38182","norming","","","","","","",""
"null","../img/tt/001tt.jpg","null","mooney2","image-keyboard-response","347","1416003","0.0-6.0-5.48","3244261","co38182","norming","","","","","","",""
"4096.594999999972","","","post_reveal_questions","survey-likert","348","1420102","0.0-6.0-6.48","3244261","co38182","norming","","","{""aha"":5}","[0]","../img/tt/001tt.jpg","",""
"null","<div style=""font-size:60px;""> </div>","null","fixation","html-keyboard-response","349","1420303","0.0-6.0-0.49","3244261","co38182","norming","","","","","","",""
"null","../img/tt/1004tt.jpg","null","mooney1","image-keyboard-response","350","1423314","0.0-6.0-1.49","3244261","co38182","norming","","","","","","",""
"5561.380000000121","","","post_mooney1_questions","survey-likert","351","1428878","0.0-6.0-2.49","3244261","co38182","norming","","","{""curiosity"":2,""confidence"":0}","[0,1]","../img/tt/1004tt.jpg","",""
"853.9000000001397","","","recognition","survey-text","352","1429733","0.0-6.0-3.49","3244261","co38182","norming","","","{""guess"":""""}","","../img/tt/1004tt.jpg","",""
"null","../img/gs/1004gs.jpg","null","reveal","image-keyboard-response","353","1431744","0.0-6.0-4.49","3244261","co38182","norming","","","","","","",""
"null","../img/tt/1004tt.jpg","null","mooney2","image-keyboard-response","354","1433745","0.0-6.0-5.49","3244261","co38182","norming","","","","","","",""
"2099.2750000001397","","","post_reveal_questions","survey-likert","355","1435845","0.0-6.0-6.49","3244261","co38182","norming","","","{""aha"":0}","[0]","../img/tt/1004tt.jpg","",""
"null","<div style=""font-size:60px;""> </div>","null","fixation","html-keyboard-response","356","1436047","0.0-6.0-0.50","3244261","co38182","norming","","","","","","",""
"null","../img/tt/524tt.jpg","null","mooney1","image-keyboard-response","357","1439050","0.0-6.0-1.50","3244261","co38182","norming","","","","","","",""
"8912.780000000028","","","post_mooney1_questions","survey-likert","358","1447966","0.0-6.0-2.50","3244261","co38182","norming","","","{""curiosity"":2,""confidence"":1}","[0,1]","../img/tt/524tt.jpg","",""
"3942.0750000001863","","","recognition","survey-text","359","1451910","0.0-6.0-3.50","3244261","co38182","norming","","","{""guess"":""geit""}","","../img/tt/524tt.jpg","",""
"null","../img/gs/524gs.jpg","null","reveal","image-keyboard-response","360","1453916","0.0-6.0-4.50","3244261","co38182","norming","","","","","","",""
"null","../img/tt/524tt.jpg","null","mooney2","image-keyboard-response","361","1455926","0.0-6.0-5.50","3244261","co38182","norming","","","","","","",""
"3700.8850000000093","","","post_reveal_questions","survey-likert","362","1459630","0.0-6.0-6.50","3244261","co38182","norming","","","{""aha"":6}","[0]","../img/tt/524tt.jpg","",""
"null","<div style=""font-size:60px;""> </div>","null","fixation","html-keyboard-response","363","1459831","0.0-6.0-0.51","3244261","co38182","norming","","","","","","",""
"null","../img/tt/082tt.jpg","null","mooney1","image-keyboard-response","364","1462841","0.0-6.0-1.51","3244261","co38182","norming","","","","","","",""
"4538.110000000102","","","post_mooney1_questions","survey-likert","365","1467382","0.0-6.0-2.51","3244261","co38182","norming","","","{""curiosity"":3,""confidence"":3}","[0,1]","../img/tt/082tt.jpg","",""
"4414.064999999944","","","recognition","survey-text","366","1471798","0.0-6.0-3.51","3244261","co38182","norming","","","{""guess"":""vogel""}","","../img/tt/082tt.jpg","",""
"null","../img/gs/082gs.jpg","null","reveal","image-keyboard-response","367","1473802","0.0-6.0-4.51","3244261","co38182","norming","","","","","","",""
"null","../img/tt/082tt.jpg","null","mooney2","image-keyboard-response","368","1475803","0.0-6.0-5.51","3244261","co38182","norming","","","","","","",""
"4288.125000000233","","","post_reveal_questions","survey-likert","369","1480093","0.0-6.0-6.51","3244261","co38182","norming","","","{""aha"":6}","[0]","../img/tt/082tt.jpg","",""
"null","<div style=""font-size:60px;""> </div>","null","fixation","html-keyboard-response","370","1480300","0.0-6.0-0.52","3244261","co38182","norming","","","","","","",""
"null","../img/tt/1063tt.jpg","null","mooney1","image-keyboard-response","371","1483306","0.0-6.0-1.52","3244261","co38182","norming","","","","","","",""
"14648.625","","","post_mooney1_questions","survey-likert","372","1497956","0.0-6.0-2.52","3244261","co38182","norming","","","{""curiosity"":5,""confidence"":2}","[0,1]","../img/tt/1063tt.jpg","",""
"2414.1299999998882","","","recognition","survey-text","373","1500372","0.0-6.0-3.52","3244261","co38182","norming","","","{""guess"":""olifant""}","","../img/tt/1063tt.jpg","",""
"null","../img/gs/1063gs.jpg","null","reveal","image-keyboard-response","374","1502378","0.0-6.0-4.52","3244261","co38182","norming","","","","","","",""
"null","../img/tt/1063tt.jpg","null","mooney2","image-keyboard-response","375","1504380","0.0-6.0-5.52","3244261","co38182","norming","","","","","","",""
"3511.4350000002887","","","post_reveal_questions","survey-likert","376","1507892","0.0-6.0-6.52","3244261","co38182","norming","","","{""aha"":0}","[0]","../img/tt/1063tt.jpg","",""
"null","<div style=""font-size:60px;""> </div>","null","fixation","html-keyboard-response","377","1508102","0.0-6.0-0.53","3244261","co38182","norming","","","","","","",""
"null","../img/tt/1084tt.jpg","null","mooney1","image-keyboard-response","378","1511107","0.0-6.0-1.53","3244261","co38182","norming","","","","","","",""
"5880.040000000037","","","post_mooney1_questions","survey-likert","379","1516988","0.0-6.0-2.53","3244261","co38182","norming","","","{""curiosity"":2,""confidence"":1}","[0,1]","../img/tt/1084tt.jpg","",""
"3830.005000000121","","","recognition","survey-text","380","1520820","0.0-6.0-3.53","3244261","co38182","norming","","","{""guess"":""taart""}","","../img/tt/1084tt.jpg","",""
"null","../img/gs/1084gs.jpg","null","reveal","image-keyboard-response","381","1522831","0.0-6.0-4.53","3244261","co38182","norming","","","","","","",""
"null","../img/tt/1084tt.jpg","null","mooney2","image-keyboard-response","382","1524834","0.0-6.0-5.53","3244261","co38182","norming","","","","","","",""
"9511.495000000112","","","post_reveal_questions","survey-likert","383","1534348","0.0-6.0-6.53","3244261","co38182","norming","","","{""aha"":4}","[0]","../img/tt/1084tt.jpg","",""
"null","<div style=""font-size:60px;""> </div>","null","fixation","html-keyboard-response","384","1534555","0.0-6.0-0.54","3244261","co38182","norming","","","","","","",""
"null","../img/tt/1171tt.jpg","null","mooney1","image-keyboard-response","385","1537558","0.0-6.0-1.54","3244261","co38182","norming","","","","","","",""
"4810.949999999953","","","post_mooney1_questions","survey-likert","386","1542372","0.0-6.0-2.54","3244261","co38182","norming","","","{""curiosity"":1,""confidence"":0}","[0,1]","../img/tt/1171tt.jpg","",""
"1885.8799999998882","","","recognition","survey-text","387","1544260","0.0-6.0-3.54","3244261","co38182","norming","","","{""guess"":""""}","","../img/tt/1171tt.jpg","",""
"null","../img/gs/1171gs.jpg","null","reveal","image-keyboard-response","388","1546262","0.0-6.0-4.54","3244261","co38182","norming","","","","","","",""
"null","../img/tt/1171tt.jpg","null","mooney2","image-keyboard-response","389","1548274","0.0-6.0-5.54","3244261","co38182","norming","","","","","","",""
"4056.0500000000466","","","post_reveal_questions","survey-likert","390","1552333","0.0-6.0-6.54","3244261","co38182","norming","","","{""aha"":4}","[0]","../img/tt/1171tt.jpg","",""
"null","<div style=""font-size:60px;""> </div>","null","fixation","html-keyboard-response","391","1552537","0.0-6.0-0.55","3244261","co38182","norming","","","","","","",""
"null","../img/tt/378tt.jpg","null","mooney1","image-keyboard-response","392","1555540","0.0-6.0-1.55","3244261","co38182","norming","","","","","","",""
"4966.060000000056","","","post_mooney1_questions","survey-likert","393","1560509","0.0-6.0-2.55","3244261","co38182","norming","","","{""curiosity"":1,""confidence"":0}","[0,1]","../img/tt/378tt.jpg","",""
"701.6899999999441","","","recognition","survey-text","394","1561212","0.0-6.0-3.55","3244261","co38182","norming","","","{""guess"":""""}","","../img/tt/378tt.jpg","",""
"null","../img/gs/378gs.jpg","null","reveal","image-keyboard-response","395","1563219","0.0-6.0-4.55","3244261","co38182","norming","","","","","","",""
"null","../img/tt/378tt.jpg","null","mooney2","image-keyboard-response","396","1565221","0.0-6.0-5.55","3244261","co38182","norming","","","","","","",""
"4309.395000000019","","","post_reveal_questions","survey-likert","397","1569533","0.0-6.0-6.55","3244261","co38182","norming","","","{""aha"":0}","[0]","../img/tt/378tt.jpg","",""
"null","<div style=""font-size:60px;""> </div>","null","fixation","html-keyboard-response","398","1569736","0.0-6.0-0.56","3244261","co38182","norming","","","","","","",""
"null","../img/tt/584tt.jpg","null","mooney1","image-keyboard-response","399","1572745","0.0-6.0-1.56","3244261","co38182","norming","","","","","","",""
"3987.179999999935","","","post_mooney1_questions","survey-likert","400","1576733","0.0-6.0-2.56","3244261","co38182","norming","","","{""curiosity"":2,""confidence"":1}","[0,1]","../img/tt/584tt.jpg","",""
"3286.094999999972","","","recognition","survey-text","401","1580021","0.0-6.0-3.56","3244261","co38182","norming","","","{""guess"":""handen""}","","../img/tt/584tt.jpg","",""
"null","../img/gs/584gs.jpg","null","reveal","image-keyboard-response","402","1582030","0.0-6.0-4.56","3244261","co38182","norming","","","","","","",""
"null","../img/tt/584tt.jpg","null","mooney2","image-keyboard-response","403","1584031","0.0-6.0-5.56","3244261","co38182","norming","","","","","","",""
"3514.9150000000373","","","post_reveal_questions","survey-likert","404","1587549","0.0-6.0-6.56","3244261","co38182","norming","","","{""aha"":3}","[0]","../img/tt/584tt.jpg","",""
"null","<div style=""font-size:60px;""> </div>","null","fixation","html-keyboard-response","405","1587753","0.0-6.0-0.57","3244261","co38182","norming","","","","","","",""
"null","../img/tt/435tt.jpg","null","mooney1","image-keyboard-response","406","1590762","0.0-6.0-1.57","3244261","co38182","norming","","","","","","",""
"4552.209999999963","","","post_mooney1_questions","survey-likert","407","1595317","0.0-6.0-2.57","3244261","co38182","norming","","","{""curiosity"":2,""confidence"":0}","[0,1]","../img/tt/435tt.jpg","",""
"5021.989999999991","","","recognition","survey-text","408","1600341","0.0-6.0-3.57","3244261","co38182","norming","","","{""guess"":""""}","","../img/tt/435tt.jpg","",""
"null","../img/gs/435gs.jpg","null","reveal","image-keyboard-response","409","1602345","0.0-6.0-4.57","3244261","co38182","norming","","","","","","",""
"null","../img/tt/435tt.jpg","null","mooney2","image-keyboard-response","410","1604353","0.0-6.0-5.57","3244261","co38182","norming","","","","","","",""
"5249.130000000121","","","post_reveal_questions","survey-likert","411","1609605","0.0-6.0-6.57","3244261","co38182","norming","","","{""aha"":1}","[0]","../img/tt/435tt.jpg","",""
"null","<div style=""font-size:60px;""> </div>","null","fixation","html-keyboard-response","412","1609808","0.0-6.0-0.58","3244261","co38182","norming","","","","","","",""
"null","../img/tt/1061tt.jpg","null","mooney1","image-keyboard-response","413","1612818","0.0-6.0-1.58","3244261","co38182","norming","","","","","","",""
"3770.5449999999255","","","post_mooney1_questions","survey-likert","414","1616590","0.0-6.0-2.58","3244261","co38182","norming","","","{""curiosity"":2,""confidence"":1}","[0,1]","../img/tt/1061tt.jpg","",""
"3126.1099999998696","","","recognition","survey-text","415","1619718","0.0-6.0-3.58","3244261","co38182","norming","","","{""guess"":""speeltuin""}","","../img/tt/1061tt.jpg","",""
"null","../img/gs/1061gs.jpg","null","reveal","image-keyboard-response","416","1621719","0.0-6.0-4.58","3244261","co38182","norming","","","","","","",""
"null","../img/tt/1061tt.jpg","null","mooney2","image-keyboard-response","417","1623720","0.0-6.0-5.58","3244261","co38182","norming","","","","","","",""
"1684.714999999851","","","post_reveal_questions","survey-likert","418","1625406","0.0-6.0-6.58","3244261","co38182","norming","","","{""aha"":2}","[0]","../img/tt/1061tt.jpg","",""
"null","<div style=""font-size:60px;""> </div>","null","fixation","html-keyboard-response","419","1625608","0.0-6.0-0.59","3244261","co38182","norming","","","","","","",""
"null","../img/tt/1262tt.jpg","null","mooney1","image-keyboard-response","420","1628610","0.0-6.0-1.59","3244261","co38182","norming","","","","","","",""
"3480.929999999935","","","post_mooney1_questions","survey-likert","421","1632094","0.0-6.0-2.59","3244261","co38182","norming","","","{""curiosity"":2,""confidence"":2}","[0,1]","../img/tt/1262tt.jpg","",""
"4309.645000000019","","","recognition","survey-text","422","1636406","0.0-6.0-3.59","3244261","co38182","norming","","","{""guess"":""vogel""}","","../img/tt/1262tt.jpg","",""
"null","../img/gs/1262gs.jpg","null","reveal","image-keyboard-response","423","1638413","0.0-6.0-4.59","3244261","co38182","norming","","","","","","",""
"null","../img/tt/1262tt.jpg","null","mooney2","image-keyboard-response","424","1640424","0.0-6.0-5.59","3244261","co38182","norming","","","","","","",""
"2859.839999999851","","","post_reveal_questions","survey-likert","425","1643286","0.0-6.0-6.59","3244261","co38182","norming","","","{""aha"":3}","[0]","../img/tt/1262tt.jpg","",""
"null","<div style=""font-size:60px;""> </div>","null","fixation","html-keyboard-response","426","1643492","0.0-6.0-0.60","3244261","co38182","norming","","","","","","",""
"null","../img/tt/1024tt.jpg","null","mooney1","image-keyboard-response","427","1646501","0.0-6.0-1.60","3244261","co38182","norming","","","","","","",""
"5742.145000000019","","","post_mooney1_questions","survey-likert","428","1652246","0.0-6.0-2.60","3244261","co38182","norming","","","{""curiosity"":1,""confidence"":1}","[0,1]","../img/tt/1024tt.jpg","",""
"8030.139999999665","","","recognition","survey-text","429","1660278","0.0-6.0-3.60","3244261","co38182","norming","","","{""guess"":""gevecht""}","","../img/tt/1024tt.jpg","",""
"null","../img/gs/1024gs.jpg","null","reveal","image-keyboard-response","430","1662285","0.0-6.0-4.60","3244261","co38182","norming","","","","","","",""
"null","../img/tt/1024tt.jpg","null","mooney2","image-keyboard-response","431","1664294","0.0-6.0-5.60","3244261","co38182","norming","","","","","","",""
"4549.02500000014","","","post_reveal_questions","survey-likert","432","1668846","0.0-6.0-6.60","3244261","co38182","norming","","","{""aha"":2}","[0]","../img/tt/1024tt.jpg","",""
"null","<div style=""font-size:60px;""> </div>","null","fixation","html-keyboard-response","433","1669047","0.0-6.0-0.61","3244261","co38182","norming","","","","","","",""
"null","../img/tt/124tt.jpg","null","mooney1","image-keyboard-response","434","1672053","0.0-6.0-1.61","3244261","co38182","norming","","","","","","",""
"11854.344999999972","","","post_mooney1_questions","survey-likert","435","1683907","0.0-6.0-2.61","3244261","co38182","norming","","","{""curiosity"":2,""confidence"":1}","[0,1]","../img/tt/124tt.jpg","",""
"2685.809999999823","","","recognition","survey-text","436","1686594","0.0-6.0-3.61","3244261","co38182","norming","","","{""guess"":""varken""}","","../img/tt/124tt.jpg","",""
"null","../img/gs/124gs.jpg","null","reveal","image-keyboard-response","437","1688598","0.0-6.0-4.61","3244261","co38182","norming","","","","","","",""
"null","../img/tt/124tt.jpg","null","mooney2","image-keyboard-response","438","1690608","0.0-6.0-5.61","3244261","co38182","norming","","","","","","",""
"3431.939999999944","","","post_reveal_questions","survey-likert","439","1694042","0.0-6.0-6.61","3244261","co38182","norming","","","{""aha"":2}","[0]","../img/tt/124tt.jpg","",""
"null","<div style=""font-size:60px;""> </div>","null","fixation","html-keyboard-response","440","1694248","0.0-6.0-0.62","3244261","co38182","norming","","","","","","",""
"null","../img/tt/1234tt.jpg","null","mooney1","image-keyboard-response","441","1697252","0.0-6.0-1.62","3244261","co38182","norming","","","","","","",""
"4339.444999999832","","","post_mooney1_questions","survey-likert","442","1701595","0.0-6.0-2.62","3244261","co38182","norming","","","{""curiosity"":1,""confidence"":3}","[0,1]","../img/tt/1234tt.jpg","",""
"2502.0400000000373","","","recognition","survey-text","443","1704098","0.0-6.0-3.62","3244261","co38182","norming","","","{""guess"":""boot""}","","../img/tt/1234tt.jpg","",""
"null","../img/gs/1234gs.jpg","null","reveal","image-keyboard-response","444","1706108","0.0-6.0-4.62","3244261","co38182","norming","","","","","","",""
"null","../img/tt/1234tt.jpg","null","mooney2","image-keyboard-response","445","1708112","0.0-6.0-5.62","3244261","co38182","norming","","","","","","",""
"2849.8549999999814","","","post_reveal_questions","survey-likert","446","1710962","0.0-6.0-6.62","3244261","co38182","norming","","","{""aha"":0}","[0]","../img/tt/1234tt.jpg","",""
"null","<div style=""font-size:60px;""> </div>","null","fixation","html-keyboard-response","447","1711164","0.0-6.0-0.63","3244261","co38182","norming","","","","","","",""
"null","../img/tt/1151tt.jpg","null","mooney1","image-keyboard-response","448","1714173","0.0-6.0-1.63","3244261","co38182","norming","","","","","","",""
"5105.789999999804","","","post_mooney1_questions","survey-likert","449","1719282","0.0-6.0-2.63","3244261","co38182","norming","","","{""curiosity"":3,""confidence"":0}","[0,1]","../img/tt/1151tt.jpg","",""
"702.1300000001211","","","recognition","survey-text","450","1719986","0.0-6.0-3.63","3244261","co38182","norming","","","{""guess"":""""}","","../img/tt/1151tt.jpg","",""
"null","../img/gs/1151gs.jpg","null","reveal","image-keyboard-response","451","1721990","0.0-6.0-4.63","3244261","co38182","norming","","","","","","",""
"null","../img/tt/1151tt.jpg","null","mooney2","image-keyboard-response","452","1724001","0.0-6.0-5.63","3244261","co38182","norming","","","","","","",""
"2654.9549999998417","","","post_reveal_questions","survey-likert","453","1726659","0.0-6.0-6.63","3244261","co38182","norming","","","{""aha"":0}","[0]","../img/tt/1151tt.jpg","",""
"null","<div style=""font-size:60px;""> </div>","null","fixation","html-keyboard-response","454","1726863","0.0-6.0-0.64","3244261","co38182","norming","","","","","","",""
"null","../img/tt/1049tt.jpg","null","mooney1","image-keyboard-response","455","1729873","0.0-6.0-1.64","3244261","co38182","norming","","","","","","",""
"4446.665000000037","","","post_mooney1_questions","survey-likert","456","1734323","0.0-6.0-2.64","3244261","co38182","norming","","","{""curiosity"":3,""confidence"":0}","[0,1]","../img/tt/1049tt.jpg","",""
"1309.8100000000559","","","recognition","survey-text","457","1735634","0.0-6.0-3.64","3244261","co38182","norming","","","{""guess"":""""}","","../img/tt/1049tt.jpg","",""
"null","../img/gs/1049gs.jpg","null","reveal","image-keyboard-response","458","1737640","0.0-6.0-4.64","3244261","co38182","norming","","","","","","",""
"null","../img/tt/1049tt.jpg","null","mooney2","image-keyboard-response","459","1739642","0.0-6.0-5.64","3244261","co38182","norming","","","","","","",""
"3543.285000000149","","","post_reveal_questions","survey-likert","460","1743190","0.0-6.0-6.64","3244261","co38182","norming","","","{""aha"":0}","[0]","../img/tt/1049tt.jpg","",""
"null","<div style=""font-size:60px;""> </div>","null","fixation","html-keyboard-response","461","1743399","0.0-6.0-0.65","3244261","co38182","norming","","","","","","",""
"null","../img/tt/1128tt.jpg","null","mooney1","image-keyboard-response","462","1746411","0.0-6.0-1.65","3244261","co38182","norming","","","","","","",""
"5822.394999999786","","","post_mooney1_questions","survey-likert","463","1752238","0.0-6.0-2.65","3244261","co38182","norming","","","{""curiosity"":2,""confidence"":1}","[0,1]","../img/tt/1128tt.jpg","",""
"2069.9850000001024","","","recognition","survey-text","464","1754310","0.0-6.0-3.65","3244261","co38182","norming","","","{""guess"":""aap""}","","../img/tt/1128tt.jpg","",""
"null","../img/gs/1128gs.jpg","null","reveal","image-keyboard-response","465","1756317","0.0-6.0-4.65","3244261","co38182","norming","","","","","","",""
"null","../img/tt/1128tt.jpg","null","mooney2","image-keyboard-response","466","1758328","0.0-6.0-5.65","3244261","co38182","norming","","","","","","",""
"3922.6450000002515","","","post_reveal_questions","survey-likert","467","1762254","0.0-6.0-6.65","3244261","co38182","norming","","","{""aha"":2}","[0]","../img/tt/1128tt.jpg","",""
"null","<div style=""font-size:60px;""> </div>","null","fixation","html-keyboard-response","468","1762463","0.0-6.0-0.66","3244261","co38182","norming","","","","","","",""
"null","../img/tt/1173tt.jpg","null","mooney1","image-keyboard-response","469","1765467","0.0-6.0-1.66","3244261","co38182","norming","","","","","","",""
"4071.7099999999627","","","post_mooney1_questions","survey-likert","470","1769542","0.0-6.0-2.66","3244261","co38182","norming","","","{""curiosity"":3,""confidence"":3}","[0,1]","../img/tt/1173tt.jpg","",""
"3406.524999999674","","","recognition","survey-text","471","1772950","0.0-6.0-3.66","3244261","co38182","norming","","","{""guess"":""volleybal""}","","../img/tt/1173tt.jpg","",""
"null","../img/gs/1173gs.jpg","null","reveal","image-keyboard-response","472","1774952","0.0-6.0-4.66","3244261","co38182","norming","","","","","","",""
"null","../img/tt/1173tt.jpg","null","mooney2","image-keyboard-response","473","1776957","0.0-6.0-5.66","3244261","co38182","norming","","","","","","",""
"2816.2900000000373","","","post_reveal_questions","survey-likert","474","1779774","0.0-6.0-6.66","3244261","co38182","norming","","","{""aha"":3}","[0]","../img/tt/1173tt.jpg","",""
"null","<div style=""font-size:60px;""> </div>","null","fixation","html-keyboard-response","475","1779975","0.0-6.0-0.67","3244261","co38182","norming","","","","","","",""
"null","../img/tt/549tt.jpg","null","mooney1","image-keyboard-response","476","1782980","0.0-6.0-1.67","3244261","co38182","norming","","","","","","",""
"3590.9799999999814","","","post_mooney1_questions","survey-likert","477","1786574","0.0-6.0-2.67","3244261","co38182","norming","","","{""curiosity"":1,""confidence"":0}","[0,1]","../img/tt/549tt.jpg","",""
"4806.239999999758","","","recognition","survey-text","478","1791382","0.0-6.0-3.67","3244261","co38182","norming","","","{""guess"":""""}","","../img/tt/549tt.jpg","",""
"null","../img/gs/549gs.jpg","null","reveal","image-keyboard-response","479","1793391","0.0-6.0-4.67","3244261","co38182","norming","","","","","","",""
"null","../img/tt/549tt.jpg","null","mooney2","image-keyboard-response","480","1795403","0.0-6.0-5.67","3244261","co38182","norming","","","","","","",""
"3024.3799999998882","","","post_reveal_questions","survey-likert","481","1798430","0.0-6.0-6.67","3244261","co38182","norming","","","{""aha"":0}","[0]","../img/tt/549tt.jpg","",""
"null","<div style=""font-size:60px;""> </div>","null","fixation","html-keyboard-response","482","1798636","0.0-6.0-0.68","3244261","co38182","norming","","","","","","",""
"null","../img/tt/126tt.jpg","null","mooney1","image-keyboard-response","483","1801646","0.0-6.0-1.68","3244261","co38182","norming","","","","","","",""
"10035.225000000093","","","post_mooney1_questions","survey-likert","484","1811682","0.0-6.0-2.68","3244261","co38182","norming","","","{""curiosity"":3,""confidence"":0}","[0,1]","../img/tt/126tt.jpg","",""
"901.7900000000373","","","recognition","survey-text","485","1812586","0.0-6.0-3.68","3244261","co38182","norming","","","{""guess"":""""}","","../img/tt/126tt.jpg","",""
"null","../img/gs/126gs.jpg","null","reveal","image-keyboard-response","486","1814592","0.0-6.0-4.68","3244261","co38182","norming","","","","","","",""
"null","../img/tt/126tt.jpg","null","mooney2","image-keyboard-response","487","1816602","0.0-6.0-5.68","3244261","co38182","norming","","","","","","",""
"4262.370000000112","","","post_reveal_questions","survey-likert","488","1820866","0.0-6.0-6.68","3244261","co38182","norming","","","{""aha"":0}","[0]","../img/tt/126tt.jpg","",""
"null","<div style=""font-size:60px;""> </div>","null","fixation","html-keyboard-response","489","1821070","0.0-6.0-0.69","3244261","co38182","norming","","","","","","",""
"null","../img/tt/098tt.jpg","null","mooney1","image-keyboard-response","490","1824077","0.0-6.0-1.69","3244261","co38182","norming","","","","","","",""
"4553.975000000093","","","post_mooney1_questions","survey-likert","491","1828634","0.0-6.0-2.69","3244261","co38182","norming","","","{""curiosity"":3,""confidence"":0}","[0,1]","../img/tt/098tt.jpg","",""
"1101.9599999999627","","","recognition","survey-text","492","1829738","0.0-6.0-3.69","3244261","co38182","norming","","","{""guess"":""""}","","../img/tt/098tt.jpg","",""
"null","../img/gs/098gs.jpg","null","reveal","image-keyboard-response","493","1831746","0.0-6.0-4.69","3244261","co38182","norming","","","","","","",""
"null","../img/tt/098tt.jpg","null","mooney2","image-keyboard-response","494","1833754","0.0-6.0-5.69","3244261","co38182","norming","","","","","","",""
"3726.880000000121","","","post_reveal_questions","survey-likert","495","1837482","0.0-6.0-6.69","3244261","co38182","norming","","","{""aha"":6}","[0]","../img/tt/098tt.jpg","",""
"null","<div style=""font-size:60px;""> </div>","null","fixation","html-keyboard-response","496","1837692","0.0-6.0-0.70","3244261","co38182","norming","","","","","","",""
"null","../img/tt/590tt.jpg","null","mooney1","image-keyboard-response","497","1840695","0.0-6.0-1.70","3244261","co38182","norming","","","","","","",""
"6871.875","","","post_mooney1_questions","survey-likert","498","1847570","0.0-6.0-2.70","3244261","co38182","norming","","","{""curiosity"":2,""confidence"":1}","[0,1]","../img/tt/590tt.jpg","",""
"5277.970000000205","","","recognition","survey-text","499","1852850","0.0-6.0-3.70","3244261","co38182","norming","","","{""guess"":""muziekinstrument""}","","../img/tt/590tt.jpg","",""
"null","../img/gs/590gs.jpg","null","reveal","image-keyboard-response","500","1854851","0.0-6.0-4.70","3244261","co38182","norming","","","","","","",""
"null","../img/tt/590tt.jpg","null","mooney2","image-keyboard-response","501","1856859","0.0-6.0-5.70","3244261","co38182","norming","","","","","","",""
"3347.8549999999814","","","post_reveal_questions","survey-likert","502","1860210","0.0-6.0-6.70","3244261","co38182","norming","","","{""aha"":0}","[0]","../img/tt/590tt.jpg","",""
"null","<div style=""font-size:60px;""> </div>","null","fixation","html-keyboard-response","503","1860415","0.0-6.0-0.71","3244261","co38182","norming","","","","","","",""
"null","../img/tt/1006tt.jpg","null","mooney1","image-keyboard-response","504","1863418","0.0-6.0-1.71","3244261","co38182","norming","","","","","","",""
"4557.094999999739","","","post_mooney1_questions","survey-likert","505","1867978","0.0-6.0-2.71","3244261","co38182","norming","","","{""curiosity"":1,""confidence"":1}","[0,1]","../img/tt/1006tt.jpg","",""
"1494.1800000001676","","","recognition","survey-text","506","1869470","0.0-6.0-3.71","3244261","co38182","norming","","","{""guess"":""gras""}","","../img/tt/1006tt.jpg","",""
"null","../img/gs/1006gs.jpg","null","reveal","image-keyboard-response","507","1871475","0.0-6.0-4.71","3244261","co38182","norming","","","","","","",""
"null","../img/tt/1006tt.jpg","null","mooney2","image-keyboard-response","508","1873479","0.0-6.0-5.71","3244261","co38182","norming","","","","","","",""
"3859.5600000002887","","","post_reveal_questions","survey-likert","509","1877342","0.0-6.0-6.71","3244261","co38182","norming","","","{""aha"":6}","[0]","../img/tt/1006tt.jpg","",""
"null","<div style=""font-size:60px;""> </div>","null","fixation","html-keyboard-response","510","1877543","0.0-6.0-0.72","3244261","co38182","norming","","","","","","",""
"null","../img/tt/1148tt.jpg","null","mooney1","image-keyboard-response","511","1880554","0.0-6.0-1.72","3244261","co38182","norming","","","","","","",""
"6136.040000000037","","","post_mooney1_questions","survey-likert","512","1886694","0.0-6.0-2.72","3244261","co38182","norming","","","{""curiosity"":4,""confidence"":3}","[0,1]","../img/tt/1148tt.jpg","",""
"2949.534999999916","","","recognition","survey-text","513","1889645","0.0-6.0-3.72","3244261","co38182","norming","","","{""guess"":""achtbaan""}","","../img/tt/1148tt.jpg","",""
"null","../img/gs/1148gs.jpg","null","reveal","image-keyboard-response","514","1891650","0.0-6.0-4.72","3244261","co38182","norming","","","","","","",""
"null","../img/tt/1148tt.jpg","null","mooney2","image-keyboard-response","515","1893651","0.0-6.0-5.72","3244261","co38182","norming","","","","","","",""
"5089.725000000093","","","post_reveal_questions","survey-likert","516","1898742","0.0-6.0-6.72","3244261","co38182","norming","","","{""aha"":3}","[0]","../img/tt/1148tt.jpg","",""
"null","<div style=""font-size:60px;""> </div>","null","fixation","html-keyboard-response","517","1898949","0.0-6.0-0.73","3244261","co38182","norming","","","","","","",""
"null","../img/tt/1159tt.jpg","null","mooney1","image-keyboard-response","518","1901955","0.0-6.0-1.73","3244261","co38182","norming","","","","","","",""
"16895.369999999646","","","post_mooney1_questions","survey-likert","519","1918854","0.0-6.0-2.73","3244261","co38182","norming","","","{""curiosity"":4,""confidence"":1}","[0,1]","../img/tt/1159tt.jpg","",""
"1686.100000000326","","","recognition","survey-text","520","1920542","0.0-6.0-3.73","3244261","co38182","norming","","","{""guess"":""golf""}","","../img/tt/1159tt.jpg","",""
"null","../img/gs/1159gs.jpg","null","reveal","image-keyboard-response","521","1922548","0.0-6.0-4.73","3244261","co38182","norming","","","","","","",""
"null","../img/tt/1159tt.jpg","null","mooney2","image-keyboard-response","522","1924559","0.0-6.0-5.73","3244261","co38182","norming","","","","","","",""
"3276.0149999998976","","","post_reveal_questions","survey-likert","523","1927838","0.0-6.0-6.73","3244261","co38182","norming","","","{""aha"":4}","[0]","../img/tt/1159tt.jpg","",""
"null","<div style=""font-size:60px;""> </div>","null","fixation","html-keyboard-response","524","1928039","0.0-6.0-0.74","3244261","co38182","norming","","","","","","",""
"null","../img/tt/1235tt.jpg","null","mooney1","image-keyboard-response","525","1931050","0.0-6.0-1.74","3244261","co38182","norming","","","","","","",""
"6296.030000000028","","","post_mooney1_questions","survey-likert","526","1937350","0.0-6.0-2.74","3244261","co38182","norming","","","{""curiosity"":3,""confidence"":1}","[0,1]","../img/tt/1235tt.jpg","",""
"3262.064999999944","","","recognition","survey-text","527","1940614","0.0-6.0-3.74","3244261","co38182","norming","","","{""guess"":""pauw""}","","../img/tt/1235tt.jpg","",""
"null","../img/gs/1235gs.jpg","null","reveal","image-keyboard-response","528","1942621","0.0-6.0-4.74","3244261","co38182","norming","","","","","","",""
"null","../img/tt/1235tt.jpg","null","mooney2","image-keyboard-response","529","1944623","0.0-6.0-5.74","3244261","co38182","norming","","","","","","",""
"3404.065000000177","","","post_reveal_questions","survey-likert","530","1948030","0.0-6.0-6.74","3244261","co38182","norming","","","{""aha"":4}","[0]","../img/tt/1235tt.jpg","",""
"null","<div style=""font-size:60px;""> </div>","null","fixation","html-keyboard-response","531","1948231","0.0-6.0-0.75","3244261","co38182","norming","","","","","","",""
"null","../img/tt/1211tt.jpg","null","mooney1","image-keyboard-response","532","1951244","0.0-6.0-1.75","3244261","co38182","norming","","","","","","",""
"3022.980000000214","","","post_mooney1_questions","survey-likert","533","1954270","0.0-6.0-2.75","3244261","co38182","norming","","","{""curiosity"":1,""confidence"":0}","[0,1]","../img/tt/1211tt.jpg","",""
"1077.969999999972","","","recognition","survey-text","534","1955350","0.0-6.0-3.75","3244261","co38182","norming","","","{""guess"":""""}","","../img/tt/1211tt.jpg","",""
"null","../img/gs/1211gs.jpg","null","reveal","image-keyboard-response","535","1957351","0.0-6.0-4.75","3244261","co38182","norming","","","","","","",""
"null","../img/tt/1211tt.jpg","null","mooney2","image-keyboard-response","536","1959354","0.0-6.0-5.75","3244261","co38182","norming","","","","","","",""
"19193.350000000093","","","post_reveal_questions","survey-likert","537","1978550","0.0-6.0-6.75","3244261","co38182","norming","","","{""aha"":3}","[0]","../img/tt/1211tt.jpg","",""
"null","<div style=""font-size:60px;""> </div>","null","fixation","html-keyboard-response","538","1978751","0.0-6.0-0.76","3244261","co38182","norming","","","","","","",""
"null","../img/tt/599tt.jpg","null","mooney1","image-keyboard-response","539","1981756","0.0-6.0-1.76","3244261","co38182","norming","","","","","","",""
"11151.865000000224","","","post_mooney1_questions","survey-likert","540","1992907","0.0-6.0-2.76","3244261","co38182","norming","","","{""curiosity"":1,""confidence"":0}","[0,1]","../img/tt/599tt.jpg","",""
"909.9849999996368","","","recognition","survey-text","541","1993818","0.0-6.0-3.76","3244261","co38182","norming","","","{""guess"":""""}","","../img/tt/599tt.jpg","",""
"null","../img/gs/599gs.jpg","null","reveal","image-keyboard-response","542","1995828","0.0-6.0-4.76","3244261","co38182","norming","","","","","","",""
"null","../img/tt/599tt.jpg","null","mooney2","image-keyboard-response","543","1997836","0.0-6.0-5.76","3244261","co38182","norming","","","","","","",""
"3228.1649999998044","","","post_reveal_questions","survey-likert","544","2001066","0.0-6.0-6.76","3244261","co38182","norming","","","{""aha"":6}","[0]","../img/tt/599tt.jpg","",""
"null","<div style=""font-size:60px;""> </div>","null","fixation","html-keyboard-response","545","2001270","0.0-6.0-0.77","3244261","co38182","norming","","","","","","",""
"null","../img/tt/1241tt.jpg","null","mooney1","image-keyboard-response","546","2004273","0.0-6.0-1.77","3244261","co38182","norming","","","","","","",""
"4590.439999999944","","","post_mooney1_questions","survey-likert","547","2008867","0.0-6.0-2.77","3244261","co38182","norming","","","{""curiosity"":3,""confidence"":0}","[0,1]","../img/tt/1241tt.jpg","",""
"773.9949999998789","","","recognition","survey-text","548","2009642","0.0-6.0-3.77","3244261","co38182","norming","","","{""guess"":""""}","","../img/tt/1241tt.jpg","",""
"null","../img/gs/1241gs.jpg","null","reveal","image-keyboard-response","549","2011644","0.0-6.0-4.77","3244261","co38182","norming","","","","","","",""
"null","../img/tt/1241tt.jpg","null","mooney2","image-keyboard-response","550","2013652","0.0-6.0-5.77","3244261","co38182","norming","","","","","","",""
"6187.610000000102","","","post_reveal_questions","survey-likert","551","2019843","0.0-6.0-6.77","3244261","co38182","norming","","","{""aha"":0}","[0]","../img/tt/1241tt.jpg","",""
"null","<div style=""font-size:60px;""> </div>","null","fixation","html-keyboard-response","552","2020049","0.0-6.0-0.78","3244261","co38182","norming","","","","","","",""
