"rt","stimulus","key_press","test_part","trial_type","trial_index","time_elapsed","internal_node_id","totalTime","subject","experiment_name","button_pressed","success","responses","question_order","currentStim","old","correct"
"10585.499999999229","Welcome to the experiment. This is an online experiment so please don't close the tab/window until we say goodbye.  Press any key to begin.","13","instructions","html-keyboard-response","0","10598","0.0-0.0","3010289","co38314","norming","","","","","","",""
"49430.114999999205","<div style='word-wrap: break-word; width: 900px'><h3>Please consider this information carefully before deciding whether to participate in this research</h3><ul style='text-align: left; font-size: .8em;'><li><b>Purpose of the research</b>: To examine how people process images.</li><li><b>What you will do in this research</b>:  Stimuli (images) will be presented on the computer and you will be asked different questions about them.</li><li><b>Time required</b>: Participation will take between 45 and 60 minutes to complete.</li><li><b>Risks</b>:  There are no anticipated risks associated with participating in this study. The effects of participating should be comparable to those you would experience from viewing a computer monitor for 30 minutes and using a mouse or keyboard.</li><li><b>Benefits</b>:  This study provides no benefits to you individually except for the credit. The study provides important information about the nature of perception and learning.</li><li><b>Confidentiality</b>:  Your participation in this study will remain confidential. No personally identifiable information will be associated with your data. Your de-identified data may be shared with other researchers and used in future projects.</li><li><b>Participation and withdrawal</b>:  Your participation in this study is completely voluntary and you may refuse to participate or you may choose to withdraw at any time without penalty.</li><li><b>How to contact the researchers</b>: If you have questions or concerns about your participation or payment, or want to request a summary of research findings, please contact Sander Van de Cruys (KU Leuven), at sander.vandecruys@kuleuven.be.</li></ul><p>The nature and purpose of this research have been sufficiently explained and I agree to participate in this study.  I understand that I am free to withdraw at any time without incurring any penalty.</p><p>Please consent by clicking the button below to continue. Otherwise, please exit the study at this time.</p></div>","","instructions","html-button-response","1","60024","0.0-1.0","3010289","co38314","norming","0","","","","","",""
"","","","instructions","fullscreen","2","65306","0.0-2.0","3010289","co38314","norming","","true","","","","",""
"27548.31000000013","","","sona","survey-html-form","3","92860","0.0-3.0","3010289","co38314","norming","","","[{""name"":""sonaid"",""value"":""38314""},{""name"":""debrief"",""value"":""no""},{""name"":""datajoin"",""value"":""yes""}]","","","",""
"73666.8150000005","<div style='word-wrap: break-word; width: 900px'><h3>Instructions</h3><p>This experiment will have 3 parts. In the first part you will see a series of distorted images like the one below on the left. As you can see in the righthand image, the distorted images are derived from actual photographs. In what follows, you will <strong>briefly</strong> be presented with <strong>only</strong> the distorted image.</p> <div style='float: left; margin-right: 20px;'><img src='../img/018tt.jpg' height='250' width='250'></img></div><div style='float: right; margin-left: 20px;'><img src='../img/018gs.jpg' height='250' width='250'></img></div><p>Subsequently you will be asked a few questions about the image: One question on how <strong>curious</strong> you are about the solution and one on how <strong>confident</strong> you are that you know the solution.</p>Next, we ask you to make a guess on what is in the image. Note that it is OK to name just the <strong>basic level category</strong>. For example when you see a parrot in the image, 'parrot' will obviously be a correct answer but also correct is 'bird'. However, 'animal' will <strong>not</strong> be counted as a correct response. For the example above, 'rose' would be correct or 'flower', but not 'plant'. When soccer players are depicted, 'soccer', 'football', 'soccer players' will be correct, but not 'humans', 'outdoors', or 'sports'. You do not need to describe the image in full, just name the main object in it <strong>in one or two words</strong>. All images depict objects from one of the following broad level categories: animals, inanimate objects, plants, sports, vehicles, and food. Recognizing means knowing <strong>more</strong> than these broad labels for a given image. But we always encourage you to <strong>make a guess</strong> if you can. Note that you are allowed to use <strong>Dutch and English</strong> in your answers, whatever comes easiest for you.</p><p>Press any key to continue.</p></div>","13","instructions","html-keyboard-response","4","166532","0.0-4.0","3010289","co38314","norming","","","","","","",""
"46495.135000001","<div style='word-wrap: break-word; width: 900px'><h3>Instructions</h3> <p>Next, the solution image will be revealed to you and you'll be asked to indicate how strong your <strong>aha-experience</strong> was after seeing the solution. This describes the positive feeling of the 'click' you sometimes experience, when the pieces of the 'puzzle' fall together and you suddenly have 'insight' in the image.</p><img src='aha.jpg' height='188' width='250'></img><p>Note that there are no right or wrong answers. We are interested in what <strong>you</strong> see in the image and how <strong>you</strong> feel about it.</p><p>Press any key to start the experiment.</p></div>","13","instructions","html-keyboard-response","5","213027","0.0-5.0","3010289","co38314","norming","","","","","","",""
"null","<div style=""font-size:60px;""> </div>","null","fixation","html-keyboard-response","6","213236","0.0-6.0-0.0","3010289","co38314","norming","","","","","","",""
"null","../img/tt/1049tt.jpg","null","mooney1","image-keyboard-response","7","216242","0.0-6.0-1.0","3010289","co38314","norming","","","","","","",""
"9736.810000000347","","","post_mooney1_questions","survey-likert","8","225980","0.0-6.0-2.0","3010289","co38314","norming","","","{""curiosity"":5,""confidence"":1}","[0,1]","../img/tt/1049tt.jpg","",""
"8213.470000000583","","","recognition","survey-text","9","234196","0.0-6.0-3.0","3010289","co38314","norming","","","{""guess"":""lam""}","","../img/tt/1049tt.jpg","",""
"null","../img/gs/1049gs.jpg","null","reveal","image-keyboard-response","10","236203","0.0-6.0-4.0","3010289","co38314","norming","","","","","","",""
"null","../img/tt/1049tt.jpg","null","mooney2","image-keyboard-response","11","238208","0.0-6.0-5.0","3010289","co38314","norming","","","","","","",""
"4408.8849999989325","","","post_reveal_questions","survey-likert","12","242620","0.0-6.0-6.0","3010289","co38314","norming","","","{""aha"":4}","[0]","../img/tt/1049tt.jpg","",""
"null","<div style=""font-size:60px;""> </div>","null","fixation","html-keyboard-response","13","242822","0.0-6.0-0.1","3010289","co38314","norming","","","","","","",""
"null","../img/tt/1247tt.jpg","null","mooney1","image-keyboard-response","14","245826","0.0-6.0-1.1","3010289","co38314","norming","","","","","","",""
"7471.649999999499","","","post_mooney1_questions","survey-likert","15","253300","0.0-6.0-2.1","3010289","co38314","norming","","","{""curiosity"":5,""confidence"":4}","[0,1]","../img/tt/1247tt.jpg","",""
"6197.780000000435","","","recognition","survey-text","16","259499","0.0-6.0-3.1","3010289","co38314","norming","","","{""guess"":""hond""}","","../img/tt/1247tt.jpg","",""
"null","../img/gs/1247gs.jpg","null","reveal","image-keyboard-response","17","261508","0.0-6.0-4.1","3010289","co38314","norming","","","","","","",""
"null","../img/tt/1247tt.jpg","null","mooney2","image-keyboard-response","18","263517","0.0-6.0-5.1","3010289","co38314","norming","","","","","","",""
"4812.254999998899","","","post_reveal_questions","survey-likert","19","268332","0.0-6.0-6.1","3010289","co38314","norming","","","{""aha"":5}","[0]","../img/tt/1247tt.jpg","",""
"null","<div style=""font-size:60px;""> </div>","null","fixation","html-keyboard-response","20","268535","0.0-6.0-0.2","3010289","co38314","norming","","","","","","",""
"null","../img/tt/497tt.jpg","null","mooney1","image-keyboard-response","21","271544","0.0-6.0-1.2","3010289","co38314","norming","","","","","","",""
"7457.025000001537","","","post_mooney1_questions","survey-likert","22","279004","0.0-6.0-2.2","3010289","co38314","norming","","","{""curiosity"":2,""confidence"":4}","[0,1]","../img/tt/497tt.jpg","",""
"5502.0299999996205","","","recognition","survey-text","23","284508","0.0-6.0-3.2","3010289","co38314","norming","","","{""guess"":""kookvuur""}","","../img/tt/497tt.jpg","",""
"null","../img/gs/497gs.jpg","null","reveal","image-keyboard-response","24","286513","0.0-6.0-4.2","3010289","co38314","norming","","","","","","",""
"null","../img/tt/497tt.jpg","null","mooney2","image-keyboard-response","25","288515","0.0-6.0-5.2","3010289","co38314","norming","","","","","","",""
"4158.905000000203","","","post_reveal_questions","survey-likert","26","292673","0.0-6.0-6.2","3010289","co38314","norming","","","{""aha"":1}","[0]","../img/tt/497tt.jpg","",""
"null","<div style=""font-size:60px;""> </div>","null","fixation","html-keyboard-response","27","292874","0.0-6.0-0.3","3010289","co38314","norming","","","","","","",""
"null","../img/tt/1102tt.jpg","null","mooney1","image-keyboard-response","28","295881","0.0-6.0-1.3","3010289","co38314","norming","","","","","","",""
"6213.079999999551","","","post_mooney1_questions","survey-likert","29","302097","0.0-6.0-2.3","3010289","co38314","norming","","","{""curiosity"":6,""confidence"":0}","[0,1]","../img/tt/1102tt.jpg","",""
"6982.0149999996065","","","recognition","survey-text","30","309081","0.0-6.0-3.3","3010289","co38314","norming","","","{""guess"":""schip""}","","../img/tt/1102tt.jpg","",""
"null","../img/gs/1102gs.jpg","null","reveal","image-keyboard-response","31","311090","0.0-6.0-4.3","3010289","co38314","norming","","","","","","",""
"null","../img/tt/1102tt.jpg","null","mooney2","image-keyboard-response","32","313093","0.0-6.0-5.3","3010289","co38314","norming","","","","","","",""
"2393.4399999998277","","","post_reveal_questions","survey-likert","33","315489","0.0-6.0-6.3","3010289","co38314","norming","","","{""aha"":6}","[0]","../img/tt/1102tt.jpg","",""
"null","<div style=""font-size:60px;""> </div>","null","fixation","html-keyboard-response","34","315696","0.0-6.0-0.4","3010289","co38314","norming","","","","","","",""
"null","../img/tt/1063tt.jpg","null","mooney1","image-keyboard-response","35","318702","0.0-6.0-1.4","3010289","co38314","norming","","","","","","",""
"4264.9899999997","","","post_mooney1_questions","survey-likert","36","322969","0.0-6.0-2.4","3010289","co38314","norming","","","{""curiosity"":4,""confidence"":2}","[0,1]","../img/tt/1063tt.jpg","",""
"3237.9450000007637","","","recognition","survey-text","37","326209","0.0-6.0-3.4","3010289","co38314","norming","","","{""guess"":""paard""}","","../img/tt/1063tt.jpg","",""
"null","../img/gs/1063gs.jpg","null","reveal","image-keyboard-response","38","328214","0.0-6.0-4.4","3010289","co38314","norming","","","","","","",""
"null","../img/tt/1063tt.jpg","null","mooney2","image-keyboard-response","39","330223","0.0-6.0-5.4","3010289","co38314","norming","","","","","","",""
"4103.65999999881","","","post_reveal_questions","survey-likert","40","334329","0.0-6.0-6.4","3010289","co38314","norming","","","{""aha"":3}","[0]","../img/tt/1063tt.jpg","",""
"null","<div style=""font-size:60px;""> </div>","null","fixation","html-keyboard-response","41","334530","0.0-6.0-0.5","3010289","co38314","norming","","","","","","",""
"null","../img/tt/524tt.jpg","null","mooney1","image-keyboard-response","42","337537","0.0-6.0-1.5","3010289","co38314","norming","","","","","","",""
"9325.310000000172","","","post_mooney1_questions","survey-likert","43","346865","0.0-6.0-2.5","3010289","co38314","norming","","","{""curiosity"":5,""confidence"":1}","[0,1]","../img/tt/524tt.jpg","",""
"14478.240000000398","","","recognition","survey-text","44","361347","0.0-6.0-3.5","3010289","co38314","norming","","","{""guess"":""dier""}","","../img/tt/524tt.jpg","",""
"null","../img/gs/524gs.jpg","null","reveal","image-keyboard-response","45","363357","0.0-6.0-4.5","3010289","co38314","norming","","","","","","",""
"null","../img/tt/524tt.jpg","null","mooney2","image-keyboard-response","46","365365","0.0-6.0-5.5","3010289","co38314","norming","","","","","","",""
"4043.3250000005937","","","post_reveal_questions","survey-likert","47","369411","0.0-6.0-6.5","3010289","co38314","norming","","","{""aha"":6}","[0]","../img/tt/524tt.jpg","",""
"null","<div style=""font-size:60px;""> </div>","null","fixation","html-keyboard-response","48","369613","0.0-6.0-0.6","3010289","co38314","norming","","","","","","",""
"null","../img/tt/008tt.jpg","null","mooney1","image-keyboard-response","49","372615","0.0-6.0-1.6","3010289","co38314","norming","","","","","","",""
"3970.045000000042","","","post_mooney1_questions","survey-likert","50","376587","0.0-6.0-2.6","3010289","co38314","norming","","","{""curiosity"":6,""confidence"":0}","[0,1]","../img/tt/008tt.jpg","",""
"10158.020000000775","","","recognition","survey-text","51","386747","0.0-6.0-3.6","3010289","co38314","norming","","","{""guess"":""zeilboot""}","","../img/tt/008tt.jpg","",""
"null","../img/gs/008gs.jpg","null","reveal","image-keyboard-response","52","388756","0.0-6.0-4.6","3010289","co38314","norming","","","","","","",""
"null","../img/tt/008tt.jpg","null","mooney2","image-keyboard-response","53","390759","0.0-6.0-5.6","3010289","co38314","norming","","","","","","",""
"1699.909999999334","","","post_reveal_questions","survey-likert","54","392459","0.0-6.0-6.6","3010289","co38314","norming","","","{""aha"":6}","[0]","../img/tt/008tt.jpg","",""
"null","<div style=""font-size:60px;""> </div>","null","fixation","html-keyboard-response","55","392666","0.0-6.0-0.7","3010289","co38314","norming","","","","","","",""
"null","../img/tt/418tt.jpg","null","mooney1","image-keyboard-response","56","395672","0.0-6.0-1.7","3010289","co38314","norming","","","","","","",""
"6402.235000001383","","","post_mooney1_questions","survey-likert","57","402075","0.0-6.0-2.7","3010289","co38314","norming","","","{""curiosity"":6,""confidence"":2}","[0,1]","../img/tt/418tt.jpg","",""
"3621.984999999753","","","recognition","survey-text","58","405699","0.0-6.0-3.7","3010289","co38314","norming","","","{""guess"":""bloem""}","","../img/tt/418tt.jpg","",""
"null","../img/gs/418gs.jpg","null","reveal","image-keyboard-response","59","407704","0.0-6.0-4.7","3010289","co38314","norming","","","","","","",""
"null","../img/tt/418tt.jpg","null","mooney2","image-keyboard-response","60","409709","0.0-6.0-5.7","3010289","co38314","norming","","","","","","",""
"3173.4749999995693","","","post_reveal_questions","survey-likert","61","412883","0.0-6.0-6.7","3010289","co38314","norming","","","{""aha"":5}","[0]","../img/tt/418tt.jpg","",""
"null","<div style=""font-size:60px;""> </div>","null","fixation","html-keyboard-response","62","413084","0.0-6.0-0.8","3010289","co38314","norming","","","","","","",""
"null","../img/tt/357tt.jpg","null","mooney1","image-keyboard-response","63","416094","0.0-6.0-1.8","3010289","co38314","norming","","","","","","",""
"5482.375000001397","","","post_mooney1_questions","survey-likert","64","421582","0.0-6.0-2.8","3010289","co38314","norming","","","{""curiosity"":6,""confidence"":0}","[0,1]","../img/tt/357tt.jpg","",""
"5078.03500000044","","","recognition","survey-text","65","426662","0.0-6.0-3.8","3010289","co38314","norming","","","{""guess"":""mat""}","","../img/tt/357tt.jpg","",""
"null","../img/gs/357gs.jpg","null","reveal","image-keyboard-response","66","428669","0.0-6.0-4.8","3010289","co38314","norming","","","","","","",""
"null","../img/tt/357tt.jpg","null","mooney2","image-keyboard-response","67","430678","0.0-6.0-5.8","3010289","co38314","norming","","","","","","",""
"2749.6149999988265","","","post_reveal_questions","survey-likert","68","433430","0.0-6.0-6.8","3010289","co38314","norming","","","{""aha"":5}","[0]","../img/tt/357tt.jpg","",""
"null","<div style=""font-size:60px;""> </div>","null","fixation","html-keyboard-response","69","433632","0.0-6.0-0.9","3010289","co38314","norming","","","","","","",""
"null","../img/tt/456tt.jpg","null","mooney1","image-keyboard-response","70","436633","0.0-6.0-1.9","3010289","co38314","norming","","","","","","",""
"5017.830000000715","","","post_mooney1_questions","survey-likert","71","441654","0.0-6.0-2.9","3010289","co38314","norming","","","{""curiosity"":4,""confidence"":2}","[0,1]","../img/tt/456tt.jpg","",""
"7382.155000001134","","","recognition","survey-text","72","449038","0.0-6.0-3.9","3010289","co38314","norming","","","{""guess"":""voet""}","","../img/tt/456tt.jpg","",""
"null","../img/gs/456gs.jpg","null","reveal","image-keyboard-response","73","451041","0.0-6.0-4.9","3010289","co38314","norming","","","","","","",""
"null","../img/tt/456tt.jpg","null","mooney2","image-keyboard-response","74","453042","0.0-6.0-5.9","3010289","co38314","norming","","","","","","",""
"1433.5150000006543","","","post_reveal_questions","survey-likert","75","454478","0.0-6.0-6.9","3010289","co38314","norming","","","{""aha"":5}","[0]","../img/tt/456tt.jpg","",""
"null","<div style=""font-size:60px;""> </div>","null","fixation","html-keyboard-response","76","454680","0.0-6.0-0.10","3010289","co38314","norming","","","","","","",""
"null","../img/tt/140tt.jpg","null","mooney1","image-keyboard-response","77","457687","0.0-6.0-1.10","3010289","co38314","norming","","","","","","",""
"4734.109999999404","","","post_mooney1_questions","survey-likert","78","462422","0.0-6.0-2.10","3010289","co38314","norming","","","{""curiosity"":5,""confidence"":3}","[0,1]","../img/tt/140tt.jpg","",""
"2630.1500000008964","","","recognition","survey-text","79","465054","0.0-6.0-3.10","3010289","co38314","norming","","","{""guess"":""vork""}","","../img/tt/140tt.jpg","",""
"null","../img/gs/140gs.jpg","null","reveal","image-keyboard-response","80","467058","0.0-6.0-4.10","3010289","co38314","norming","","","","","","",""
"null","../img/tt/140tt.jpg","null","mooney2","image-keyboard-response","81","469060","0.0-6.0-5.10","3010289","co38314","norming","","","","","","",""
"3727.634999999311","","","post_reveal_questions","survey-likert","82","472790","0.0-6.0-6.10","3010289","co38314","norming","","","{""aha"":3}","[0]","../img/tt/140tt.jpg","",""
"null","<div style=""font-size:60px;""> </div>","null","fixation","html-keyboard-response","83","472992","0.0-6.0-0.11","3010289","co38314","norming","","","","","","",""
"null","../img/tt/084tt.jpg","null","mooney1","image-keyboard-response","84","476000","0.0-6.0-1.11","3010289","co38314","norming","","","","","","",""
"5571.399999998917","","","post_mooney1_questions","survey-likert","85","481574","0.0-6.0-2.11","3010289","co38314","norming","","","{""curiosity"":4,""confidence"":4}","[0,1]","../img/tt/084tt.jpg","",""
"3733.9800000008545","","","recognition","survey-text","86","485309","0.0-6.0-3.11","3010289","co38314","norming","","","{""guess"":""pauw""}","","../img/tt/084tt.jpg","",""
"null","../img/gs/084gs.jpg","null","reveal","image-keyboard-response","87","487315","0.0-6.0-4.11","3010289","co38314","norming","","","","","","",""
"null","../img/tt/084tt.jpg","null","mooney2","image-keyboard-response","88","489318","0.0-6.0-5.11","3010289","co38314","norming","","","","","","",""
"2341.4350000002887","","","post_reveal_questions","survey-likert","89","491662","0.0-6.0-6.11","3010289","co38314","norming","","","{""aha"":4}","[0]","../img/tt/084tt.jpg","",""
"null","<div style=""font-size:60px;""> </div>","null","fixation","html-keyboard-response","90","491864","0.0-6.0-0.12","3010289","co38314","norming","","","","","","",""
"null","../img/tt/1107tt.jpg","null","mooney1","image-keyboard-response","91","494870","0.0-6.0-1.12","3010289","co38314","norming","","","","","","",""
"4741.249999999185","","","post_mooney1_questions","survey-likert","92","499614","0.0-6.0-2.12","3010289","co38314","norming","","","{""curiosity"":4,""confidence"":4}","[0,1]","../img/tt/1107tt.jpg","",""
"4214.0849999996135","","","recognition","survey-text","93","503829","0.0-6.0-3.12","3010289","co38314","norming","","","{""guess"":""hond""}","","../img/tt/1107tt.jpg","",""
"null","../img/gs/1107gs.jpg","null","reveal","image-keyboard-response","94","505835","0.0-6.0-4.12","3010289","co38314","norming","","","","","","",""
"null","../img/tt/1107tt.jpg","null","mooney2","image-keyboard-response","95","507839","0.0-6.0-5.12","3010289","co38314","norming","","","","","","",""
"3196.0899999995017","","","post_reveal_questions","survey-likert","96","511038","0.0-6.0-6.12","3010289","co38314","norming","","","{""aha"":5}","[0]","../img/tt/1107tt.jpg","",""
"null","<div style=""font-size:60px;""> </div>","null","fixation","html-keyboard-response","97","511239","0.0-6.0-0.13","3010289","co38314","norming","","","","","","",""
"null","../img/tt/052tt.jpg","null","mooney1","image-keyboard-response","98","514249","0.0-6.0-1.13","3010289","co38314","norming","","","","","","",""
"6130.274999999558","","","post_mooney1_questions","survey-likert","99","520382","0.0-6.0-2.13","3010289","co38314","norming","","","{""curiosity"":4,""confidence"":4}","[0,1]","../img/tt/052tt.jpg","",""
"4133.9449999995995","","","recognition","survey-text","100","524517","0.0-6.0-3.13","3010289","co38314","norming","","","{""guess"":""eten""}","","../img/tt/052tt.jpg","",""
"null","../img/gs/052gs.jpg","null","reveal","image-keyboard-response","101","526526","0.0-6.0-4.13","3010289","co38314","norming","","","","","","",""
"null","../img/tt/052tt.jpg","null","mooney2","image-keyboard-response","102","528529","0.0-6.0-5.13","3010289","co38314","norming","","","","","","",""
"3073.5000000004657","","","post_reveal_questions","survey-likert","103","531605","0.0-6.0-6.13","3010289","co38314","norming","","","{""aha"":6}","[0]","../img/tt/052tt.jpg","",""
"null","<div style=""font-size:60px;""> </div>","null","fixation","html-keyboard-response","104","531814","0.0-6.0-0.14","3010289","co38314","norming","","","","","","",""
"null","../img/tt/076tt.jpg","null","mooney1","image-keyboard-response","105","534826","0.0-6.0-1.14","3010289","co38314","norming","","","","","","",""
"4634.420000000275","","","post_mooney1_questions","survey-likert","106","539462","0.0-6.0-2.14","3010289","co38314","norming","","","{""curiosity"":3,""confidence"":5}","[0,1]","../img/tt/076tt.jpg","",""
"4382.064999999711","","","recognition","survey-text","107","543843","0.0-6.0-3.14","3010289","co38314","norming","","","{""guess"":""rollerblades""}","","../img/tt/076tt.jpg","",""
"null","../img/gs/076gs.jpg","null","reveal","image-keyboard-response","108","545853","0.0-6.0-4.14","3010289","co38314","norming","","","","","","",""
"null","../img/tt/076tt.jpg","null","mooney2","image-keyboard-response","109","547859","0.0-6.0-5.14","3010289","co38314","norming","","","","","","",""
"3669.1350000001257","","","post_reveal_questions","survey-likert","110","551531","0.0-6.0-6.14","3010289","co38314","norming","","","{""aha"":2}","[0]","../img/tt/076tt.jpg","",""
"null","<div style=""font-size:60px;""> </div>","null","fixation","html-keyboard-response","111","551733","0.0-6.0-0.15","3010289","co38314","norming","","","","","","",""
"null","../img/tt/049tt.jpg","null","mooney1","image-keyboard-response","112","554736","0.0-6.0-1.15","3010289","co38314","norming","","","","","","",""
"5592.160000000149","","","post_mooney1_questions","survey-likert","113","560331","0.0-6.0-2.15","3010289","co38314","norming","","","{""curiosity"":6,""confidence"":0}","[0,1]","../img/tt/049tt.jpg","",""
"3926.0549999998184","","","recognition","survey-text","114","564259","0.0-6.0-3.15","3010289","co38314","norming","","","{""guess"":""schaap""}","","../img/tt/049tt.jpg","",""
"null","../img/gs/049gs.jpg","null","reveal","image-keyboard-response","115","566260","0.0-6.0-4.15","3010289","co38314","norming","","","","","","",""
"null","../img/tt/049tt.jpg","null","mooney2","image-keyboard-response","116","568269","0.0-6.0-5.15","3010289","co38314","norming","","","","","","",""
"3659.0899999991525","","","post_reveal_questions","survey-likert","117","571931","0.0-6.0-6.15","3010289","co38314","norming","","","{""aha"":5}","[0]","../img/tt/049tt.jpg","",""
"null","<div style=""font-size:60px;""> </div>","null","fixation","html-keyboard-response","118","572140","0.0-6.0-0.16","3010289","co38314","norming","","","","","","",""
"null","../img/tt/007tt.jpg","null","mooney1","image-keyboard-response","119","575147","0.0-6.0-1.16","3010289","co38314","norming","","","","","","",""
"6882.714999999618","","","post_mooney1_questions","survey-likert","120","582035","0.0-6.0-2.16","3010289","co38314","norming","","","{""curiosity"":6,""confidence"":2}","[0,1]","../img/tt/007tt.jpg","",""
"11046.29999999993","","","recognition","survey-text","121","593083","0.0-6.0-3.16","3010289","co38314","norming","","","{""guess"":""zeekoe""}","","../img/tt/007tt.jpg","",""
"null","../img/gs/007gs.jpg","null","reveal","image-keyboard-response","122","595085","0.0-6.0-4.16","3010289","co38314","norming","","","","","","",""
"null","../img/tt/007tt.jpg","null","mooney2","image-keyboard-response","123","597090","0.0-6.0-5.16","3010289","co38314","norming","","","","","","",""
"4190.175000001444","","","post_reveal_questions","survey-likert","124","601287","0.0-6.0-6.16","3010289","co38314","norming","","","{""aha"":6}","[0]","../img/tt/007tt.jpg","",""
"null","<div style=""font-size:60px;""> </div>","null","fixation","html-keyboard-response","125","601492","0.0-6.0-0.17","3010289","co38314","norming","","","","","","",""
"null","../img/tt/1118tt.jpg","null","mooney1","image-keyboard-response","126","604502","0.0-6.0-1.17","3010289","co38314","norming","","","","","","",""
"5414.554999999469","","","post_mooney1_questions","survey-likert","127","609919","0.0-6.0-2.17","3010289","co38314","norming","","","{""curiosity"":4,""confidence"":5}","[0,1]","../img/tt/1118tt.jpg","",""
"8813.974999999045","","","recognition","survey-text","128","618735","0.0-6.0-3.17","3010289","co38314","norming","","","{""guess"":""race-wagen""}","","../img/tt/1118tt.jpg","",""
"null","../img/gs/1118gs.jpg","null","reveal","image-keyboard-response","129","620737","0.0-6.0-4.17","3010289","co38314","norming","","","","","","",""
"null","../img/tt/1118tt.jpg","null","mooney2","image-keyboard-response","130","622741","0.0-6.0-5.17","3010289","co38314","norming","","","","","","",""
"2119.2149999988033","","","post_reveal_questions","survey-likert","131","624863","0.0-6.0-6.17","3010289","co38314","norming","","","{""aha"":6}","[0]","../img/tt/1118tt.jpg","",""
"null","<div style=""font-size:60px;""> </div>","null","fixation","html-keyboard-response","132","625068","0.0-6.0-0.18","3010289","co38314","norming","","","","","","",""
"null","../img/tt/405tt.jpg","null","mooney1","image-keyboard-response","133","628079","0.0-6.0-1.18","3010289","co38314","norming","","","","","","",""
"4428.620000000577","","","post_mooney1_questions","survey-likert","134","632511","0.0-6.0-2.18","3010289","co38314","norming","","","{""curiosity"":6,""confidence"":2}","[0,1]","../img/tt/405tt.jpg","",""
"3414.424999998999","","","recognition","survey-text","135","635927","0.0-6.0-3.18","3010289","co38314","norming","","","{""guess"":""plant""}","","../img/tt/405tt.jpg","",""
"null","../img/gs/405gs.jpg","null","reveal","image-keyboard-response","136","637935","0.0-6.0-4.18","3010289","co38314","norming","","","","","","",""
"null","../img/tt/405tt.jpg","null","mooney2","image-keyboard-response","137","639936","0.0-6.0-5.18","3010289","co38314","norming","","","","","","",""
"2587.885000000824","","","post_reveal_questions","survey-likert","138","642527","0.0-6.0-6.18","3010289","co38314","norming","","","{""aha"":5}","[0]","../img/tt/405tt.jpg","",""
"null","<div style=""font-size:60px;""> </div>","null","fixation","html-keyboard-response","139","642736","0.0-6.0-0.19","3010289","co38314","norming","","","","","","",""
"null","../img/tt/1189tt.jpg","null","mooney1","image-keyboard-response","140","645743","0.0-6.0-1.19","3010289","co38314","norming","","","","","","",""
"5286.56500000041","","","post_mooney1_questions","survey-likert","141","651031","0.0-6.0-2.19","3010289","co38314","norming","","","{""curiosity"":5,""confidence"":3}","[0,1]","../img/tt/1189tt.jpg","",""
"2830.1350000001257","","","recognition","survey-text","142","653863","0.0-6.0-3.19","3010289","co38314","norming","","","{""guess"":""krokodil""}","","../img/tt/1189tt.jpg","",""
"null","../img/gs/1189gs.jpg","null","reveal","image-keyboard-response","143","655864","0.0-6.0-4.19","3010289","co38314","norming","","","","","","",""
"null","../img/tt/1189tt.jpg","null","mooney2","image-keyboard-response","144","657865","0.0-6.0-5.19","3010289","co38314","norming","","","","","","",""
"2939.1800000012154","","","post_reveal_questions","survey-likert","145","660806","0.0-6.0-6.19","3010289","co38314","norming","","","{""aha"":6}","[0]","../img/tt/1189tt.jpg","",""
"null","<div style=""font-size:60px;""> </div>","null","fixation","html-keyboard-response","146","661008","0.0-6.0-0.20","3010289","co38314","norming","","","","","","",""
"null","../img/tt/481tt.jpg","null","mooney1","image-keyboard-response","147","664017","0.0-6.0-1.20","3010289","co38314","norming","","","","","","",""
"6129.754999999888","","","post_mooney1_questions","survey-likert","148","670150","0.0-6.0-2.20","3010289","co38314","norming","","","{""curiosity"":1,""confidence"":6}","[0,1]","../img/tt/481tt.jpg","",""
"3517.7949999996927","","","recognition","survey-text","149","673669","0.0-6.0-3.20","3010289","co38314","norming","","","{""guess"":""hond""}","","../img/tt/481tt.jpg","",""
"null","../img/gs/481gs.jpg","null","reveal","image-keyboard-response","150","675677","0.0-6.0-4.20","3010289","co38314","norming","","","","","","",""
"null","../img/tt/481tt.jpg","null","mooney2","image-keyboard-response","151","677679","0.0-6.0-5.20","3010289","co38314","norming","","","","","","",""
"4678.024999999208","","","post_reveal_questions","survey-likert","152","682358","0.0-6.0-6.20","3010289","co38314","norming","","","{""aha"":1}","[0]","../img/tt/481tt.jpg","",""
"null","<div style=""font-size:60px;""> </div>","null","fixation","html-keyboard-response","153","682560","0.0-6.0-0.21","3010289","co38314","norming","","","","","","",""
"null","../img/tt/1226tt.jpg","null","mooney1","image-keyboard-response","154","685575","0.0-6.0-1.21","3010289","co38314","norming","","","","","","",""
"5267.840000000433","","","post_mooney1_questions","survey-likert","155","690846","0.0-6.0-2.21","3010289","co38314","norming","","","{""curiosity"":2,""confidence"":5}","[0,1]","../img/tt/1226tt.jpg","",""
"5142.9349999999395","","","recognition","survey-text","156","695990","0.0-6.0-3.21","3010289","co38314","norming","","","{""guess"":""kip""}","","../img/tt/1226tt.jpg","",""
"null","../img/gs/1226gs.jpg","null","reveal","image-keyboard-response","157","697996","0.0-6.0-4.21","3010289","co38314","norming","","","","","","",""
"null","../img/tt/1226tt.jpg","null","mooney2","image-keyboard-response","158","699999","0.0-6.0-5.21","3010289","co38314","norming","","","","","","",""
"4196.024999999325","","","post_reveal_questions","survey-likert","159","704198","0.0-6.0-6.21","3010289","co38314","norming","","","{""aha"":2}","[0]","../img/tt/1226tt.jpg","",""
"null","<div style=""font-size:60px;""> </div>","null","fixation","html-keyboard-response","160","704403","0.0-6.0-0.22","3010289","co38314","norming","","","","","","",""
"null","../img/tt/135tt.jpg","null","mooney1","image-keyboard-response","161","707405","0.0-6.0-1.22","3010289","co38314","norming","","","","","","",""
"4638.160000000382","","","post_mooney1_questions","survey-likert","162","712046","0.0-6.0-2.22","3010289","co38314","norming","","","{""curiosity"":1,""confidence"":6}","[0,1]","../img/tt/135tt.jpg","",""
"4694.240000000689","","","recognition","survey-text","163","716742","0.0-6.0-3.22","3010289","co38314","norming","","","{""guess"":""toilet""}","","../img/tt/135tt.jpg","",""
"null","../img/gs/135gs.jpg","null","reveal","image-keyboard-response","164","718744","0.0-6.0-4.22","3010289","co38314","norming","","","","","","",""
"null","../img/tt/135tt.jpg","null","mooney2","image-keyboard-response","165","720749","0.0-6.0-5.22","3010289","co38314","norming","","","","","","",""
"1656.594999998575","","","post_reveal_questions","survey-likert","166","722408","0.0-6.0-6.22","3010289","co38314","norming","","","{""aha"":1}","[0]","../img/tt/135tt.jpg","",""
"null","<div style=""font-size:60px;""> </div>","null","fixation","html-keyboard-response","167","722609","0.0-6.0-0.23","3010289","co38314","norming","","","","","","",""
"null","../img/tt/001tt.jpg","null","mooney1","image-keyboard-response","168","725611","0.0-6.0-1.23","3010289","co38314","norming","","","","","","",""
"4955.625000000466","","","post_mooney1_questions","survey-likert","169","730568","0.0-6.0-2.23","3010289","co38314","norming","","","{""curiosity"":5,""confidence"":3}","[0,1]","../img/tt/001tt.jpg","",""
"1870.0900000003166","","","recognition","survey-text","170","732439","0.0-6.0-3.23","3010289","co38314","norming","","","{""guess"":""koe""}","","../img/tt/001tt.jpg","",""
"null","../img/gs/001gs.jpg","null","reveal","image-keyboard-response","171","734444","0.0-6.0-4.23","3010289","co38314","norming","","","","","","",""
"null","../img/tt/001tt.jpg","null","mooney2","image-keyboard-response","172","736453","0.0-6.0-5.23","3010289","co38314","norming","","","","","","",""
"2703.8549999997485","","","post_reveal_questions","survey-likert","173","739160","0.0-6.0-6.23","3010289","co38314","norming","","","{""aha"":5}","[0]","../img/tt/001tt.jpg","",""
"null","<div style=""font-size:60px;""> </div>","null","fixation","html-keyboard-response","174","739366","0.0-6.0-0.24","3010289","co38314","norming","","","","","","",""
"null","../img/tt/010tt.jpg","null","mooney1","image-keyboard-response","175","742373","0.0-6.0-1.24","3010289","co38314","norming","","","","","","",""
"12263.630000001285","","","post_mooney1_questions","survey-likert","176","754640","0.0-6.0-2.24","3010289","co38314","norming","","","{""curiosity"":5,""confidence"":0}","[0,1]","../img/tt/010tt.jpg","",""
"5878.149999998626","","","recognition","survey-text","177","760520","0.0-6.0-3.24","3010289","co38314","norming","","","{""guess"":""mens""}","","../img/tt/010tt.jpg","",""
"null","../img/gs/010gs.jpg","null","reveal","image-keyboard-response","178","762521","0.0-6.0-4.24","3010289","co38314","norming","","","","","","",""
"null","../img/tt/010tt.jpg","null","mooney2","image-keyboard-response","179","764530","0.0-6.0-5.24","3010289","co38314","norming","","","","","","",""
"2370.7849999991013","","","post_reveal_questions","survey-likert","180","766903","0.0-6.0-6.24","3010289","co38314","norming","","","{""aha"":6}","[0]","../img/tt/010tt.jpg","",""
"null","<div style=""font-size:60px;""> </div>","null","fixation","html-keyboard-response","181","767105","0.0-6.0-0.25","3010289","co38314","norming","","","","","","",""
"null","../img/tt/318tt.jpg","null","mooney1","image-keyboard-response","182","770113","0.0-6.0-1.25","3010289","co38314","norming","","","","","","",""
"4803.915000000503","","","post_mooney1_questions","survey-likert","183","774920","0.0-6.0-2.25","3010289","co38314","norming","","","{""curiosity"":4,""confidence"":4}","[0,1]","../img/tt/318tt.jpg","",""
"3326.0300000001444","","","recognition","survey-text","184","778247","0.0-6.0-3.25","3010289","co38314","norming","","","{""guess"":""mens""}","","../img/tt/318tt.jpg","",""
"null","../img/gs/318gs.jpg","null","reveal","image-keyboard-response","185","780251","0.0-6.0-4.25","3010289","co38314","norming","","","","","","",""
"null","../img/tt/318tt.jpg","null","mooney2","image-keyboard-response","186","782260","0.0-6.0-5.25","3010289","co38314","norming","","","","","","",""
"1920.8699999999953","","","post_reveal_questions","survey-likert","187","784184","0.0-6.0-6.25","3010289","co38314","norming","","","{""aha"":5}","[0]","../img/tt/318tt.jpg","",""
"null","<div style=""font-size:60px;""> </div>","null","fixation","html-keyboard-response","188","784391","0.0-6.0-0.26","3010289","co38314","norming","","","","","","",""
"null","../img/tt/1154tt.jpg","null","mooney1","image-keyboard-response","189","787394","0.0-6.0-1.26","3010289","co38314","norming","","","","","","",""
"11483.145000000251","","","post_mooney1_questions","survey-likert","190","798880","0.0-6.0-2.26","3010289","co38314","norming","","","{""curiosity"":4,""confidence"":4}","[0,1]","../img/tt/1154tt.jpg","",""
"2150.3250000005355","","","recognition","survey-text","191","801032","0.0-6.0-3.26","3010289","co38314","norming","","","{""guess"":""boot""}","","../img/tt/1154tt.jpg","",""
"null","../img/gs/1154gs.jpg","null","reveal","image-keyboard-response","192","803038","0.0-6.0-4.26","3010289","co38314","norming","","","","","","",""
"null","../img/tt/1154tt.jpg","null","mooney2","image-keyboard-response","193","805042","0.0-6.0-5.26","3010289","co38314","norming","","","","","","",""
"4650.954999999143","","","post_reveal_questions","survey-likert","194","809696","0.0-6.0-6.26","3010289","co38314","norming","","","{""aha"":1}","[0]","../img/tt/1154tt.jpg","",""
"null","<div style=""font-size:60px;""> </div>","null","fixation","html-keyboard-response","195","809897","0.0-6.0-0.27","3010289","co38314","norming","","","","","","",""
"null","../img/tt/1202tt.jpg","null","mooney1","image-keyboard-response","196","812903","0.0-6.0-1.27","3010289","co38314","norming","","","","","","",""
"4701.689999999828","","","post_mooney1_questions","survey-likert","197","817608","0.0-6.0-2.27","3010289","co38314","norming","","","{""curiosity"":3,""confidence"":4}","[0,1]","../img/tt/1202tt.jpg","",""
"2862.2500000001164","","","recognition","survey-text","198","820472","0.0-6.0-3.27","3010289","co38314","norming","","","{""guess"":""persoon""}","","../img/tt/1202tt.jpg","",""
"null","../img/gs/1202gs.jpg","null","reveal","image-keyboard-response","199","822475","0.0-6.0-4.27","3010289","co38314","norming","","","","","","",""
"null","../img/tt/1202tt.jpg","null","mooney2","image-keyboard-response","200","824477","0.0-6.0-5.27","3010289","co38314","norming","","","","","","",""
"2416.5100000009406","","","post_reveal_questions","survey-likert","201","826896","0.0-6.0-6.27","3010289","co38314","norming","","","{""aha"":4}","[0]","../img/tt/1202tt.jpg","",""
"null","<div style=""font-size:60px;""> </div>","null","fixation","html-keyboard-response","202","827097","0.0-6.0-0.28","3010289","co38314","norming","","","","","","",""
"null","../img/tt/515tt.jpg","null","mooney1","image-keyboard-response","203","830103","0.0-6.0-1.28","3010289","co38314","norming","","","","","","",""
"7886.0999999996275","","","post_mooney1_questions","survey-likert","204","837992","0.0-6.0-2.28","3010289","co38314","norming","","","{""curiosity"":5,""confidence"":3}","[0,1]","../img/tt/515tt.jpg","",""
"2317.1849999999395","","","recognition","survey-text","205","840312","0.0-6.0-3.28","3010289","co38314","norming","","","{""guess"":""stoel""}","","../img/tt/515tt.jpg","",""
"null","../img/gs/515gs.jpg","null","reveal","image-keyboard-response","206","842315","0.0-6.0-4.28","3010289","co38314","norming","","","","","","",""
"null","../img/tt/515tt.jpg","null","mooney2","image-keyboard-response","207","844317","0.0-6.0-5.28","3010289","co38314","norming","","","","","","",""
"2418.11500000034","","","post_reveal_questions","survey-likert","208","846737","0.0-6.0-6.28","3010289","co38314","norming","","","{""aha"":6}","[0]","../img/tt/515tt.jpg","",""
"null","<div style=""font-size:60px;""> </div>","null","fixation","html-keyboard-response","209","846946","0.0-6.0-0.29","3010289","co38314","norming","","","","","","",""
"null","../img/tt/1242tt.jpg","null","mooney1","image-keyboard-response","210","849953","0.0-6.0-1.29","3010289","co38314","norming","","","","","","",""
"5045.114999998943","","","post_mooney1_questions","survey-likert","211","855002","0.0-6.0-2.29","3010289","co38314","norming","","","{""curiosity"":4,""confidence"":3}","[0,1]","../img/tt/1242tt.jpg","",""
"1549.9900000012713","","","recognition","survey-text","212","856553","0.0-6.0-3.29","3010289","co38314","norming","","","{""guess"":""koe""}","","../img/tt/1242tt.jpg","",""
"null","../img/gs/1242gs.jpg","null","reveal","image-keyboard-response","213","858562","0.0-6.0-4.29","3010289","co38314","norming","","","","","","",""
"null","../img/tt/1242tt.jpg","null","mooney2","image-keyboard-response","214","860565","0.0-6.0-5.29","3010289","co38314","norming","","","","","","",""
"2881.724999999278","","","post_reveal_questions","survey-likert","215","863449","0.0-6.0-6.29","3010289","co38314","norming","","","{""aha"":5}","[0]","../img/tt/1242tt.jpg","",""
"null","<div style=""font-size:60px;""> </div>","null","fixation","html-keyboard-response","216","863654","0.0-6.0-0.30","3010289","co38314","norming","","","","","","",""
"null","../img/tt/1089tt.jpg","null","mooney1","image-keyboard-response","217","866663","0.0-6.0-1.30","3010289","co38314","norming","","","","","","",""
"7551.1800000004005","","","post_mooney1_questions","survey-likert","218","874217","0.0-6.0-2.30","3010289","co38314","norming","","","{""curiosity"":4,""confidence"":4}","[0,1]","../img/tt/1089tt.jpg","",""
"7246.155000000726","","","recognition","survey-text","219","881465","0.0-6.0-3.30","3010289","co38314","norming","","","{""guess"":""stelling""}","","../img/tt/1089tt.jpg","",""
"null","../img/gs/1089gs.jpg","null","reveal","image-keyboard-response","220","883467","0.0-6.0-4.30","3010289","co38314","norming","","","","","","",""
"null","../img/tt/1089tt.jpg","null","mooney2","image-keyboard-response","221","885470","0.0-6.0-5.30","3010289","co38314","norming","","","","","","",""
"3145.255000001169","","","post_reveal_questions","survey-likert","222","888617","0.0-6.0-6.30","3010289","co38314","norming","","","{""aha"":5}","[0]","../img/tt/1089tt.jpg","",""
"null","<div style=""font-size:60px;""> </div>","null","fixation","html-keyboard-response","223","888819","0.0-6.0-0.31","3010289","co38314","norming","","","","","","",""
"null","../img/tt/273tt.jpg","null","mooney1","image-keyboard-response","224","891828","0.0-6.0-1.31","3010289","co38314","norming","","","","","","",""
"4321.680000000983","","","post_mooney1_questions","survey-likert","225","896153","0.0-6.0-2.31","3010289","co38314","norming","","","{""curiosity"":2,""confidence"":6}","[0,1]","../img/tt/273tt.jpg","",""
"1646.0050000005867","","","recognition","survey-text","226","897801","0.0-6.0-3.31","3010289","co38314","norming","","","{""guess"":""tas""}","","../img/tt/273tt.jpg","",""
"null","../img/gs/273gs.jpg","null","reveal","image-keyboard-response","227","899811","0.0-6.0-4.31","3010289","co38314","norming","","","","","","",""
"null","../img/tt/273tt.jpg","null","mooney2","image-keyboard-response","228","901812","0.0-6.0-5.31","3010289","co38314","norming","","","","","","",""
"2171.524999999674","","","post_reveal_questions","survey-likert","229","903983","0.0-6.0-6.31","3010289","co38314","norming","","","{""aha"":5}","[0]","../img/tt/273tt.jpg","",""
"null","<div style=""font-size:60px;""> </div>","null","fixation","html-keyboard-response","230","904191","0.0-6.0-0.32","3010289","co38314","norming","","","","","","",""
"null","../img/tt/1261tt.jpg","null","mooney1","image-keyboard-response","231","907201","0.0-6.0-1.32","3010289","co38314","norming","","","","","","",""
"6780.039999999688","","","post_mooney1_questions","survey-likert","232","913983","0.0-6.0-2.32","3010289","co38314","norming","","","{""curiosity"":3,""confidence"":5}","[0,1]","../img/tt/1261tt.jpg","",""
"5094.170000000275","","","recognition","survey-text","233","919079","0.0-6.0-3.32","3010289","co38314","norming","","","{""guess"":""kooi met dieren""}","","../img/tt/1261tt.jpg","",""
"null","../img/gs/1261gs.jpg","null","reveal","image-keyboard-response","234","921087","0.0-6.0-4.32","3010289","co38314","norming","","","","","","",""
"null","../img/tt/1261tt.jpg","null","mooney2","image-keyboard-response","235","923089","0.0-6.0-5.32","3010289","co38314","norming","","","","","","",""
"2068.44500000088","","","post_reveal_questions","survey-likert","236","925159","0.0-6.0-6.32","3010289","co38314","norming","","","{""aha"":3}","[0]","../img/tt/1261tt.jpg","",""
"null","<div style=""font-size:60px;""> </div>","null","fixation","html-keyboard-response","237","925361","0.0-6.0-0.33","3010289","co38314","norming","","","","","","",""
"null","../img/tt/1200tt.jpg","null","mooney1","image-keyboard-response","238","928371","0.0-6.0-1.33","3010289","co38314","norming","","","","","","",""
"6801.279999999679","","","post_mooney1_questions","survey-likert","239","935176","0.0-6.0-2.33","3010289","co38314","norming","","","{""curiosity"":2,""confidence"":5}","[0,1]","../img/tt/1200tt.jpg","",""
"11902.044999998878","","","recognition","survey-text","240","947079","0.0-6.0-3.33","3010289","co38314","norming","","","{""guess"":""mensen in boot""}","","../img/tt/1200tt.jpg","",""
"null","../img/gs/1200gs.jpg","null","reveal","image-keyboard-response","241","949081","0.0-6.0-4.33","3010289","co38314","norming","","","","","","",""
"null","../img/tt/1200tt.jpg","null","mooney2","image-keyboard-response","242","951084","0.0-6.0-5.33","3010289","co38314","norming","","","","","","",""
"2184.6700000005076","","","post_reveal_questions","survey-likert","243","953271","0.0-6.0-6.33","3010289","co38314","norming","","","{""aha"":1}","[0]","../img/tt/1200tt.jpg","",""
"null","<div style=""font-size:60px;""> </div>","null","fixation","html-keyboard-response","244","953478","0.0-6.0-0.34","3010289","co38314","norming","","","","","","",""
"null","../img/tt/063tt.jpg","null","mooney1","image-keyboard-response","245","956483","0.0-6.0-1.34","3010289","co38314","norming","","","","","","",""
"7425.505000001052","","","post_mooney1_questions","survey-likert","246","963907","0.0-6.0-2.34","3010289","co38314","norming","","","{""curiosity"":4,""confidence"":5}","[0,1]","../img/tt/063tt.jpg","",""
"4582.104999999516","","","recognition","survey-text","247","968491","0.0-6.0-3.34","3010289","co38314","norming","","","{""guess"":""machine""}","","../img/tt/063tt.jpg","",""
"null","../img/gs/063gs.jpg","null","reveal","image-keyboard-response","248","970496","0.0-6.0-4.34","3010289","co38314","norming","","","","","","",""
"null","../img/tt/063tt.jpg","null","mooney2","image-keyboard-response","249","972499","0.0-6.0-5.34","3010289","co38314","norming","","","","","","",""
"3621.264999999781","","","post_reveal_questions","survey-likert","250","976123","0.0-6.0-6.34","3010289","co38314","norming","","","{""aha"":4}","[0]","../img/tt/063tt.jpg","",""
"null","<div style=""font-size:60px;""> </div>","null","fixation","html-keyboard-response","251","976325","0.0-6.0-0.35","3010289","co38314","norming","","","","","","",""
"null","../img/tt/1275tt.jpg","null","mooney1","image-keyboard-response","252","979337","0.0-6.0-1.35","3010289","co38314","norming","","","","","","",""
"4599.640000000363","","","post_mooney1_questions","survey-likert","253","983939","0.0-6.0-2.35","3010289","co38314","norming","","","{""curiosity"":1,""confidence"":6}","[0,1]","../img/tt/1275tt.jpg","",""
"6118.065000000643","","","recognition","survey-text","254","990059","0.0-6.0-3.35","3010289","co38314","norming","","","{""guess"":""everzwijn ""}","","../img/tt/1275tt.jpg","",""
"null","../img/gs/1275gs.jpg","null","reveal","image-keyboard-response","255","992060","0.0-6.0-4.35","3010289","co38314","norming","","","","","","",""
"null","../img/tt/1275tt.jpg","null","mooney2","image-keyboard-response","256","994062","0.0-6.0-5.35","3010289","co38314","norming","","","","","","",""
"1962.779999999795","","","post_reveal_questions","survey-likert","257","996027","0.0-6.0-6.35","3010289","co38314","norming","","","{""aha"":0}","[0]","../img/tt/1275tt.jpg","",""
"null","<div style=""font-size:60px;""> </div>","null","fixation","html-keyboard-response","258","996234","0.0-6.0-0.36","3010289","co38314","norming","","","","","","",""
"null","../img/tt/1237tt.jpg","null","mooney1","image-keyboard-response","259","999239","0.0-6.0-1.36","3010289","co38314","norming","","","","","","",""
"5208.924999998999","","","post_mooney1_questions","survey-likert","260","1004451","0.0-6.0-2.36","3010289","co38314","norming","","","{""curiosity"":0,""confidence"":6}","[0,1]","../img/tt/1237tt.jpg","",""
"1357.9300000001676","","","recognition","survey-text","261","1005811","0.0-6.0-3.36","3010289","co38314","norming","","","{""guess"":""eend""}","","../img/tt/1237tt.jpg","",""
"null","../img/gs/1237gs.jpg","null","reveal","image-keyboard-response","262","1007822","0.0-6.0-4.36","3010289","co38314","norming","","","","","","",""
"null","../img/tt/1237tt.jpg","null","mooney2","image-keyboard-response","263","1009830","0.0-6.0-5.36","3010289","co38314","norming","","","","","","",""
"1594.5900000005495","","","post_reveal_questions","survey-likert","264","1011427","0.0-6.0-6.36","3010289","co38314","norming","","","{""aha"":0}","[0]","../img/tt/1237tt.jpg","",""
"null","<div style=""font-size:60px;""> </div>","null","fixation","html-keyboard-response","265","1011632","0.0-6.0-0.37","3010289","co38314","norming","","","","","","",""
"null","../img/tt/435tt.jpg","null","mooney1","image-keyboard-response","266","1014635","0.0-6.0-1.37","3010289","co38314","norming","","","","","","",""
"4037.1399999985006","","","post_mooney1_questions","survey-likert","267","1018675","0.0-6.0-2.37","3010289","co38314","norming","","","{""curiosity"":2,""confidence"":5}","[0,1]","../img/tt/435tt.jpg","",""
"1662.0399999992223","","","recognition","survey-text","268","1020339","0.0-6.0-3.37","3010289","co38314","norming","","","{""guess"":""huis""}","","../img/tt/435tt.jpg","",""
"null","../img/gs/435gs.jpg","null","reveal","image-keyboard-response","269","1022341","0.0-6.0-4.37","3010289","co38314","norming","","","","","","",""
"null","../img/tt/435tt.jpg","null","mooney2","image-keyboard-response","270","1024355","0.0-6.0-5.37","3010289","co38314","norming","","","","","","",""
"2391.5949999990407","","","post_reveal_questions","survey-likert","271","1026749","0.0-6.0-6.37","3010289","co38314","norming","","","{""aha"":4}","[0]","../img/tt/435tt.jpg","",""
"null","<div style=""font-size:60px;""> </div>","null","fixation","html-keyboard-response","272","1026950","0.0-6.0-0.38","3010289","co38314","norming","","","","","","",""
"null","../img/tt/1205tt.jpg","null","mooney1","image-keyboard-response","273","1029960","0.0-6.0-1.38","3010289","co38314","norming","","","","","","",""
"4667.22999999905","","","post_mooney1_questions","survey-likert","274","1034629","0.0-6.0-2.38","3010289","co38314","norming","","","{""curiosity"":2,""confidence"":5}","[0,1]","../img/tt/1205tt.jpg","",""
"2774.1550000009593","","","recognition","survey-text","275","1037405","0.0-6.0-3.38","3010289","co38314","norming","","","{""guess"":""optreden""}","","../img/tt/1205tt.jpg","",""
"null","../img/gs/1205gs.jpg","null","reveal","image-keyboard-response","276","1039408","0.0-6.0-4.38","3010289","co38314","norming","","","","","","",""
"null","../img/tt/1205tt.jpg","null","mooney2","image-keyboard-response","277","1041412","0.0-6.0-5.38","3010289","co38314","norming","","","","","","",""
"1966.7499999995343","","","post_reveal_questions","survey-likert","278","1043381","0.0-6.0-6.38","3010289","co38314","norming","","","{""aha"":2}","[0]","../img/tt/1205tt.jpg","",""
"null","<div style=""font-size:60px;""> </div>","null","fixation","html-keyboard-response","279","1043583","0.0-6.0-0.39","3010289","co38314","norming","","","","","","",""
"null","../img/tt/1227tt.jpg","null","mooney1","image-keyboard-response","280","1046589","0.0-6.0-1.39","3010289","co38314","norming","","","","","","",""
"2852.5800000006566","","","post_mooney1_questions","survey-likert","281","1049445","0.0-6.0-2.39","3010289","co38314","norming","","","{""curiosity"":6,""confidence"":0}","[0,1]","../img/tt/1227tt.jpg","",""
"774.0049999991897","","","recognition","survey-text","282","1050221","0.0-6.0-3.39","3010289","co38314","norming","","","{""guess"":""""}","","../img/tt/1227tt.jpg","",""
"null","../img/gs/1227gs.jpg","null","reveal","image-keyboard-response","283","1052230","0.0-6.0-4.39","3010289","co38314","norming","","","","","","",""
"null","../img/tt/1227tt.jpg","null","mooney2","image-keyboard-response","284","1054237","0.0-6.0-5.39","3010289","co38314","norming","","","","","","",""
"2093.780000001192","","","post_reveal_questions","survey-likert","285","1056333","0.0-6.0-6.39","3010289","co38314","norming","","","{""aha"":6}","[0]","../img/tt/1227tt.jpg","",""
"null","<div style=""font-size:60px;""> </div>","null","fixation","html-keyboard-response","286","1056535","0.0-6.0-0.40","3010289","co38314","norming","","","","","","",""
"null","../img/tt/105tt.jpg","null","mooney1","image-keyboard-response","287","1059546","0.0-6.0-1.40","3010289","co38314","norming","","","","","","",""
"6743.674999999581","","","post_mooney1_questions","survey-likert","288","1066293","0.0-6.0-2.40","3010289","co38314","norming","","","{""curiosity"":6,""confidence"":2}","[0,1]","../img/tt/105tt.jpg","",""
"6197.860000000335","","","recognition","survey-text","289","1072493","0.0-6.0-3.40","3010289","co38314","norming","","","{""guess"":""plantencel""}","","../img/tt/105tt.jpg","",""
"null","../img/gs/105gs.jpg","null","reveal","image-keyboard-response","290","1074495","0.0-6.0-4.40","3010289","co38314","norming","","","","","","",""
"null","../img/tt/105tt.jpg","null","mooney2","image-keyboard-response","291","1076498","0.0-6.0-5.40","3010289","co38314","norming","","","","","","",""
"3425.5449999999255","","","post_reveal_questions","survey-likert","292","1079925","0.0-6.0-6.40","3010289","co38314","norming","","","{""aha"":5}","[0]","../img/tt/105tt.jpg","",""
"null","<div style=""font-size:60px;""> </div>","null","fixation","html-keyboard-response","293","1080135","0.0-6.0-0.41","3010289","co38314","norming","","","","","","",""
"null","../img/tt/1224tt.jpg","null","mooney1","image-keyboard-response","294","1083138","0.0-6.0-1.41","3010289","co38314","norming","","","","","","",""
"4495.339999999618","","","post_mooney1_questions","survey-likert","295","1087635","0.0-6.0-2.41","3010289","co38314","norming","","","{""curiosity"":2,""confidence"":5}","[0,1]","../img/tt/1224tt.jpg","",""
"4982.154999999562","","","recognition","survey-text","296","1092619","0.0-6.0-3.41","3010289","co38314","norming","","","{""guess"":""zingende persoon""}","","../img/tt/1224tt.jpg","",""
"null","../img/gs/1224gs.jpg","null","reveal","image-keyboard-response","297","1094626","0.0-6.0-4.41","3010289","co38314","norming","","","","","","",""
"null","../img/tt/1224tt.jpg","null","mooney2","image-keyboard-response","298","1096636","0.0-6.0-5.41","3010289","co38314","norming","","","","","","",""
"2853.015000000596","","","post_reveal_questions","survey-likert","299","1099491","0.0-6.0-6.41","3010289","co38314","norming","","","{""aha"":4}","[0]","../img/tt/1224tt.jpg","",""
"null","<div style=""font-size:60px;""> </div>","null","fixation","html-keyboard-response","300","1099694","0.0-6.0-0.42","3010289","co38314","norming","","","","","","",""
"null","../img/tt/1048tt.jpg","null","mooney1","image-keyboard-response","301","1102699","0.0-6.0-1.42","3010289","co38314","norming","","","","","","",""
"3733.4250000005122","","","post_mooney1_questions","survey-likert","302","1106436","0.0-6.0-2.42","3010289","co38314","norming","","","{""curiosity"":2,""confidence"":5}","[0,1]","../img/tt/1048tt.jpg","",""
"2182.019999998389","","","recognition","survey-text","303","1108619","0.0-6.0-3.42","3010289","co38314","norming","","","{""guess"":""boom""}","","../img/tt/1048tt.jpg","",""
"null","../img/gs/1048gs.jpg","null","reveal","image-keyboard-response","304","1110625","0.0-6.0-4.42","3010289","co38314","norming","","","","","","",""
"null","../img/tt/1048tt.jpg","null","mooney2","image-keyboard-response","305","1112628","0.0-6.0-5.42","3010289","co38314","norming","","","","","","",""
"3285.2500000006985","","","post_reveal_questions","survey-likert","306","1115915","0.0-6.0-6.42","3010289","co38314","norming","","","{""aha"":4}","[0]","../img/tt/1048tt.jpg","",""
"null","<div style=""font-size:60px;""> </div>","null","fixation","html-keyboard-response","307","1116117","0.0-6.0-0.43","3010289","co38314","norming","","","","","","",""
"null","../img/tt/1122tt.jpg","null","mooney1","image-keyboard-response","308","1119123","0.0-6.0-1.43","3010289","co38314","norming","","","","","","",""
"3637.0800000003073","","","post_mooney1_questions","survey-likert","309","1122764","0.0-6.0-2.43","3010289","co38314","norming","","","{""curiosity"":0,""confidence"":6}","[0,1]","../img/tt/1122tt.jpg","",""
"3997.994999999646","","","recognition","survey-text","310","1126763","0.0-6.0-3.43","3010289","co38314","norming","","","{""guess"":""haven met boot""}","","../img/tt/1122tt.jpg","",""
"null","../img/gs/1122gs.jpg","null","reveal","image-keyboard-response","311","1128770","0.0-6.0-4.43","3010289","co38314","norming","","","","","","",""
"null","../img/tt/1122tt.jpg","null","mooney2","image-keyboard-response","312","1130777","0.0-6.0-5.43","3010289","co38314","norming","","","","","","",""
"2567.859999999171","","","post_reveal_questions","survey-likert","313","1133348","0.0-6.0-6.43","3010289","co38314","norming","","","{""aha"":0}","[0]","../img/tt/1122tt.jpg","",""
"null","<div style=""font-size:60px;""> </div>","null","fixation","html-keyboard-response","314","1133550","0.0-6.0-0.44","3010289","co38314","norming","","","","","","",""
"null","../img/tt/1362tt.jpg","null","mooney1","image-keyboard-response","315","1136558","0.0-6.0-1.44","3010289","co38314","norming","","","","","","",""
"4739.084999999264","","","post_mooney1_questions","survey-likert","316","1141300","0.0-6.0-2.44","3010289","co38314","norming","","","{""curiosity"":2,""confidence"":5}","[0,1]","../img/tt/1362tt.jpg","",""
"10678.039999998873","","","recognition","survey-text","317","1151977","0.0-6.0-3.44","3010289","co38314","norming","","","{""guess"":""tafel met spullen""}","","../img/tt/1362tt.jpg","",""
"null","../img/gs/1362gs.jpg","null","reveal","image-keyboard-response","318","1153979","0.0-6.0-4.44","3010289","co38314","norming","","","","","","",""
"null","../img/tt/1362tt.jpg","null","mooney2","image-keyboard-response","319","1155980","0.0-6.0-5.44","3010289","co38314","norming","","","","","","",""
"1601.7499999997672","","","post_reveal_questions","survey-likert","320","1157585","0.0-6.0-6.44","3010289","co38314","norming","","","{""aha"":4}","[0]","../img/tt/1362tt.jpg","",""
"null","<div style=""font-size:60px;""> </div>","null","fixation","html-keyboard-response","321","1157786","0.0-6.0-0.45","3010289","co38314","norming","","","","","","",""
"null","../img/tt/416tt.jpg","null","mooney1","image-keyboard-response","322","1160790","0.0-6.0-1.45","3010289","co38314","norming","","","","","","",""
"4295.074999999953","","","post_mooney1_questions","survey-likert","323","1165089","0.0-6.0-2.45","3010289","co38314","norming","","","{""curiosity"":2,""confidence"":6}","[0,1]","../img/tt/416tt.jpg","",""
"11854.19999999972","","","recognition","survey-text","324","1176945","0.0-6.0-3.45","3010289","co38314","norming","","","{""guess"":""austrich""}","","../img/tt/416tt.jpg","",""
"null","../img/gs/416gs.jpg","null","reveal","image-keyboard-response","325","1178946","0.0-6.0-4.45","3010289","co38314","norming","","","","","","",""
"null","../img/tt/416tt.jpg","null","mooney2","image-keyboard-response","326","1180953","0.0-6.0-5.45","3010289","co38314","norming","","","","","","",""
"3076.8249999999534","","","post_reveal_questions","survey-likert","327","1184033","0.0-6.0-6.45","3010289","co38314","norming","","","{""aha"":0}","[0]","../img/tt/416tt.jpg","",""
"null","<div style=""font-size:60px;""> </div>","null","fixation","html-keyboard-response","328","1184234","0.0-6.0-0.46","3010289","co38314","norming","","","","","","",""
"null","../img/tt/1173tt.jpg","null","mooney1","image-keyboard-response","329","1187242","0.0-6.0-1.46","3010289","co38314","norming","","","","","","",""
"4372.030000000261","","","post_mooney1_questions","survey-likert","330","1191617","0.0-6.0-2.46","3010289","co38314","norming","","","{""curiosity"":0,""confidence"":6}","[0,1]","../img/tt/1173tt.jpg","",""
"3077.879999998957","","","recognition","survey-text","331","1194697","0.0-6.0-3.46","3010289","co38314","norming","","","{""guess"":""voetballers""}","","../img/tt/1173tt.jpg","",""
"null","../img/gs/1173gs.jpg","null","reveal","image-keyboard-response","332","1196707","0.0-6.0-4.46","3010289","co38314","norming","","","","","","",""
"null","../img/tt/1173tt.jpg","null","mooney2","image-keyboard-response","333","1198716","0.0-6.0-5.46","3010289","co38314","norming","","","","","","",""
"3250.3200000009965","","","post_reveal_questions","survey-likert","334","1201969","0.0-6.0-6.46","3010289","co38314","norming","","","{""aha"":3}","[0]","../img/tt/1173tt.jpg","",""
"null","<div style=""font-size:60px;""> </div>","null","fixation","html-keyboard-response","335","1202170","0.0-6.0-0.47","3010289","co38314","norming","","","","","","",""
"null","../img/tt/036tt.jpg","null","mooney1","image-keyboard-response","336","1205173","0.0-6.0-1.47","3010289","co38314","norming","","","","","","",""
"4112.890000000363","","","post_mooney1_questions","survey-likert","337","1209289","0.0-6.0-2.47","3010289","co38314","norming","","","{""curiosity"":3,""confidence"":5}","[0,1]","../img/tt/036tt.jpg","",""
"3421.7350000017323","","","recognition","survey-text","338","1212713","0.0-6.0-3.47","3010289","co38314","norming","","","{""guess"":""bliksem""}","","../img/tt/036tt.jpg","",""
"null","../img/gs/036gs.jpg","null","reveal","image-keyboard-response","339","1214715","0.0-6.0-4.47","3010289","co38314","norming","","","","","","",""
"null","../img/tt/036tt.jpg","null","mooney2","image-keyboard-response","340","1216720","0.0-6.0-5.47","3010289","co38314","norming","","","","","","",""
"2784.10500000068","","","post_reveal_questions","survey-likert","341","1219505","0.0-6.0-6.47","3010289","co38314","norming","","","{""aha"":1}","[0]","../img/tt/036tt.jpg","",""
"null","<div style=""font-size:60px;""> </div>","null","fixation","html-keyboard-response","342","1219712","0.0-6.0-0.48","3010289","co38314","norming","","","","","","",""
"null","../img/tt/279tt.jpg","null","mooney1","image-keyboard-response","343","1222723","0.0-6.0-1.48","3010289","co38314","norming","","","","","","",""
"5394.905000000959","","","post_mooney1_questions","survey-likert","344","1228121","0.0-6.0-2.48","3010289","co38314","norming","","","{""curiosity"":6,""confidence"":2}","[0,1]","../img/tt/279tt.jpg","",""
"5517.934999999823","","","recognition","survey-text","345","1233640","0.0-6.0-3.48","3010289","co38314","norming","","","{""guess"":""jungle""}","","../img/tt/279tt.jpg","",""
"null","../img/gs/279gs.jpg","null","reveal","image-keyboard-response","346","1235645","0.0-6.0-4.48","3010289","co38314","norming","","","","","","",""
"null","../img/tt/279tt.jpg","null","mooney2","image-keyboard-response","347","1237655","0.0-6.0-5.48","3010289","co38314","norming","","","","","","",""
"3976.434999998659","","","post_reveal_questions","survey-likert","348","1241633","0.0-6.0-6.48","3010289","co38314","norming","","","{""aha"":4}","[0]","../img/tt/279tt.jpg","",""
"null","<div style=""font-size:60px;""> </div>","null","fixation","html-keyboard-response","349","1241844","0.0-6.0-0.49","3010289","co38314","norming","","","","","","",""
"null","../img/tt/1196tt.jpg","null","mooney1","image-keyboard-response","350","1244853","0.0-6.0-1.49","3010289","co38314","norming","","","","","","",""
"5872.310000000754","","","post_mooney1_questions","survey-likert","351","1250728","0.0-6.0-2.49","3010289","co38314","norming","","","{""curiosity"":5,""confidence"":5}","[0,1]","../img/tt/1196tt.jpg","",""
"4030.4349999988917","","","recognition","survey-text","352","1254761","0.0-6.0-3.49","3010289","co38314","norming","","","{""guess"":""persoon op troon""}","","../img/tt/1196tt.jpg","",""
"null","../img/gs/1196gs.jpg","null","reveal","image-keyboard-response","353","1256762","0.0-6.0-4.49","3010289","co38314","norming","","","","","","",""
"null","../img/tt/1196tt.jpg","null","mooney2","image-keyboard-response","354","1258770","0.0-6.0-5.49","3010289","co38314","norming","","","","","","",""
"2635.544999999227","","","post_reveal_questions","survey-likert","355","1261408","0.0-6.0-6.49","3010289","co38314","norming","","","{""aha"":5}","[0]","../img/tt/1196tt.jpg","",""
"null","<div style=""font-size:60px;""> </div>","null","fixation","html-keyboard-response","356","1261620","0.0-6.0-0.50","3010289","co38314","norming","","","","","","",""
"null","../img/tt/1125tt.jpg","null","mooney1","image-keyboard-response","357","1264631","0.0-6.0-1.50","3010289","co38314","norming","","","","","","",""
"4926.664999999106","","","post_mooney1_questions","survey-likert","358","1269561","0.0-6.0-2.50","3010289","co38314","norming","","","{""curiosity"":5,""confidence"":4}","[0,1]","../img/tt/1125tt.jpg","",""
"5566.155000000494","","","recognition","survey-text","359","1275135","0.0-6.0-3.50","3010289","co38314","norming","","","{""guess"":""2 personen""}","","../img/tt/1125tt.jpg","",""
"null","../img/gs/1125gs.jpg","null","reveal","image-keyboard-response","360","1277141","0.0-6.0-4.50","3010289","co38314","norming","","","","","","",""
"null","../img/tt/1125tt.jpg","null","mooney2","image-keyboard-response","361","1279152","0.0-6.0-5.50","3010289","co38314","norming","","","","","","",""
"2468.684999999823","","","post_reveal_questions","survey-likert","362","1281624","0.0-6.0-6.50","3010289","co38314","norming","","","{""aha"":4}","[0]","../img/tt/1125tt.jpg","",""
"null","<div style=""font-size:60px;""> </div>","null","fixation","html-keyboard-response","363","1281825","0.0-6.0-0.51","3010289","co38314","norming","","","","","","",""
"null","../img/tt/1084tt.jpg","null","mooney1","image-keyboard-response","364","1284837","0.0-6.0-1.51","3010289","co38314","norming","","","","","","",""
"4327.434999999125","","","post_mooney1_questions","survey-likert","365","1289168","0.0-6.0-2.51","3010289","co38314","norming","","","{""curiosity"":4,""confidence"":4}","[0,1]","../img/tt/1084tt.jpg","",""
"3725.945000000065","","","recognition","survey-text","366","1292896","0.0-6.0-3.51","3010289","co38314","norming","","","{""guess"":""platendraaier""}","","../img/tt/1084tt.jpg","",""
"null","../img/gs/1084gs.jpg","null","reveal","image-keyboard-response","367","1294897","0.0-6.0-4.51","3010289","co38314","norming","","","","","","",""
"null","../img/tt/1084tt.jpg","null","mooney2","image-keyboard-response","368","1296898","0.0-6.0-5.51","3010289","co38314","norming","","","","","","",""
"1514.5150000008289","","","post_reveal_questions","survey-likert","369","1298416","0.0-6.0-6.51","3010289","co38314","norming","","","{""aha"":5}","[0]","../img/tt/1084tt.jpg","",""
"null","<div style=""font-size:60px;""> </div>","null","fixation","html-keyboard-response","370","1298617","0.0-6.0-0.52","3010289","co38314","norming","","","","","","",""
"null","../img/tt/040tt.jpg","null","mooney1","image-keyboard-response","371","1301623","0.0-6.0-1.52","3010289","co38314","norming","","","","","","",""
"4349.544999999227","","","post_mooney1_questions","survey-likert","372","1305976","0.0-6.0-2.52","3010289","co38314","norming","","","{""curiosity"":6,""confidence"":3}","[0,1]","../img/tt/040tt.jpg","",""
"4518.030000000959","","","recognition","survey-text","373","1310496","0.0-6.0-3.52","3010289","co38314","norming","","","{""guess"":""hond""}","","../img/tt/040tt.jpg","",""
"null","../img/gs/040gs.jpg","null","reveal","image-keyboard-response","374","1312499","0.0-6.0-4.52","3010289","co38314","norming","","","","","","",""
"null","../img/tt/040tt.jpg","null","mooney2","image-keyboard-response","375","1314501","0.0-6.0-5.52","3010289","co38314","norming","","","","","","",""
"2015.924999999581","","","post_reveal_questions","survey-likert","376","1316520","0.0-6.0-6.52","3010289","co38314","norming","","","{""aha"":5}","[0]","../img/tt/040tt.jpg","",""
"null","<div style=""font-size:60px;""> </div>","null","fixation","html-keyboard-response","377","1316721","0.0-6.0-0.53","3010289","co38314","norming","","","","","","",""
"null","../img/tt/584tt.jpg","null","mooney1","image-keyboard-response","378","1319727","0.0-6.0-1.53","3010289","co38314","norming","","","","","","",""
"5183.43999999878","","","post_mooney1_questions","survey-likert","379","1324912","0.0-6.0-2.53","3010289","co38314","norming","","","{""curiosity"":5,""confidence"":4}","[0,1]","../img/tt/584tt.jpg","",""
"4030.075000000419","","","recognition","survey-text","380","1328943","0.0-6.0-3.53","3010289","co38314","norming","","","{""guess"":""gebroken glas""}","","../img/tt/584tt.jpg","",""
"null","../img/gs/584gs.jpg","null","reveal","image-keyboard-response","381","1330947","0.0-6.0-4.53","3010289","co38314","norming","","","","","","",""
"null","../img/tt/584tt.jpg","null","mooney2","image-keyboard-response","382","1332951","0.0-6.0-5.53","3010289","co38314","norming","","","","","","",""
"2063.225000001723","","","post_reveal_questions","survey-likert","383","1335017","0.0-6.0-6.53","3010289","co38314","norming","","","{""aha"":4}","[0]","../img/tt/584tt.jpg","",""
"null","<div style=""font-size:60px;""> </div>","null","fixation","html-keyboard-response","384","1335226","0.0-6.0-0.54","3010289","co38314","norming","","","","","","",""
"null","../img/tt/1254tt.jpg","null","mooney1","image-keyboard-response","385","1338237","0.0-6.0-1.54","3010289","co38314","norming","","","","","","",""
"5752.32500000135","","","post_mooney1_questions","survey-likert","386","1343993","0.0-6.0-2.54","3010289","co38314","norming","","","{""curiosity"":4,""confidence"":4}","[0,1]","../img/tt/1254tt.jpg","",""
"3669.765000000596","","","recognition","survey-text","387","1347664","0.0-6.0-3.54","3010289","co38314","norming","","","{""guess"":""2 honden""}","","../img/tt/1254tt.jpg","",""
"null","../img/gs/1254gs.jpg","null","reveal","image-keyboard-response","388","1349666","0.0-6.0-4.54","3010289","co38314","norming","","","","","","",""
"null","../img/tt/1254tt.jpg","null","mooney2","image-keyboard-response","389","1351668","0.0-6.0-5.54","3010289","co38314","norming","","","","","","",""
"3211.9799999999814","","","post_reveal_questions","survey-likert","390","1354881","0.0-6.0-6.54","3010289","co38314","norming","","","{""aha"":5}","[0]","../img/tt/1254tt.jpg","",""
"null","<div style=""font-size:60px;""> </div>","null","fixation","html-keyboard-response","391","1355088","0.0-6.0-0.55","3010289","co38314","norming","","","","","","",""
"null","../img/tt/1148tt.jpg","null","mooney1","image-keyboard-response","392","1358093","0.0-6.0-1.55","3010289","co38314","norming","","","","","","",""
"4304.729999999981","","","post_mooney1_questions","survey-likert","393","1362401","0.0-6.0-2.55","3010289","co38314","norming","","","{""curiosity"":4,""confidence"":5}","[0,1]","../img/tt/1148tt.jpg","",""
"5790.085000000661","","","recognition","survey-text","394","1368192","0.0-6.0-3.55","3010289","co38314","norming","","","{""guess"":""constructie""}","","../img/tt/1148tt.jpg","",""
"null","../img/gs/1148gs.jpg","null","reveal","image-keyboard-response","395","1370200","0.0-6.0-4.55","3010289","co38314","norming","","","","","","",""
"null","../img/tt/1148tt.jpg","null","mooney2","image-keyboard-response","396","1372202","0.0-6.0-5.55","3010289","co38314","norming","","","","","","",""
"3628.070000000531","","","post_reveal_questions","survey-likert","397","1375832","0.0-6.0-6.55","3010289","co38314","norming","","","{""aha"":6}","[0]","../img/tt/1148tt.jpg","",""
"null","<div style=""font-size:60px;""> </div>","null","fixation","html-keyboard-response","398","1376036","0.0-6.0-0.56","3010289","co38314","norming","","","","","","",""
"null","../img/tt/060tt.jpg","null","mooney1","image-keyboard-response","399","1379038","0.0-6.0-1.56","3010289","co38314","norming","","","","","","",""
"3470.54000000027","","","post_mooney1_questions","survey-likert","400","1382512","0.0-6.0-2.56","3010289","co38314","norming","","","{""curiosity"":6,""confidence"":2}","[0,1]","../img/tt/060tt.jpg","",""
"2894.5149999998976","","","recognition","survey-text","401","1385409","0.0-6.0-3.56","3010289","co38314","norming","","","{""guess"":""haburger""}","","../img/tt/060tt.jpg","",""
"null","../img/gs/060gs.jpg","null","reveal","image-keyboard-response","402","1387416","0.0-6.0-4.56","3010289","co38314","norming","","","","","","",""
"null","../img/tt/060tt.jpg","null","mooney2","image-keyboard-response","403","1389418","0.0-6.0-5.56","3010289","co38314","norming","","","","","","",""
"2235.549999999348","","","post_reveal_questions","survey-likert","404","1391656","0.0-6.0-6.56","3010289","co38314","norming","","","{""aha"":2}","[0]","../img/tt/060tt.jpg","",""
"null","<div style=""font-size:60px;""> </div>","null","fixation","html-keyboard-response","405","1391858","0.0-6.0-0.57","3010289","co38314","norming","","","","","","",""
"null","../img/tt/064tt.jpg","null","mooney1","image-keyboard-response","406","1394870","0.0-6.0-1.57","3010289","co38314","norming","","","","","","",""
"5782.689999999944","","","post_mooney1_questions","survey-likert","407","1400657","0.0-6.0-2.57","3010289","co38314","norming","","","{""curiosity"":5,""confidence"":2}","[0,1]","../img/tt/064tt.jpg","",""
"4142.214999999851","","","recognition","survey-text","408","1404801","0.0-6.0-3.57","3010289","co38314","norming","","","{""guess"":""vrouw op rots""}","","../img/tt/064tt.jpg","",""
"null","../img/gs/064gs.jpg","null","reveal","image-keyboard-response","409","1406803","0.0-6.0-4.57","3010289","co38314","norming","","","","","","",""
"null","../img/tt/064tt.jpg","null","mooney2","image-keyboard-response","410","1408804","0.0-6.0-5.57","3010289","co38314","norming","","","","","","",""
"2297.810000000056","","","post_reveal_questions","survey-likert","411","1411105","0.0-6.0-6.57","3010289","co38314","norming","","","{""aha"":4}","[0]","../img/tt/064tt.jpg","",""
"null","<div style=""font-size:60px;""> </div>","null","fixation","html-keyboard-response","412","1411306","0.0-6.0-0.58","3010289","co38314","norming","","","","","","",""
"null","../img/tt/189tt.jpg","null","mooney1","image-keyboard-response","413","1414310","0.0-6.0-1.58","3010289","co38314","norming","","","","","","",""
"6239.4399999994785","","","post_mooney1_questions","survey-likert","414","1420553","0.0-6.0-2.58","3010289","co38314","norming","","","{""curiosity"":5,""confidence"":2}","[0,1]","../img/tt/189tt.jpg","",""
"6774.21000000136","","","recognition","survey-text","415","1427329","0.0-6.0-3.58","3010289","co38314","norming","","","{""guess"":""kip""}","","../img/tt/189tt.jpg","",""
"null","../img/gs/189gs.jpg","null","reveal","image-keyboard-response","416","1429339","0.0-6.0-4.58","3010289","co38314","norming","","","","","","",""
"null","../img/tt/189tt.jpg","null","mooney2","image-keyboard-response","417","1431341","0.0-6.0-5.58","3010289","co38314","norming","","","","","","",""
"1352.7200000006706","","","post_reveal_questions","survey-likert","418","1432697","0.0-6.0-6.58","3010289","co38314","norming","","","{""aha"":5}","[0]","../img/tt/189tt.jpg","",""
"null","<div style=""font-size:60px;""> </div>","null","fixation","html-keyboard-response","419","1432898","0.0-6.0-0.59","3010289","co38314","norming","","","","","","",""
"null","../img/tt/1055tt.jpg","null","mooney1","image-keyboard-response","420","1435905","0.0-6.0-1.59","3010289","co38314","norming","","","","","","",""
"7292.094999998808","","","post_mooney1_questions","survey-likert","421","1443201","0.0-6.0-2.59","3010289","co38314","norming","","","{""curiosity"":4,""confidence"":4}","[0,1]","../img/tt/1055tt.jpg","",""
"10893.739999999525","","","recognition","survey-text","422","1454097","0.0-6.0-3.59","3010289","co38314","norming","","","{""guess"":""omgestootte glas""}","","../img/tt/1055tt.jpg","",""
"null","../img/gs/1055gs.jpg","null","reveal","image-keyboard-response","423","1456099","0.0-6.0-4.59","3010289","co38314","norming","","","","","","",""
"null","../img/tt/1055tt.jpg","null","mooney2","image-keyboard-response","424","1458107","0.0-6.0-5.59","3010289","co38314","norming","","","","","","",""
"3730.684999998659","","","post_reveal_questions","survey-likert","425","1461841","0.0-6.0-6.59","3010289","co38314","norming","","","{""aha"":3}","[0]","../img/tt/1055tt.jpg","",""
"null","<div style=""font-size:60px;""> </div>","null","fixation","html-keyboard-response","426","1462045","0.0-6.0-0.60","3010289","co38314","norming","","","","","","",""
"null","../img/tt/1027tt.jpg","null","mooney1","image-keyboard-response","427","1465049","0.0-6.0-1.60","3010289","co38314","norming","","","","","","",""
"3653.220000000205","","","post_mooney1_questions","survey-likert","428","1468705","0.0-6.0-2.60","3010289","co38314","norming","","","{""curiosity"":1,""confidence"":6}","[0,1]","../img/tt/1027tt.jpg","",""
"1310.3049999990035","","","recognition","survey-text","429","1470017","0.0-6.0-3.60","3010289","co38314","norming","","","{""guess"":""koe""}","","../img/tt/1027tt.jpg","",""
"null","../img/gs/1027gs.jpg","null","reveal","image-keyboard-response","430","1472019","0.0-6.0-4.60","3010289","co38314","norming","","","","","","",""
"null","../img/tt/1027tt.jpg","null","mooney2","image-keyboard-response","431","1474030","0.0-6.0-5.60","3010289","co38314","norming","","","","","","",""
"1679.6149999990594","","","post_reveal_questions","survey-likert","432","1475713","0.0-6.0-6.60","3010289","co38314","norming","","","{""aha"":0}","[0]","../img/tt/1027tt.jpg","",""
"null","<div style=""font-size:60px;""> </div>","null","fixation","html-keyboard-response","433","1475914","0.0-6.0-0.61","3010289","co38314","norming","","","","","","",""
"null","../img/tt/1070tt.jpg","null","mooney1","image-keyboard-response","434","1478926","0.0-6.0-1.61","3010289","co38314","norming","","","","","","",""
"3759.3600000001024","","","post_mooney1_questions","survey-likert","435","1482689","0.0-6.0-2.61","3010289","co38314","norming","","","{""curiosity"":0,""confidence"":6}","[0,1]","../img/tt/1070tt.jpg","",""
"1485.8850000000093","","","recognition","survey-text","436","1484177","0.0-6.0-3.61","3010289","co38314","norming","","","{""guess"":""cake""}","","../img/tt/1070tt.jpg","",""
"null","../img/gs/1070gs.jpg","null","reveal","image-keyboard-response","437","1486178","0.0-6.0-4.61","3010289","co38314","norming","","","","","","",""
"null","../img/tt/1070tt.jpg","null","mooney2","image-keyboard-response","438","1488189","0.0-6.0-5.61","3010289","co38314","norming","","","","","","",""
"3768.5349999992177","","","post_reveal_questions","survey-likert","439","1491961","0.0-6.0-6.61","3010289","co38314","norming","","","{""aha"":0}","[0]","../img/tt/1070tt.jpg","",""
"null","<div style=""font-size:60px;""> </div>","null","fixation","html-keyboard-response","440","1492168","0.0-6.0-0.62","3010289","co38314","norming","","","","","","",""
"null","../img/tt/056tt.jpg","null","mooney1","image-keyboard-response","441","1495173","0.0-6.0-1.62","3010289","co38314","norming","","","","","","",""
"3567.8250000001863","","","post_mooney1_questions","survey-likert","442","1498745","0.0-6.0-2.62","3010289","co38314","norming","","","{""curiosity"":6,""confidence"":1}","[0,1]","../img/tt/056tt.jpg","",""
"6134.044999998761","","","recognition","survey-text","443","1504881","0.0-6.0-3.62","3010289","co38314","norming","","","{""guess"":""persoon die springt""}","","../img/tt/056tt.jpg","",""
"null","../img/gs/056gs.jpg","null","reveal","image-keyboard-response","444","1506883","0.0-6.0-4.62","3010289","co38314","norming","","","","","","",""
"null","../img/tt/056tt.jpg","null","mooney2","image-keyboard-response","445","1508890","0.0-6.0-5.62","3010289","co38314","norming","","","","","","",""
"1779.9699999997392","","","post_reveal_questions","survey-likert","446","1510673","0.0-6.0-6.62","3010289","co38314","norming","","","{""aha"":5}","[0]","../img/tt/056tt.jpg","",""
"null","<div style=""font-size:60px;""> </div>","null","fixation","html-keyboard-response","447","1510880","0.0-6.0-0.63","3010289","co38314","norming","","","","","","",""
"null","../img/tt/1151tt.jpg","null","mooney1","image-keyboard-response","448","1513885","0.0-6.0-1.63","3010289","co38314","norming","","","","","","",""
"4673.235000000335","","","post_mooney1_questions","survey-likert","449","1518558","0.0-6.0-2.63","3010289","co38314","norming","","","{""curiosity"":4,""confidence"":3}","[0,1]","../img/tt/1151tt.jpg","",""
"2046.0849999999627","","","recognition","survey-text","450","1520605","0.0-6.0-3.63","3010289","co38314","norming","","","{""guess"":""bloem""}","","../img/tt/1151tt.jpg","",""
"null","../img/gs/1151gs.jpg","null","reveal","image-keyboard-response","451","1522610","0.0-6.0-4.63","3010289","co38314","norming","","","","","","",""
"null","../img/tt/1151tt.jpg","null","mooney2","image-keyboard-response","452","1524615","0.0-6.0-5.63","3010289","co38314","norming","","","","","","",""
"2259.5400000009686","","","post_reveal_questions","survey-likert","453","1526877","0.0-6.0-6.63","3010289","co38314","norming","","","{""aha"":4}","[0]","../img/tt/1151tt.jpg","",""
"null","<div style=""font-size:60px;""> </div>","null","fixation","html-keyboard-response","454","1527086","0.0-6.0-0.64","3010289","co38314","norming","","","","","","",""
"null","../img/tt/1024tt.jpg","null","mooney1","image-keyboard-response","455","1530091","0.0-6.0-1.64","3010289","co38314","norming","","","","","","",""
"4813.290000000037","","","post_mooney1_questions","survey-likert","456","1534910","0.0-6.0-2.64","3010289","co38314","norming","","","{""curiosity"":2,""confidence"":5}","[0,1]","../img/tt/1024tt.jpg","",""
"4302.084999999264","","","recognition","survey-text","457","1539213","0.0-6.0-3.64","3010289","co38314","norming","","","{""guess"":""persoon op stoel""}","","../img/tt/1024tt.jpg","",""
"null","../img/gs/1024gs.jpg","null","reveal","image-keyboard-response","458","1541215","0.0-6.0-4.64","3010289","co38314","norming","","","","","","",""
"null","../img/tt/1024tt.jpg","null","mooney2","image-keyboard-response","459","1543220","0.0-6.0-5.64","3010289","co38314","norming","","","","","","",""
"3021.8599999989383","","","post_reveal_questions","survey-likert","460","1546245","0.0-6.0-6.64","3010289","co38314","norming","","","{""aha"":3}","[0]","../img/tt/1024tt.jpg","",""
"null","<div style=""font-size:60px;""> </div>","null","fixation","html-keyboard-response","461","1546447","0.0-6.0-0.65","3010289","co38314","norming","","","","","","",""
"null","../img/tt/1188tt.jpg","null","mooney1","image-keyboard-response","462","1549450","0.0-6.0-1.65","3010289","co38314","norming","","","","","","",""
"3711.9400000011083","","","post_mooney1_questions","survey-likert","463","1553166","0.0-6.0-2.65","3010289","co38314","norming","","","{""curiosity"":0,""confidence"":6}","[0,1]","../img/tt/1188tt.jpg","",""
"4318.0649999994785","","","recognition","survey-text","464","1557485","0.0-6.0-3.65","3010289","co38314","norming","","","{""guess"":""fietser""}","","../img/tt/1188tt.jpg","",""
"null","../img/gs/1188gs.jpg","null","reveal","image-keyboard-response","465","1559493","0.0-6.0-4.65","3010289","co38314","norming","","","","","","",""
"null","../img/tt/1188tt.jpg","null","mooney2","image-keyboard-response","466","1561503","0.0-6.0-5.65","3010289","co38314","norming","","","","","","",""
"2539.1550000004936","","","post_reveal_questions","survey-likert","467","1564045","0.0-6.0-6.65","3010289","co38314","norming","","","{""aha"":0}","[0]","../img/tt/1188tt.jpg","",""
"null","<div style=""font-size:60px;""> </div>","null","fixation","html-keyboard-response","468","1564251","0.0-6.0-0.66","3010289","co38314","norming","","","","","","",""
"null","../img/tt/552tt.jpg","null","mooney1","image-keyboard-response","469","1567259","0.0-6.0-1.66","3010289","co38314","norming","","","","","","",""
"5118.625000000931","","","post_mooney1_questions","survey-likert","470","1572382","0.0-6.0-2.66","3010289","co38314","norming","","","{""curiosity"":2,""confidence"":5}","[0,1]","../img/tt/552tt.jpg","",""
"2286.06500000041","","","recognition","survey-text","471","1574669","0.0-6.0-3.66","3010289","co38314","norming","","","{""guess"":""eekhoorn""}","","../img/tt/552tt.jpg","",""
"null","../img/gs/552gs.jpg","null","reveal","image-keyboard-response","472","1576683","0.0-6.0-4.66","3010289","co38314","norming","","","","","","",""
"null","../img/tt/552tt.jpg","null","mooney2","image-keyboard-response","473","1578685","0.0-6.0-5.66","3010289","co38314","norming","","","","","","",""
"3721.410000000149","","","post_reveal_questions","survey-likert","474","1582409","0.0-6.0-6.66","3010289","co38314","norming","","","{""aha"":2}","[0]","../img/tt/552tt.jpg","",""
"null","<div style=""font-size:60px;""> </div>","null","fixation","html-keyboard-response","475","1582610","0.0-6.0-0.67","3010289","co38314","norming","","","","","","",""
"null","../img/tt/1128tt.jpg","null","mooney1","image-keyboard-response","476","1585621","0.0-6.0-1.67","3010289","co38314","norming","","","","","","",""
"3744.1699999999255","","","post_mooney1_questions","survey-likert","477","1589369","0.0-6.0-2.67","3010289","co38314","norming","","","{""curiosity"":1,""confidence"":5}","[0,1]","../img/tt/1128tt.jpg","",""
"5078.054999999935","","","recognition","survey-text","478","1594449","0.0-6.0-3.67","3010289","co38314","norming","","","{""guess"":""vechtsport""}","","../img/tt/1128tt.jpg","",""
"null","../img/gs/1128gs.jpg","null","reveal","image-keyboard-response","479","1596452","0.0-6.0-4.67","3010289","co38314","norming","","","","","","",""
"null","../img/tt/1128tt.jpg","null","mooney2","image-keyboard-response","480","1598457","0.0-6.0-5.67","3010289","co38314","norming","","","","","","",""
"2117.4100000008475","","","post_reveal_questions","survey-likert","481","1600577","0.0-6.0-6.67","3010289","co38314","norming","","","{""aha"":0}","[0]","../img/tt/1128tt.jpg","",""
"null","<div style=""font-size:60px;""> </div>","null","fixation","html-keyboard-response","482","1600779","0.0-6.0-0.68","3010289","co38314","norming","","","","","","",""
"null","../img/tt/079tt.jpg","null","mooney1","image-keyboard-response","483","1603783","0.0-6.0-1.68","3010289","co38314","norming","","","","","","",""
"2553.6599999996834","","","post_mooney1_questions","survey-likert","484","1606338","0.0-6.0-2.68","3010289","co38314","norming","","","{""curiosity"":0,""confidence"":6}","[0,1]","../img/tt/079tt.jpg","",""
"1085.9149999998044","","","recognition","survey-text","485","1607425","0.0-6.0-3.68","3010289","co38314","norming","","","{""guess"":""beer""}","","../img/tt/079tt.jpg","",""
"null","../img/gs/079gs.jpg","null","reveal","image-keyboard-response","486","1609432","0.0-6.0-4.68","3010289","co38314","norming","","","","","","",""
"null","../img/tt/079tt.jpg","null","mooney2","image-keyboard-response","487","1611435","0.0-6.0-5.68","3010289","co38314","norming","","","","","","",""
"1891.8599999998696","","","post_reveal_questions","survey-likert","488","1613329","0.0-6.0-6.68","3010289","co38314","norming","","","{""aha"":0}","[0]","../img/tt/079tt.jpg","",""
"null","<div style=""font-size:60px;""> </div>","null","fixation","html-keyboard-response","489","1613531","0.0-6.0-0.69","3010289","co38314","norming","","","","","","",""
"null","../img/tt/522tt.jpg","null","mooney1","image-keyboard-response","490","1616534","0.0-6.0-1.69","3010289","co38314","norming","","","","","","",""
"4256.579999999143","","","post_mooney1_questions","survey-likert","491","1620793","0.0-6.0-2.69","3010289","co38314","norming","","","{""curiosity"":6,""confidence"":2}","[0,1]","../img/tt/522tt.jpg","",""
"5446.0099999997765","","","recognition","survey-text","492","1626241","0.0-6.0-3.69","3010289","co38314","norming","","","{""guess"":""wortels van een boom""}","","../img/tt/522tt.jpg","",""
"null","../img/gs/522gs.jpg","null","reveal","image-keyboard-response","493","1628246","0.0-6.0-4.69","3010289","co38314","norming","","","","","","",""
"null","../img/tt/522tt.jpg","null","mooney2","image-keyboard-response","494","1630249","0.0-6.0-5.69","3010289","co38314","norming","","","","","","",""
"3789.6249999993015","","","post_reveal_questions","survey-likert","495","1634041","0.0-6.0-6.69","3010289","co38314","norming","","","{""aha"":4}","[0]","../img/tt/522tt.jpg","",""
"null","<div style=""font-size:60px;""> </div>","null","fixation","html-keyboard-response","496","1634244","0.0-6.0-0.70","3010289","co38314","norming","","","","","","",""
"null","../img/tt/1061tt.jpg","null","mooney1","image-keyboard-response","497","1637255","0.0-6.0-1.70","3010289","co38314","norming","","","","","","",""
"4198.945000000065","","","post_mooney1_questions","survey-likert","498","1641457","0.0-6.0-2.70","3010289","co38314","norming","","","{""curiosity"":2,""confidence"":5}","[0,1]","../img/tt/1061tt.jpg","",""
"6414.050000001211","","","recognition","survey-text","499","1647873","0.0-6.0-3.70","3010289","co38314","norming","","","{""guess"":""persoon op plein""}","","../img/tt/1061tt.jpg","",""
"null","../img/gs/1061gs.jpg","null","reveal","image-keyboard-response","500","1649877","0.0-6.0-4.70","3010289","co38314","norming","","","","","","",""
"null","../img/tt/1061tt.jpg","null","mooney2","image-keyboard-response","501","1651879","0.0-6.0-5.70","3010289","co38314","norming","","","","","","",""
"4399.284999999683","","","post_reveal_questions","survey-likert","502","1656281","0.0-6.0-6.70","3010289","co38314","norming","","","{""aha"":2}","[0]","../img/tt/1061tt.jpg","",""
"null","<div style=""font-size:60px;""> </div>","null","fixation","html-keyboard-response","503","1656482","0.0-6.0-0.71","3010289","co38314","norming","","","","","","",""
"null","../img/tt/380tt.jpg","null","mooney1","image-keyboard-response","504","1659493","0.0-6.0-1.71","3010289","co38314","norming","","","","","","",""
"6146.144999998622","","","post_mooney1_questions","survey-likert","505","1665641","0.0-6.0-2.71","3010289","co38314","norming","","","{""curiosity"":4,""confidence"":4}","[0,1]","../img/tt/380tt.jpg","",""
"1798.3299999996088","","","recognition","survey-text","506","1667441","0.0-6.0-3.71","3010289","co38314","norming","","","{""guess"":""viool""}","","../img/tt/380tt.jpg","",""
"null","../img/gs/380gs.jpg","null","reveal","image-keyboard-response","507","1669450","0.0-6.0-4.71","3010289","co38314","norming","","","","","","",""
"null","../img/tt/380tt.jpg","null","mooney2","image-keyboard-response","508","1671457","0.0-6.0-5.71","3010289","co38314","norming","","","","","","",""
"2157.670000000391","","","post_reveal_questions","survey-likert","509","1673617","0.0-6.0-6.71","3010289","co38314","norming","","","{""aha"":4}","[0]","../img/tt/380tt.jpg","",""
"null","<div style=""font-size:60px;""> </div>","null","fixation","html-keyboard-response","510","1673827","0.0-6.0-0.72","3010289","co38314","norming","","","","","","",""
"null","../img/tt/1033tt.jpg","null","mooney1","image-keyboard-response","511","1676837","0.0-6.0-1.72","3010289","co38314","norming","","","","","","",""
"5368.529999999562","","","post_mooney1_questions","survey-likert","512","1682209","0.0-6.0-2.72","3010289","co38314","norming","","","{""curiosity"":5,""confidence"":2}","[0,1]","../img/tt/1033tt.jpg","",""
"6701.960000000428","","","recognition","survey-text","513","1688913","0.0-6.0-3.72","3010289","co38314","norming","","","{""guess"":""ruimteschip""}","","../img/tt/1033tt.jpg","",""
"null","../img/gs/1033gs.jpg","null","reveal","image-keyboard-response","514","1690921","0.0-6.0-4.72","3010289","co38314","norming","","","","","","",""
"null","../img/tt/1033tt.jpg","null","mooney2","image-keyboard-response","515","1692933","0.0-6.0-5.72","3010289","co38314","norming","","","","","","",""
"1898.489999999525","","","post_reveal_questions","survey-likert","516","1694833","0.0-6.0-6.72","3010289","co38314","norming","","","{""aha"":6}","[0]","../img/tt/1033tt.jpg","",""
"null","<div style=""font-size:60px;""> </div>","null","fixation","html-keyboard-response","517","1695036","0.0-6.0-0.73","3010289","co38314","norming","","","","","","",""
"null","../img/tt/1217tt.jpg","null","mooney1","image-keyboard-response","518","1698041","0.0-6.0-1.73","3010289","co38314","norming","","","","","","",""
"4262.1049999997485","","","post_mooney1_questions","survey-likert","519","1702306","0.0-6.0-2.73","3010289","co38314","norming","","","{""curiosity"":0,""confidence"":6}","[0,1]","../img/tt/1217tt.jpg","",""
"5117.850000000559","","","recognition","survey-text","520","1707426","0.0-6.0-3.73","3010289","co38314","norming","","","{""guess"":""basketbalspelers""}","","../img/tt/1217tt.jpg","",""
"null","../img/gs/1217gs.jpg","null","reveal","image-keyboard-response","521","1709429","0.0-6.0-4.73","3010289","co38314","norming","","","","","","",""
"null","../img/tt/1217tt.jpg","null","mooney2","image-keyboard-response","522","1711435","0.0-6.0-5.73","3010289","co38314","norming","","","","","","",""
"2931.835000001127","","","post_reveal_questions","survey-likert","523","1714370","0.0-6.0-6.73","3010289","co38314","norming","","","{""aha"":1}","[0]","../img/tt/1217tt.jpg","",""
"null","<div style=""font-size:60px;""> </div>","null","fixation","html-keyboard-response","524","1714580","0.0-6.0-0.74","3010289","co38314","norming","","","","","","",""
"null","../img/tt/096tt.jpg","null","mooney1","image-keyboard-response","525","1717582","0.0-6.0-1.74","3010289","co38314","norming","","","","","","",""
"3680.6950000007637","","","post_mooney1_questions","survey-likert","526","1721266","0.0-6.0-2.74","3010289","co38314","norming","","","{""curiosity"":1,""confidence"":5}","[0,1]","../img/tt/096tt.jpg","",""
"2253.439999998547","","","recognition","survey-text","527","1723521","0.0-6.0-3.74","3010289","co38314","norming","","","{""guess"":""piano""}","","../img/tt/096tt.jpg","",""
"null","../img/gs/096gs.jpg","null","reveal","image-keyboard-response","528","1725528","0.0-6.0-4.74","3010289","co38314","norming","","","","","","",""
"null","../img/tt/096tt.jpg","null","mooney2","image-keyboard-response","529","1727534","0.0-6.0-5.74","3010289","co38314","norming","","","","","","",""
"2441.030000000028","","","post_reveal_questions","survey-likert","530","1729978","0.0-6.0-6.74","3010289","co38314","norming","","","{""aha"":0}","[0]","../img/tt/096tt.jpg","",""
"null","<div style=""font-size:60px;""> </div>","null","fixation","html-keyboard-response","531","1730179","0.0-6.0-0.75","3010289","co38314","norming","","","","","","",""
"null","../img/tt/1211tt.jpg","null","mooney1","image-keyboard-response","532","1733183","0.0-6.0-1.75","3010289","co38314","norming","","","","","","",""
"3294.0949999992736","","","post_mooney1_questions","survey-likert","533","1736482","0.0-6.0-2.75","3010289","co38314","norming","","","{""curiosity"":1,""confidence"":5}","[0,1]","../img/tt/1211tt.jpg","",""
"2398.31500000041","","","recognition","survey-text","534","1738882","0.0-6.0-3.75","3010289","co38314","norming","","","{""guess"":""golvers""}","","../img/tt/1211tt.jpg","",""
"null","../img/gs/1211gs.jpg","null","reveal","image-keyboard-response","535","1740883","0.0-6.0-4.75","3010289","co38314","norming","","","","","","",""
"null","../img/tt/1211tt.jpg","null","mooney2","image-keyboard-response","536","1742887","0.0-6.0-5.75","3010289","co38314","norming","","","","","","",""
"2543.390000000829","","","post_reveal_questions","survey-likert","537","1745434","0.0-6.0-6.75","3010289","co38314","norming","","","{""aha"":0}","[0]","../img/tt/1211tt.jpg","",""
"null","<div style=""font-size:60px;""> </div>","null","fixation","html-keyboard-response","538","1745635","0.0-6.0-0.76","3010289","co38314","norming","","","","","","",""
"null","../img/tt/1262tt.jpg","null","mooney1","image-keyboard-response","539","1748647","0.0-6.0-1.76","3010289","co38314","norming","","","","","","",""
"5606.315000000875","","","post_mooney1_questions","survey-likert","540","1754258","0.0-6.0-2.76","3010289","co38314","norming","","","{""curiosity"":5,""confidence"":2}","[0,1]","../img/tt/1262tt.jpg","",""
"4653.935000000289","","","recognition","survey-text","541","1758910","0.0-6.0-3.76","3010289","co38314","norming","","","{""guess"":""gordijn""}","","../img/tt/1262tt.jpg","",""
"null","../img/gs/1262gs.jpg","null","reveal","image-keyboard-response","542","1760921","0.0-6.0-4.76","3010289","co38314","norming","","","","","","",""
"null","../img/tt/1262tt.jpg","null","mooney2","image-keyboard-response","543","1762924","0.0-6.0-5.76","3010289","co38314","norming","","","","","","",""
"2255.314999998547","","","post_reveal_questions","survey-likert","544","1765182","0.0-6.0-6.76","3010289","co38314","norming","","","{""aha"":6}","[0]","../img/tt/1262tt.jpg","",""
"null","<div style=""font-size:60px;""> </div>","null","fixation","html-keyboard-response","545","1765383","0.0-6.0-0.77","3010289","co38314","norming","","","","","","",""
"null","../img/tt/1053tt.jpg","null","mooney1","image-keyboard-response","546","1768384","0.0-6.0-1.77","3010289","co38314","norming","","","","","","",""
"4012.704999999143","","","post_mooney1_questions","survey-likert","547","1772398","0.0-6.0-2.77","3010289","co38314","norming","","","{""curiosity"":0,""confidence"":6}","[0,1]","../img/tt/1053tt.jpg","",""
"4333.790000000503","","","recognition","survey-text","548","1776734","0.0-6.0-3.77","3010289","co38314","norming","","","{""guess"":""koeien""}","","../img/tt/1053tt.jpg","",""
"null","../img/gs/1053gs.jpg","null","reveal","image-keyboard-response","549","1778743","0.0-6.0-4.77","3010289","co38314","norming","","","","","","",""
"null","../img/tt/1053tt.jpg","null","mooney2","image-keyboard-response","550","1780746","0.0-6.0-5.77","3010289","co38314","norming","","","","","","",""
