"rt","stimulus","key_press","test_part","trial_type","trial_index","time_elapsed","internal_node_id","totalTime","subject","experiment_name","button_pressed","success","responses","question_order","currentStim","old","correct"
"2299","Welcome to the experiment. This is an online experiment so please don't close the tab/window until we say goodbye.  Press any key to begin.","13","instructions","html-keyboard-response","0","2322","0.0-0.0","2248441","co38200","norming","","","","","","",""
"6428","<div style='word-wrap: break-word; width: 900px'><h3>Please consider this information carefully before deciding whether to participate in this research</h3><ul style='text-align: left; font-size: .8em;'><li><b>Purpose of the research</b>: To examine how people process images.</li><li><b>What you will do in this research</b>:  Stimuli (images) will be presented on the computer and you will be asked different questions about them.</li><li><b>Time required</b>: Participation will take between 45 and 60 minutes to complete.</li><li><b>Risks</b>:  There are no anticipated risks associated with participating in this study. The effects of participating should be comparable to those you would experience from viewing a computer monitor for 30 minutes and using a mouse or keyboard.</li><li><b>Benefits</b>:  This study provides no benefits to you individually except for the credit. The study provides important information about the nature of perception and learning.</li><li><b>Confidentiality</b>:  Your participation in this study will remain confidential. No personally identifiable information will be associated with your data. Your de-identified data may be shared with other researchers and used in future projects.</li><li><b>Participation and withdrawal</b>:  Your participation in this study is completely voluntary and you may refuse to participate or you may choose to withdraw at any time without penalty.</li><li><b>How to contact the researchers</b>: If you have questions or concerns about your participation or payment, or want to request a summary of research findings, please contact Sander Van de Cruys (KU Leuven), at sander.vandecruys@kuleuven.be.</li></ul><p>The nature and purpose of this research have been sufficiently explained and I agree to participate in this study.  I understand that I am free to withdraw at any time without incurring any penalty.</p><p>Please consent by clicking the button below to continue. Otherwise, please exit the study at this time.</p></div>","","instructions","html-button-response","1","8755","0.0-1.0","2248441","co38200","norming","0","","","","","",""
"","","","instructions","fullscreen","2","12324","0.0-2.0","2248441","co38200","norming","","true","","","","",""
"22125","","","sona","survey-html-form","3","34452","0.0-3.0","2248441","co38200","norming","","","[{""name"":""sonaid"",""value"":""38200""},{""name"":""debrief"",""value"":""no""},{""name"":""datajoin"",""value"":""yes""}]","","","",""
"89135.00000000001","<div style='word-wrap: break-word; width: 900px'><h3>Instructions</h3><p>This experiment will have 3 parts. In the first part you will see a series of distorted images like the one below on the left. As you can see in the righthand image, the distorted images are derived from actual photographs. In what follows, you will <strong>briefly</strong> be presented with <strong>only</strong> the distorted image.</p> <div style='float: left; margin-right: 20px;'><img src='../img/018tt.jpg' height='250' width='250'></img></div><div style='float: right; margin-left: 20px;'><img src='../img/018gs.jpg' height='250' width='250'></img></div><p>Subsequently you will be asked a few questions about the image: One question on how <strong>curious</strong> you are about the solution and one on how <strong>confident</strong> you are that you know the solution.</p>Next, we ask you to make a guess on what is in the image. Note that it is OK to name just the <strong>basic level category</strong>. For example when you see a parrot in the image, 'parrot' will obviously be a correct answer but also correct is 'bird'. However, 'animal' will <strong>not</strong> be counted as a correct response. For the example above, 'rose' would be correct or 'flower', but not 'plant'. When soccer players are depicted, 'soccer', 'football', 'soccer players' will be correct, but not 'humans', 'outdoors', or 'sports'. You do not need to describe the image in full, just name the main object in it <strong>in one or two words</strong>. All images depict objects from one of the following broad level categories: animals, inanimate objects, plants, sports, vehicles, and food. Recognizing means knowing <strong>more</strong> than these broad labels for a given image. But we always encourage you to <strong>make a guess</strong> if you can. Note that you are allowed to use <strong>Dutch and English</strong> in your answers, whatever comes easiest for you.</p><p>Press any key to continue.</p></div>","32","instructions","html-keyboard-response","4","123591","0.0-4.0","2248441","co38200","norming","","","","","","",""
"22461","<div style='word-wrap: break-word; width: 900px'><h3>Instructions</h3> <p>Next, the solution image will be revealed to you and you'll be asked to indicate how strong your <strong>aha-experience</strong> was after seeing the solution. This describes the positive feeling of the 'click' you sometimes experience, when the pieces of the 'puzzle' fall together and you suddenly have 'insight' in the image.</p><img src='aha.jpg' height='188' width='250'></img><p>Note that there are no right or wrong answers. We are interested in what <strong>you</strong> see in the image and how <strong>you</strong> feel about it.</p><p>Press any key to start the experiment.</p></div>","32","instructions","html-keyboard-response","5","146054","0.0-5.0","2248441","co38200","norming","","","","","","",""
"null","<div style=""font-size:60px;""> </div>","null","fixation","html-keyboard-response","6","146256","0.0-6.0-0.0","2248441","co38200","norming","","","","","","",""
"null","../img/tt/1046tt.jpg","null","mooney1","image-keyboard-response","7","149259","0.0-6.0-1.0","2248441","co38200","norming","","","","","","",""
"6568","","","post_mooney1_questions","survey-likert","8","155830","0.0-6.0-2.0","2248441","co38200","norming","","","{""curiosity"":5,""confidence"":1}","[0,1]","../img/tt/1046tt.jpg","",""
"7506","","","recognition","survey-text","9","163346","0.0-6.0-3.0","2248441","co38200","norming","","","{""guess"":""Panda  ""}","","../img/tt/1046tt.jpg","",""
"null","../img/gs/1046gs.jpg","null","reveal","image-keyboard-response","10","165349","0.0-6.0-4.0","2248441","co38200","norming","","","","","","",""
"null","../img/tt/1046tt.jpg","null","mooney2","image-keyboard-response","11","167351","0.0-6.0-5.0","2248441","co38200","norming","","","","","","",""
"4939","","","post_reveal_questions","survey-likert","12","172292","0.0-6.0-6.0","2248441","co38200","norming","","","{""aha"":0}","[0]","../img/tt/1046tt.jpg","",""
"null","<div style=""font-size:60px;""> </div>","null","fixation","html-keyboard-response","13","172496","0.0-6.0-0.1","2248441","co38200","norming","","","","","","",""
"null","../img/tt/1154tt.jpg","null","mooney1","image-keyboard-response","14","175498","0.0-6.0-1.1","2248441","co38200","norming","","","","","","",""
"5124","","","post_mooney1_questions","survey-likert","15","180624","0.0-6.0-2.1","2248441","co38200","norming","","","{""curiosity"":5,""confidence"":0}","[0,1]","../img/tt/1154tt.jpg","",""
"3565","","","recognition","survey-text","16","184200","0.0-6.0-3.1","2248441","co38200","norming","","","{""guess"":""""}","","../img/tt/1154tt.jpg","",""
"null","../img/gs/1154gs.jpg","null","reveal","image-keyboard-response","17","186202","0.0-6.0-4.1","2248441","co38200","norming","","","","","","",""
"null","../img/tt/1154tt.jpg","null","mooney2","image-keyboard-response","18","188205","0.0-6.0-5.1","2248441","co38200","norming","","","","","","",""
"5681","","","post_reveal_questions","survey-likert","19","193888","0.0-6.0-6.1","2248441","co38200","norming","","","{""aha"":5}","[0]","../img/tt/1154tt.jpg","",""
"null","<div style=""font-size:60px;""> </div>","null","fixation","html-keyboard-response","20","194091","0.0-6.0-0.2","2248441","co38200","norming","","","","","","",""
"null","../img/tt/124tt.jpg","null","mooney1","image-keyboard-response","21","197094","0.0-6.0-1.2","2248441","co38200","norming","","","","","","",""
"6032.999999999971","","","post_mooney1_questions","survey-likert","22","203129","0.0-6.0-2.2","2248441","co38200","norming","","","{""curiosity"":3,""confidence"":4}","[0,1]","../img/tt/124tt.jpg","",""
"5401","","","recognition","survey-text","23","208538","0.0-6.0-3.2","2248441","co38200","norming","","","{""guess"":""gorilla""}","","../img/tt/124tt.jpg","",""
"null","../img/gs/124gs.jpg","null","reveal","image-keyboard-response","24","210541","0.0-6.0-4.2","2248441","co38200","norming","","","","","","",""
"null","../img/tt/124tt.jpg","null","mooney2","image-keyboard-response","25","212543","0.0-6.0-5.2","2248441","co38200","norming","","","","","","",""
"3401","","","post_reveal_questions","survey-likert","26","215946","0.0-6.0-6.2","2248441","co38200","norming","","","{""aha"":1}","[0]","../img/tt/124tt.jpg","",""
"null","<div style=""font-size:60px;""> </div>","null","fixation","html-keyboard-response","27","216150","0.0-6.0-0.3","2248441","co38200","norming","","","","","","",""
"null","../img/tt/049tt.jpg","null","mooney1","image-keyboard-response","28","219152","0.0-6.0-1.3","2248441","co38200","norming","","","","","","",""
"4782","","","post_mooney1_questions","survey-likert","29","223936","0.0-6.0-2.3","2248441","co38200","norming","","","{""curiosity"":4,""confidence"":2}","[0,1]","../img/tt/049tt.jpg","",""
"3543","","","recognition","survey-text","30","227487","0.0-6.0-3.3","2248441","co38200","norming","","","{""guess"":""krokodil""}","","../img/tt/049tt.jpg","",""
"null","../img/gs/049gs.jpg","null","reveal","image-keyboard-response","31","229490","0.0-6.0-4.3","2248441","co38200","norming","","","","","","",""
"null","../img/tt/049tt.jpg","null","mooney2","image-keyboard-response","32","231492","0.0-6.0-5.3","2248441","co38200","norming","","","","","","",""
"2711","","","post_reveal_questions","survey-likert","33","234204","0.0-6.0-6.3","2248441","co38200","norming","","","{""aha"":5}","[0]","../img/tt/049tt.jpg","",""
"null","<div style=""font-size:60px;""> </div>","null","fixation","html-keyboard-response","34","234408","0.0-6.0-0.4","2248441","co38200","norming","","","","","","",""
"null","../img/tt/1066tt.jpg","null","mooney1","image-keyboard-response","35","237410","0.0-6.0-1.4","2248441","co38200","norming","","","","","","",""
"4835.999999999971","","","post_mooney1_questions","survey-likert","36","242248","0.0-6.0-2.4","2248441","co38200","norming","","","{""curiosity"":4,""confidence"":1}","[0,1]","../img/tt/1066tt.jpg","",""
"2548.000000000029","","","recognition","survey-text","37","244805","0.0-6.0-3.4","2248441","co38200","norming","","","{""guess"":""traktor""}","","../img/tt/1066tt.jpg","",""
"null","../img/gs/1066gs.jpg","null","reveal","image-keyboard-response","38","246808","0.0-6.0-4.4","2248441","co38200","norming","","","","","","",""
"null","../img/tt/1066tt.jpg","null","mooney2","image-keyboard-response","39","248810","0.0-6.0-5.4","2248441","co38200","norming","","","","","","",""
"2265.999999999971","","","post_reveal_questions","survey-likert","40","251076","0.0-6.0-6.4","2248441","co38200","norming","","","{""aha"":4}","[0]","../img/tt/1066tt.jpg","",""
"null","<div style=""font-size:60px;""> </div>","null","fixation","html-keyboard-response","41","251280","0.0-6.0-0.5","2248441","co38200","norming","","","","","","",""
"null","../img/tt/524tt.jpg","null","mooney1","image-keyboard-response","42","254281","0.0-6.0-1.5","2248441","co38200","norming","","","","","","",""
"4033","","","post_mooney1_questions","survey-likert","43","258316","0.0-6.0-2.5","2248441","co38200","norming","","","{""curiosity"":3,""confidence"":4}","[0,1]","../img/tt/524tt.jpg","",""
"2180","","","recognition","survey-text","44","260505","0.0-6.0-3.5","2248441","co38200","norming","","","{""guess"":""olifant""}","","../img/tt/524tt.jpg","",""
"null","../img/gs/524gs.jpg","null","reveal","image-keyboard-response","45","262508","0.0-6.0-4.5","2248441","co38200","norming","","","","","","",""
"null","../img/tt/524tt.jpg","null","mooney2","image-keyboard-response","46","264510","0.0-6.0-5.5","2248441","co38200","norming","","","","","","",""
"2199","","","post_reveal_questions","survey-likert","47","266710","0.0-6.0-6.5","2248441","co38200","norming","","","{""aha"":5}","[0]","../img/tt/524tt.jpg","",""
"null","<div style=""font-size:60px;""> </div>","null","fixation","html-keyboard-response","48","266914","0.0-6.0-0.6","2248441","co38200","norming","","","","","","",""
"null","../img/tt/598tt.jpg","null","mooney1","image-keyboard-response","49","269916","0.0-6.0-1.6","2248441","co38200","norming","","","","","","",""
"3904","","","post_mooney1_questions","survey-likert","50","273823","0.0-6.0-2.6","2248441","co38200","norming","","","{""curiosity"":4,""confidence"":0}","[0,1]","../img/tt/598tt.jpg","",""
"723","","","recognition","survey-text","51","274554","0.0-6.0-3.6","2248441","co38200","norming","","","{""guess"":""""}","","../img/tt/598tt.jpg","",""
"null","../img/gs/598gs.jpg","null","reveal","image-keyboard-response","52","276557","0.0-6.0-4.6","2248441","co38200","norming","","","","","","",""
"null","../img/tt/598tt.jpg","null","mooney2","image-keyboard-response","53","278559","0.0-6.0-5.6","2248441","co38200","norming","","","","","","",""
"2733","","","post_reveal_questions","survey-likert","54","281296","0.0-6.0-6.6","2248441","co38200","norming","","","{""aha"":1}","[0]","../img/tt/598tt.jpg","",""
"null","<div style=""font-size:60px;""> </div>","null","fixation","html-keyboard-response","55","281499","0.0-6.0-0.7","2248441","co38200","norming","","","","","","",""
"null","../img/tt/008tt.jpg","null","mooney1","image-keyboard-response","56","284501","0.0-6.0-1.7","2248441","co38200","norming","","","","","","",""
"3839","","","post_mooney1_questions","survey-likert","57","288342","0.0-6.0-2.7","2248441","co38200","norming","","","{""curiosity"":5,""confidence"":1}","[0,1]","../img/tt/008tt.jpg","",""
"2831","","","recognition","survey-text","58","291182","0.0-6.0-3.7","2248441","co38200","norming","","","{""guess"":""vliegtuig""}","","../img/tt/008tt.jpg","",""
"null","../img/gs/008gs.jpg","null","reveal","image-keyboard-response","59","293185","0.0-6.0-4.7","2248441","co38200","norming","","","","","","",""
"null","../img/tt/008tt.jpg","null","mooney2","image-keyboard-response","60","295187","0.0-6.0-5.7","2248441","co38200","norming","","","","","","",""
"2869","","","post_reveal_questions","survey-likert","61","298057","0.0-6.0-6.7","2248441","co38200","norming","","","{""aha"":5}","[0]","../img/tt/008tt.jpg","",""
"null","<div style=""font-size:60px;""> </div>","null","fixation","html-keyboard-response","62","298261","0.0-6.0-0.8","2248441","co38200","norming","","","","","","",""
"null","../img/tt/416tt.jpg","null","mooney1","image-keyboard-response","63","301264","0.0-6.0-1.8","2248441","co38200","norming","","","","","","",""
"4781","","","post_mooney1_questions","survey-likert","64","306047","0.0-6.0-2.8","2248441","co38200","norming","","","{""curiosity"":5,""confidence"":0}","[0,1]","../img/tt/416tt.jpg","",""
"1284","","","recognition","survey-text","65","307340","0.0-6.0-3.8","2248441","co38200","norming","","","{""guess"":""""}","","../img/tt/416tt.jpg","",""
"null","../img/gs/416gs.jpg","null","reveal","image-keyboard-response","66","309342","0.0-6.0-4.8","2248441","co38200","norming","","","","","","",""
"null","../img/tt/416tt.jpg","null","mooney2","image-keyboard-response","67","311344","0.0-6.0-5.8","2248441","co38200","norming","","","","","","",""
"2917.999999999942","","","post_reveal_questions","survey-likert","68","314264","0.0-6.0-6.8","2248441","co38200","norming","","","{""aha"":6}","[0]","../img/tt/416tt.jpg","",""
"null","<div style=""font-size:60px;""> </div>","null","fixation","html-keyboard-response","69","314469","0.0-6.0-0.9","2248441","co38200","norming","","","","","","",""
"null","../img/tt/085tt.jpg","null","mooney1","image-keyboard-response","70","317472","0.0-6.0-1.9","2248441","co38200","norming","","","","","","",""
"7536","","","post_mooney1_questions","survey-likert","71","325010","0.0-6.0-2.9","2248441","co38200","norming","","","{""curiosity"":5,""confidence"":2}","[0,1]","../img/tt/085tt.jpg","",""
"1875","","","recognition","survey-text","72","326893","0.0-6.0-3.9","2248441","co38200","norming","","","{""guess"":""skelet""}","","../img/tt/085tt.jpg","",""
"null","../img/gs/085gs.jpg","null","reveal","image-keyboard-response","73","328896","0.0-6.0-4.9","2248441","co38200","norming","","","","","","",""
"null","../img/tt/085tt.jpg","null","mooney2","image-keyboard-response","74","330900","0.0-6.0-5.9","2248441","co38200","norming","","","","","","",""
"4202","","","post_reveal_questions","survey-likert","75","335105","0.0-6.0-6.9","2248441","co38200","norming","","","{""aha"":6}","[0]","../img/tt/085tt.jpg","",""
"null","<div style=""font-size:60px;""> </div>","null","fixation","html-keyboard-response","76","335308","0.0-6.0-0.10","2248441","co38200","norming","","","","","","",""
"null","../img/tt/497tt.jpg","null","mooney1","image-keyboard-response","77","338310","0.0-6.0-1.10","2248441","co38200","norming","","","","","","",""
"4609","","","post_mooney1_questions","survey-likert","78","342921","0.0-6.0-2.10","2248441","co38200","norming","","","{""curiosity"":4,""confidence"":1}","[0,1]","../img/tt/497tt.jpg","",""
"4693","","","recognition","survey-text","79","347623","0.0-6.0-3.10","2248441","co38200","norming","","","{""guess"":""reddingsboei""}","","../img/tt/497tt.jpg","",""
"null","../img/gs/497gs.jpg","null","reveal","image-keyboard-response","80","349625","0.0-6.0-4.10","2248441","co38200","norming","","","","","","",""
"null","../img/tt/497tt.jpg","null","mooney2","image-keyboard-response","81","351628","0.0-6.0-5.10","2248441","co38200","norming","","","","","","",""
"4077","","","post_reveal_questions","survey-likert","82","355708","0.0-6.0-6.10","2248441","co38200","norming","","","{""aha"":3}","[0]","../img/tt/497tt.jpg","",""
"null","<div style=""font-size:60px;""> </div>","null","fixation","html-keyboard-response","83","355912","0.0-6.0-0.11","2248441","co38200","norming","","","","","","",""
"null","../img/tt/357tt.jpg","null","mooney1","image-keyboard-response","84","358914","0.0-6.0-1.11","2248441","co38200","norming","","","","","","",""
"3888","","","post_mooney1_questions","survey-likert","85","362805","0.0-6.0-2.11","2248441","co38200","norming","","","{""curiosity"":4,""confidence"":0}","[0,1]","../img/tt/357tt.jpg","",""
"1252","","","recognition","survey-text","86","364065","0.0-6.0-3.11","2248441","co38200","norming","","","{""guess"":""""}","","../img/tt/357tt.jpg","",""
"null","../img/gs/357gs.jpg","null","reveal","image-keyboard-response","87","366067","0.0-6.0-4.11","2248441","co38200","norming","","","","","","",""
"null","../img/tt/357tt.jpg","null","mooney2","image-keyboard-response","88","368069","0.0-6.0-5.11","2248441","co38200","norming","","","","","","",""
"2249","","","post_reveal_questions","survey-likert","89","370320","0.0-6.0-6.11","2248441","co38200","norming","","","{""aha"":5}","[0]","../img/tt/357tt.jpg","",""
"null","<div style=""font-size:60px;""> </div>","null","fixation","html-keyboard-response","90","370523","0.0-6.0-0.12","2248441","co38200","norming","","","","","","",""
"null","../img/tt/1211tt.jpg","null","mooney1","image-keyboard-response","91","373526","0.0-6.0-1.12","2248441","co38200","norming","","","","","","",""
"5059","","","post_mooney1_questions","survey-likert","92","378587","0.0-6.0-2.12","2248441","co38200","norming","","","{""curiosity"":5,""confidence"":0}","[0,1]","../img/tt/1211tt.jpg","",""
"839","","","recognition","survey-text","93","379435","0.0-6.0-3.12","2248441","co38200","norming","","","{""guess"":""""}","","../img/tt/1211tt.jpg","",""
"null","../img/gs/1211gs.jpg","null","reveal","image-keyboard-response","94","381437","0.0-6.0-4.12","2248441","co38200","norming","","","","","","",""
"null","../img/tt/1211tt.jpg","null","mooney2","image-keyboard-response","95","383439","0.0-6.0-5.12","2248441","co38200","norming","","","","","","",""
"2398","","","post_reveal_questions","survey-likert","96","385839","0.0-6.0-6.12","2248441","co38200","norming","","","{""aha"":6}","[0]","../img/tt/1211tt.jpg","",""
"null","<div style=""font-size:60px;""> </div>","null","fixation","html-keyboard-response","97","386043","0.0-6.0-0.13","2248441","co38200","norming","","","","","","",""
"null","../img/tt/052tt.jpg","null","mooney1","image-keyboard-response","98","389045","0.0-6.0-1.13","2248441","co38200","norming","","","","","","",""
"3857","","","post_mooney1_questions","survey-likert","99","392904","0.0-6.0-2.13","2248441","co38200","norming","","","{""curiosity"":4,""confidence"":1}","[0,1]","../img/tt/052tt.jpg","",""
"3703","","","recognition","survey-text","100","396615","0.0-6.0-3.13","2248441","co38200","norming","","","{""guess"":""trommel""}","","../img/tt/052tt.jpg","",""
"null","../img/gs/052gs.jpg","null","reveal","image-keyboard-response","101","398618","0.0-6.0-4.13","2248441","co38200","norming","","","","","","",""
"null","../img/tt/052tt.jpg","null","mooney2","image-keyboard-response","102","400620","0.0-6.0-5.13","2248441","co38200","norming","","","","","","",""
"2617","","","post_reveal_questions","survey-likert","103","403238","0.0-6.0-6.13","2248441","co38200","norming","","","{""aha"":2}","[0]","../img/tt/052tt.jpg","",""
"null","<div style=""font-size:60px;""> </div>","null","fixation","html-keyboard-response","104","403442","0.0-6.0-0.14","2248441","co38200","norming","","","","","","",""
"null","../img/tt/1255tt.jpg","null","mooney1","image-keyboard-response","105","406444","0.0-6.0-1.14","2248441","co38200","norming","","","","","","",""
"4329","","","post_mooney1_questions","survey-likert","106","410776","0.0-6.0-2.14","2248441","co38200","norming","","","{""curiosity"":4,""confidence"":1}","[0,1]","../img/tt/1255tt.jpg","",""
"5424","","","recognition","survey-text","107","416208","0.0-6.0-3.14","2248441","co38200","norming","","","{""guess"":""""}","","../img/tt/1255tt.jpg","",""
"null","../img/gs/1255gs.jpg","null","reveal","image-keyboard-response","108","418211","0.0-6.0-4.14","2248441","co38200","norming","","","","","","",""
"null","../img/tt/1255tt.jpg","null","mooney2","image-keyboard-response","109","420213","0.0-6.0-5.14","2248441","co38200","norming","","","","","","",""
"3093","","","post_reveal_questions","survey-likert","110","423310","0.0-6.0-6.14","2248441","co38200","norming","","","{""aha"":4}","[0]","../img/tt/1255tt.jpg","",""
"null","<div style=""font-size:60px;""> </div>","null","fixation","html-keyboard-response","111","423513","0.0-6.0-0.15","2248441","co38200","norming","","","","","","",""
"null","../img/tt/1228tt.jpg","null","mooney1","image-keyboard-response","112","426515","0.0-6.0-1.15","2248441","co38200","norming","","","","","","",""
"4209","","","post_mooney1_questions","survey-likert","113","430726","0.0-6.0-2.15","2248441","co38200","norming","","","{""curiosity"":3,""confidence"":3}","[0,1]","../img/tt/1228tt.jpg","",""
"2467","","","recognition","survey-text","114","433201","0.0-6.0-3.15","2248441","co38200","norming","","","{""guess"":""vogel""}","","../img/tt/1228tt.jpg","",""
"null","../img/gs/1228gs.jpg","null","reveal","image-keyboard-response","115","435204","0.0-6.0-4.15","2248441","co38200","norming","","","","","","",""
"null","../img/tt/1228tt.jpg","null","mooney2","image-keyboard-response","116","437206","0.0-6.0-5.15","2248441","co38200","norming","","","","","","",""
"4569","","","post_reveal_questions","survey-likert","117","441778","0.0-6.0-6.15","2248441","co38200","norming","","","{""aha"":2}","[0]","../img/tt/1228tt.jpg","",""
"null","<div style=""font-size:60px;""> </div>","null","fixation","html-keyboard-response","118","441982","0.0-6.0-0.16","2248441","co38200","norming","","","","","","",""
"null","../img/tt/1234tt.jpg","null","mooney1","image-keyboard-response","119","444984","0.0-6.0-1.16","2248441","co38200","norming","","","","","","",""
"4186.000000000058","","","post_mooney1_questions","survey-likert","120","449172","0.0-6.0-2.16","2248441","co38200","norming","","","{""curiosity"":5,""confidence"":1}","[0,1]","../img/tt/1234tt.jpg","",""
"2341","","","recognition","survey-text","121","451522","0.0-6.0-3.16","2248441","co38200","norming","","","{""guess"":""zee""}","","../img/tt/1234tt.jpg","",""
"null","../img/gs/1234gs.jpg","null","reveal","image-keyboard-response","122","453525","0.0-6.0-4.16","2248441","co38200","norming","","","","","","",""
"null","../img/tt/1234tt.jpg","null","mooney2","image-keyboard-response","123","455527","0.0-6.0-5.16","2248441","co38200","norming","","","","","","",""
"2357","","","post_reveal_questions","survey-likert","124","457887","0.0-6.0-6.16","2248441","co38200","norming","","","{""aha"":4}","[0]","../img/tt/1234tt.jpg","",""
"null","<div style=""font-size:60px;""> </div>","null","fixation","html-keyboard-response","125","458090","0.0-6.0-0.17","2248441","co38200","norming","","","","","","",""
"null","../img/tt/1276tt.jpg","null","mooney1","image-keyboard-response","126","461093","0.0-6.0-1.17","2248441","co38200","norming","","","","","","",""
"4291","","","post_mooney1_questions","survey-likert","127","465385","0.0-6.0-2.17","2248441","co38200","norming","","","{""curiosity"":5,""confidence"":0}","[0,1]","../img/tt/1276tt.jpg","",""
"1441","","","recognition","survey-text","128","466834","0.0-6.0-3.17","2248441","co38200","norming","","","{""guess"":""""}","","../img/tt/1276tt.jpg","",""
"null","../img/gs/1276gs.jpg","null","reveal","image-keyboard-response","129","468836","0.0-6.0-4.17","2248441","co38200","norming","","","","","","",""
"null","../img/tt/1276tt.jpg","null","mooney2","image-keyboard-response","130","470839","0.0-6.0-5.17","2248441","co38200","norming","","","","","","",""
"3110","","","post_reveal_questions","survey-likert","131","473951","0.0-6.0-6.17","2248441","co38200","norming","","","{""aha"":4}","[0]","../img/tt/1276tt.jpg","",""
"null","<div style=""font-size:60px;""> </div>","null","fixation","html-keyboard-response","132","474155","0.0-6.0-0.18","2248441","co38200","norming","","","","","","",""
"null","../img/tt/084tt.jpg","null","mooney1","image-keyboard-response","133","477156","0.0-6.0-1.18","2248441","co38200","norming","","","","","","",""
"4385","","","post_mooney1_questions","survey-likert","134","481543","0.0-6.0-2.18","2248441","co38200","norming","","","{""curiosity"":2,""confidence"":4}","[0,1]","../img/tt/084tt.jpg","",""
"2770.000000000058","","","recognition","survey-text","135","484321","0.0-6.0-3.18","2248441","co38200","norming","","","{""guess"":""eend""}","","../img/tt/084tt.jpg","",""
"null","../img/gs/084gs.jpg","null","reveal","image-keyboard-response","136","486324","0.0-6.0-4.18","2248441","co38200","norming","","","","","","",""
"null","../img/tt/084tt.jpg","null","mooney2","image-keyboard-response","137","488326","0.0-6.0-5.18","2248441","co38200","norming","","","","","","",""
"1968","","","post_reveal_questions","survey-likert","138","490296","0.0-6.0-6.18","2248441","co38200","norming","","","{""aha"":2}","[0]","../img/tt/084tt.jpg","",""
"null","<div style=""font-size:60px;""> </div>","null","fixation","html-keyboard-response","139","490499","0.0-6.0-0.19","2248441","co38200","norming","","","","","","",""
"null","../img/tt/098tt.jpg","null","mooney1","image-keyboard-response","140","493500","0.0-6.0-1.19","2248441","co38200","norming","","","","","","",""
"4323.000000000058","","","post_mooney1_questions","survey-likert","141","497828","0.0-6.0-2.19","2248441","co38200","norming","","","{""curiosity"":4,""confidence"":1}","[0,1]","../img/tt/098tt.jpg","",""
"2611.000000000058","","","recognition","survey-text","142","500448","0.0-6.0-3.19","2248441","co38200","norming","","","{""guess"":""water""}","","../img/tt/098tt.jpg","",""
"null","../img/gs/098gs.jpg","null","reveal","image-keyboard-response","143","502450","0.0-6.0-4.19","2248441","co38200","norming","","","","","","",""
"null","../img/tt/098tt.jpg","null","mooney2","image-keyboard-response","144","504453","0.0-6.0-5.19","2248441","co38200","norming","","","","","","",""
"2658","","","post_reveal_questions","survey-likert","145","507112","0.0-6.0-6.19","2248441","co38200","norming","","","{""aha"":4}","[0]","../img/tt/098tt.jpg","",""
"null","<div style=""font-size:60px;""> </div>","null","fixation","html-keyboard-response","146","507317","0.0-6.0-0.20","2248441","co38200","norming","","","","","","",""
"null","../img/tt/1089tt.jpg","null","mooney1","image-keyboard-response","147","510320","0.0-6.0-1.20","2248441","co38200","norming","","","","","","",""
"4050","","","post_mooney1_questions","survey-likert","148","514372","0.0-6.0-2.20","2248441","co38200","norming","","","{""curiosity"":4,""confidence"":2}","[0,1]","../img/tt/1089tt.jpg","",""
"2276.999999999942","","","recognition","survey-text","149","516658","0.0-6.0-3.20","2248441","co38200","norming","","","{""guess"":""traktor""}","","../img/tt/1089tt.jpg","",""
"null","../img/gs/1089gs.jpg","null","reveal","image-keyboard-response","150","518661","0.0-6.0-4.20","2248441","co38200","norming","","","","","","",""
"null","../img/tt/1089tt.jpg","null","mooney2","image-keyboard-response","151","520663","0.0-6.0-5.20","2248441","co38200","norming","","","","","","",""
"3465.999999999942","","","post_reveal_questions","survey-likert","152","524130","0.0-6.0-6.20","2248441","co38200","norming","","","{""aha"":5}","[0]","../img/tt/1089tt.jpg","",""
"null","<div style=""font-size:60px;""> </div>","null","fixation","html-keyboard-response","153","524333","0.0-6.0-0.21","2248441","co38200","norming","","","","","","",""
"null","../img/tt/1146tt.jpg","null","mooney1","image-keyboard-response","154","527335","0.0-6.0-1.21","2248441","co38200","norming","","","","","","",""
"5049","","","post_mooney1_questions","survey-likert","155","532387","0.0-6.0-2.21","2248441","co38200","norming","","","{""curiosity"":3,""confidence"":3}","[0,1]","../img/tt/1146tt.jpg","",""
"1867","","","recognition","survey-text","156","534262","0.0-6.0-3.21","2248441","co38200","norming","","","{""guess"":""auto""}","","../img/tt/1146tt.jpg","",""
"null","../img/gs/1146gs.jpg","null","reveal","image-keyboard-response","157","536264","0.0-6.0-4.21","2248441","co38200","norming","","","","","","",""
"null","../img/tt/1146tt.jpg","null","mooney2","image-keyboard-response","158","538266","0.0-6.0-5.21","2248441","co38200","norming","","","","","","",""
"2439.9999999998836","","","post_reveal_questions","survey-likert","159","540710","0.0-6.0-6.21","2248441","co38200","norming","","","{""aha"":5}","[0]","../img/tt/1146tt.jpg","",""
"null","<div style=""font-size:60px;""> </div>","null","fixation","html-keyboard-response","160","540913","0.0-6.0-0.22","2248441","co38200","norming","","","","","","",""
"null","../img/tt/1309tt.jpg","null","mooney1","image-keyboard-response","161","543915","0.0-6.0-1.22","2248441","co38200","norming","","","","","","",""
"3105","","","post_mooney1_questions","survey-likert","162","547021","0.0-6.0-2.22","2248441","co38200","norming","","","{""curiosity"":3,""confidence"":3}","[0,1]","../img/tt/1309tt.jpg","",""
"1384.0000000001164","","","recognition","survey-text","163","548413","0.0-6.0-3.22","2248441","co38200","norming","","","{""guess"":""auto""}","","../img/tt/1309tt.jpg","",""
"null","../img/gs/1309gs.jpg","null","reveal","image-keyboard-response","164","550416","0.0-6.0-4.22","2248441","co38200","norming","","","","","","",""
"null","../img/tt/1309tt.jpg","null","mooney2","image-keyboard-response","165","552417","0.0-6.0-5.22","2248441","co38200","norming","","","","","","",""
"2360","","","post_reveal_questions","survey-likert","166","554781","0.0-6.0-6.22","2248441","co38200","norming","","","{""aha"":3}","[0]","../img/tt/1309tt.jpg","",""
"null","<div style=""font-size:60px;""> </div>","null","fixation","html-keyboard-response","167","554984","0.0-6.0-0.23","2248441","co38200","norming","","","","","","",""
"null","../img/tt/076tt.jpg","null","mooney1","image-keyboard-response","168","557986","0.0-6.0-1.23","2248441","co38200","norming","","","","","","",""
"3797","","","post_mooney1_questions","survey-likert","169","561785","0.0-6.0-2.23","2248441","co38200","norming","","","{""curiosity"":4,""confidence"":1}","[0,1]","../img/tt/076tt.jpg","",""
"4372","","","recognition","survey-text","170","566166","0.0-6.0-3.23","2248441","co38200","norming","","","{""guess"":""rollerschaatsen""}","","../img/tt/076tt.jpg","",""
"null","../img/gs/076gs.jpg","null","reveal","image-keyboard-response","171","568169","0.0-6.0-4.23","2248441","co38200","norming","","","","","","",""
"null","../img/tt/076tt.jpg","null","mooney2","image-keyboard-response","172","570171","0.0-6.0-5.23","2248441","co38200","norming","","","","","","",""
"2493","","","post_reveal_questions","survey-likert","173","572666","0.0-6.0-6.23","2248441","co38200","norming","","","{""aha"":1}","[0]","../img/tt/076tt.jpg","",""
"null","<div style=""font-size:60px;""> </div>","null","fixation","html-keyboard-response","174","572869","0.0-6.0-0.24","2248441","co38200","norming","","","","","","",""
"null","../img/tt/590tt.jpg","null","mooney1","image-keyboard-response","175","575871","0.0-6.0-1.24","2248441","co38200","norming","","","","","","",""
"5001","","","post_mooney1_questions","survey-likert","176","580874","0.0-6.0-2.24","2248441","co38200","norming","","","{""curiosity"":3,""confidence"":0}","[0,1]","../img/tt/590tt.jpg","",""
"721","","","recognition","survey-text","177","581603","0.0-6.0-3.24","2248441","co38200","norming","","","{""guess"":""""}","","../img/tt/590tt.jpg","",""
"null","../img/gs/590gs.jpg","null","reveal","image-keyboard-response","178","583605","0.0-6.0-4.24","2248441","co38200","norming","","","","","","",""
"null","../img/tt/590tt.jpg","null","mooney2","image-keyboard-response","179","585607","0.0-6.0-5.24","2248441","co38200","norming","","","","","","",""
"4304","","","post_reveal_questions","survey-likert","180","589913","0.0-6.0-6.24","2248441","co38200","norming","","","{""aha"":0}","[0]","../img/tt/590tt.jpg","",""
"null","<div style=""font-size:60px;""> </div>","null","fixation","html-keyboard-response","181","590117","0.0-6.0-0.25","2248441","co38200","norming","","","","","","",""
"null","../img/tt/1048tt.jpg","null","mooney1","image-keyboard-response","182","593118","0.0-6.0-1.25","2248441","co38200","norming","","","","","","",""
"3895","","","post_mooney1_questions","survey-likert","183","597015","0.0-6.0-2.25","2248441","co38200","norming","","","{""curiosity"":4,""confidence"":1}","[0,1]","../img/tt/1048tt.jpg","",""
"2711","","","recognition","survey-text","184","599734","0.0-6.0-3.25","2248441","co38200","norming","","","{""guess"":""koe""}","","../img/tt/1048tt.jpg","",""
"null","../img/gs/1048gs.jpg","null","reveal","image-keyboard-response","185","601737","0.0-6.0-4.25","2248441","co38200","norming","","","","","","",""
"null","../img/tt/1048tt.jpg","null","mooney2","image-keyboard-response","186","603740","0.0-6.0-5.25","2248441","co38200","norming","","","","","","",""
"3133","","","post_reveal_questions","survey-likert","187","606877","0.0-6.0-6.25","2248441","co38200","norming","","","{""aha"":2}","[0]","../img/tt/1048tt.jpg","",""
"null","<div style=""font-size:60px;""> </div>","null","fixation","html-keyboard-response","188","607080","0.0-6.0-0.26","2248441","co38200","norming","","","","","","",""
"null","../img/tt/603tt.jpg","null","mooney1","image-keyboard-response","189","610083","0.0-6.0-1.26","2248441","co38200","norming","","","","","","",""
"6291","","","post_mooney1_questions","survey-likert","190","616376","0.0-6.0-2.26","2248441","co38200","norming","","","{""curiosity"":4,""confidence"":0}","[0,1]","../img/tt/603tt.jpg","",""
"954","","","recognition","survey-text","191","617340","0.0-6.0-3.26","2248441","co38200","norming","","","{""guess"":""""}","","../img/tt/603tt.jpg","",""
"null","../img/gs/603gs.jpg","null","reveal","image-keyboard-response","192","619342","0.0-6.0-4.26","2248441","co38200","norming","","","","","","",""
"null","../img/tt/603tt.jpg","null","mooney2","image-keyboard-response","193","621345","0.0-6.0-5.26","2248441","co38200","norming","","","","","","",""
"2560","","","post_reveal_questions","survey-likert","194","623906","0.0-6.0-6.26","2248441","co38200","norming","","","{""aha"":6}","[0]","../img/tt/603tt.jpg","",""
"null","<div style=""font-size:60px;""> </div>","null","fixation","html-keyboard-response","195","624110","0.0-6.0-0.27","2248441","co38200","norming","","","","","","",""
"null","../img/tt/1362tt.jpg","null","mooney1","image-keyboard-response","196","627112","0.0-6.0-1.27","2248441","co38200","norming","","","","","","",""
"6059","","","post_mooney1_questions","survey-likert","197","633175","0.0-6.0-2.27","2248441","co38200","norming","","","{""curiosity"":4,""confidence"":1}","[0,1]","../img/tt/1362tt.jpg","",""
"2382.0000000001164","","","recognition","survey-text","198","635565","0.0-6.0-3.27","2248441","co38200","norming","","","{""guess"":""bureau""}","","../img/tt/1362tt.jpg","",""
"null","../img/gs/1362gs.jpg","null","reveal","image-keyboard-response","199","637568","0.0-6.0-4.27","2248441","co38200","norming","","","","","","",""
"null","../img/tt/1362tt.jpg","null","mooney2","image-keyboard-response","200","639571","0.0-6.0-5.27","2248441","co38200","norming","","","","","","",""
"3212","","","post_reveal_questions","survey-likert","201","642783","0.0-6.0-6.27","2248441","co38200","norming","","","{""aha"":4}","[0]","../img/tt/1362tt.jpg","",""
"null","<div style=""font-size:60px;""> </div>","null","fixation","html-keyboard-response","202","642989","0.0-6.0-0.28","2248441","co38200","norming","","","","","","",""
"null","../img/tt/123tt.jpg","null","mooney1","image-keyboard-response","203","645992","0.0-6.0-1.28","2248441","co38200","norming","","","","","","",""
"3449","","","post_mooney1_questions","survey-likert","204","649442","0.0-6.0-2.28","2248441","co38200","norming","","","{""curiosity"":3,""confidence"":3}","[0,1]","../img/tt/123tt.jpg","",""
"2085.9999999998836","","","recognition","survey-text","205","651537","0.0-6.0-3.28","2248441","co38200","norming","","","{""guess"":""boot""}","","../img/tt/123tt.jpg","",""
"null","../img/gs/123gs.jpg","null","reveal","image-keyboard-response","206","653540","0.0-6.0-4.28","2248441","co38200","norming","","","","","","",""
"null","../img/tt/123tt.jpg","null","mooney2","image-keyboard-response","207","655542","0.0-6.0-5.28","2248441","co38200","norming","","","","","","",""
"2776","","","post_reveal_questions","survey-likert","208","658319","0.0-6.0-6.28","2248441","co38200","norming","","","{""aha"":1}","[0]","../img/tt/123tt.jpg","",""
"null","<div style=""font-size:60px;""> </div>","null","fixation","html-keyboard-response","209","658522","0.0-6.0-0.29","2248441","co38200","norming","","","","","","",""
"null","../img/tt/140tt.jpg","null","mooney1","image-keyboard-response","210","661524","0.0-6.0-1.29","2248441","co38200","norming","","","","","","",""
"3416.0000000001164","","","post_mooney1_questions","survey-likert","211","664942","0.0-6.0-2.29","2248441","co38200","norming","","","{""curiosity"":3,""confidence"":2}","[0,1]","../img/tt/140tt.jpg","",""
"3685","","","recognition","survey-text","212","668635","0.0-6.0-3.29","2248441","co38200","norming","","","{""guess"":""vorken""}","","../img/tt/140tt.jpg","",""
"null","../img/gs/140gs.jpg","null","reveal","image-keyboard-response","213","670637","0.0-6.0-4.29","2248441","co38200","norming","","","","","","",""
"null","../img/tt/140tt.jpg","null","mooney2","image-keyboard-response","214","672639","0.0-6.0-5.29","2248441","co38200","norming","","","","","","",""
"3507","","","post_reveal_questions","survey-likert","215","676147","0.0-6.0-6.29","2248441","co38200","norming","","","{""aha"":1}","[0]","../img/tt/140tt.jpg","",""
"null","<div style=""font-size:60px;""> </div>","null","fixation","html-keyboard-response","216","676351","0.0-6.0-0.30","2248441","co38200","norming","","","","","","",""
"null","../img/tt/032tt.jpg","null","mooney1","image-keyboard-response","217","679352","0.0-6.0-1.30","2248441","co38200","norming","","","","","","",""
"4164","","","post_mooney1_questions","survey-likert","218","683518","0.0-6.0-2.30","2248441","co38200","norming","","","{""curiosity"":1,""confidence"":2}","[0,1]","../img/tt/032tt.jpg","",""
"2587","","","recognition","survey-text","219","686113","0.0-6.0-3.30","2248441","co38200","norming","","","{""guess"":""kip""}","","../img/tt/032tt.jpg","",""
"null","../img/gs/032gs.jpg","null","reveal","image-keyboard-response","220","688116","0.0-6.0-4.30","2248441","co38200","norming","","","","","","",""
"null","../img/tt/032tt.jpg","null","mooney2","image-keyboard-response","221","690120","0.0-6.0-5.30","2248441","co38200","norming","","","","","","",""
"2244","","","post_reveal_questions","survey-likert","222","692366","0.0-6.0-6.30","2248441","co38200","norming","","","{""aha"":5}","[0]","../img/tt/032tt.jpg","",""
"null","<div style=""font-size:60px;""> </div>","null","fixation","html-keyboard-response","223","692569","0.0-6.0-0.31","2248441","co38200","norming","","","","","","",""
"null","../img/tt/549tt.jpg","null","mooney1","image-keyboard-response","224","695571","0.0-6.0-1.31","2248441","co38200","norming","","","","","","",""
"3942","","","post_mooney1_questions","survey-likert","225","699514","0.0-6.0-2.31","2248441","co38200","norming","","","{""curiosity"":4,""confidence"":1}","[0,1]","../img/tt/549tt.jpg","",""
"3078.0000000001164","","","recognition","survey-text","226","702602","0.0-6.0-3.31","2248441","co38200","norming","","","{""guess"":""geweer""}","","../img/tt/549tt.jpg","",""
"null","../img/gs/549gs.jpg","null","reveal","image-keyboard-response","227","704605","0.0-6.0-4.31","2248441","co38200","norming","","","","","","",""
"null","../img/tt/549tt.jpg","null","mooney2","image-keyboard-response","228","706607","0.0-6.0-5.31","2248441","co38200","norming","","","","","","",""
"2480","","","post_reveal_questions","survey-likert","229","709088","0.0-6.0-6.31","2248441","co38200","norming","","","{""aha"":4}","[0]","../img/tt/549tt.jpg","",""
"null","<div style=""font-size:60px;""> </div>","null","fixation","html-keyboard-response","230","709292","0.0-6.0-0.32","2248441","co38200","norming","","","","","","",""
"null","../img/tt/418tt.jpg","null","mooney1","image-keyboard-response","231","712295","0.0-6.0-1.32","2248441","co38200","norming","","","","","","",""
"6011","","","post_mooney1_questions","survey-likert","232","718308","0.0-6.0-2.32","2248441","co38200","norming","","","{""curiosity"":4,""confidence"":1}","[0,1]","../img/tt/418tt.jpg","",""
"3033","","","recognition","survey-text","233","721350","0.0-6.0-3.32","2248441","co38200","norming","","","{""guess"":""rups""}","","../img/tt/418tt.jpg","",""
"null","../img/gs/418gs.jpg","null","reveal","image-keyboard-response","234","723352","0.0-6.0-4.32","2248441","co38200","norming","","","","","","",""
"null","../img/tt/418tt.jpg","null","mooney2","image-keyboard-response","235","725355","0.0-6.0-5.32","2248441","co38200","norming","","","","","","",""
"1949","","","post_reveal_questions","survey-likert","236","727306","0.0-6.0-6.32","2248441","co38200","norming","","","{""aha"":5}","[0]","../img/tt/418tt.jpg","",""
"null","<div style=""font-size:60px;""> </div>","null","fixation","html-keyboard-response","237","727509","0.0-6.0-0.33","2248441","co38200","norming","","","","","","",""
"null","../img/tt/436tt.jpg","null","mooney1","image-keyboard-response","238","730510","0.0-6.0-1.33","2248441","co38200","norming","","","","","","",""
"3151","","","post_mooney1_questions","survey-likert","239","733665","0.0-6.0-2.33","2248441","co38200","norming","","","{""curiosity"":4,""confidence"":2}","[0,1]","../img/tt/436tt.jpg","",""
"2585","","","recognition","survey-text","240","736258","0.0-6.0-3.33","2248441","co38200","norming","","","{""guess"":""krokodil""}","","../img/tt/436tt.jpg","",""
"null","../img/gs/436gs.jpg","null","reveal","image-keyboard-response","241","738261","0.0-6.0-4.33","2248441","co38200","norming","","","","","","",""
"null","../img/tt/436tt.jpg","null","mooney2","image-keyboard-response","242","740263","0.0-6.0-5.33","2248441","co38200","norming","","","","","","",""
"4516","","","post_reveal_questions","survey-likert","243","744781","0.0-6.0-6.33","2248441","co38200","norming","","","{""aha"":1}","[0]","../img/tt/436tt.jpg","",""
"null","<div style=""font-size:60px;""> </div>","null","fixation","html-keyboard-response","244","744984","0.0-6.0-0.34","2248441","co38200","norming","","","","","","",""
"null","../img/tt/1189tt.jpg","null","mooney1","image-keyboard-response","245","747987","0.0-6.0-1.34","2248441","co38200","norming","","","","","","",""
"3432","","","post_mooney1_questions","survey-likert","246","751421","0.0-6.0-2.34","2248441","co38200","norming","","","{""curiosity"":3,""confidence"":0}","[0,1]","../img/tt/1189tt.jpg","",""
"853","","","recognition","survey-text","247","752282","0.0-6.0-3.34","2248441","co38200","norming","","","{""guess"":""""}","","../img/tt/1189tt.jpg","",""
"null","../img/gs/1189gs.jpg","null","reveal","image-keyboard-response","248","754285","0.0-6.0-4.34","2248441","co38200","norming","","","","","","",""
"null","../img/tt/1189tt.jpg","null","mooney2","image-keyboard-response","249","756287","0.0-6.0-5.34","2248441","co38200","norming","","","","","","",""
"2514","","","post_reveal_questions","survey-likert","250","758802","0.0-6.0-6.34","2248441","co38200","norming","","","{""aha"":1}","[0]","../img/tt/1189tt.jpg","",""
"null","<div style=""font-size:60px;""> </div>","null","fixation","html-keyboard-response","251","759005","0.0-6.0-0.35","2248441","co38200","norming","","","","","","",""
"null","../img/tt/1004tt.jpg","null","mooney1","image-keyboard-response","252","762007","0.0-6.0-1.35","2248441","co38200","norming","","","","","","",""
"4592","","","post_mooney1_questions","survey-likert","253","766601","0.0-6.0-2.35","2248441","co38200","norming","","","{""curiosity"":4,""confidence"":2}","[0,1]","../img/tt/1004tt.jpg","",""
"3151","","","recognition","survey-text","254","769760","0.0-6.0-3.35","2248441","co38200","norming","","","{""guess"":""neushoorn""}","","../img/tt/1004tt.jpg","",""
"null","../img/gs/1004gs.jpg","null","reveal","image-keyboard-response","255","771763","0.0-6.0-4.35","2248441","co38200","norming","","","","","","",""
"null","../img/tt/1004tt.jpg","null","mooney2","image-keyboard-response","256","773765","0.0-6.0-5.35","2248441","co38200","norming","","","","","","",""
"1962","","","post_reveal_questions","survey-likert","257","775729","0.0-6.0-6.35","2248441","co38200","norming","","","{""aha"":2}","[0]","../img/tt/1004tt.jpg","",""
"null","<div style=""font-size:60px;""> </div>","null","fixation","html-keyboard-response","258","775933","0.0-6.0-0.36","2248441","co38200","norming","","","","","","",""
"null","../img/tt/1226tt.jpg","null","mooney1","image-keyboard-response","259","778936","0.0-6.0-1.36","2248441","co38200","norming","","","","","","",""
"4265","","","post_mooney1_questions","survey-likert","260","783203","0.0-6.0-2.36","2248441","co38200","norming","","","{""curiosity"":3,""confidence"":3}","[0,1]","../img/tt/1226tt.jpg","",""
"1312","","","recognition","survey-text","261","784524","0.0-6.0-3.36","2248441","co38200","norming","","","{""guess"":""eens""}","","../img/tt/1226tt.jpg","",""
"null","../img/gs/1226gs.jpg","null","reveal","image-keyboard-response","262","786527","0.0-6.0-4.36","2248441","co38200","norming","","","","","","",""
"null","../img/tt/1226tt.jpg","null","mooney2","image-keyboard-response","263","788529","0.0-6.0-5.36","2248441","co38200","norming","","","","","","",""
"3796","","","post_reveal_questions","survey-likert","264","792329","0.0-6.0-6.36","2248441","co38200","norming","","","{""aha"":3}","[0]","../img/tt/1226tt.jpg","",""
"null","<div style=""font-size:60px;""> </div>","null","fixation","html-keyboard-response","265","792533","0.0-6.0-0.37","2248441","co38200","norming","","","","","","",""
"null","../img/tt/438tt.jpg","null","mooney1","image-keyboard-response","266","795534","0.0-6.0-1.37","2248441","co38200","norming","","","","","","",""
"3807","","","post_mooney1_questions","survey-likert","267","799343","0.0-6.0-2.37","2248441","co38200","norming","","","{""curiosity"":3,""confidence"":0}","[0,1]","../img/tt/438tt.jpg","",""
"688","","","recognition","survey-text","268","800040","0.0-6.0-3.37","2248441","co38200","norming","","","{""guess"":""""}","","../img/tt/438tt.jpg","",""
"null","../img/gs/438gs.jpg","null","reveal","image-keyboard-response","269","802042","0.0-6.0-4.37","2248441","co38200","norming","","","","","","",""
"null","../img/tt/438tt.jpg","null","mooney2","image-keyboard-response","270","804044","0.0-6.0-5.37","2248441","co38200","norming","","","","","","",""
"2579","","","post_reveal_questions","survey-likert","271","806625","0.0-6.0-6.37","2248441","co38200","norming","","","{""aha"":4}","[0]","../img/tt/438tt.jpg","",""
"null","<div style=""font-size:60px;""> </div>","null","fixation","html-keyboard-response","272","806829","0.0-6.0-0.38","2248441","co38200","norming","","","","","","",""
"null","../img/tt/1053tt.jpg","null","mooney1","image-keyboard-response","273","809831","0.0-6.0-1.38","2248441","co38200","norming","","","","","","",""
"3356","","","post_mooney1_questions","survey-likert","274","813189","0.0-6.0-2.38","2248441","co38200","norming","","","{""curiosity"":4,""confidence"":1}","[0,1]","../img/tt/1053tt.jpg","",""
"1499.0000000001164","","","recognition","survey-text","275","814696","0.0-6.0-3.38","2248441","co38200","norming","","","{""guess"":""olifant""}","","../img/tt/1053tt.jpg","",""
"null","../img/gs/1053gs.jpg","null","reveal","image-keyboard-response","276","816699","0.0-6.0-4.38","2248441","co38200","norming","","","","","","",""
"null","../img/tt/1053tt.jpg","null","mooney2","image-keyboard-response","277","818701","0.0-6.0-5.38","2248441","co38200","norming","","","","","","",""
"2820.0000000001164","","","post_reveal_questions","survey-likert","278","821523","0.0-6.0-6.38","2248441","co38200","norming","","","{""aha"":1}","[0]","../img/tt/1053tt.jpg","",""
"null","<div style=""font-size:60px;""> </div>","null","fixation","html-keyboard-response","279","821727","0.0-6.0-0.39","2248441","co38200","norming","","","","","","",""
"null","../img/tt/1049tt.jpg","null","mooney1","image-keyboard-response","280","824729","0.0-6.0-1.39","2248441","co38200","norming","","","","","","",""
"4174","","","post_mooney1_questions","survey-likert","281","828907","0.0-6.0-2.39","2248441","co38200","norming","","","{""curiosity"":3,""confidence"":1}","[0,1]","../img/tt/1049tt.jpg","",""
"3717","","","recognition","survey-text","282","832632","0.0-6.0-3.39","2248441","co38200","norming","","","{""guess"":""boerderijdieren""}","","../img/tt/1049tt.jpg","",""
"null","../img/gs/1049gs.jpg","null","reveal","image-keyboard-response","283","834635","0.0-6.0-4.39","2248441","co38200","norming","","","","","","",""
"null","../img/tt/1049tt.jpg","null","mooney2","image-keyboard-response","284","836637","0.0-6.0-5.39","2248441","co38200","norming","","","","","","",""
"1913","","","post_reveal_questions","survey-likert","285","838552","0.0-6.0-6.39","2248441","co38200","norming","","","{""aha"":5}","[0]","../img/tt/1049tt.jpg","",""
"null","<div style=""font-size:60px;""> </div>","null","fixation","html-keyboard-response","286","838755","0.0-6.0-0.40","2248441","co38200","norming","","","","","","",""
"null","../img/tt/194tt.jpg","null","mooney1","image-keyboard-response","287","841757","0.0-6.0-1.40","2248441","co38200","norming","","","","","","",""
"3636","","","post_mooney1_questions","survey-likert","288","845398","0.0-6.0-2.40","2248441","co38200","norming","","","{""curiosity"":4,""confidence"":1}","[0,1]","../img/tt/194tt.jpg","",""
"1674","","","recognition","survey-text","289","847081","0.0-6.0-3.40","2248441","co38200","norming","","","{""guess"":""meisje""}","","../img/tt/194tt.jpg","",""
"null","../img/gs/194gs.jpg","null","reveal","image-keyboard-response","290","849083","0.0-6.0-4.40","2248441","co38200","norming","","","","","","",""
"null","../img/tt/194tt.jpg","null","mooney2","image-keyboard-response","291","851086","0.0-6.0-5.40","2248441","co38200","norming","","","","","","",""
"3180","","","post_reveal_questions","survey-likert","292","854267","0.0-6.0-6.40","2248441","co38200","norming","","","{""aha"":2}","[0]","../img/tt/194tt.jpg","",""
"null","<div style=""font-size:60px;""> </div>","null","fixation","html-keyboard-response","293","854470","0.0-6.0-0.41","2248441","co38200","norming","","","","","","",""
"null","../img/tt/1097tt.jpg","null","mooney1","image-keyboard-response","294","857472","0.0-6.0-1.41","2248441","co38200","norming","","","","","","",""
"4328","","","post_mooney1_questions","survey-likert","295","861803","0.0-6.0-2.41","2248441","co38200","norming","","","{""curiosity"":3,""confidence"":1}","[0,1]","../img/tt/1097tt.jpg","",""
"5646.000000000116","","","recognition","survey-text","296","867457","0.0-6.0-3.41","2248441","co38200","norming","","","{""guess"":""insect""}","","../img/tt/1097tt.jpg","",""
"null","../img/gs/1097gs.jpg","null","reveal","image-keyboard-response","297","869460","0.0-6.0-4.41","2248441","co38200","norming","","","","","","",""
"null","../img/tt/1097tt.jpg","null","mooney2","image-keyboard-response","298","871462","0.0-6.0-5.41","2248441","co38200","norming","","","","","","",""
"3026","","","post_reveal_questions","survey-likert","299","874489","0.0-6.0-6.41","2248441","co38200","norming","","","{""aha"":5}","[0]","../img/tt/1097tt.jpg","",""
"null","<div style=""font-size:60px;""> </div>","null","fixation","html-keyboard-response","300","874691","0.0-6.0-0.42","2248441","co38200","norming","","","","","","",""
"null","../img/tt/1242tt.jpg","null","mooney1","image-keyboard-response","301","877694","0.0-6.0-1.42","2248441","co38200","norming","","","","","","",""
"3043","","","post_mooney1_questions","survey-likert","302","880742","0.0-6.0-2.42","2248441","co38200","norming","","","{""curiosity"":4,""confidence"":1}","[0,1]","../img/tt/1242tt.jpg","",""
"1512.9999999998836","","","recognition","survey-text","303","882264","0.0-6.0-3.42","2248441","co38200","norming","","","{""guess"":""vos""}","","../img/tt/1242tt.jpg","",""
"null","../img/gs/1242gs.jpg","null","reveal","image-keyboard-response","304","884267","0.0-6.0-4.42","2248441","co38200","norming","","","","","","",""
"null","../img/tt/1242tt.jpg","null","mooney2","image-keyboard-response","305","886269","0.0-6.0-5.42","2248441","co38200","norming","","","","","","",""
"2678","","","post_reveal_questions","survey-likert","306","888949","0.0-6.0-6.42","2248441","co38200","norming","","","{""aha"":1}","[0]","../img/tt/1242tt.jpg","",""
"null","<div style=""font-size:60px;""> </div>","null","fixation","html-keyboard-response","307","889153","0.0-6.0-0.43","2248441","co38200","norming","","","","","","",""
"null","../img/tt/001tt.jpg","null","mooney1","image-keyboard-response","308","892155","0.0-6.0-1.43","2248441","co38200","norming","","","","","","",""
"3144","","","post_mooney1_questions","survey-likert","309","895302","0.0-6.0-2.43","2248441","co38200","norming","","","{""curiosity"":3,""confidence"":1}","[0,1]","../img/tt/001tt.jpg","",""
"1346","","","recognition","survey-text","310","896656","0.0-6.0-3.43","2248441","co38200","norming","","","{""guess"":""koe""}","","../img/tt/001tt.jpg","",""
"null","../img/gs/001gs.jpg","null","reveal","image-keyboard-response","311","898659","0.0-6.0-4.43","2248441","co38200","norming","","","","","","",""
"null","../img/tt/001tt.jpg","null","mooney2","image-keyboard-response","312","900661","0.0-6.0-5.43","2248441","co38200","norming","","","","","","",""
"1555.0000000001164","","","post_reveal_questions","survey-likert","313","902217","0.0-6.0-6.43","2248441","co38200","norming","","","{""aha"":3}","[0]","../img/tt/001tt.jpg","",""
"null","<div style=""font-size:60px;""> </div>","null","fixation","html-keyboard-response","314","902421","0.0-6.0-0.44","2248441","co38200","norming","","","","","","",""
"null","../img/tt/296tt.jpg","null","mooney1","image-keyboard-response","315","905423","0.0-6.0-1.44","2248441","co38200","norming","","","","","","",""
"3901.9999999998836","","","post_mooney1_questions","survey-likert","316","909326","0.0-6.0-2.44","2248441","co38200","norming","","","{""curiosity"":4,""confidence"":1}","[0,1]","../img/tt/296tt.jpg","",""
"2044","","","recognition","survey-text","317","911379","0.0-6.0-3.44","2248441","co38200","norming","","","{""guess"":""doodskist""}","","../img/tt/296tt.jpg","",""
"null","../img/gs/296gs.jpg","null","reveal","image-keyboard-response","318","913381","0.0-6.0-4.44","2248441","co38200","norming","","","","","","",""
"null","../img/tt/296tt.jpg","null","mooney2","image-keyboard-response","319","915384","0.0-6.0-5.44","2248441","co38200","norming","","","","","","",""
"1848","","","post_reveal_questions","survey-likert","320","917236","0.0-6.0-6.44","2248441","co38200","norming","","","{""aha"":5}","[0]","../img/tt/296tt.jpg","",""
"null","<div style=""font-size:60px;""> </div>","null","fixation","html-keyboard-response","321","917439","0.0-6.0-0.45","2248441","co38200","norming","","","","","","",""
"null","../img/tt/1307tt.jpg","null","mooney1","image-keyboard-response","322","920442","0.0-6.0-1.45","2248441","co38200","norming","","","","","","",""
"5411","","","post_mooney1_questions","survey-likert","323","925854","0.0-6.0-2.45","2248441","co38200","norming","","","{""curiosity"":6,""confidence"":0}","[0,1]","../img/tt/1307tt.jpg","",""
"852","","","recognition","survey-text","324","926714","0.0-6.0-3.45","2248441","co38200","norming","","","{""guess"":""""}","","../img/tt/1307tt.jpg","",""
"null","../img/gs/1307gs.jpg","null","reveal","image-keyboard-response","325","928717","0.0-6.0-4.45","2248441","co38200","norming","","","","","","",""
"null","../img/tt/1307tt.jpg","null","mooney2","image-keyboard-response","326","930719","0.0-6.0-5.45","2248441","co38200","norming","","","","","","",""
"2905","","","post_reveal_questions","survey-likert","327","933626","0.0-6.0-6.45","2248441","co38200","norming","","","{""aha"":5}","[0]","../img/tt/1307tt.jpg","",""
"null","<div style=""font-size:60px;""> </div>","null","fixation","html-keyboard-response","328","933829","0.0-6.0-0.46","2248441","co38200","norming","","","","","","",""
"null","../img/tt/1268tt.jpg","null","mooney1","image-keyboard-response","329","936831","0.0-6.0-1.46","2248441","co38200","norming","","","","","","",""
"3543","","","post_mooney1_questions","survey-likert","330","940378","0.0-6.0-2.46","2248441","co38200","norming","","","{""curiosity"":2,""confidence"":1}","[0,1]","../img/tt/1268tt.jpg","",""
"1260","","","recognition","survey-text","331","941646","0.0-6.0-3.46","2248441","co38200","norming","","","{""guess"":""dier""}","","../img/tt/1268tt.jpg","",""
"null","../img/gs/1268gs.jpg","null","reveal","image-keyboard-response","332","943649","0.0-6.0-4.46","2248441","co38200","norming","","","","","","",""
"null","../img/tt/1268tt.jpg","null","mooney2","image-keyboard-response","333","945651","0.0-6.0-5.46","2248441","co38200","norming","","","","","","",""
"2362","","","post_reveal_questions","survey-likert","334","948015","0.0-6.0-6.46","2248441","co38200","norming","","","{""aha"":3}","[0]","../img/tt/1268tt.jpg","",""
"null","<div style=""font-size:60px;""> </div>","null","fixation","html-keyboard-response","335","948218","0.0-6.0-0.47","2248441","co38200","norming","","","","","","",""
"null","../img/tt/315tt.jpg","null","mooney1","image-keyboard-response","336","951220","0.0-6.0-1.47","2248441","co38200","norming","","","","","","",""
"2789","","","post_mooney1_questions","survey-likert","337","954011","0.0-6.0-2.47","2248441","co38200","norming","","","{""curiosity"":4,""confidence"":1}","[0,1]","../img/tt/315tt.jpg","",""
"1975","","","recognition","survey-text","338","955995","0.0-6.0-3.47","2248441","co38200","norming","","","{""guess"":""vogel""}","","../img/tt/315tt.jpg","",""
"null","../img/gs/315gs.jpg","null","reveal","image-keyboard-response","339","957998","0.0-6.0-4.47","2248441","co38200","norming","","","","","","",""
"null","../img/tt/315tt.jpg","null","mooney2","image-keyboard-response","340","960000","0.0-6.0-5.47","2248441","co38200","norming","","","","","","",""
"2911","","","post_reveal_questions","survey-likert","341","962912","0.0-6.0-6.47","2248441","co38200","norming","","","{""aha"":4}","[0]","../img/tt/315tt.jpg","",""
"null","<div style=""font-size:60px;""> </div>","null","fixation","html-keyboard-response","342","963116","0.0-6.0-0.48","2248441","co38200","norming","","","","","","",""
"null","../img/tt/1087tt.jpg","null","mooney1","image-keyboard-response","343","966118","0.0-6.0-1.48","2248441","co38200","norming","","","","","","",""
"3846","","","post_mooney1_questions","survey-likert","344","969966","0.0-6.0-2.48","2248441","co38200","norming","","","{""curiosity"":3,""confidence"":3}","[0,1]","../img/tt/1087tt.jpg","",""
"3029","","","recognition","survey-text","345","973003","0.0-6.0-3.48","2248441","co38200","norming","","","{""guess"":""koe""}","","../img/tt/1087tt.jpg","",""
"null","../img/gs/1087gs.jpg","null","reveal","image-keyboard-response","346","975006","0.0-6.0-4.48","2248441","co38200","norming","","","","","","",""
"null","../img/tt/1087tt.jpg","null","mooney2","image-keyboard-response","347","977008","0.0-6.0-5.48","2248441","co38200","norming","","","","","","",""
"2248","","","post_reveal_questions","survey-likert","348","979258","0.0-6.0-6.48","2248441","co38200","norming","","","{""aha"":2}","[0]","../img/tt/1087tt.jpg","",""
"null","<div style=""font-size:60px;""> </div>","null","fixation","html-keyboard-response","349","979461","0.0-6.0-0.49","2248441","co38200","norming","","","","","","",""
"null","../img/tt/1072tt.jpg","null","mooney1","image-keyboard-response","350","982463","0.0-6.0-1.49","2248441","co38200","norming","","","","","","",""
"2750","","","post_mooney1_questions","survey-likert","351","985215","0.0-6.0-2.49","2248441","co38200","norming","","","{""curiosity"":4,""confidence"":1}","[0,1]","../img/tt/1072tt.jpg","",""
"1771","","","recognition","survey-text","352","986995","0.0-6.0-3.49","2248441","co38200","norming","","","{""guess"":""brommer""}","","../img/tt/1072tt.jpg","",""
"null","../img/gs/1072gs.jpg","null","reveal","image-keyboard-response","353","988998","0.0-6.0-4.49","2248441","co38200","norming","","","","","","",""
"null","../img/tt/1072tt.jpg","null","mooney2","image-keyboard-response","354","991002","0.0-6.0-5.49","2248441","co38200","norming","","","","","","",""
"2753.9999999998836","","","post_reveal_questions","survey-likert","355","993758","0.0-6.0-6.49","2248441","co38200","norming","","","{""aha"":3}","[0]","../img/tt/1072tt.jpg","",""
"null","<div style=""font-size:60px;""> </div>","null","fixation","html-keyboard-response","356","993961","0.0-6.0-0.50","2248441","co38200","norming","","","","","","",""
"null","../img/tt/1241tt.jpg","null","mooney1","image-keyboard-response","357","996964","0.0-6.0-1.50","2248441","co38200","norming","","","","","","",""
"4406","","","post_mooney1_questions","survey-likert","358","1001372","0.0-6.0-2.50","2248441","co38200","norming","","","{""curiosity"":3,""confidence"":2}","[0,1]","../img/tt/1241tt.jpg","",""
"2327","","","recognition","survey-text","359","1003707","0.0-6.0-3.50","2248441","co38200","norming","","","{""guess"":""varken""}","","../img/tt/1241tt.jpg","",""
"null","../img/gs/1241gs.jpg","null","reveal","image-keyboard-response","360","1005709","0.0-6.0-4.50","2248441","co38200","norming","","","","","","",""
"null","../img/tt/1241tt.jpg","null","mooney2","image-keyboard-response","361","1007711","0.0-6.0-5.50","2248441","co38200","norming","","","","","","",""
"1489.0000000001164","","","post_reveal_questions","survey-likert","362","1009202","0.0-6.0-6.50","2248441","co38200","norming","","","{""aha"":5}","[0]","../img/tt/1241tt.jpg","",""
"null","<div style=""font-size:60px;""> </div>","null","fixation","html-keyboard-response","363","1009405","0.0-6.0-0.51","2248441","co38200","norming","","","","","","",""
"null","../img/tt/1366tt.jpg","null","mooney1","image-keyboard-response","364","1012407","0.0-6.0-1.51","2248441","co38200","norming","","","","","","",""
"5185.999999999884","","","post_mooney1_questions","survey-likert","365","1017595","0.0-6.0-2.51","2248441","co38200","norming","","","{""curiosity"":4,""confidence"":0}","[0,1]","../img/tt/1366tt.jpg","",""
"1536","","","recognition","survey-text","366","1019139","0.0-6.0-3.51","2248441","co38200","norming","","","{""guess"":""""}","","../img/tt/1366tt.jpg","",""
"null","../img/gs/1366gs.jpg","null","reveal","image-keyboard-response","367","1021141","0.0-6.0-4.51","2248441","co38200","norming","","","","","","",""
"null","../img/tt/1366tt.jpg","null","mooney2","image-keyboard-response","368","1023143","0.0-6.0-5.51","2248441","co38200","norming","","","","","","",""
"2269","","","post_reveal_questions","survey-likert","369","1025416","0.0-6.0-6.51","2248441","co38200","norming","","","{""aha"":5}","[0]","../img/tt/1366tt.jpg","",""
"null","<div style=""font-size:60px;""> </div>","null","fixation","html-keyboard-response","370","1025619","0.0-6.0-0.52","2248441","co38200","norming","","","","","","",""
"null","../img/tt/1190tt.jpg","null","mooney1","image-keyboard-response","371","1028621","0.0-6.0-1.52","2248441","co38200","norming","","","","","","",""
"3095","","","post_mooney1_questions","survey-likert","372","1031717","0.0-6.0-2.52","2248441","co38200","norming","","","{""curiosity"":4,""confidence"":1}","[0,1]","../img/tt/1190tt.jpg","",""
"2541.9999999998836","","","recognition","survey-text","373","1034267","0.0-6.0-3.52","2248441","co38200","norming","","","{""guess"":""everzwijn""}","","../img/tt/1190tt.jpg","",""
"null","../img/gs/1190gs.jpg","null","reveal","image-keyboard-response","374","1036270","0.0-6.0-4.52","2248441","co38200","norming","","","","","","",""
"null","../img/tt/1190tt.jpg","null","mooney2","image-keyboard-response","375","1038271","0.0-6.0-5.52","2248441","co38200","norming","","","","","","",""
"2808","","","post_reveal_questions","survey-likert","376","1041082","0.0-6.0-6.52","2248441","co38200","norming","","","{""aha"":4}","[0]","../img/tt/1190tt.jpg","",""
"null","<div style=""font-size:60px;""> </div>","null","fixation","html-keyboard-response","377","1041285","0.0-6.0-0.53","2248441","co38200","norming","","","","","","",""
"null","../img/tt/507tt.jpg","null","mooney1","image-keyboard-response","378","1044290","0.0-6.0-1.53","2248441","co38200","norming","","","","","","",""
"3339.9999999998836","","","post_mooney1_questions","survey-likert","379","1047632","0.0-6.0-2.53","2248441","co38200","norming","","","{""curiosity"":4,""confidence"":2}","[0,1]","../img/tt/507tt.jpg","",""
"1987","","","recognition","survey-text","380","1049627","0.0-6.0-3.53","2248441","co38200","norming","","","{""guess"":""non""}","","../img/tt/507tt.jpg","",""
"null","../img/gs/507gs.jpg","null","reveal","image-keyboard-response","381","1051630","0.0-6.0-4.53","2248441","co38200","norming","","","","","","",""
"null","../img/tt/507tt.jpg","null","mooney2","image-keyboard-response","382","1053632","0.0-6.0-5.53","2248441","co38200","norming","","","","","","",""
"3207","","","post_reveal_questions","survey-likert","383","1056841","0.0-6.0-6.53","2248441","co38200","norming","","","{""aha"":4}","[0]","../img/tt/507tt.jpg","",""
"null","<div style=""font-size:60px;""> </div>","null","fixation","html-keyboard-response","384","1057044","0.0-6.0-0.54","2248441","co38200","norming","","","","","","",""
"null","../img/tt/301tt.jpg","null","mooney1","image-keyboard-response","385","1060046","0.0-6.0-1.54","2248441","co38200","norming","","","","","","",""
"3373","","","post_mooney1_questions","survey-likert","386","1063422","0.0-6.0-2.54","2248441","co38200","norming","","","{""curiosity"":5,""confidence"":0}","[0,1]","../img/tt/301tt.jpg","",""
"1209","","","recognition","survey-text","387","1064639","0.0-6.0-3.54","2248441","co38200","norming","","","{""guess"":""""}","","../img/tt/301tt.jpg","",""
"null","../img/gs/301gs.jpg","null","reveal","image-keyboard-response","388","1066642","0.0-6.0-4.54","2248441","co38200","norming","","","","","","",""
"null","../img/tt/301tt.jpg","null","mooney2","image-keyboard-response","389","1068644","0.0-6.0-5.54","2248441","co38200","norming","","","","","","",""
"3664","","","post_reveal_questions","survey-likert","390","1072310","0.0-6.0-6.54","2248441","co38200","norming","","","{""aha"":5}","[0]","../img/tt/301tt.jpg","",""
"null","<div style=""font-size:60px;""> </div>","null","fixation","html-keyboard-response","391","1072513","0.0-6.0-0.55","2248441","co38200","norming","","","","","","",""
"null","../img/tt/1250tt.jpg","null","mooney1","image-keyboard-response","392","1075517","0.0-6.0-1.55","2248441","co38200","norming","","","","","","",""
"4552","","","post_mooney1_questions","survey-likert","393","1080077","0.0-6.0-2.55","2248441","co38200","norming","","","{""curiosity"":4,""confidence"":1}","[0,1]","../img/tt/1250tt.jpg","",""
"1968","","","recognition","survey-text","394","1082055","0.0-6.0-3.55","2248441","co38200","norming","","","{""guess"":""persoon""}","","../img/tt/1250tt.jpg","",""
"null","../img/gs/1250gs.jpg","null","reveal","image-keyboard-response","395","1084059","0.0-6.0-4.55","2248441","co38200","norming","","","","","","",""
"null","../img/tt/1250tt.jpg","null","mooney2","image-keyboard-response","396","1086063","0.0-6.0-5.55","2248441","co38200","norming","","","","","","",""
"1954","","","post_reveal_questions","survey-likert","397","1088019","0.0-6.0-6.55","2248441","co38200","norming","","","{""aha"":3}","[0]","../img/tt/1250tt.jpg","",""
"null","<div style=""font-size:60px;""> </div>","null","fixation","html-keyboard-response","398","1088223","0.0-6.0-0.56","2248441","co38200","norming","","","","","","",""
"null","../img/tt/1148tt.jpg","null","mooney1","image-keyboard-response","399","1091227","0.0-6.0-1.56","2248441","co38200","norming","","","","","","",""
"3917.000000000233","","","post_mooney1_questions","survey-likert","400","1095148","0.0-6.0-2.56","2248441","co38200","norming","","","{""curiosity"":4,""confidence"":0}","[0,1]","../img/tt/1148tt.jpg","",""
"604","","","recognition","survey-text","401","1095760","0.0-6.0-3.56","2248441","co38200","norming","","","{""guess"":""""}","","../img/tt/1148tt.jpg","",""
"null","../img/gs/1148gs.jpg","null","reveal","image-keyboard-response","402","1097763","0.0-6.0-4.56","2248441","co38200","norming","","","","","","",""
"null","../img/tt/1148tt.jpg","null","mooney2","image-keyboard-response","403","1099768","0.0-6.0-5.56","2248441","co38200","norming","","","","","","",""
"1379.0000000002328","","","post_reveal_questions","survey-likert","404","1101150","0.0-6.0-6.56","2248441","co38200","norming","","","{""aha"":6}","[0]","../img/tt/1148tt.jpg","",""
"null","<div style=""font-size:60px;""> </div>","null","fixation","html-keyboard-response","405","1101353","0.0-6.0-0.57","2248441","co38200","norming","","","","","","",""
"null","../img/tt/1012tt.jpg","null","mooney1","image-keyboard-response","406","1104357","0.0-6.0-1.57","2248441","co38200","norming","","","","","","",""
"4879","","","post_mooney1_questions","survey-likert","407","1109238","0.0-6.0-2.57","2248441","co38200","norming","","","{""curiosity"":3,""confidence"":4}","[0,1]","../img/tt/1012tt.jpg","",""
"1294","","","recognition","survey-text","408","1110541","0.0-6.0-3.57","2248441","co38200","norming","","","{""guess"":""paard""}","","../img/tt/1012tt.jpg","",""
"null","../img/gs/1012gs.jpg","null","reveal","image-keyboard-response","409","1112544","0.0-6.0-4.57","2248441","co38200","norming","","","","","","",""
"null","../img/tt/1012tt.jpg","null","mooney2","image-keyboard-response","410","1114547","0.0-6.0-5.57","2248441","co38200","norming","","","","","","",""
"2451","","","post_reveal_questions","survey-likert","411","1117000","0.0-6.0-6.57","2248441","co38200","norming","","","{""aha"":2}","[0]","../img/tt/1012tt.jpg","",""
"null","<div style=""font-size:60px;""> </div>","null","fixation","html-keyboard-response","412","1117204","0.0-6.0-0.58","2248441","co38200","norming","","","","","","",""
"null","../img/tt/010tt.jpg","null","mooney1","image-keyboard-response","413","1120206","0.0-6.0-1.58","2248441","co38200","norming","","","","","","",""
"3536","","","post_mooney1_questions","survey-likert","414","1123745","0.0-6.0-2.58","2248441","co38200","norming","","","{""curiosity"":2,""confidence"":1}","[0,1]","../img/tt/010tt.jpg","",""
"1363","","","recognition","survey-text","415","1125116","0.0-6.0-3.58","2248441","co38200","norming","","","{""guess"":""vis""}","","../img/tt/010tt.jpg","",""
"null","../img/gs/010gs.jpg","null","reveal","image-keyboard-response","416","1127119","0.0-6.0-4.58","2248441","co38200","norming","","","","","","",""
"null","../img/tt/010tt.jpg","null","mooney2","image-keyboard-response","417","1129121","0.0-6.0-5.58","2248441","co38200","norming","","","","","","",""
"2826","","","post_reveal_questions","survey-likert","418","1131949","0.0-6.0-6.58","2248441","co38200","norming","","","{""aha"":5}","[0]","../img/tt/010tt.jpg","",""
"null","<div style=""font-size:60px;""> </div>","null","fixation","html-keyboard-response","419","1132152","0.0-6.0-0.59","2248441","co38200","norming","","","","","","",""
"null","../img/tt/1196tt.jpg","null","mooney1","image-keyboard-response","420","1135154","0.0-6.0-1.59","2248441","co38200","norming","","","","","","",""
"3439","","","post_mooney1_questions","survey-likert","421","1138595","0.0-6.0-2.59","2248441","co38200","norming","","","{""curiosity"":4,""confidence"":0}","[0,1]","../img/tt/1196tt.jpg","",""
"891","","","recognition","survey-text","422","1139495","0.0-6.0-3.59","2248441","co38200","norming","","","{""guess"":""""}","","../img/tt/1196tt.jpg","",""
"null","../img/gs/1196gs.jpg","null","reveal","image-keyboard-response","423","1141497","0.0-6.0-4.59","2248441","co38200","norming","","","","","","",""
"null","../img/tt/1196tt.jpg","null","mooney2","image-keyboard-response","424","1143499","0.0-6.0-5.59","2248441","co38200","norming","","","","","","",""
"3550.000000000233","","","post_reveal_questions","survey-likert","425","1147051","0.0-6.0-6.59","2248441","co38200","norming","","","{""aha"":1}","[0]","../img/tt/1196tt.jpg","",""
"null","<div style=""font-size:60px;""> </div>","null","fixation","html-keyboard-response","426","1147254","0.0-6.0-0.60","2248441","co38200","norming","","","","","","",""
"null","../img/tt/1086tt.jpg","null","mooney1","image-keyboard-response","427","1150257","0.0-6.0-1.60","2248441","co38200","norming","","","","","","",""
"3531","","","post_mooney1_questions","survey-likert","428","1153789","0.0-6.0-2.60","2248441","co38200","norming","","","{""curiosity"":4,""confidence"":1}","[0,1]","../img/tt/1086tt.jpg","",""
"1147","","","recognition","survey-text","429","1154944","0.0-6.0-3.60","2248441","co38200","norming","","","{""guess"":""koe""}","","../img/tt/1086tt.jpg","",""
"null","../img/gs/1086gs.jpg","null","reveal","image-keyboard-response","430","1156947","0.0-6.0-4.60","2248441","co38200","norming","","","","","","",""
"null","../img/tt/1086tt.jpg","null","mooney2","image-keyboard-response","431","1158952","0.0-6.0-5.60","2248441","co38200","norming","","","","","","",""
"2456","","","post_reveal_questions","survey-likert","432","1161410","0.0-6.0-6.60","2248441","co38200","norming","","","{""aha"":4}","[0]","../img/tt/1086tt.jpg","",""
"null","<div style=""font-size:60px;""> </div>","null","fixation","html-keyboard-response","433","1161613","0.0-6.0-0.61","2248441","co38200","norming","","","","","","",""
"null","../img/tt/1251tt.jpg","null","mooney1","image-keyboard-response","434","1164615","0.0-6.0-1.61","2248441","co38200","norming","","","","","","",""
"3776","","","post_mooney1_questions","survey-likert","435","1168393","0.0-6.0-2.61","2248441","co38200","norming","","","{""curiosity"":3,""confidence"":2}","[0,1]","../img/tt/1251tt.jpg","",""
"1499","","","recognition","survey-text","436","1169900","0.0-6.0-3.61","2248441","co38200","norming","","","{""guess"":""beer""}","","../img/tt/1251tt.jpg","",""
"null","../img/gs/1251gs.jpg","null","reveal","image-keyboard-response","437","1171903","0.0-6.0-4.61","2248441","co38200","norming","","","","","","",""
"null","../img/tt/1251tt.jpg","null","mooney2","image-keyboard-response","438","1173905","0.0-6.0-5.61","2248441","co38200","norming","","","","","","",""
"3154","","","post_reveal_questions","survey-likert","439","1177060","0.0-6.0-6.61","2248441","co38200","norming","","","{""aha"":2}","[0]","../img/tt/1251tt.jpg","",""
"null","<div style=""font-size:60px;""> </div>","null","fixation","html-keyboard-response","440","1177263","0.0-6.0-0.62","2248441","co38200","norming","","","","","","",""
"null","../img/tt/1123tt.jpg","null","mooney1","image-keyboard-response","441","1180266","0.0-6.0-1.62","2248441","co38200","norming","","","","","","",""
"3172","","","post_mooney1_questions","survey-likert","442","1183440","0.0-6.0-2.62","2248441","co38200","norming","","","{""curiosity"":3,""confidence"":1}","[0,1]","../img/tt/1123tt.jpg","",""
"2089","","","recognition","survey-text","443","1185536","0.0-6.0-3.62","2248441","co38200","norming","","","{""guess"":""voetbal""}","","../img/tt/1123tt.jpg","",""
"null","../img/gs/1123gs.jpg","null","reveal","image-keyboard-response","444","1187539","0.0-6.0-4.62","2248441","co38200","norming","","","","","","",""
"null","../img/tt/1123tt.jpg","null","mooney2","image-keyboard-response","445","1189541","0.0-6.0-5.62","2248441","co38200","norming","","","","","","",""
"4056.999999999767","","","post_reveal_questions","survey-likert","446","1193599","0.0-6.0-6.62","2248441","co38200","norming","","","{""aha"":2}","[0]","../img/tt/1123tt.jpg","",""
"null","<div style=""font-size:60px;""> </div>","null","fixation","html-keyboard-response","447","1193802","0.0-6.0-0.63","2248441","co38200","norming","","","","","","",""
"null","../img/tt/1040tt.jpg","null","mooney1","image-keyboard-response","448","1196805","0.0-6.0-1.63","2248441","co38200","norming","","","","","","",""
"2336","","","post_mooney1_questions","survey-likert","449","1199145","0.0-6.0-2.63","2248441","co38200","norming","","","{""curiosity"":4,""confidence"":4}","[0,1]","../img/tt/1040tt.jpg","",""
"2284","","","recognition","survey-text","450","1201437","0.0-6.0-3.63","2248441","co38200","norming","","","{""guess"":""giraffe""}","","../img/tt/1040tt.jpg","",""
"null","../img/gs/1040gs.jpg","null","reveal","image-keyboard-response","451","1203440","0.0-6.0-4.63","2248441","co38200","norming","","","","","","",""
"null","../img/tt/1040tt.jpg","null","mooney2","image-keyboard-response","452","1205442","0.0-6.0-5.63","2248441","co38200","norming","","","","","","",""
"2987","","","post_reveal_questions","survey-likert","453","1208430","0.0-6.0-6.63","2248441","co38200","norming","","","{""aha"":2}","[0]","../img/tt/1040tt.jpg","",""
"null","<div style=""font-size:60px;""> </div>","null","fixation","html-keyboard-response","454","1208634","0.0-6.0-0.64","2248441","co38200","norming","","","","","","",""
"null","../img/tt/1186tt.jpg","null","mooney1","image-keyboard-response","455","1211637","0.0-6.0-1.64","2248441","co38200","norming","","","","","","",""
"3232.000000000233","","","post_mooney1_questions","survey-likert","456","1214871","0.0-6.0-2.64","2248441","co38200","norming","","","{""curiosity"":1,""confidence"":0}","[0,1]","../img/tt/1186tt.jpg","",""
"1165","","","recognition","survey-text","457","1216044","0.0-6.0-3.64","2248441","co38200","norming","","","{""guess"":""""}","","../img/tt/1186tt.jpg","",""
"null","../img/gs/1186gs.jpg","null","reveal","image-keyboard-response","458","1218047","0.0-6.0-4.64","2248441","co38200","norming","","","","","","",""
"null","../img/tt/1186tt.jpg","null","mooney2","image-keyboard-response","459","1220049","0.0-6.0-5.64","2248441","co38200","norming","","","","","","",""
"1544","","","post_reveal_questions","survey-likert","460","1221594","0.0-6.0-6.64","2248441","co38200","norming","","","{""aha"":2}","[0]","../img/tt/1186tt.jpg","",""
"null","<div style=""font-size:60px;""> </div>","null","fixation","html-keyboard-response","461","1221797","0.0-6.0-0.65","2248441","co38200","norming","","","","","","",""
"null","../img/tt/1270tt.jpg","null","mooney1","image-keyboard-response","462","1224799","0.0-6.0-1.65","2248441","co38200","norming","","","","","","",""
"3369","","","post_mooney1_questions","survey-likert","463","1228170","0.0-6.0-2.65","2248441","co38200","norming","","","{""curiosity"":3,""confidence"":1}","[0,1]","../img/tt/1270tt.jpg","",""
"1046.9999999997672","","","recognition","survey-text","464","1229226","0.0-6.0-3.65","2248441","co38200","norming","","","{""guess"":""koe""}","","../img/tt/1270tt.jpg","",""
"null","../img/gs/1270gs.jpg","null","reveal","image-keyboard-response","465","1231228","0.0-6.0-4.65","2248441","co38200","norming","","","","","","",""
"null","../img/tt/1270tt.jpg","null","mooney2","image-keyboard-response","466","1233233","0.0-6.0-5.65","2248441","co38200","norming","","","","","","",""
"2931","","","post_reveal_questions","survey-likert","467","1236165","0.0-6.0-6.65","2248441","co38200","norming","","","{""aha"":1}","[0]","../img/tt/1270tt.jpg","",""
"null","<div style=""font-size:60px;""> </div>","null","fixation","html-keyboard-response","468","1236369","0.0-6.0-0.66","2248441","co38200","norming","","","","","","",""
"null","../img/tt/118tt.jpg","null","mooney1","image-keyboard-response","469","1239371","0.0-6.0-1.66","2248441","co38200","norming","","","","","","",""
"3620","","","post_mooney1_questions","survey-likert","470","1242993","0.0-6.0-2.66","2248441","co38200","norming","","","{""curiosity"":3,""confidence"":2}","[0,1]","../img/tt/118tt.jpg","",""
"1534","","","recognition","survey-text","471","1244535","0.0-6.0-3.66","2248441","co38200","norming","","","{""guess"":""ladder""}","","../img/tt/118tt.jpg","",""
"null","../img/gs/118gs.jpg","null","reveal","image-keyboard-response","472","1246537","0.0-6.0-4.66","2248441","co38200","norming","","","","","","",""
"null","../img/tt/118tt.jpg","null","mooney2","image-keyboard-response","473","1248538","0.0-6.0-5.66","2248441","co38200","norming","","","","","","",""
"1593","","","post_reveal_questions","survey-likert","474","1250133","0.0-6.0-6.66","2248441","co38200","norming","","","{""aha"":3}","[0]","../img/tt/118tt.jpg","",""
"null","<div style=""font-size:60px;""> </div>","null","fixation","html-keyboard-response","475","1250336","0.0-6.0-0.67","2248441","co38200","norming","","","","","","",""
"null","../img/tt/1262tt.jpg","null","mooney1","image-keyboard-response","476","1253339","0.0-6.0-1.67","2248441","co38200","norming","","","","","","",""
"2925","","","post_mooney1_questions","survey-likert","477","1256268","0.0-6.0-2.67","2248441","co38200","norming","","","{""curiosity"":4,""confidence"":3}","[0,1]","../img/tt/1262tt.jpg","",""
"2267","","","recognition","survey-text","478","1258543","0.0-6.0-3.67","2248441","co38200","norming","","","{""guess"":""vogel""}","","../img/tt/1262tt.jpg","",""
"null","../img/gs/1262gs.jpg","null","reveal","image-keyboard-response","479","1260546","0.0-6.0-4.67","2248441","co38200","norming","","","","","","",""
"null","../img/tt/1262tt.jpg","null","mooney2","image-keyboard-response","480","1262548","0.0-6.0-5.67","2248441","co38200","norming","","","","","","",""
"2315","","","post_reveal_questions","survey-likert","481","1264865","0.0-6.0-6.67","2248441","co38200","norming","","","{""aha"":1}","[0]","../img/tt/1262tt.jpg","",""
"null","<div style=""font-size:60px;""> </div>","null","fixation","html-keyboard-response","482","1265068","0.0-6.0-0.68","2248441","co38200","norming","","","","","","",""
"null","../img/tt/111tt.jpg","null","mooney1","image-keyboard-response","483","1268071","0.0-6.0-1.68","2248441","co38200","norming","","","","","","",""
"3736","","","post_mooney1_questions","survey-likert","484","1271808","0.0-6.0-2.68","2248441","co38200","norming","","","{""curiosity"":0,""confidence"":0}","[0,1]","../img/tt/111tt.jpg","",""
"1027","","","recognition","survey-text","485","1272844","0.0-6.0-3.68","2248441","co38200","norming","","","{""guess"":""""}","","../img/tt/111tt.jpg","",""
"null","../img/gs/111gs.jpg","null","reveal","image-keyboard-response","486","1274847","0.0-6.0-4.68","2248441","co38200","norming","","","","","","",""
"null","../img/tt/111tt.jpg","null","mooney2","image-keyboard-response","487","1276849","0.0-6.0-5.68","2248441","co38200","norming","","","","","","",""
"3454.000000000233","","","post_reveal_questions","survey-likert","488","1280305","0.0-6.0-6.68","2248441","co38200","norming","","","{""aha"":0}","[0]","../img/tt/111tt.jpg","",""
"null","<div style=""font-size:60px;""> </div>","null","fixation","html-keyboard-response","489","1280508","0.0-6.0-0.69","2248441","co38200","norming","","","","","","",""
"null","../img/tt/112tt.jpg","null","mooney1","image-keyboard-response","490","1283510","0.0-6.0-1.69","2248441","co38200","norming","","","","","","",""
"3756","","","post_mooney1_questions","survey-likert","491","1287268","0.0-6.0-2.69","2248441","co38200","norming","","","{""curiosity"":0,""confidence"":0}","[0,1]","../img/tt/112tt.jpg","",""
"827","","","recognition","survey-text","492","1288103","0.0-6.0-3.69","2248441","co38200","norming","","","{""guess"":""""}","","../img/tt/112tt.jpg","",""
"null","../img/gs/112gs.jpg","null","reveal","image-keyboard-response","493","1290105","0.0-6.0-4.69","2248441","co38200","norming","","","","","","",""
"null","../img/tt/112tt.jpg","null","mooney2","image-keyboard-response","494","1292110","0.0-6.0-5.69","2248441","co38200","norming","","","","","","",""
"3456","","","post_reveal_questions","survey-likert","495","1295568","0.0-6.0-6.69","2248441","co38200","norming","","","{""aha"":0}","[0]","../img/tt/112tt.jpg","",""
"null","<div style=""font-size:60px;""> </div>","null","fixation","html-keyboard-response","496","1295770","0.0-6.0-0.70","2248441","co38200","norming","","","","","","",""
"null","../img/tt/189tt.jpg","null","mooney1","image-keyboard-response","497","1298773","0.0-6.0-1.70","2248441","co38200","norming","","","","","","",""
"3309.000000000233","","","post_mooney1_questions","survey-likert","498","1302083","0.0-6.0-2.70","2248441","co38200","norming","","","{""curiosity"":3,""confidence"":2}","[0,1]","../img/tt/189tt.jpg","",""
"1039","","","recognition","survey-text","499","1303131","0.0-6.0-3.70","2248441","co38200","norming","","","{""guess"":""koe""}","","../img/tt/189tt.jpg","",""
"null","../img/gs/189gs.jpg","null","reveal","image-keyboard-response","500","1305134","0.0-6.0-4.70","2248441","co38200","norming","","","","","","",""
"null","../img/tt/189tt.jpg","null","mooney2","image-keyboard-response","501","1307136","0.0-6.0-5.70","2248441","co38200","norming","","","","","","",""
"2624","","","post_reveal_questions","survey-likert","502","1309762","0.0-6.0-6.70","2248441","co38200","norming","","","{""aha"":2}","[0]","../img/tt/189tt.jpg","",""
"null","<div style=""font-size:60px;""> </div>","null","fixation","html-keyboard-response","503","1309966","0.0-6.0-0.71","2248441","co38200","norming","","","","","","",""
"null","../img/tt/522tt.jpg","null","mooney1","image-keyboard-response","504","1312968","0.0-6.0-1.71","2248441","co38200","norming","","","","","","",""
"3631","","","post_mooney1_questions","survey-likert","505","1316604","0.0-6.0-2.71","2248441","co38200","norming","","","{""curiosity"":0,""confidence"":0}","[0,1]","../img/tt/522tt.jpg","",""
"1072","","","recognition","survey-text","506","1317684","0.0-6.0-3.71","2248441","co38200","norming","","","{""guess"":""""}","","../img/tt/522tt.jpg","",""
"null","../img/gs/522gs.jpg","null","reveal","image-keyboard-response","507","1319686","0.0-6.0-4.71","2248441","co38200","norming","","","","","","",""
"null","../img/tt/522tt.jpg","null","mooney2","image-keyboard-response","508","1321688","0.0-6.0-5.71","2248441","co38200","norming","","","","","","",""
"1763.9999999997672","","","post_reveal_questions","survey-likert","509","1323454","0.0-6.0-6.71","2248441","co38200","norming","","","{""aha"":0}","[0]","../img/tt/522tt.jpg","",""
"null","<div style=""font-size:60px;""> </div>","null","fixation","html-keyboard-response","510","1323657","0.0-6.0-0.72","2248441","co38200","norming","","","","","","",""
"null","../img/tt/096tt.jpg","null","mooney1","image-keyboard-response","511","1326659","0.0-6.0-1.72","2248441","co38200","norming","","","","","","",""
"3412","","","post_mooney1_questions","survey-likert","512","1330072","0.0-6.0-2.72","2248441","co38200","norming","","","{""curiosity"":1,""confidence"":4}","[0,1]","../img/tt/096tt.jpg","",""
"1521","","","recognition","survey-text","513","1331601","0.0-6.0-3.72","2248441","co38200","norming","","","{""guess"":""piano""}","","../img/tt/096tt.jpg","",""
"null","../img/gs/096gs.jpg","null","reveal","image-keyboard-response","514","1333604","0.0-6.0-4.72","2248441","co38200","norming","","","","","","",""
"null","../img/tt/096tt.jpg","null","mooney2","image-keyboard-response","515","1335606","0.0-6.0-5.72","2248441","co38200","norming","","","","","","",""
"3277","","","post_reveal_questions","survey-likert","516","1338883","0.0-6.0-6.72","2248441","co38200","norming","","","{""aha"":1}","[0]","../img/tt/096tt.jpg","",""
"null","<div style=""font-size:60px;""> </div>","null","fixation","html-keyboard-response","517","1339087","0.0-6.0-0.73","2248441","co38200","norming","","","","","","",""
"null","../img/tt/1191tt.jpg","null","mooney1","image-keyboard-response","518","1342088","0.0-6.0-1.73","2248441","co38200","norming","","","","","","",""
"2771","","","post_mooney1_questions","survey-likert","519","1344861","0.0-6.0-2.73","2248441","co38200","norming","","","{""curiosity"":1,""confidence"":1}","[0,1]","../img/tt/1191tt.jpg","",""
"1719","","","recognition","survey-text","520","1346588","0.0-6.0-3.73","2248441","co38200","norming","","","{""guess"":""mensen""}","","../img/tt/1191tt.jpg","",""
"null","../img/gs/1191gs.jpg","null","reveal","image-keyboard-response","521","1348591","0.0-6.0-4.73","2248441","co38200","norming","","","","","","",""
"null","../img/tt/1191tt.jpg","null","mooney2","image-keyboard-response","522","1350593","0.0-6.0-5.73","2248441","co38200","norming","","","","","","",""
"1996","","","post_reveal_questions","survey-likert","523","1352590","0.0-6.0-6.73","2248441","co38200","norming","","","{""aha"":2}","[0]","../img/tt/1191tt.jpg","",""
"null","<div style=""font-size:60px;""> </div>","null","fixation","html-keyboard-response","524","1352793","0.0-6.0-0.74","2248441","co38200","norming","","","","","","",""
"null","../img/tt/056tt.jpg","null","mooney1","image-keyboard-response","525","1355795","0.0-6.0-1.74","2248441","co38200","norming","","","","","","",""
"2344.999999999767","","","post_mooney1_questions","survey-likert","526","1358142","0.0-6.0-2.74","2248441","co38200","norming","","","{""curiosity"":0,""confidence"":0}","[0,1]","../img/tt/056tt.jpg","",""
"563","","","recognition","survey-text","527","1358714","0.0-6.0-3.74","2248441","co38200","norming","","","{""guess"":""""}","","../img/tt/056tt.jpg","",""
"null","../img/gs/056gs.jpg","null","reveal","image-keyboard-response","528","1360716","0.0-6.0-4.74","2248441","co38200","norming","","","","","","",""
"null","../img/tt/056tt.jpg","null","mooney2","image-keyboard-response","529","1362718","0.0-6.0-5.74","2248441","co38200","norming","","","","","","",""
"2817","","","post_reveal_questions","survey-likert","530","1365536","0.0-6.0-6.74","2248441","co38200","norming","","","{""aha"":0}","[0]","../img/tt/056tt.jpg","",""
"null","<div style=""font-size:60px;""> </div>","null","fixation","html-keyboard-response","531","1365739","0.0-6.0-0.75","2248441","co38200","norming","","","","","","",""
"null","../img/tt/307tt.jpg","null","mooney1","image-keyboard-response","532","1368742","0.0-6.0-1.75","2248441","co38200","norming","","","","","","",""
"3580","","","post_mooney1_questions","survey-likert","533","1372324","0.0-6.0-2.75","2248441","co38200","norming","","","{""curiosity"":2,""confidence"":3}","[0,1]","../img/tt/307tt.jpg","",""
"1497","","","recognition","survey-text","534","1373829","0.0-6.0-3.75","2248441","co38200","norming","","","{""guess"":""muziek""}","","../img/tt/307tt.jpg","",""
"null","../img/gs/307gs.jpg","null","reveal","image-keyboard-response","535","1375832","0.0-6.0-4.75","2248441","co38200","norming","","","","","","",""
"null","../img/tt/307tt.jpg","null","mooney2","image-keyboard-response","536","1377835","0.0-6.0-5.75","2248441","co38200","norming","","","","","","",""
"3180.999999999767","","","post_reveal_questions","survey-likert","537","1381018","0.0-6.0-6.75","2248441","co38200","norming","","","{""aha"":4}","[0]","../img/tt/307tt.jpg","",""
"null","<div style=""font-size:60px;""> </div>","null","fixation","html-keyboard-response","538","1381221","0.0-6.0-0.76","2248441","co38200","norming","","","","","","",""
"null","../img/tt/019tt.jpg","null","mooney1","image-keyboard-response","539","1384222","0.0-6.0-1.76","2248441","co38200","norming","","","","","","",""
"3287","","","post_mooney1_questions","survey-likert","540","1387512","0.0-6.0-2.76","2248441","co38200","norming","","","{""curiosity"":1,""confidence"":2}","[0,1]","../img/tt/019tt.jpg","",""
"1895","","","recognition","survey-text","541","1389415","0.0-6.0-3.76","2248441","co38200","norming","","","{""guess"":""geweer""}","","../img/tt/019tt.jpg","",""
"null","../img/gs/019gs.jpg","null","reveal","image-keyboard-response","542","1391418","0.0-6.0-4.76","2248441","co38200","norming","","","","","","",""
"null","../img/tt/019tt.jpg","null","mooney2","image-keyboard-response","543","1393421","0.0-6.0-5.76","2248441","co38200","norming","","","","","","",""
"1365","","","post_reveal_questions","survey-likert","544","1394787","0.0-6.0-6.76","2248441","co38200","norming","","","{""aha"":3}","[0]","../img/tt/019tt.jpg","",""
"null","<div style=""font-size:60px;""> </div>","null","fixation","html-keyboard-response","545","1394991","0.0-6.0-0.77","2248441","co38200","norming","","","","","","",""
"null","../img/tt/1363tt.jpg","null","mooney1","image-keyboard-response","546","1397993","0.0-6.0-1.77","2248441","co38200","norming","","","","","","",""
"2839","","","post_mooney1_questions","survey-likert","547","1400834","0.0-6.0-2.77","2248441","co38200","norming","","","{""curiosity"":1,""confidence"":2}","[0,1]","../img/tt/1363tt.jpg","",""
"1337","","","recognition","survey-text","548","1402179","0.0-6.0-3.77","2248441","co38200","norming","","","{""guess"":""saus""}","","../img/tt/1363tt.jpg","",""
"null","../img/gs/1363gs.jpg","null","reveal","image-keyboard-response","549","1404180","0.0-6.0-4.77","2248441","co38200","norming","","","","","","",""
"null","../img/tt/1363tt.jpg","null","mooney2","image-keyboard-response","550","1406183","0.0-6.0-5.77","2248441","co38200","norming","","","","","","",""
"2750","","","post_reveal_questions","survey-likert","551","1408934","0.0-6.0-6.77","2248441","co38200","norming","","","{""aha"":1}","[0]","../img/tt/1363tt.jpg","",""
"null","<div style=""font-size:60px;""> </div>","null","fixation","html-keyboard-response","552","1409137","0.0-6.0-0.78","2248441","co38200","norming","","","","","","",""
"null","../img/tt/1181tt.jpg","null","mooney1","image-keyboard-response","553","1412140","0.0-6.0-1.78","2248441","co38200","norming","","","","","","",""
"3192","","","post_mooney1_questions","survey-likert","554","1415334","0.0-6.0-2.78","2248441","co38200","norming","","","{""curiosity"":1,""confidence"":1}","[0,1]","../img/tt/1181tt.jpg","",""
"2205","","","recognition","survey-text","555","1417547","0.0-6.0-3.78","2248441","co38200","norming","","","{""guess"":""drumstel""}","","../img/tt/1181tt.jpg","",""
"null","../img/gs/1181gs.jpg","null","reveal","image-keyboard-response","556","1419550","0.0-6.0-4.78","2248441","co38200","norming","","","","","","",""
"null","../img/tt/1181tt.jpg","null","mooney2","image-keyboard-response","557","1421552","0.0-6.0-5.78","2248441","co38200","norming","","","","","","",""
"3484","","","post_reveal_questions","survey-likert","558","1425037","0.0-6.0-6.78","2248441","co38200","norming","","","{""aha"":0}","[0]","../img/tt/1181tt.jpg","",""
"null","<div style=""font-size:60px;""> </div>","null","fixation","html-keyboard-response","559","1425241","0.0-6.0-0.79","2248441","co38200","norming","","","","","","",""
"null","../img/tt/055tt.jpg","null","mooney1","image-keyboard-response","560","1428243","0.0-6.0-1.79","2248441","co38200","norming","","","","","","",""
"3339","","","post_mooney1_questions","survey-likert","561","1431583","0.0-6.0-2.79","2248441","co38200","norming","","","{""curiosity"":0,""confidence"":0}","[0,1]","../img/tt/055tt.jpg","",""
"952","","","recognition","survey-text","562","1432544","0.0-6.0-3.79","2248441","co38200","norming","","","{""guess"":""""}","","../img/tt/055tt.jpg","",""
"null","../img/gs/055gs.jpg","null","reveal","image-keyboard-response","563","1434545","0.0-6.0-4.79","2248441","co38200","norming","","","","","","",""
"null","../img/tt/055tt.jpg","null","mooney2","image-keyboard-response","564","1436547","0.0-6.0-5.79","2248441","co38200","norming","","","","","","",""
"1531","","","post_reveal_questions","survey-likert","565","1438080","0.0-6.0-6.79","2248441","co38200","norming","","","{""aha"":0}","[0]","../img/tt/055tt.jpg","",""
"11176","<div style='word-wrap: break-word; width: 900px'><h3>Part 2</h3><p>You completed the first phase of the experiment.</p><p>In the next phase you will again see a series of distorted images, some of which you have already encountered in the previous phase.</p><p>You will be asked to indicate whether the image was an old or a new one (one not seen in the previous phase) and subsequently to recognize what is depicted if you can.</p><p>Press any key to start the new phase</p></div>","32","instructions","html-keyboard-response","566","1449258","0.0-7.0","2248441","co38200","norming","","","","","","",""
