"rt","stimulus","key_press","test_part","trial_type","trial_index","time_elapsed","internal_node_id","totalTime","subject","experiment_name","button_pressed","success","responses","question_order","currentStim","old","correct"
"3858.575000000201","Welcome to the experiment. This is an online experiment so please don't close the tab/window until we say goodbye.  Press any key to begin.","32","instructions","html-keyboard-response","0","3873","0.0-0.0","2688356","co38032","norming","","","","","","",""
"11553.545000000668","<div style='word-wrap: break-word; width: 900px'><h3>Please consider this information carefully before deciding whether to participate in this research</h3><ul style='text-align: left; font-size: .8em;'><li><b>Purpose of the research</b>: To examine how people process images.</li><li><b>What you will do in this research</b>:  Stimuli (images) will be presented on the computer and you will be asked different questions about them.</li><li><b>Time required</b>: Participation will take between 45 and 60 minutes to complete.</li><li><b>Risks</b>:  There are no anticipated risks associated with participating in this study. The effects of participating should be comparable to those you would experience from viewing a computer monitor for 30 minutes and using a mouse or keyboard.</li><li><b>Benefits</b>:  This study provides no benefits to you individually except for the credit. The study provides important information about the nature of perception and learning.</li><li><b>Confidentiality</b>:  Your participation in this study will remain confidential. No personally identifiable information will be associated with your data. Your de-identified data may be shared with other researchers and used in future projects.</li><li><b>Participation and withdrawal</b>:  Your participation in this study is completely voluntary and you may refuse to participate or you may choose to withdraw at any time without penalty.</li><li><b>How to contact the researchers</b>: If you have questions or concerns about your participation or payment, or want to request a summary of research findings, please contact Sander Van de Cruys (KU Leuven), at sander.vandecruys@kuleuven.be.</li></ul><p>The nature and purpose of this research have been sufficiently explained and I agree to participate in this study.  I understand that I am free to withdraw at any time without incurring any penalty.</p><p>Please consent by clicking the button below to continue. Otherwise, please exit the study at this time.</p></div>","","instructions","html-button-response","1","15429","0.0-1.0","2688356","co38032","norming","0","","","","","",""
"","","","instructions","fullscreen","2","19573","0.0-2.0","2688356","co38032","norming","","true","","","","",""
"46708.95500000006","","","sona","survey-html-form","3","66281","0.0-3.0","2688356","co38032","norming","","","[{""name"":""sonaid"",""value"":""38032""},{""name"":""debrief"",""value"":""yes""},{""name"":""datajoin"",""value"":""yes""}]","","","",""
"36154.92000000086","<div style='word-wrap: break-word; width: 900px'><h3>Instructions</h3><p>This experiment will have 3 parts. In the first part you will see a series of distorted images like the one below on the left. As you can see in the righthand image, the distorted images are derived from actual photographs. In what follows, you will <strong>briefly</strong> be presented with <strong>only</strong> the distorted image.</p> <div style='float: left; margin-right: 20px;'><img src='../img/018tt.jpg' height='250' width='250'></img></div><div style='float: right; margin-left: 20px;'><img src='../img/018gs.jpg' height='250' width='250'></img></div><p>Subsequently you will be asked a few questions about the image: One question on how <strong>curious</strong> you are about the solution and one on how <strong>confident</strong> you are that you know the solution.</p>Next, we ask you to make a guess on what is in the image. Note that it is OK to name just the <strong>basic level category</strong>. For example when you see a parrot in the image, 'parrot' will obviously be a correct answer but also correct is 'bird'. However, 'animal' will <strong>not</strong> be counted as a correct response. For the example above, 'rose' would be correct or 'flower', but not 'plant'. When soccer players are depicted, 'soccer', 'football', 'soccer players' will be correct, but not 'humans', 'outdoors', or 'sports'. You do not need to describe the image in full, just name the main object in it <strong>in one or two words</strong>. All images depict objects from one of the following broad level categories: animals, inanimate objects, plants, sports, vehicles, and food. Recognizing means knowing <strong>more</strong> than these broad labels for a given image. But we always encourage you to <strong>make a guess</strong> if you can. Note that you are allowed to use <strong>Dutch and English</strong> in your answers, whatever comes easiest for you.</p><p>Press any key to continue.</p></div>","13","instructions","html-keyboard-response","4","102437","0.0-4.0","2688356","co38032","norming","","","","","","",""
"254704.24000000095","<div style='word-wrap: break-word; width: 900px'><h3>Instructions</h3> <p>Next, the solution image will be revealed to you and you'll be asked to indicate how strong your <strong>aha-experience</strong> was after seeing the solution. This describes the positive feeling of the 'click' you sometimes experience, when the pieces of the 'puzzle' fall together and you suddenly have 'insight' in the image.</p><img src='aha.jpg' height='188' width='250'></img><p>Note that there are no right or wrong answers. We are interested in what <strong>you</strong> see in the image and how <strong>you</strong> feel about it.</p><p>Press any key to start the experiment.</p></div>","96","instructions","html-keyboard-response","5","357390","0.0-5.0","2688356","co38032","norming","","","","","","",""
"null","<div style=""font-size:60px;""> </div>","null","fixation","html-keyboard-response","6","357591","0.0-6.0-0.0","2688356","co38032","norming","","","","","","",""
"null","../img/tt/1363tt.jpg","null","mooney1","image-keyboard-response","7","360597","0.0-6.0-1.0","2688356","co38032","norming","","","","","","",""
"6886.3149999997695","","","post_mooney1_questions","survey-likert","8","367486","0.0-6.0-2.0","2688356","co38032","norming","","","{""curiosity"":4,""confidence"":0}","[0,1]","../img/tt/1363tt.jpg","",""
"7917.504999999423","","","recognition","survey-text","9","375406","0.0-6.0-3.0","2688356","co38032","norming","","","{""guess"":""Pot""}","","../img/tt/1363tt.jpg","",""
"null","../img/gs/1363gs.jpg","null","reveal","image-keyboard-response","10","377407","0.0-6.0-4.0","2688356","co38032","norming","","","","","","",""
"null","../img/tt/1363tt.jpg","null","mooney2","image-keyboard-response","11","379411","0.0-6.0-5.0","2688356","co38032","norming","","","","","","",""
"4384.154999999737","","","post_reveal_questions","survey-likert","12","383798","0.0-6.0-6.0","2688356","co38032","norming","","","{""aha"":3}","[0]","../img/tt/1363tt.jpg","",""
"null","<div style=""font-size:60px;""> </div>","null","fixation","html-keyboard-response","13","384001","0.0-6.0-0.1","2688356","co38032","norming","","","","","","",""
"null","../img/tt/081tt.jpg","null","mooney1","image-keyboard-response","14","387010","0.0-6.0-1.1","2688356","co38032","norming","","","","","","",""
"11954.709999999963","","","post_mooney1_questions","survey-likert","15","398966","0.0-6.0-2.1","2688356","co38032","norming","","","{""curiosity"":4,""confidence"":2}","[0,1]","../img/tt/081tt.jpg","",""
"3397.8950000000186","","","recognition","survey-text","16","402366","0.0-6.0-3.1","2688356","co38032","norming","","","{""guess"":""Dog""}","","../img/tt/081tt.jpg","",""
"null","../img/gs/081gs.jpg","null","reveal","image-keyboard-response","17","404370","0.0-6.0-4.1","2688356","co38032","norming","","","","","","",""
"null","../img/tt/081tt.jpg","null","mooney2","image-keyboard-response","18","406380","0.0-6.0-5.1","2688356","co38032","norming","","","","","","",""
"2839.814999999362","","","post_reveal_questions","survey-likert","19","409222","0.0-6.0-6.1","2688356","co38032","norming","","","{""aha"":4}","[0]","../img/tt/081tt.jpg","",""
"null","<div style=""font-size:60px;""> </div>","null","fixation","html-keyboard-response","20","409424","0.0-6.0-0.2","2688356","co38032","norming","","","","","","",""
"null","../img/tt/1272tt.jpg","null","mooney1","image-keyboard-response","21","412436","0.0-6.0-1.2","2688356","co38032","norming","","","","","","",""
"4224.109999999229","","","post_mooney1_questions","survey-likert","22","416662","0.0-6.0-2.2","2688356","co38032","norming","","","{""curiosity"":3,""confidence"":0}","[0,1]","../img/tt/1272tt.jpg","",""
"3038.0900000000256","","","recognition","survey-text","23","419821","0.0-6.0-3.2","2688356","co38032","norming","","","{""guess"":""Clock""}","","../img/tt/1272tt.jpg","",""
"null","../img/gs/1272gs.jpg","null","reveal","image-keyboard-response","24","421831","0.0-6.0-4.2","2688356","co38032","norming","","","","","","",""
"null","../img/tt/1272tt.jpg","null","mooney2","image-keyboard-response","25","423840","0.0-6.0-5.2","2688356","co38032","norming","","","","","","",""
"1427.1749999988824","","","post_reveal_questions","survey-likert","26","425269","0.0-6.0-6.2","2688356","co38032","norming","","","{""aha"":4}","[0]","../img/tt/1272tt.jpg","",""
"null","<div style=""font-size:60px;""> </div>","null","fixation","html-keyboard-response","27","425476","0.0-6.0-0.3","2688356","co38032","norming","","","","","","",""
"null","../img/tt/078tt.jpg","null","mooney1","image-keyboard-response","28","428479","0.0-6.0-1.3","2688356","co38032","norming","","","","","","",""
"7819.88999999885","","","post_mooney1_questions","survey-likert","29","436301","0.0-6.0-2.3","2688356","co38032","norming","","","{""curiosity"":4,""confidence"":0}","[0,1]","../img/tt/078tt.jpg","",""
"9269.680000001274","","","recognition","survey-text","30","445573","0.0-6.0-3.3","2688356","co38032","norming","","","{""guess"":""Honey""}","","../img/tt/078tt.jpg","",""
"null","../img/gs/078gs.jpg","null","reveal","image-keyboard-response","31","447578","0.0-6.0-4.3","2688356","co38032","norming","","","","","","",""
"null","../img/tt/078tt.jpg","null","mooney2","image-keyboard-response","32","449581","0.0-6.0-5.3","2688356","co38032","norming","","","","","","",""
"1863.2800000013667","","","post_reveal_questions","survey-likert","33","451445","0.0-6.0-6.3","2688356","co38032","norming","","","{""aha"":4}","[0]","../img/tt/078tt.jpg","",""
"null","<div style=""font-size:60px;""> </div>","null","fixation","html-keyboard-response","34","451646","0.0-6.0-0.4","2688356","co38032","norming","","","","","","",""
"null","../img/tt/184tt.jpg","null","mooney1","image-keyboard-response","35","454652","0.0-6.0-1.4","2688356","co38032","norming","","","","","","",""
"6095.005000001052","","","post_mooney1_questions","survey-likert","36","460750","0.0-6.0-2.4","2688356","co38032","norming","","","{""curiosity"":5,""confidence"":2}","[0,1]","../img/tt/184tt.jpg","",""
"5158.07999999926","","","recognition","survey-text","37","465909","0.0-6.0-3.4","2688356","co38032","norming","","","{""guess"":""Frog""}","","../img/tt/184tt.jpg","",""
"null","../img/gs/184gs.jpg","null","reveal","image-keyboard-response","38","467912","0.0-6.0-4.4","2688356","co38032","norming","","","","","","",""
"null","../img/tt/184tt.jpg","null","mooney2","image-keyboard-response","39","469923","0.0-6.0-5.4","2688356","co38032","norming","","","","","","",""
"2112.5900000006077","","","post_reveal_questions","survey-likert","40","472037","0.0-6.0-6.4","2688356","co38032","norming","","","{""aha"":5}","[0]","../img/tt/184tt.jpg","",""
"null","<div style=""font-size:60px;""> </div>","null","fixation","html-keyboard-response","41","472239","0.0-6.0-0.5","2688356","co38032","norming","","","","","","",""
"null","../img/tt/1027tt.jpg","null","mooney1","image-keyboard-response","42","475244","0.0-6.0-1.5","2688356","co38032","norming","","","","","","",""
"6774.900000000314","","","post_mooney1_questions","survey-likert","43","482144","0.0-6.0-2.5","2688356","co38032","norming","","","{""curiosity"":5,""confidence"":4}","[0,1]","../img/tt/1027tt.jpg","",""
"1774.275000001595","","","recognition","survey-text","44","483920","0.0-6.0-3.5","2688356","co38032","norming","","","{""guess"":""Goat""}","","../img/tt/1027tt.jpg","",""
"null","../img/gs/1027gs.jpg","null","reveal","image-keyboard-response","45","485923","0.0-6.0-4.5","2688356","co38032","norming","","","","","","",""
"null","../img/tt/1027tt.jpg","null","mooney2","image-keyboard-response","46","487930","0.0-6.0-5.5","2688356","co38032","norming","","","","","","",""
"2749.1800000007497","","","post_reveal_questions","survey-likert","47","490680","0.0-6.0-6.5","2688356","co38032","norming","","","{""aha"":5}","[0]","../img/tt/1027tt.jpg","",""
"null","<div style=""font-size:60px;""> </div>","null","fixation","html-keyboard-response","48","490881","0.0-6.0-0.6","2688356","co38032","norming","","","","","","",""
"null","../img/tt/1191tt.jpg","null","mooney1","image-keyboard-response","49","493882","0.0-6.0-1.6","2688356","co38032","norming","","","","","","",""
"7261.300000000105","","","post_mooney1_questions","survey-likert","50","501144","0.0-6.0-2.6","2688356","co38032","norming","","","{""curiosity"":6,""confidence"":4}","[0,1]","../img/tt/1191tt.jpg","",""
"5662.114999999176","","","recognition","survey-text","51","506808","0.0-6.0-3.6","2688356","co38032","norming","","","{""guess"":""Struisvogel""}","","../img/tt/1191tt.jpg","",""
"null","../img/gs/1191gs.jpg","null","reveal","image-keyboard-response","52","508812","0.0-6.0-4.6","2688356","co38032","norming","","","","","","",""
"null","../img/tt/1191tt.jpg","null","mooney2","image-keyboard-response","53","510819","0.0-6.0-5.6","2688356","co38032","norming","","","","","","",""
"1794.5500000005704","","","post_reveal_questions","survey-likert","54","512616","0.0-6.0-6.6","2688356","co38032","norming","","","{""aha"":6}","[0]","../img/tt/1191tt.jpg","",""
"null","<div style=""font-size:60px;""> </div>","null","fixation","html-keyboard-response","55","512818","0.0-6.0-0.7","2688356","co38032","norming","","","","","","",""
"null","../img/tt/1006tt.jpg","null","mooney1","image-keyboard-response","56","515821","0.0-6.0-1.7","2688356","co38032","norming","","","","","","",""
"4168.820000000764","","","post_mooney1_questions","survey-likert","57","519992","0.0-6.0-2.7","2688356","co38032","norming","","","{""curiosity"":4,""confidence"":0}","[0,1]","../img/tt/1006tt.jpg","",""
"3790.2750000012456","","","recognition","survey-text","58","523784","0.0-6.0-3.7","2688356","co38032","norming","","","{""guess"":""Grass""}","","../img/tt/1006tt.jpg","",""
"null","../img/gs/1006gs.jpg","null","reveal","image-keyboard-response","59","525793","0.0-6.0-4.7","2688356","co38032","norming","","","","","","",""
"null","../img/tt/1006tt.jpg","null","mooney2","image-keyboard-response","60","527804","0.0-6.0-5.7","2688356","co38032","norming","","","","","","",""
"3754.179999999935","","","post_reveal_questions","survey-likert","61","531560","0.0-6.0-6.7","2688356","co38032","norming","","","{""aha"":3}","[0]","../img/tt/1006tt.jpg","",""
"null","<div style=""font-size:60px;""> </div>","null","fixation","html-keyboard-response","62","531764","0.0-6.0-0.8","2688356","co38032","norming","","","","","","",""
"null","../img/tt/1243tt.jpg","null","mooney1","image-keyboard-response","63","534773","0.0-6.0-1.8","2688356","co38032","norming","","","","","","",""
"7976.500000000582","","","post_mooney1_questions","survey-likert","64","542872","0.0-6.0-2.8","2688356","co38032","norming","","","{""curiosity"":5,""confidence"":3}","[0,1]","../img/tt/1243tt.jpg","",""
"2958.7649999993155","","","recognition","survey-text","65","545832","0.0-6.0-3.8","2688356","co38032","norming","","","{""guess"":""Gorilla""}","","../img/tt/1243tt.jpg","",""
"null","../img/gs/1243gs.jpg","null","reveal","image-keyboard-response","66","547834","0.0-6.0-4.8","2688356","co38032","norming","","","","","","",""
"null","../img/tt/1243tt.jpg","null","mooney2","image-keyboard-response","67","549836","0.0-6.0-5.8","2688356","co38032","norming","","","","","","",""
"4904.915000000969","","","post_reveal_questions","survey-likert","68","554743","0.0-6.0-6.8","2688356","co38032","norming","","","{""aha"":2}","[0]","../img/tt/1243tt.jpg","",""
"null","<div style=""font-size:60px;""> </div>","null","fixation","html-keyboard-response","69","554955","0.0-6.0-0.9","2688356","co38032","norming","","","","","","",""
"null","../img/tt/1089tt.jpg","null","mooney1","image-keyboard-response","70","557958","0.0-6.0-1.9","2688356","co38032","norming","","","","","","",""
"5535.214999999851","","","post_mooney1_questions","survey-likert","71","563496","0.0-6.0-2.9","2688356","co38032","norming","","","{""curiosity"":2,""confidence"":0}","[0,1]","../img/tt/1089tt.jpg","",""
"4174.07000000088","","","recognition","survey-text","72","567672","0.0-6.0-3.9","2688356","co38032","norming","","","{""guess"":""""}","","../img/tt/1089tt.jpg","",""
"null","../img/gs/1089gs.jpg","null","reveal","image-keyboard-response","73","569681","0.0-6.0-4.9","2688356","co38032","norming","","","","","","",""
"null","../img/tt/1089tt.jpg","null","mooney2","image-keyboard-response","74","571685","0.0-6.0-5.9","2688356","co38032","norming","","","","","","",""
"2336.8049999990035","","","post_reveal_questions","survey-likert","75","574025","0.0-6.0-6.9","2688356","co38032","norming","","","{""aha"":1}","[0]","../img/tt/1089tt.jpg","",""
"null","<div style=""font-size:60px;""> </div>","null","fixation","html-keyboard-response","76","574227","0.0-6.0-0.10","2688356","co38032","norming","","","","","","",""
"null","../img/tt/1235tt.jpg","null","mooney1","image-keyboard-response","77","577229","0.0-6.0-1.10","2688356","co38032","norming","","","","","","",""
"4903.954999999725","","","post_mooney1_questions","survey-likert","78","582136","0.0-6.0-2.10","2688356","co38032","norming","","","{""curiosity"":4,""confidence"":3}","[0,1]","../img/tt/1235tt.jpg","",""
"2669.9500000013504","","","recognition","survey-text","79","584807","0.0-6.0-3.10","2688356","co38032","norming","","","{""guess"":""Chicken""}","","../img/tt/1235tt.jpg","",""
"null","../img/gs/1235gs.jpg","null","reveal","image-keyboard-response","80","586809","0.0-6.0-4.10","2688356","co38032","norming","","","","","","",""
"null","../img/tt/1235tt.jpg","null","mooney2","image-keyboard-response","81","588810","0.0-6.0-5.10","2688356","co38032","norming","","","","","","",""
"4132.69000000041","","","post_reveal_questions","survey-likert","82","592944","0.0-6.0-6.10","2688356","co38032","norming","","","{""aha"":2}","[0]","../img/tt/1235tt.jpg","",""
"null","<div style=""font-size:60px;""> </div>","null","fixation","html-keyboard-response","83","593152","0.0-6.0-0.11","2688356","co38032","norming","","","","","","",""
"null","../img/tt/380tt.jpg","null","mooney1","image-keyboard-response","84","596155","0.0-6.0-1.11","2688356","co38032","norming","","","","","","",""
"4713.854999999865","","","post_mooney1_questions","survey-likert","85","600873","0.0-6.0-2.11","2688356","co38032","norming","","","{""curiosity"":5,""confidence"":2}","[0,1]","../img/tt/380tt.jpg","",""
"1198.060000000638","","","recognition","survey-text","86","602073","0.0-6.0-3.11","2688356","co38032","norming","","","{""guess"":""Cat""}","","../img/tt/380tt.jpg","",""
"null","../img/gs/380gs.jpg","null","reveal","image-keyboard-response","87","604084","0.0-6.0-4.11","2688356","co38032","norming","","","","","","",""
"null","../img/tt/380tt.jpg","null","mooney2","image-keyboard-response","88","606090","0.0-6.0-5.11","2688356","co38032","norming","","","","","","",""
"2028.7800000004936","","","post_reveal_questions","survey-likert","89","608121","0.0-6.0-6.11","2688356","co38032","norming","","","{""aha"":5}","[0]","../img/tt/380tt.jpg","",""
"null","<div style=""font-size:60px;""> </div>","null","fixation","html-keyboard-response","90","608322","0.0-6.0-0.12","2688356","co38032","norming","","","","","","",""
"null","../img/tt/1270tt.jpg","null","mooney1","image-keyboard-response","91","611328","0.0-6.0-1.12","2688356","co38032","norming","","","","","","",""
"4222.094999999157","","","post_mooney1_questions","survey-likert","92","615553","0.0-6.0-2.12","2688356","co38032","norming","","","{""curiosity"":3,""confidence"":0}","[0,1]","../img/tt/1270tt.jpg","",""
"5613.3499999996275","","","recognition","survey-text","93","621168","0.0-6.0-3.12","2688356","co38032","norming","","","{""guess"":""Window""}","","../img/tt/1270tt.jpg","",""
"null","../img/gs/1270gs.jpg","null","reveal","image-keyboard-response","94","623169","0.0-6.0-4.12","2688356","co38032","norming","","","","","","",""
"null","../img/tt/1270tt.jpg","null","mooney2","image-keyboard-response","95","625177","0.0-6.0-5.12","2688356","co38032","norming","","","","","","",""
"3333.555000001099","","","post_reveal_questions","survey-likert","96","628513","0.0-6.0-6.12","2688356","co38032","norming","","","{""aha"":4}","[0]","../img/tt/1270tt.jpg","",""
"null","<div style=""font-size:60px;""> </div>","null","fixation","html-keyboard-response","97","628714","0.0-6.0-0.13","2688356","co38032","norming","","","","","","",""
"null","../img/tt/1173tt.jpg","null","mooney1","image-keyboard-response","98","631716","0.0-6.0-1.13","2688356","co38032","norming","","","","","","",""
"4913.619999999413","","","post_mooney1_questions","survey-likert","99","636633","0.0-6.0-2.13","2688356","co38032","norming","","","{""curiosity"":5,""confidence"":2}","[0,1]","../img/tt/1173tt.jpg","",""
"3134.3450000004377","","","recognition","survey-text","100","639769","0.0-6.0-3.13","2688356","co38032","norming","","","{""guess"":""Human""}","","../img/tt/1173tt.jpg","",""
"null","../img/gs/1173gs.jpg","null","reveal","image-keyboard-response","101","641770","0.0-6.0-4.13","2688356","co38032","norming","","","","","","",""
"null","../img/tt/1173tt.jpg","null","mooney2","image-keyboard-response","102","643776","0.0-6.0-5.13","2688356","co38032","norming","","","","","","",""
"4437.760000000708","","","post_reveal_questions","survey-likert","103","648216","0.0-6.0-6.13","2688356","co38032","norming","","","{""aha"":1}","[0]","../img/tt/1173tt.jpg","",""
"null","<div style=""font-size:60px;""> </div>","null","fixation","html-keyboard-response","104","648418","0.0-6.0-0.14","2688356","co38032","norming","","","","","","",""
"null","../img/tt/194tt.jpg","null","mooney1","image-keyboard-response","105","651421","0.0-6.0-1.14","2688356","co38032","norming","","","","","","",""
"4121.860000001034","","","post_mooney1_questions","survey-likert","106","655545","0.0-6.0-2.14","2688356","co38032","norming","","","{""curiosity"":5,""confidence"":5}","[0,1]","../img/tt/194tt.jpg","",""
"10302.040000000503","","","recognition","survey-text","107","665841","0.0-6.0-3.14","2688356","co38032","norming","","","{""guess"":""Human playing instrument""}","","../img/tt/194tt.jpg","",""
"null","../img/gs/194gs.jpg","null","reveal","image-keyboard-response","108","667842","0.0-6.0-4.14","2688356","co38032","norming","","","","","","",""
"null","../img/tt/194tt.jpg","null","mooney2","image-keyboard-response","109","669847","0.0-6.0-5.14","2688356","co38032","norming","","","","","","",""
"4847.985000000335","","","post_reveal_questions","survey-likert","110","674697","0.0-6.0-6.14","2688356","co38032","norming","","","{""aha"":1}","[0]","../img/tt/194tt.jpg","",""
"null","<div style=""font-size:60px;""> </div>","null","fixation","html-keyboard-response","111","674898","0.0-6.0-0.15","2688356","co38032","norming","","","","","","",""
"null","../img/tt/301tt.jpg","null","mooney1","image-keyboard-response","112","677908","0.0-6.0-1.15","2688356","co38032","norming","","","","","","",""
"4410.759999998845","","","post_mooney1_questions","survey-likert","113","682321","0.0-6.0-2.15","2688356","co38032","norming","","","{""curiosity"":5,""confidence"":6}","[0,1]","../img/tt/301tt.jpg","",""
"3526.060000000056","","","recognition","survey-text","114","685849","0.0-6.0-3.15","2688356","co38032","norming","","","{""guess"":""Bells""}","","../img/tt/301tt.jpg","",""
"null","../img/gs/301gs.jpg","null","reveal","image-keyboard-response","115","687850","0.0-6.0-4.15","2688356","co38032","norming","","","","","","",""
"null","../img/tt/301tt.jpg","null","mooney2","image-keyboard-response","116","689853","0.0-6.0-5.15","2688356","co38032","norming","","","","","","",""
"1802.8799999993062","","","post_reveal_questions","survey-likert","117","691657","0.0-6.0-6.15","2688356","co38032","norming","","","{""aha"":2}","[0]","../img/tt/301tt.jpg","",""
"null","<div style=""font-size:60px;""> </div>","null","fixation","html-keyboard-response","118","691859","0.0-6.0-0.16","2688356","co38032","norming","","","","","","",""
"null","../img/tt/1097tt.jpg","null","mooney1","image-keyboard-response","119","694868","0.0-6.0-1.16","2688356","co38032","norming","","","","","","",""
"5706.435000000056","","","post_mooney1_questions","survey-likert","120","700577","0.0-6.0-2.16","2688356","co38032","norming","","","{""curiosity"":5,""confidence"":4}","[0,1]","../img/tt/1097tt.jpg","",""
"2286.3899999993155","","","recognition","survey-text","121","702865","0.0-6.0-3.16","2688356","co38032","norming","","","{""guess"":""Sea""}","","../img/tt/1097tt.jpg","",""
"null","../img/gs/1097gs.jpg","null","reveal","image-keyboard-response","122","704875","0.0-6.0-4.16","2688356","co38032","norming","","","","","","",""
"null","../img/tt/1097tt.jpg","null","mooney2","image-keyboard-response","123","706879","0.0-6.0-5.16","2688356","co38032","norming","","","","","","",""
"3752.8799999998882","","","post_reveal_questions","survey-likert","124","710633","0.0-6.0-6.16","2688356","co38032","norming","","","{""aha"":2}","[0]","../img/tt/1097tt.jpg","",""
"null","<div style=""font-size:60px;""> </div>","null","fixation","html-keyboard-response","125","710835","0.0-6.0-0.17","2688356","co38032","norming","","","","","","",""
"null","../img/tt/1226tt.jpg","null","mooney1","image-keyboard-response","126","713847","0.0-6.0-1.17","2688356","co38032","norming","","","","","","",""
"3391.0450000002747","","","post_mooney1_questions","survey-likert","127","717241","0.0-6.0-2.17","2688356","co38032","norming","","","{""curiosity"":5,""confidence"":5}","[0,1]","../img/tt/1226tt.jpg","",""
"2734.1049999995157","","","recognition","survey-text","128","719977","0.0-6.0-3.17","2688356","co38032","norming","","","{""guess"":""Chickens""}","","../img/tt/1226tt.jpg","",""
"null","../img/gs/1226gs.jpg","null","reveal","image-keyboard-response","129","721994","0.0-6.0-4.17","2688356","co38032","norming","","","","","","",""
"null","../img/tt/1226tt.jpg","null","mooney2","image-keyboard-response","130","723997","0.0-6.0-5.17","2688356","co38032","norming","","","","","","",""
"3593.6450000008335","","","post_reveal_questions","survey-likert","131","727593","0.0-6.0-6.17","2688356","co38032","norming","","","{""aha"":3}","[0]","../img/tt/1226tt.jpg","",""
"null","<div style=""font-size:60px;""> </div>","null","fixation","html-keyboard-response","132","727794","0.0-6.0-0.18","2688356","co38032","norming","","","","","","",""
"null","../img/tt/013tt.jpg","null","mooney1","image-keyboard-response","133","730802","0.0-6.0-1.18","2688356","co38032","norming","","","","","","",""
"4684.669999998761","","","post_mooney1_questions","survey-likert","134","735489","0.0-6.0-2.18","2688356","co38032","norming","","","{""curiosity"":3,""confidence"":0}","[0,1]","../img/tt/013tt.jpg","",""
"2053.99000000034","","","recognition","survey-text","135","737545","0.0-6.0-3.18","2688356","co38032","norming","","","{""guess"":""""}","","../img/tt/013tt.jpg","",""
"null","../img/gs/013gs.jpg","null","reveal","image-keyboard-response","136","739546","0.0-6.0-4.18","2688356","co38032","norming","","","","","","",""
"null","../img/tt/013tt.jpg","null","mooney2","image-keyboard-response","137","741552","0.0-6.0-5.18","2688356","co38032","norming","","","","","","",""
"1758.6250000004657","","","post_reveal_questions","survey-likert","138","743313","0.0-6.0-6.18","2688356","co38032","norming","","","{""aha"":5}","[0]","../img/tt/013tt.jpg","",""
"null","<div style=""font-size:60px;""> </div>","null","fixation","html-keyboard-response","139","743514","0.0-6.0-0.19","2688356","co38032","norming","","","","","","",""
"null","../img/tt/126tt.jpg","null","mooney1","image-keyboard-response","140","746517","0.0-6.0-1.19","2688356","co38032","norming","","","","","","",""
"5043.580000001355","","","post_mooney1_questions","survey-likert","141","751561","0.0-6.0-2.19","2688356","co38032","norming","","","{""curiosity"":5,""confidence"":3}","[0,1]","../img/tt/126tt.jpg","",""
"2517.350000000093","","","recognition","survey-text","142","754081","0.0-6.0-3.19","2688356","co38032","norming","","","{""guess"":""Cow""}","","../img/tt/126tt.jpg","",""
"null","../img/gs/126gs.jpg","null","reveal","image-keyboard-response","143","756089","0.0-6.0-4.19","2688356","co38032","norming","","","","","","",""
"null","../img/tt/126tt.jpg","null","mooney2","image-keyboard-response","144","758099","0.0-6.0-5.19","2688356","co38032","norming","","","","","","",""
"1515.6800000004005","","","post_reveal_questions","survey-likert","145","759617","0.0-6.0-6.19","2688356","co38032","norming","","","{""aha"":5}","[0]","../img/tt/126tt.jpg","",""
"null","<div style=""font-size:60px;""> </div>","null","fixation","html-keyboard-response","146","759819","0.0-6.0-0.20","2688356","co38032","norming","","","","","","",""
"null","../img/tt/1189tt.jpg","null","mooney1","image-keyboard-response","147","762827","0.0-6.0-1.20","2688356","co38032","norming","","","","","","",""
"3379.745000000228","","","post_mooney1_questions","survey-likert","148","766209","0.0-6.0-2.20","2688356","co38032","norming","","","{""curiosity"":5,""confidence"":3}","[0,1]","../img/tt/1189tt.jpg","",""
"5998.025000000722","","","recognition","survey-text","149","772209","0.0-6.0-3.20","2688356","co38032","norming","","","{""guess"":""Crocodile""}","","../img/tt/1189tt.jpg","",""
"null","../img/gs/1189gs.jpg","null","reveal","image-keyboard-response","150","774210","0.0-6.0-4.20","2688356","co38032","norming","","","","","","",""
"null","../img/tt/1189tt.jpg","null","mooney2","image-keyboard-response","151","776212","0.0-6.0-5.20","2688356","co38032","norming","","","","","","",""
"2682.319999999949","","","post_reveal_questions","survey-likert","152","778897","0.0-6.0-6.20","2688356","co38032","norming","","","{""aha"":4}","[0]","../img/tt/1189tt.jpg","",""
"null","<div style=""font-size:60px;""> </div>","null","fixation","html-keyboard-response","153","779098","0.0-6.0-0.21","2688356","co38032","norming","","","","","","",""
"null","../img/tt/357tt.jpg","null","mooney1","image-keyboard-response","154","782105","0.0-6.0-1.21","2688356","co38032","norming","","","","","","",""
"6349.319999999367","","","post_mooney1_questions","survey-likert","155","788457","0.0-6.0-2.21","2688356","co38032","norming","","","{""curiosity"":5,""confidence"":0}","[0,1]","../img/tt/357tt.jpg","",""
"4046.0849999999627","","","recognition","survey-text","156","792505","0.0-6.0-3.21","2688356","co38032","norming","","","{""guess"":""""}","","../img/tt/357tt.jpg","",""
"null","../img/gs/357gs.jpg","null","reveal","image-keyboard-response","157","794513","0.0-6.0-4.21","2688356","co38032","norming","","","","","","",""
"null","../img/tt/357tt.jpg","null","mooney2","image-keyboard-response","158","796514","0.0-6.0-5.21","2688356","co38032","norming","","","","","","",""
"3556.1700000016717","","","post_reveal_questions","survey-likert","159","800073","0.0-6.0-6.21","2688356","co38032","norming","","","{""aha"":2}","[0]","../img/tt/357tt.jpg","",""
"null","<div style=""font-size:60px;""> </div>","null","fixation","html-keyboard-response","160","800274","0.0-6.0-0.22","2688356","co38032","norming","","","","","","",""
"null","../img/tt/189tt.jpg","null","mooney1","image-keyboard-response","161","803278","0.0-6.0-1.22","2688356","co38032","norming","","","","","","",""
"3696.5500000006286","","","post_mooney1_questions","survey-likert","162","806977","0.0-6.0-2.22","2688356","co38032","norming","","","{""curiosity"":5,""confidence"":1}","[0,1]","../img/tt/189tt.jpg","",""
"7806.210000000661","","","recognition","survey-text","163","814785","0.0-6.0-3.22","2688356","co38032","norming","","","{""guess"":""Donkey""}","","../img/tt/189tt.jpg","",""
"null","../img/gs/189gs.jpg","null","reveal","image-keyboard-response","164","816793","0.0-6.0-4.22","2688356","co38032","norming","","","","","","",""
"null","../img/tt/189tt.jpg","null","mooney2","image-keyboard-response","165","818795","0.0-6.0-5.22","2688356","co38032","norming","","","","","","",""
"1603.3249999999534","","","post_reveal_questions","survey-likert","166","820401","0.0-6.0-6.22","2688356","co38032","norming","","","{""aha"":4}","[0]","../img/tt/189tt.jpg","",""
"null","<div style=""font-size:60px;""> </div>","null","fixation","html-keyboard-response","167","820603","0.0-6.0-0.23","2688356","co38032","norming","","","","","","",""
"null","../img/tt/118tt.jpg","null","mooney1","image-keyboard-response","168","823604","0.0-6.0-1.23","2688356","co38032","norming","","","","","","",""
"5186.639999999898","","","post_mooney1_questions","survey-likert","169","828793","0.0-6.0-2.23","2688356","co38032","norming","","","{""curiosity"":5,""confidence"":6}","[0,1]","../img/tt/118tt.jpg","",""
"2405.76999999932","","","recognition","survey-text","170","831201","0.0-6.0-3.23","2688356","co38032","norming","","","{""guess"":""Chair""}","","../img/tt/118tt.jpg","",""
"null","../img/gs/118gs.jpg","null","reveal","image-keyboard-response","171","833203","0.0-6.0-4.23","2688356","co38032","norming","","","","","","",""
"null","../img/tt/118tt.jpg","null","mooney2","image-keyboard-response","172","835205","0.0-6.0-5.23","2688356","co38032","norming","","","","","","",""
"1681.5399999995716","","","post_reveal_questions","survey-likert","173","836889","0.0-6.0-6.23","2688356","co38032","norming","","","{""aha"":0}","[0]","../img/tt/118tt.jpg","",""
"null","<div style=""font-size:60px;""> </div>","null","fixation","html-keyboard-response","174","837090","0.0-6.0-0.24","2688356","co38032","norming","","","","","","",""
"null","../img/tt/124tt.jpg","null","mooney1","image-keyboard-response","175","840095","0.0-6.0-1.24","2688356","co38032","norming","","","","","","",""
"4280.025000000023","","","post_mooney1_questions","survey-likert","176","844377","0.0-6.0-2.24","2688356","co38032","norming","","","{""curiosity"":5,""confidence"":5}","[0,1]","../img/tt/124tt.jpg","",""
"3726.1250000010477","","","recognition","survey-text","177","848105","0.0-6.0-3.24","2688356","co38032","norming","","","{""guess"":""Platypus""}","","../img/tt/124tt.jpg","",""
"null","../img/gs/124gs.jpg","null","reveal","image-keyboard-response","178","850110","0.0-6.0-4.24","2688356","co38032","norming","","","","","","",""
"null","../img/tt/124tt.jpg","null","mooney2","image-keyboard-response","179","852119","0.0-6.0-5.24","2688356","co38032","norming","","","","","","",""
"1750.7300000016112","","","post_reveal_questions","survey-likert","180","853872","0.0-6.0-6.24","2688356","co38032","norming","","","{""aha"":4}","[0]","../img/tt/124tt.jpg","",""
"null","<div style=""font-size:60px;""> </div>","null","fixation","html-keyboard-response","181","854074","0.0-6.0-0.25","2688356","co38032","norming","","","","","","",""
"null","../img/tt/1040tt.jpg","null","mooney1","image-keyboard-response","182","857086","0.0-6.0-1.25","2688356","co38032","norming","","","","","","",""
"5008.67000000109","","","post_mooney1_questions","survey-likert","183","862097","0.0-6.0-2.25","2688356","co38032","norming","","","{""curiosity"":3,""confidence"":0}","[0,1]","../img/tt/1040tt.jpg","",""
"2086.025000000489","","","recognition","survey-text","184","864185","0.0-6.0-3.25","2688356","co38032","norming","","","{""guess"":""""}","","../img/tt/1040tt.jpg","",""
"null","../img/gs/1040gs.jpg","null","reveal","image-keyboard-response","185","866196","0.0-6.0-4.25","2688356","co38032","norming","","","","","","",""
"null","../img/tt/1040tt.jpg","null","mooney2","image-keyboard-response","186","868207","0.0-6.0-5.25","2688356","co38032","norming","","","","","","",""
"2119.834999999497","","","post_reveal_questions","survey-likert","187","870329","0.0-6.0-6.25","2688356","co38032","norming","","","{""aha"":4}","[0]","../img/tt/1040tt.jpg","",""
"null","<div style=""font-size:60px;""> </div>","null","fixation","html-keyboard-response","188","870530","0.0-6.0-0.26","2688356","co38032","norming","","","","","","",""
"null","../img/tt/010tt.jpg","null","mooney1","image-keyboard-response","189","873542","0.0-6.0-1.26","2688356","co38032","norming","","","","","","",""
"5040.095000000321","","","post_mooney1_questions","survey-likert","190","878585","0.0-6.0-2.26","2688356","co38032","norming","","","{""curiosity"":3,""confidence"":0}","[0,1]","../img/tt/010tt.jpg","",""
"574.0900000000838","","","recognition","survey-text","191","879160","0.0-6.0-3.26","2688356","co38032","norming","","","{""guess"":""""}","","../img/tt/010tt.jpg","",""
"null","../img/gs/010gs.jpg","null","reveal","image-keyboard-response","192","881170","0.0-6.0-4.26","2688356","co38032","norming","","","","","","",""
"null","../img/tt/010tt.jpg","null","mooney2","image-keyboard-response","193","883177","0.0-6.0-5.26","2688356","co38032","norming","","","","","","",""
"2950.17499999993","","","post_reveal_questions","survey-likert","194","886129","0.0-6.0-6.26","2688356","co38032","norming","","","{""aha"":4}","[0]","../img/tt/010tt.jpg","",""
"null","<div style=""font-size:60px;""> </div>","null","fixation","html-keyboard-response","195","886330","0.0-6.0-0.27","2688356","co38032","norming","","","","","","",""
"null","../img/tt/1125tt.jpg","null","mooney1","image-keyboard-response","196","889340","0.0-6.0-1.27","2688356","co38032","norming","","","","","","",""
"7692.2400000002235","","","post_mooney1_questions","survey-likert","197","897033","0.0-6.0-2.27","2688356","co38032","norming","","","{""curiosity"":2,""confidence"":2}","[0,1]","../img/tt/1125tt.jpg","",""
"3022.0899999985704","","","recognition","survey-text","198","900057","0.0-6.0-3.27","2688356","co38032","norming","","","{""guess"":""Foosballtable""}","","../img/tt/1125tt.jpg","",""
"null","../img/gs/1125gs.jpg","null","reveal","image-keyboard-response","199","902059","0.0-6.0-4.27","2688356","co38032","norming","","","","","","",""
"null","../img/tt/1125tt.jpg","null","mooney2","image-keyboard-response","200","904061","0.0-6.0-5.27","2688356","co38032","norming","","","","","","",""
"1330.5149999996647","","","post_reveal_questions","survey-likert","201","905393","0.0-6.0-6.27","2688356","co38032","norming","","","{""aha"":2}","[0]","../img/tt/1125tt.jpg","",""
"null","<div style=""font-size:60px;""> </div>","null","fixation","html-keyboard-response","202","905595","0.0-6.0-0.28","2688356","co38032","norming","","","","","","",""
"null","../img/tt/063tt.jpg","null","mooney1","image-keyboard-response","203","908602","0.0-6.0-1.28","2688356","co38032","norming","","","","","","",""
"7046.510000000126","","","post_mooney1_questions","survey-likert","204","915649","0.0-6.0-2.28","2688356","co38032","norming","","","{""curiosity"":4,""confidence"":3}","[0,1]","../img/tt/063tt.jpg","",""
"6277.430000000168","","","recognition","survey-text","205","921929","0.0-6.0-3.28","2688356","co38032","norming","","","{""guess"":""instrument""}","","../img/tt/063tt.jpg","",""
"null","../img/gs/063gs.jpg","null","reveal","image-keyboard-response","206","923934","0.0-6.0-4.28","2688356","co38032","norming","","","","","","",""
"null","../img/tt/063tt.jpg","null","mooney2","image-keyboard-response","207","925937","0.0-6.0-5.28","2688356","co38032","norming","","","","","","",""
"2967.3400000011316","","","post_reveal_questions","survey-likert","208","928905","0.0-6.0-6.28","2688356","co38032","norming","","","{""aha"":1}","[0]","../img/tt/063tt.jpg","",""
"null","<div style=""font-size:60px;""> </div>","null","fixation","html-keyboard-response","209","929106","0.0-6.0-0.29","2688356","co38032","norming","","","","","","",""
"null","../img/tt/580tt.jpg","null","mooney1","image-keyboard-response","210","932110","0.0-6.0-1.29","2688356","co38032","norming","","","","","","",""
"3730.6000000007916","","","post_mooney1_questions","survey-likert","211","935841","0.0-6.0-2.29","2688356","co38032","norming","","","{""curiosity"":1,""confidence"":0}","[0,1]","../img/tt/580tt.jpg","",""
"877.734999999986","","","recognition","survey-text","212","936721","0.0-6.0-3.29","2688356","co38032","norming","","","{""guess"":""""}","","../img/tt/580tt.jpg","",""
"null","../img/gs/580gs.jpg","null","reveal","image-keyboard-response","213","938728","0.0-6.0-4.29","2688356","co38032","norming","","","","","","",""
"null","../img/tt/580tt.jpg","null","mooney2","image-keyboard-response","214","940735","0.0-6.0-5.29","2688356","co38032","norming","","","","","","",""
"2129.430000000866","","","post_reveal_questions","survey-likert","215","942866","0.0-6.0-6.29","2688356","co38032","norming","","","{""aha"":6}","[0]","../img/tt/580tt.jpg","",""
"null","<div style=""font-size:60px;""> </div>","null","fixation","html-keyboard-response","216","943072","0.0-6.0-0.30","2688356","co38032","norming","","","","","","",""
"null","../img/tt/1053tt.jpg","null","mooney1","image-keyboard-response","217","946080","0.0-6.0-1.30","2688356","co38032","norming","","","","","","",""
"4480.414999999921","","","post_mooney1_questions","survey-likert","218","950561","0.0-6.0-2.30","2688356","co38032","norming","","","{""curiosity"":4,""confidence"":6}","[0,1]","../img/tt/1053tt.jpg","",""
"1365.7650000004796","","","recognition","survey-text","219","951929","0.0-6.0-3.30","2688356","co38032","norming","","","{""guess"":""Cows""}","","../img/tt/1053tt.jpg","",""
"null","../img/gs/1053gs.jpg","null","reveal","image-keyboard-response","220","953937","0.0-6.0-4.30","2688356","co38032","norming","","","","","","",""
"null","../img/tt/1053tt.jpg","null","mooney2","image-keyboard-response","221","955938","0.0-6.0-5.30","2688356","co38032","norming","","","","","","",""
"2420.9599999993807","","","post_reveal_questions","survey-likert","222","958361","0.0-6.0-6.30","2688356","co38032","norming","","","{""aha"":3}","[0]","../img/tt/1053tt.jpg","",""
"null","<div style=""font-size:60px;""> </div>","null","fixation","html-keyboard-response","223","958563","0.0-6.0-0.31","2688356","co38032","norming","","","","","","",""
"null","../img/tt/273tt.jpg","null","mooney1","image-keyboard-response","224","961564","0.0-6.0-1.31","2688356","co38032","norming","","","","","","",""
"3354.9050000001444","","","post_mooney1_questions","survey-likert","225","964922","0.0-6.0-2.31","2688356","co38032","norming","","","{""curiosity"":4,""confidence"":5}","[0,1]","../img/tt/273tt.jpg","",""
"2285.9900000002235","","","recognition","survey-text","226","967209","0.0-6.0-3.31","2688356","co38032","norming","","","{""guess"":""Teeth""}","","../img/tt/273tt.jpg","",""
"null","../img/gs/273gs.jpg","null","reveal","image-keyboard-response","227","969215","0.0-6.0-4.31","2688356","co38032","norming","","","","","","",""
"null","../img/tt/273tt.jpg","null","mooney2","image-keyboard-response","228","971217","0.0-6.0-5.31","2688356","co38032","norming","","","","","","",""
"1430.5999999997439","","","post_reveal_questions","survey-likert","229","972649","0.0-6.0-6.31","2688356","co38032","norming","","","{""aha"":1}","[0]","../img/tt/273tt.jpg","",""
"null","<div style=""font-size:60px;""> </div>","null","fixation","html-keyboard-response","230","972852","0.0-6.0-0.32","2688356","co38032","norming","","","","","","",""
"null","../img/tt/1228tt.jpg","null","mooney1","image-keyboard-response","231","975857","0.0-6.0-1.32","2688356","co38032","norming","","","","","","",""
"3861.904999999795","","","post_mooney1_questions","survey-likert","232","979722","0.0-6.0-2.32","2688356","co38032","norming","","","{""curiosity"":3,""confidence"":0}","[0,1]","../img/tt/1228tt.jpg","",""
"2702.074999999255","","","recognition","survey-text","233","982425","0.0-6.0-3.32","2688356","co38032","norming","","","{""guess"":""Rooster""}","","../img/tt/1228tt.jpg","",""
"null","../img/gs/1228gs.jpg","null","reveal","image-keyboard-response","234","984436","0.0-6.0-4.32","2688356","co38032","norming","","","","","","",""
"null","../img/tt/1228tt.jpg","null","mooney2","image-keyboard-response","235","986440","0.0-6.0-5.32","2688356","co38032","norming","","","","","","",""
"2406.9299999992363","","","post_reveal_questions","survey-likert","236","988849","0.0-6.0-6.32","2688356","co38032","norming","","","{""aha"":4}","[0]","../img/tt/1228tt.jpg","",""
"null","<div style=""font-size:60px;""> </div>","null","fixation","html-keyboard-response","237","989051","0.0-6.0-0.33","2688356","co38032","norming","","","","","","",""
"null","../img/tt/442tt.jpg","null","mooney1","image-keyboard-response","238","992059","0.0-6.0-1.33","2688356","co38032","norming","","","","","","",""
"4715.715000000317","","","post_mooney1_questions","survey-likert","239","996777","0.0-6.0-2.33","2688356","co38032","norming","","","{""curiosity"":2,""confidence"":2}","[0,1]","../img/tt/442tt.jpg","",""
"3182.240000000107","","","recognition","survey-text","240","999961","0.0-6.0-3.33","2688356","co38032","norming","","","{""guess"":""Flower""}","","../img/tt/442tt.jpg","",""
"null","../img/gs/442gs.jpg","null","reveal","image-keyboard-response","241","1001967","0.0-6.0-4.33","2688356","co38032","norming","","","","","","",""
"null","../img/tt/442tt.jpg","null","mooney2","image-keyboard-response","242","1003969","0.0-6.0-5.33","2688356","co38032","norming","","","","","","",""
"3551.084999999148","","","post_reveal_questions","survey-likert","243","1007521","0.0-6.0-6.33","2688356","co38032","norming","","","{""aha"":5}","[0]","../img/tt/442tt.jpg","",""
"null","<div style=""font-size:60px;""> </div>","null","fixation","html-keyboard-response","244","1007724","0.0-6.0-0.34","2688356","co38032","norming","","","","","","",""
"null","../img/tt/056tt.jpg","null","mooney1","image-keyboard-response","245","1010729","0.0-6.0-1.34","2688356","co38032","norming","","","","","","",""
"3846.2299999991665","","","post_mooney1_questions","survey-likert","246","1014577","0.0-6.0-2.34","2688356","co38032","norming","","","{""curiosity"":4,""confidence"":3}","[0,1]","../img/tt/056tt.jpg","",""
"2054.2150000002002","","","recognition","survey-text","247","1016633","0.0-6.0-3.34","2688356","co38032","norming","","","{""guess"":""Lizard""}","","../img/tt/056tt.jpg","",""
"null","../img/gs/056gs.jpg","null","reveal","image-keyboard-response","248","1018643","0.0-6.0-4.34","2688356","co38032","norming","","","","","","",""
"null","../img/tt/056tt.jpg","null","mooney2","image-keyboard-response","249","1020645","0.0-6.0-5.34","2688356","co38032","norming","","","","","","",""
"2787.9250000006286","","","post_reveal_questions","survey-likert","250","1023434","0.0-6.0-6.34","2688356","co38032","norming","","","{""aha"":4}","[0]","../img/tt/056tt.jpg","",""
"null","<div style=""font-size:60px;""> </div>","null","fixation","html-keyboard-response","251","1023635","0.0-6.0-0.35","2688356","co38032","norming","","","","","","",""
"null","../img/tt/270tt.jpg","null","mooney1","image-keyboard-response","252","1026642","0.0-6.0-1.35","2688356","co38032","norming","","","","","","",""
"2825.300000000396","","","post_mooney1_questions","survey-likert","253","1029469","0.0-6.0-2.35","2688356","co38032","norming","","","{""curiosity"":2,""confidence"":0}","[0,1]","../img/tt/270tt.jpg","",""
"1422.2249999984633","","","recognition","survey-text","254","1030892","0.0-6.0-3.35","2688356","co38032","norming","","","{""guess"":""Book""}","","../img/tt/270tt.jpg","",""
"null","../img/gs/270gs.jpg","null","reveal","image-keyboard-response","255","1032901","0.0-6.0-4.35","2688356","co38032","norming","","","","","","",""
"null","../img/tt/270tt.jpg","null","mooney2","image-keyboard-response","256","1034907","0.0-6.0-5.35","2688356","co38032","norming","","","","","","",""
"3927.229999999283","","","post_reveal_questions","survey-likert","257","1038836","0.0-6.0-6.35","2688356","co38032","norming","","","{""aha"":4}","[0]","../img/tt/270tt.jpg","",""
"null","<div style=""font-size:60px;""> </div>","null","fixation","html-keyboard-response","258","1039037","0.0-6.0-0.36","2688356","co38032","norming","","","","","","",""
"null","../img/tt/1188tt.jpg","null","mooney1","image-keyboard-response","259","1042044","0.0-6.0-1.36","2688356","co38032","norming","","","","","","",""
"5310.07999999926","","","post_mooney1_questions","survey-likert","260","1047356","0.0-6.0-2.36","2688356","co38032","norming","","","{""curiosity"":5,""confidence"":2}","[0,1]","../img/tt/1188tt.jpg","",""
"2766.2450000008103","","","recognition","survey-text","261","1050124","0.0-6.0-3.36","2688356","co38032","norming","","","{""guess"":""Zealot""}","","../img/tt/1188tt.jpg","",""
"null","../img/gs/1188gs.jpg","null","reveal","image-keyboard-response","262","1052128","0.0-6.0-4.36","2688356","co38032","norming","","","","","","",""
"null","../img/tt/1188tt.jpg","null","mooney2","image-keyboard-response","263","1054137","0.0-6.0-5.36","2688356","co38032","norming","","","","","","",""
"4392.27500000014","","","post_reveal_questions","survey-likert","264","1058532","0.0-6.0-6.36","2688356","co38032","norming","","","{""aha"":3}","[0]","../img/tt/1188tt.jpg","",""
"null","<div style=""font-size:60px;""> </div>","null","fixation","html-keyboard-response","265","1058733","0.0-6.0-0.37","2688356","co38032","norming","","","","","","",""
"null","../img/tt/044tt.jpg","null","mooney1","image-keyboard-response","266","1061743","0.0-6.0-1.37","2688356","co38032","norming","","","","","","",""
"5443.260000000009","","","post_mooney1_questions","survey-likert","267","1067189","0.0-6.0-2.37","2688356","co38032","norming","","","{""curiosity"":4,""confidence"":5}","[0,1]","../img/tt/044tt.jpg","",""
"6214.369999999646","","","recognition","survey-text","268","1073405","0.0-6.0-3.37","2688356","co38032","norming","","","{""guess"":""Desk   Pc screen""}","","../img/tt/044tt.jpg","",""
"null","../img/gs/044gs.jpg","null","reveal","image-keyboard-response","269","1075411","0.0-6.0-4.37","2688356","co38032","norming","","","","","","",""
"null","../img/tt/044tt.jpg","null","mooney2","image-keyboard-response","270","1077414","0.0-6.0-5.37","2688356","co38032","norming","","","","","","",""
"1356.7199999997392","","","post_reveal_questions","survey-likert","271","1078772","0.0-6.0-6.37","2688356","co38032","norming","","","{""aha"":6}","[0]","../img/tt/044tt.jpg","",""
"null","<div style=""font-size:60px;""> </div>","null","fixation","html-keyboard-response","272","1078975","0.0-6.0-0.38","2688356","co38032","norming","","","","","","",""
"null","../img/tt/1127tt.jpg","null","mooney1","image-keyboard-response","273","1081985","0.0-6.0-1.38","2688356","co38032","norming","","","","","","",""
"5217.1049999997485","","","post_mooney1_questions","survey-likert","274","1087202","0.0-6.0-2.38","2688356","co38032","norming","","","{""curiosity"":4,""confidence"":3}","[0,1]","../img/tt/1127tt.jpg","",""
"2726.1249999993015","","","recognition","survey-text","275","1089930","0.0-6.0-3.38","2688356","co38032","norming","","","{""guess"":""Jhonny walker""}","","../img/tt/1127tt.jpg","",""
"null","../img/gs/1127gs.jpg","null","reveal","image-keyboard-response","276","1091932","0.0-6.0-4.38","2688356","co38032","norming","","","","","","",""
"null","../img/tt/1127tt.jpg","null","mooney2","image-keyboard-response","277","1093933","0.0-6.0-5.38","2688356","co38032","norming","","","","","","",""
"3770.47999999905","","","post_reveal_questions","survey-likert","278","1097706","0.0-6.0-6.38","2688356","co38032","norming","","","{""aha"":5}","[0]","../img/tt/1127tt.jpg","",""
"null","<div style=""font-size:60px;""> </div>","null","fixation","html-keyboard-response","279","1097907","0.0-6.0-0.39","2688356","co38032","norming","","","","","","",""
"null","../img/tt/064tt.jpg","null","mooney1","image-keyboard-response","280","1100910","0.0-6.0-1.39","2688356","co38032","norming","","","","","","",""
"3505.495000001276","","","post_mooney1_questions","survey-likert","281","1104418","0.0-6.0-2.39","2688356","co38032","norming","","","{""curiosity"":5,""confidence"":4}","[0,1]","../img/tt/064tt.jpg","",""
"2374.079999999609","","","recognition","survey-text","282","1106794","0.0-6.0-3.39","2688356","co38032","norming","","","{""guess"":""Turtle""}","","../img/tt/064tt.jpg","",""
"null","../img/gs/064gs.jpg","null","reveal","image-keyboard-response","283","1108799","0.0-6.0-4.39","2688356","co38032","norming","","","","","","",""
"null","../img/tt/064tt.jpg","null","mooney2","image-keyboard-response","284","1110800","0.0-6.0-5.39","2688356","co38032","norming","","","","","","",""
"1615.5799999998417","","","post_reveal_questions","survey-likert","285","1112418","0.0-6.0-6.39","2688356","co38032","norming","","","{""aha"":2}","[0]","../img/tt/064tt.jpg","",""
"null","<div style=""font-size:60px;""> </div>","null","fixation","html-keyboard-response","286","1112620","0.0-6.0-0.40","2688356","co38032","norming","","","","","","",""
"null","../img/tt/1186tt.jpg","null","mooney1","image-keyboard-response","287","1115628","0.0-6.0-1.40","2688356","co38032","norming","","","","","","",""
"4795.154999999795","","","post_mooney1_questions","survey-likert","288","1120426","0.0-6.0-2.40","2688356","co38032","norming","","","{""curiosity"":5,""confidence"":4}","[0,1]","../img/tt/1186tt.jpg","",""
"5246.0449999999255","","","recognition","survey-text","289","1125674","0.0-6.0-3.40","2688356","co38032","norming","","","{""guess"":""Human""}","","../img/tt/1186tt.jpg","",""
"null","../img/gs/1186gs.jpg","null","reveal","image-keyboard-response","290","1127678","0.0-6.0-4.40","2688356","co38032","norming","","","","","","",""
"null","../img/tt/1186tt.jpg","null","mooney2","image-keyboard-response","291","1129682","0.0-6.0-5.40","2688356","co38032","norming","","","","","","",""
"3183.3100000005215","","","post_reveal_questions","survey-likert","292","1132866","0.0-6.0-6.40","2688356","co38032","norming","","","{""aha"":1}","[0]","../img/tt/1186tt.jpg","",""
"null","<div style=""font-size:60px;""> </div>","null","fixation","html-keyboard-response","293","1133074","0.0-6.0-0.41","2688356","co38032","norming","","","","","","",""
"null","../img/tt/1237tt.jpg","null","mooney1","image-keyboard-response","294","1136085","0.0-6.0-1.41","2688356","co38032","norming","","","","","","",""
"3930.9199999987613","","","post_mooney1_questions","survey-likert","295","1140019","0.0-6.0-2.41","2688356","co38032","norming","","","{""curiosity"":4,""confidence"":4}","[0,1]","../img/tt/1237tt.jpg","",""
"4230.095000000671","","","recognition","survey-text","296","1144250","0.0-6.0-3.41","2688356","co38032","norming","","","{""guess"":""Duck in water""}","","../img/tt/1237tt.jpg","",""
"null","../img/gs/1237gs.jpg","null","reveal","image-keyboard-response","297","1146252","0.0-6.0-4.41","2688356","co38032","norming","","","","","","",""
"null","../img/tt/1237tt.jpg","null","mooney2","image-keyboard-response","298","1148261","0.0-6.0-5.41","2688356","co38032","norming","","","","","","",""
"1386.4949999989476","","","post_reveal_questions","survey-likert","299","1149649","0.0-6.0-6.41","2688356","co38032","norming","","","{""aha"":1}","[0]","../img/tt/1237tt.jpg","",""
"null","<div style=""font-size:60px;""> </div>","null","fixation","html-keyboard-response","300","1149854","0.0-6.0-0.42","2688356","co38032","norming","","","","","","",""
"null","../img/tt/1123tt.jpg","null","mooney1","image-keyboard-response","301","1152860","0.0-6.0-1.42","2688356","co38032","norming","","","","","","",""
"3106.91500000027","","","post_mooney1_questions","survey-likert","302","1155969","0.0-6.0-2.42","2688356","co38032","norming","","","{""curiosity"":4,""confidence"":4}","[0,1]","../img/tt/1123tt.jpg","",""
"6550.114999999991","","","recognition","survey-text","303","1162521","0.0-6.0-3.42","2688356","co38032","norming","","","{""guess"":""Human basketball player""}","","../img/tt/1123tt.jpg","",""
"null","../img/gs/1123gs.jpg","null","reveal","image-keyboard-response","304","1164525","0.0-6.0-4.42","2688356","co38032","norming","","","","","","",""
"null","../img/tt/1123tt.jpg","null","mooney2","image-keyboard-response","305","1166535","0.0-6.0-5.42","2688356","co38032","norming","","","","","","",""
"1884.2700000004843","","","post_reveal_questions","survey-likert","306","1168425","0.0-6.0-6.42","2688356","co38032","norming","","","{""aha"":4}","[0]","../img/tt/1123tt.jpg","",""
"null","<div style=""font-size:60px;""> </div>","null","fixation","html-keyboard-response","307","1168632","0.0-6.0-0.43","2688356","co38032","norming","","","","","","",""
"null","../img/tt/1353tt.jpg","null","mooney1","image-keyboard-response","308","1171643","0.0-6.0-1.43","2688356","co38032","norming","","","","","","",""
"6171.25499999919","","","post_mooney1_questions","survey-likert","309","1177818","0.0-6.0-2.43","2688356","co38032","norming","","","{""curiosity"":4,""confidence"":3}","[0,1]","../img/tt/1353tt.jpg","",""
"3126.1900000008754","","","recognition","survey-text","310","1180945","0.0-6.0-3.43","2688356","co38032","norming","","","{""guess"":""Godzilla""}","","../img/tt/1353tt.jpg","",""
"null","../img/gs/1353gs.jpg","null","reveal","image-keyboard-response","311","1182952","0.0-6.0-4.43","2688356","co38032","norming","","","","","","",""
"null","../img/tt/1353tt.jpg","null","mooney2","image-keyboard-response","312","1184954","0.0-6.0-5.43","2688356","co38032","norming","","","","","","",""
"1909.1900000004098","","","post_reveal_questions","survey-likert","313","1186865","0.0-6.0-6.43","2688356","co38032","norming","","","{""aha"":5}","[0]","../img/tt/1353tt.jpg","",""
"null","<div style=""font-size:60px;""> </div>","null","fixation","html-keyboard-response","314","1187067","0.0-6.0-0.44","2688356","co38032","norming","","","","","","",""
"null","../img/tt/1239tt.jpg","null","mooney1","image-keyboard-response","315","1190072","0.0-6.0-1.44","2688356","co38032","norming","","","","","","",""
"4118.309999999823","","","post_mooney1_questions","survey-likert","316","1194194","0.0-6.0-2.44","2688356","co38032","norming","","","{""curiosity"":1,""confidence"":0}","[0,1]","../img/tt/1239tt.jpg","",""
"2205.8499999984633","","","recognition","survey-text","317","1196401","0.0-6.0-3.44","2688356","co38032","norming","","","{""guess"":""Alien""}","","../img/tt/1239tt.jpg","",""
"null","../img/gs/1239gs.jpg","null","reveal","image-keyboard-response","318","1198403","0.0-6.0-4.44","2688356","co38032","norming","","","","","","",""
"null","../img/tt/1239tt.jpg","null","mooney2","image-keyboard-response","319","1200407","0.0-6.0-5.44","2688356","co38032","norming","","","","","","",""
"2031.6200000017416","","","post_reveal_questions","survey-likert","320","1202441","0.0-6.0-6.44","2688356","co38032","norming","","","{""aha"":5}","[0]","../img/tt/1239tt.jpg","",""
"null","<div style=""font-size:60px;""> </div>","null","fixation","html-keyboard-response","321","1202643","0.0-6.0-0.45","2688356","co38032","norming","","","","","","",""
"null","../img/tt/040tt.jpg","null","mooney1","image-keyboard-response","322","1205643","0.0-6.0-1.45","2688356","co38032","norming","","","","","","",""
"4123.270000000019","","","post_mooney1_questions","survey-likert","323","1209771","0.0-6.0-2.45","2688356","co38032","norming","","","{""curiosity"":4,""confidence"":0}","[0,1]","../img/tt/040tt.jpg","",""
"3909.994999999879","","","recognition","survey-text","324","1213683","0.0-6.0-3.45","2688356","co38032","norming","","","{""guess"":""Vegetable""}","","../img/tt/040tt.jpg","",""
"null","../img/gs/040gs.jpg","null","reveal","image-keyboard-response","325","1215686","0.0-6.0-4.45","2688356","co38032","norming","","","","","","",""
"null","../img/tt/040tt.jpg","null","mooney2","image-keyboard-response","326","1217687","0.0-6.0-5.45","2688356","co38032","norming","","","","","","",""
"1600.9499999999534","","","post_reveal_questions","survey-likert","327","1219291","0.0-6.0-6.45","2688356","co38032","norming","","","{""aha"":4}","[0]","../img/tt/040tt.jpg","",""
"null","<div style=""font-size:60px;""> </div>","null","fixation","html-keyboard-response","328","1219500","0.0-6.0-0.46","2688356","co38032","norming","","","","","","",""
"null","../img/tt/163tt.jpg","null","mooney1","image-keyboard-response","329","1222510","0.0-6.0-1.46","2688356","co38032","norming","","","","","","",""
"3762.5650000008754","","","post_mooney1_questions","survey-likert","330","1226275","0.0-6.0-2.46","2688356","co38032","norming","","","{""curiosity"":4,""confidence"":4}","[0,1]","../img/tt/163tt.jpg","",""
"1342.1900000011083","","","recognition","survey-text","331","1227619","0.0-6.0-3.46","2688356","co38032","norming","","","{""guess"":""Flower""}","","../img/tt/163tt.jpg","",""
"null","../img/gs/163gs.jpg","null","reveal","image-keyboard-response","332","1229621","0.0-6.0-4.46","2688356","co38032","norming","","","","","","",""
"null","../img/tt/163tt.jpg","null","mooney2","image-keyboard-response","333","1231624","0.0-6.0-5.46","2688356","co38032","norming","","","","","","",""
"2120.93999999878","","","post_reveal_questions","survey-likert","334","1233747","0.0-6.0-6.46","2688356","co38032","norming","","","{""aha"":5}","[0]","../img/tt/163tt.jpg","",""
"null","<div style=""font-size:60px;""> </div>","null","fixation","html-keyboard-response","335","1233948","0.0-6.0-0.47","2688356","co38032","norming","","","","","","",""
"null","../img/tt/497tt.jpg","null","mooney1","image-keyboard-response","336","1236951","0.0-6.0-1.47","2688356","co38032","norming","","","","","","",""
"3736.7549999998882","","","post_mooney1_questions","survey-likert","337","1240691","0.0-6.0-2.47","2688356","co38032","norming","","","{""curiosity"":4,""confidence"":4}","[0,1]","../img/tt/497tt.jpg","",""
"3006.1100000003353","","","recognition","survey-text","338","1243699","0.0-6.0-3.47","2688356","co38032","norming","","","{""guess"":""Ashtray""}","","../img/tt/497tt.jpg","",""
"null","../img/gs/497gs.jpg","null","reveal","image-keyboard-response","339","1245700","0.0-6.0-4.47","2688356","co38032","norming","","","","","","",""
"null","../img/tt/497tt.jpg","null","mooney2","image-keyboard-response","340","1247709","0.0-6.0-5.47","2688356","co38032","norming","","","","","","",""
"5315.490000000922","","","post_reveal_questions","survey-likert","341","1253027","0.0-6.0-6.47","2688356","co38032","norming","","","{""aha"":5}","[0]","../img/tt/497tt.jpg","",""
"null","<div style=""font-size:60px;""> </div>","null","fixation","html-keyboard-response","342","1253229","0.0-6.0-0.48","2688356","co38032","norming","","","","","","",""
"null","../img/tt/329tt.jpg","null","mooney1","image-keyboard-response","343","1256231","0.0-6.0-1.48","2688356","co38032","norming","","","","","","",""
"2584.660000000382","","","post_mooney1_questions","survey-likert","344","1258819","0.0-6.0-2.48","2688356","co38032","norming","","","{""curiosity"":5,""confidence"":5}","[0,1]","../img/tt/329tt.jpg","",""
"2542.3300000000745","","","recognition","survey-text","345","1261363","0.0-6.0-3.48","2688356","co38032","norming","","","{""guess"":""Octopus""}","","../img/tt/329tt.jpg","",""
"null","../img/gs/329gs.jpg","null","reveal","image-keyboard-response","346","1263365","0.0-6.0-4.48","2688356","co38032","norming","","","","","","",""
"null","../img/tt/329tt.jpg","null","mooney2","image-keyboard-response","347","1265368","0.0-6.0-5.48","2688356","co38032","norming","","","","","","",""
"1441.010000000475","","","post_reveal_questions","survey-likert","348","1266811","0.0-6.0-6.48","2688356","co38032","norming","","","{""aha"":4}","[0]","../img/tt/329tt.jpg","",""
"null","<div style=""font-size:60px;""> </div>","null","fixation","html-keyboard-response","349","1267013","0.0-6.0-0.49","2688356","co38032","norming","","","","","","",""
"null","../img/tt/1159tt.jpg","null","mooney1","image-keyboard-response","350","1270027","0.0-6.0-1.49","2688356","co38032","norming","","","","","","",""
"6673.254999999655","","","post_mooney1_questions","survey-likert","351","1276702","0.0-6.0-2.49","2688356","co38032","norming","","","{""curiosity"":4,""confidence"":0}","[0,1]","../img/tt/1159tt.jpg","",""
"5653.6450000002515","","","recognition","survey-text","352","1282357","0.0-6.0-3.49","2688356","co38032","norming","","","{""guess"":""Watertank""}","","../img/tt/1159tt.jpg","",""
"null","../img/gs/1159gs.jpg","null","reveal","image-keyboard-response","353","1284366","0.0-6.0-4.49","2688356","co38032","norming","","","","","","",""
"null","../img/tt/1159tt.jpg","null","mooney2","image-keyboard-response","354","1286367","0.0-6.0-5.49","2688356","co38032","norming","","","","","","",""
"1580.5149999996647","","","post_reveal_questions","survey-likert","355","1287950","0.0-6.0-6.49","2688356","co38032","norming","","","{""aha"":2}","[0]","../img/tt/1159tt.jpg","",""
"null","<div style=""font-size:60px;""> </div>","null","fixation","html-keyboard-response","356","1288152","0.0-6.0-0.50","2688356","co38032","norming","","","","","","",""
"null","../img/tt/1268tt.jpg","null","mooney1","image-keyboard-response","357","1291161","0.0-6.0-1.50","2688356","co38032","norming","","","","","","",""
"3618.519999999786","","","post_mooney1_questions","survey-likert","358","1294782","0.0-6.0-2.50","2688356","co38032","norming","","","{""curiosity"":3,""confidence"":0}","[0,1]","../img/tt/1268tt.jpg","",""
"1973.824999999255","","","recognition","survey-text","359","1296758","0.0-6.0-3.50","2688356","co38032","norming","","","{""guess"":""Flamingo""}","","../img/tt/1268tt.jpg","",""
"null","../img/gs/1268gs.jpg","null","reveal","image-keyboard-response","360","1298764","0.0-6.0-4.50","2688356","co38032","norming","","","","","","",""
"null","../img/tt/1268tt.jpg","null","mooney2","image-keyboard-response","361","1300766","0.0-6.0-5.50","2688356","co38032","norming","","","","","","",""
"1029.5449999994598","","","post_reveal_questions","survey-likert","362","1301798","0.0-6.0-6.50","2688356","co38032","norming","","","{""aha"":4}","[0]","../img/tt/1268tt.jpg","",""
"null","<div style=""font-size:60px;""> </div>","null","fixation","html-keyboard-response","363","1302001","0.0-6.0-0.51","2688356","co38032","norming","","","","","","",""
"null","../img/tt/049tt.jpg","null","mooney1","image-keyboard-response","364","1305011","0.0-6.0-1.51","2688356","co38032","norming","","","","","","",""
"4152.665000001434","","","post_mooney1_questions","survey-likert","365","1309166","0.0-6.0-2.51","2688356","co38032","norming","","","{""curiosity"":4,""confidence"":1}","[0,1]","../img/tt/049tt.jpg","",""
"4077.9799999999814","","","recognition","survey-text","366","1313246","0.0-6.0-3.51","2688356","co38032","norming","","","{""guess"":""Squid""}","","../img/tt/049tt.jpg","",""
"null","../img/gs/049gs.jpg","null","reveal","image-keyboard-response","367","1315256","0.0-6.0-4.51","2688356","co38032","norming","","","","","","",""
"null","../img/tt/049tt.jpg","null","mooney2","image-keyboard-response","368","1317264","0.0-6.0-5.51","2688356","co38032","norming","","","","","","",""
"1971.0649999997113","","","post_reveal_questions","survey-likert","369","1319238","0.0-6.0-6.51","2688356","co38032","norming","","","{""aha"":1}","[0]","../img/tt/049tt.jpg","",""
"null","<div style=""font-size:60px;""> </div>","null","fixation","html-keyboard-response","370","1319442","0.0-6.0-0.52","2688356","co38032","norming","","","","","","",""
"null","../img/tt/1250tt.jpg","null","mooney1","image-keyboard-response","371","1322455","0.0-6.0-1.52","2688356","co38032","norming","","","","","","",""
"4540.519999998622","","","post_mooney1_questions","survey-likert","372","1326998","0.0-6.0-2.52","2688356","co38032","norming","","","{""curiosity"":5,""confidence"":1}","[0,1]","../img/tt/1250tt.jpg","",""
"3453.6600000010803","","","recognition","survey-text","373","1330447","0.0-6.0-3.52","2688356","co38032","norming","","","{""guess"":""Algae""}","","../img/tt/1250tt.jpg","",""
"null","../img/gs/1250gs.jpg","null","reveal","image-keyboard-response","374","1332449","0.0-6.0-4.52","2688356","co38032","norming","","","","","","",""
"null","../img/tt/1250tt.jpg","null","mooney2","image-keyboard-response","375","1334451","0.0-6.0-5.52","2688356","co38032","norming","","","","","","",""
"1153.4350000002887","","","post_reveal_questions","survey-likert","376","1335607","0.0-6.0-6.52","2688356","co38032","norming","","","{""aha"":4}","[0]","../img/tt/1250tt.jpg","",""
"null","<div style=""font-size:60px;""> </div>","null","fixation","html-keyboard-response","377","1335808","0.0-6.0-0.53","2688356","co38032","norming","","","","","","",""
"null","../img/tt/135tt.jpg","null","mooney1","image-keyboard-response","378","1338811","0.0-6.0-1.53","2688356","co38032","norming","","","","","","",""
"3993.134999998845","","","post_mooney1_questions","survey-likert","379","1342807","0.0-6.0-2.53","2688356","co38032","norming","","","{""curiosity"":2,""confidence"":6}","[0,1]","../img/tt/135tt.jpg","",""
"2854.2050000014715","","","recognition","survey-text","380","1345663","0.0-6.0-3.53","2688356","co38032","norming","","","{""guess"":""Toilet""}","","../img/tt/135tt.jpg","",""
"null","../img/gs/135gs.jpg","null","reveal","image-keyboard-response","381","1347665","0.0-6.0-4.53","2688356","co38032","norming","","","","","","",""
"null","../img/tt/135tt.jpg","null","mooney2","image-keyboard-response","382","1349674","0.0-6.0-5.53","2688356","co38032","norming","","","","","","",""
"2051.9199999996927","","","post_reveal_questions","survey-likert","383","1351727","0.0-6.0-6.53","2688356","co38032","norming","","","{""aha"":0}","[0]","../img/tt/135tt.jpg","",""
"null","<div style=""font-size:60px;""> </div>","null","fixation","html-keyboard-response","384","1351929","0.0-6.0-0.54","2688356","co38032","norming","","","","","","",""
"null","../img/tt/1279tt.jpg","null","mooney1","image-keyboard-response","385","1354939","0.0-6.0-1.54","2688356","co38032","norming","","","","","","",""
"5880.750000000233","","","post_mooney1_questions","survey-likert","386","1360823","0.0-6.0-2.54","2688356","co38032","norming","","","{""curiosity"":0,""confidence"":0}","[0,1]","../img/tt/1279tt.jpg","",""
"1990.1999999983236","","","recognition","survey-text","387","1362815","0.0-6.0-3.54","2688356","co38032","norming","","","{""guess"":""""}","","../img/tt/1279tt.jpg","",""
"null","../img/gs/1279gs.jpg","null","reveal","image-keyboard-response","388","1364822","0.0-6.0-4.54","2688356","co38032","norming","","","","","","",""
"null","../img/tt/1279tt.jpg","null","mooney2","image-keyboard-response","389","1366823","0.0-6.0-5.54","2688356","co38032","norming","","","","","","",""
"3485.134999998845","","","post_reveal_questions","survey-likert","390","1370311","0.0-6.0-6.54","2688356","co38032","norming","","","{""aha"":0}","[0]","../img/tt/1279tt.jpg","",""
"null","<div style=""font-size:60px;""> </div>","null","fixation","html-keyboard-response","391","1370518","0.0-6.0-0.55","2688356","co38032","norming","","","","","","",""
"null","../img/tt/1255tt.jpg","null","mooney1","image-keyboard-response","392","1373521","0.0-6.0-1.55","2688356","co38032","norming","","","","","","",""
"3746.820000000298","","","post_mooney1_questions","survey-likert","393","1377271","0.0-6.0-2.55","2688356","co38032","norming","","","{""curiosity"":3,""confidence"":1}","[0,1]","../img/tt/1255tt.jpg","",""
"1622.2249999991618","","","recognition","survey-text","394","1378895","0.0-6.0-3.55","2688356","co38032","norming","","","{""guess"":""Park""}","","../img/tt/1255tt.jpg","",""
"null","../img/gs/1255gs.jpg","null","reveal","image-keyboard-response","395","1380901","0.0-6.0-4.55","2688356","co38032","norming","","","","","","",""
"null","../img/tt/1255tt.jpg","null","mooney2","image-keyboard-response","396","1382904","0.0-6.0-5.55","2688356","co38032","norming","","","","","","",""
"2108.730000001844","","","post_reveal_questions","survey-likert","397","1385015","0.0-6.0-6.55","2688356","co38032","norming","","","{""aha"":1}","[0]","../img/tt/1255tt.jpg","",""
"null","<div style=""font-size:60px;""> </div>","null","fixation","html-keyboard-response","398","1385216","0.0-6.0-0.56","2688356","co38032","norming","","","","","","",""
"null","../img/tt/1261tt.jpg","null","mooney1","image-keyboard-response","399","1388225","0.0-6.0-1.56","2688356","co38032","norming","","","","","","",""
"7946.4449999995995","","","post_mooney1_questions","survey-likert","400","1396175","0.0-6.0-2.56","2688356","co38032","norming","","","{""curiosity"":2,""confidence"":4}","[0,1]","../img/tt/1261tt.jpg","",""
"2046.039999999106","","","recognition","survey-text","401","1398223","0.0-6.0-3.56","2688356","co38032","norming","","","{""guess"":""Window""}","","../img/tt/1261tt.jpg","",""
"null","../img/gs/1261gs.jpg","null","reveal","image-keyboard-response","402","1400227","0.0-6.0-4.56","2688356","co38032","norming","","","","","","",""
"null","../img/tt/1261tt.jpg","null","mooney2","image-keyboard-response","403","1402236","0.0-6.0-5.56","2688356","co38032","norming","","","","","","",""
"2016.9750000005588","","","post_reveal_questions","survey-likert","404","1404255","0.0-6.0-6.56","2688356","co38032","norming","","","{""aha"":6}","[0]","../img/tt/1261tt.jpg","",""
"null","<div style=""font-size:60px;""> </div>","null","fixation","html-keyboard-response","405","1404456","0.0-6.0-0.57","2688356","co38032","norming","","","","","","",""
"null","../img/tt/079tt.jpg","null","mooney1","image-keyboard-response","406","1407465","0.0-6.0-1.57","2688356","co38032","norming","","","","","","",""
"3298.9999999990687","","","post_mooney1_questions","survey-likert","407","1410767","0.0-6.0-2.57","2688356","co38032","norming","","","{""curiosity"":4,""confidence"":5}","[0,1]","../img/tt/079tt.jpg","",""
"1198.1849999993574","","","recognition","survey-text","408","1411967","0.0-6.0-3.57","2688356","co38032","norming","","","{""guess"":""Bear""}","","../img/tt/079tt.jpg","",""
"null","../img/gs/079gs.jpg","null","reveal","image-keyboard-response","409","1413969","0.0-6.0-4.57","2688356","co38032","norming","","","","","","",""
"null","../img/tt/079tt.jpg","null","mooney2","image-keyboard-response","410","1415970","0.0-6.0-5.57","2688356","co38032","norming","","","","","","",""
"2673.699999999255","","","post_reveal_questions","survey-likert","411","1418647","0.0-6.0-6.57","2688356","co38032","norming","","","{""aha"":3}","[0]","../img/tt/079tt.jpg","",""
"null","<div style=""font-size:60px;""> </div>","null","fixation","html-keyboard-response","412","1418849","0.0-6.0-0.58","2688356","co38032","norming","","","","","","",""
"null","../img/tt/1063tt.jpg","null","mooney1","image-keyboard-response","413","1421858","0.0-6.0-1.58","2688356","co38032","norming","","","","","","",""
"7618.909999999218","","","post_mooney1_questions","survey-likert","414","1429479","0.0-6.0-2.58","2688356","co38032","norming","","","{""curiosity"":5,""confidence"":4}","[0,1]","../img/tt/1063tt.jpg","",""
"1270.005000000354","","","recognition","survey-text","415","1430751","0.0-6.0-3.58","2688356","co38032","norming","","","{""guess"":""Sheep""}","","../img/tt/1063tt.jpg","",""
"null","../img/gs/1063gs.jpg","null","reveal","image-keyboard-response","416","1432754","0.0-6.0-4.58","2688356","co38032","norming","","","","","","",""
"null","../img/tt/1063tt.jpg","null","mooney2","image-keyboard-response","417","1434756","0.0-6.0-5.58","2688356","co38032","norming","","","","","","",""
"1472.6200000003446","","","post_reveal_questions","survey-likert","418","1436231","0.0-6.0-6.58","2688356","co38032","norming","","","{""aha"":4}","[0]","../img/tt/1063tt.jpg","",""
"null","<div style=""font-size:60px;""> </div>","null","fixation","html-keyboard-response","419","1436433","0.0-6.0-0.59","2688356","co38032","norming","","","","","","",""
"null","../img/tt/1232tt.jpg","null","mooney1","image-keyboard-response","420","1439435","0.0-6.0-1.59","2688356","co38032","norming","","","","","","",""
"3199.2399999999907","","","post_mooney1_questions","survey-likert","421","1442639","0.0-6.0-2.59","2688356","co38032","norming","","","{""curiosity"":5,""confidence"":6}","[0,1]","../img/tt/1232tt.jpg","",""
"2094.2349999984726","","","recognition","survey-text","422","1444735","0.0-6.0-3.59","2688356","co38032","norming","","","{""guess"":""Pidgeon""}","","../img/tt/1232tt.jpg","",""
"null","../img/gs/1232gs.jpg","null","reveal","image-keyboard-response","423","1446737","0.0-6.0-4.59","2688356","co38032","norming","","","","","","",""
"null","../img/tt/1232tt.jpg","null","mooney2","image-keyboard-response","424","1448739","0.0-6.0-5.59","2688356","co38032","norming","","","","","","",""
"1578.390000000596","","","post_reveal_questions","survey-likert","425","1450319","0.0-6.0-6.59","2688356","co38032","norming","","","{""aha"":3}","[0]","../img/tt/1232tt.jpg","",""
"null","<div style=""font-size:60px;""> </div>","null","fixation","html-keyboard-response","426","1450520","0.0-6.0-0.60","2688356","co38032","norming","","","","","","",""
"null","../img/tt/091tt.jpg","null","mooney1","image-keyboard-response","427","1453522","0.0-6.0-1.60","2688356","co38032","norming","","","","","","",""
"2418.255000000354","","","post_mooney1_questions","survey-likert","428","1455950","0.0-6.0-2.60","2688356","co38032","norming","","","{""curiosity"":1,""confidence"":0}","[0,1]","../img/tt/091tt.jpg","",""
"3030.244999999879","","","recognition","survey-text","429","1458982","0.0-6.0-3.60","2688356","co38032","norming","","","{""guess"":""Sidewalk""}","","../img/tt/091tt.jpg","",""
"null","../img/gs/091gs.jpg","null","reveal","image-keyboard-response","430","1460990","0.0-6.0-4.60","2688356","co38032","norming","","","","","","",""
"null","../img/tt/091tt.jpg","null","mooney2","image-keyboard-response","431","1462994","0.0-6.0-5.60","2688356","co38032","norming","","","","","","",""
"4920.750000001164","","","post_reveal_questions","survey-likert","432","1467917","0.0-6.0-6.60","2688356","co38032","norming","","","{""aha"":5}","[0]","../img/tt/091tt.jpg","",""
"null","<div style=""font-size:60px;""> </div>","null","fixation","html-keyboard-response","433","1468119","0.0-6.0-0.61","2688356","co38032","norming","","","","","","",""
"null","../img/tt/098tt.jpg","null","mooney1","image-keyboard-response","434","1471123","0.0-6.0-1.61","2688356","co38032","norming","","","","","","",""
"3559.489999999758","","","post_mooney1_questions","survey-likert","435","1474686","0.0-6.0-2.61","2688356","co38032","norming","","","{""curiosity"":1,""confidence"":0}","[0,1]","../img/tt/098tt.jpg","",""
"2838.0500000005122","","","recognition","survey-text","436","1477526","0.0-6.0-3.61","2688356","co38032","norming","","","{""guess"":""Head""}","","../img/tt/098tt.jpg","",""
"null","../img/gs/098gs.jpg","null","reveal","image-keyboard-response","437","1479528","0.0-6.0-4.61","2688356","co38032","norming","","","","","","",""
"null","../img/tt/098tt.jpg","null","mooney2","image-keyboard-response","438","1481530","0.0-6.0-5.61","2688356","co38032","norming","","","","","","",""
"1722.6900000004098","","","post_reveal_questions","survey-likert","439","1483254","0.0-6.0-6.61","2688356","co38032","norming","","","{""aha"":3}","[0]","../img/tt/098tt.jpg","",""
"null","<div style=""font-size:60px;""> </div>","null","fixation","html-keyboard-response","440","1483463","0.0-6.0-0.62","2688356","co38032","norming","","","","","","",""
"null","../img/tt/534tt.jpg","null","mooney1","image-keyboard-response","441","1486474","0.0-6.0-1.62","2688356","co38032","norming","","","","","","",""
"4616.9449999995995","","","post_mooney1_questions","survey-likert","442","1491094","0.0-6.0-2.62","2688356","co38032","norming","","","{""curiosity"":4,""confidence"":3}","[0,1]","../img/tt/534tt.jpg","",""
"1470.0250000006054","","","recognition","survey-text","443","1492566","0.0-6.0-3.62","2688356","co38032","norming","","","{""guess"":""Cacti""}","","../img/tt/534tt.jpg","",""
"null","../img/gs/534gs.jpg","null","reveal","image-keyboard-response","444","1494571","0.0-6.0-4.62","2688356","co38032","norming","","","","","","",""
"null","../img/tt/534tt.jpg","null","mooney2","image-keyboard-response","445","1496573","0.0-6.0-5.62","2688356","co38032","norming","","","","","","",""
"1262.1099999996368","","","post_reveal_questions","survey-likert","446","1497838","0.0-6.0-6.62","2688356","co38032","norming","","","{""aha"":5}","[0]","../img/tt/534tt.jpg","",""
"null","<div style=""font-size:60px;""> </div>","null","fixation","html-keyboard-response","447","1498039","0.0-6.0-0.63","2688356","co38032","norming","","","","","","",""
"null","../img/tt/522tt.jpg","null","mooney1","image-keyboard-response","448","1501047","0.0-6.0-1.63","2688356","co38032","norming","","","","","","",""
"6197.454999999376","","","post_mooney1_questions","survey-likert","449","1507246","0.0-6.0-2.63","2688356","co38032","norming","","","{""curiosity"":5,""confidence"":1}","[0,1]","../img/tt/522tt.jpg","",""
"2965.990000000689","","","recognition","survey-text","450","1510214","0.0-6.0-3.63","2688356","co38032","norming","","","{""guess"":""Penis""}","","../img/tt/522tt.jpg","",""
"null","../img/gs/522gs.jpg","null","reveal","image-keyboard-response","451","1512216","0.0-6.0-4.63","2688356","co38032","norming","","","","","","",""
"null","../img/tt/522tt.jpg","null","mooney2","image-keyboard-response","452","1514218","0.0-6.0-5.63","2688356","co38032","norming","","","","","","",""
"1791.659999998752","","","post_reveal_questions","survey-likert","453","1516005","0.0-6.0-6.63","2688356","co38032","norming","","","{""aha"":5}","[0]","../img/tt/522tt.jpg","",""
"null","<div style=""font-size:60px;""> </div>","null","fixation","html-keyboard-response","454","1516207","0.0-6.0-0.64","2688356","co38032","norming","","","","","","",""
"null","../img/tt/599tt.jpg","null","mooney1","image-keyboard-response","455","1519211","0.0-6.0-1.64","2688356","co38032","norming","","","","","","",""
"3398.424999999348","","","post_mooney1_questions","survey-likert","456","1522613","0.0-6.0-2.64","2688356","co38032","norming","","","{""curiosity"":5,""confidence"":4}","[0,1]","../img/tt/599tt.jpg","",""
"1590.219999999972","","","recognition","survey-text","457","1524205","0.0-6.0-3.64","2688356","co38032","norming","","","{""guess"":""Owls""}","","../img/tt/599tt.jpg","",""
"null","../img/gs/599gs.jpg","null","reveal","image-keyboard-response","458","1526207","0.0-6.0-4.64","2688356","co38032","norming","","","","","","",""
"null","../img/tt/599tt.jpg","null","mooney2","image-keyboard-response","459","1528209","0.0-6.0-5.64","2688356","co38032","norming","","","","","","",""
"1945.6749999991152","","","post_reveal_questions","survey-likert","460","1530157","0.0-6.0-6.64","2688356","co38032","norming","","","{""aha"":3}","[0]","../img/tt/599tt.jpg","",""
"null","<div style=""font-size:60px;""> </div>","null","fixation","html-keyboard-response","461","1530366","0.0-6.0-0.65","2688356","co38032","norming","","","","","","",""
"null","../img/tt/094tt.jpg","null","mooney1","image-keyboard-response","462","1533371","0.0-6.0-1.65","2688356","co38032","norming","","","","","","",""
"4231.680000000633","","","post_mooney1_questions","survey-likert","463","1537605","0.0-6.0-2.65","2688356","co38032","norming","","","{""curiosity"":5,""confidence"":3}","[0,1]","../img/tt/094tt.jpg","",""
"1206.219999999972","","","recognition","survey-text","464","1538813","0.0-6.0-3.65","2688356","co38032","norming","","","{""guess"":""Wolf""}","","../img/tt/094tt.jpg","",""
"null","../img/gs/094gs.jpg","null","reveal","image-keyboard-response","465","1540814","0.0-6.0-4.65","2688356","co38032","norming","","","","","","",""
"null","../img/tt/094tt.jpg","null","mooney2","image-keyboard-response","466","1542816","0.0-6.0-5.65","2688356","co38032","norming","","","","","","",""
"1323.089999999851","","","post_reveal_questions","survey-likert","467","1544141","0.0-6.0-6.65","2688356","co38032","norming","","","{""aha"":2}","[0]","../img/tt/094tt.jpg","",""
"null","<div style=""font-size:60px;""> </div>","null","fixation","html-keyboard-response","468","1544347","0.0-6.0-0.66","2688356","co38032","norming","","","","","","",""
"null","../img/tt/405tt.jpg","null","mooney1","image-keyboard-response","469","1547350","0.0-6.0-1.66","2688356","co38032","norming","","","","","","",""
"4780.469999999739","","","post_mooney1_questions","survey-likert","470","1552133","0.0-6.0-2.66","2688356","co38032","norming","","","{""curiosity"":2,""confidence"":0}","[0,1]","../img/tt/405tt.jpg","",""
"2118.0100000000093","","","recognition","survey-text","471","1554253","0.0-6.0-3.66","2688356","co38032","norming","","","{""guess"":""Animal""}","","../img/tt/405tt.jpg","",""
"null","../img/gs/405gs.jpg","null","reveal","image-keyboard-response","472","1556262","0.0-6.0-4.66","2688356","co38032","norming","","","","","","",""
"null","../img/tt/405tt.jpg","null","mooney2","image-keyboard-response","473","1558267","0.0-6.0-5.66","2688356","co38032","norming","","","","","","",""
"2559.300000000745","","","post_reveal_questions","survey-likert","474","1560829","0.0-6.0-6.66","2688356","co38032","norming","","","{""aha"":1}","[0]","../img/tt/405tt.jpg","",""
"null","<div style=""font-size:60px;""> </div>","null","fixation","html-keyboard-response","475","1561030","0.0-6.0-0.67","2688356","co38032","norming","","","","","","",""
"null","../img/tt/496tt.jpg","null","mooney1","image-keyboard-response","476","1564037","0.0-6.0-1.67","2688356","co38032","norming","","","","","","",""
"3397.1399999989662","","","post_mooney1_questions","survey-likert","477","1567437","0.0-6.0-2.67","2688356","co38032","norming","","","{""curiosity"":5,""confidence"":3}","[0,1]","../img/tt/496tt.jpg","",""
"1822.1099999991711","","","recognition","survey-text","478","1569261","0.0-6.0-3.67","2688356","co38032","norming","","","{""guess"":""Pig""}","","../img/tt/496tt.jpg","",""
"null","../img/gs/496gs.jpg","null","reveal","image-keyboard-response","479","1571272","0.0-6.0-4.67","2688356","co38032","norming","","","","","","",""
"null","../img/tt/496tt.jpg","null","mooney2","image-keyboard-response","480","1573280","0.0-6.0-5.67","2688356","co38032","norming","","","","","","",""
"2402.740000001155","","","post_reveal_questions","survey-likert","481","1575694","0.0-6.0-6.67","2688356","co38032","norming","","","{""aha"":4}","[0]","../img/tt/496tt.jpg","",""
"null","<div style=""font-size:60px;""> </div>","null","fixation","html-keyboard-response","482","1575896","0.0-6.0-0.68","2688356","co38032","norming","","","","","","",""
"null","../img/tt/416tt.jpg","null","mooney1","image-keyboard-response","483","1578903","0.0-6.0-1.68","2688356","co38032","norming","","","","","","",""
"4659.164999999339","","","post_mooney1_questions","survey-likert","484","1583566","0.0-6.0-2.68","2688356","co38032","norming","","","{""curiosity"":5,""confidence"":1}","[0,1]","../img/tt/416tt.jpg","",""
"2501.9849999989383","","","recognition","survey-text","485","1586070","0.0-6.0-3.68","2688356","co38032","norming","","","{""guess"":""Ostrich""}","","../img/tt/416tt.jpg","",""
"null","../img/gs/416gs.jpg","null","reveal","image-keyboard-response","486","1588072","0.0-6.0-4.68","2688356","co38032","norming","","","","","","",""
"null","../img/tt/416tt.jpg","null","mooney2","image-keyboard-response","487","1590081","0.0-6.0-5.68","2688356","co38032","norming","","","","","","",""
"3377.9549999998417","","","post_reveal_questions","survey-likert","488","1593462","0.0-6.0-6.68","2688356","co38032","norming","","","{""aha"":6}","[0]","../img/tt/416tt.jpg","",""
"null","<div style=""font-size:60px;""> </div>","null","fixation","html-keyboard-response","489","1593664","0.0-6.0-0.69","2688356","co38032","norming","","","","","","",""
"null","../img/tt/1217tt.jpg","null","mooney1","image-keyboard-response","490","1596670","0.0-6.0-1.69","2688356","co38032","norming","","","","","","",""
"4775.34999999986","","","post_mooney1_questions","survey-likert","491","1601446","0.0-6.0-2.69","2688356","co38032","norming","","","{""curiosity"":4,""confidence"":0}","[0,1]","../img/tt/1217tt.jpg","",""
"3502.2549999994226","","","recognition","survey-text","492","1604950","0.0-6.0-3.69","2688356","co38032","norming","","","{""guess"":""Ghosts""}","","../img/tt/1217tt.jpg","",""
"null","../img/gs/1217gs.jpg","null","reveal","image-keyboard-response","493","1606953","0.0-6.0-4.69","2688356","co38032","norming","","","","","","",""
"null","../img/tt/1217tt.jpg","null","mooney2","image-keyboard-response","494","1608963","0.0-6.0-5.69","2688356","co38032","norming","","","","","","",""
"3064.64999999851","","","post_reveal_questions","survey-likert","495","1612031","0.0-6.0-6.69","2688356","co38032","norming","","","{""aha"":2}","[0]","../img/tt/1217tt.jpg","",""
"null","<div style=""font-size:60px;""> </div>","null","fixation","html-keyboard-response","496","1612232","0.0-6.0-0.70","2688356","co38032","norming","","","","","","",""
"null","../img/tt/1142tt.jpg","null","mooney1","image-keyboard-response","497","1615237","0.0-6.0-1.70","2688356","co38032","norming","","","","","","",""
"4336.165000000736","","","post_mooney1_questions","survey-likert","498","1619574","0.0-6.0-2.70","2688356","co38032","norming","","","{""curiosity"":4,""confidence"":4}","[0,1]","../img/tt/1142tt.jpg","",""
"3165.735000000568","","","recognition","survey-text","499","1622742","0.0-6.0-3.70","2688356","co38032","norming","","","{""guess"":""Atlethics""}","","../img/tt/1142tt.jpg","",""
"null","../img/gs/1142gs.jpg","null","reveal","image-keyboard-response","500","1624750","0.0-6.0-4.70","2688356","co38032","norming","","","","","","",""
"null","../img/tt/1142tt.jpg","null","mooney2","image-keyboard-response","501","1626755","0.0-6.0-5.70","2688356","co38032","norming","","","","","","",""
"3537.285000000149","","","post_reveal_questions","survey-likert","502","1630294","0.0-6.0-6.70","2688356","co38032","norming","","","{""aha"":3}","[0]","../img/tt/1142tt.jpg","",""
"null","<div style=""font-size:60px;""> </div>","null","fixation","html-keyboard-response","503","1630496","0.0-6.0-0.71","2688356","co38032","norming","","","","","","",""
"null","../img/tt/096tt.jpg","null","mooney1","image-keyboard-response","504","1633499","0.0-6.0-1.71","2688356","co38032","norming","","","","","","",""
"3719.5400000000373","","","post_mooney1_questions","survey-likert","505","1637222","0.0-6.0-2.71","2688356","co38032","norming","","","{""curiosity"":5,""confidence"":4}","[0,1]","../img/tt/096tt.jpg","",""
"1933.995000001276","","","recognition","survey-text","506","1639158","0.0-6.0-3.71","2688356","co38032","norming","","","{""guess"":""Piano""}","","../img/tt/096tt.jpg","",""
"null","../img/gs/096gs.jpg","null","reveal","image-keyboard-response","507","1641166","0.0-6.0-4.71","2688356","co38032","norming","","","","","","",""
"null","../img/tt/096tt.jpg","null","mooney2","image-keyboard-response","508","1643169","0.0-6.0-5.71","2688356","co38032","norming","","","","","","",""
"2761.920000000857","","","post_reveal_questions","survey-likert","509","1645934","0.0-6.0-6.71","2688356","co38032","norming","","","{""aha"":1}","[0]","../img/tt/096tt.jpg","",""
"null","<div style=""font-size:60px;""> </div>","null","fixation","html-keyboard-response","510","1646139","0.0-6.0-0.72","2688356","co38032","norming","","","","","","",""
"null","../img/tt/1290tt.jpg","null","mooney1","image-keyboard-response","511","1649144","0.0-6.0-1.72","2688356","co38032","norming","","","","","","",""
"3745.9450000007637","","","post_mooney1_questions","survey-likert","512","1652894","0.0-6.0-2.72","2688356","co38032","norming","","","{""curiosity"":5,""confidence"":1}","[0,1]","../img/tt/1290tt.jpg","",""
"2694.2249999993946","","","recognition","survey-text","513","1655590","0.0-6.0-3.72","2688356","co38032","norming","","","{""guess"":""Grenade""}","","../img/tt/1290tt.jpg","",""
"null","../img/gs/1290gs.jpg","null","reveal","image-keyboard-response","514","1657594","0.0-6.0-4.72","2688356","co38032","norming","","","","","","",""
"null","../img/tt/1290tt.jpg","null","mooney2","image-keyboard-response","515","1659605","0.0-6.0-5.72","2688356","co38032","norming","","","","","","",""
"1454.4600000006612","","","post_reveal_questions","survey-likert","516","1661062","0.0-6.0-6.72","2688356","co38032","norming","","","{""aha"":4}","[0]","../img/tt/1290tt.jpg","",""
"null","<div style=""font-size:60px;""> </div>","null","fixation","html-keyboard-response","517","1661263","0.0-6.0-0.73","2688356","co38032","norming","","","","","","",""
"null","../img/tt/036tt.jpg","null","mooney1","image-keyboard-response","518","1664274","0.0-6.0-1.73","2688356","co38032","norming","","","","","","",""
"3496.339999999618","","","post_mooney1_questions","survey-likert","519","1667774","0.0-6.0-2.73","2688356","co38032","norming","","","{""curiosity"":5,""confidence"":1}","[0,1]","../img/tt/036tt.jpg","",""
"1717.8949999997858","","","recognition","survey-text","520","1669494","0.0-6.0-3.73","2688356","co38032","norming","","","{""guess"":""Thunder""}","","../img/tt/036tt.jpg","",""
"null","../img/gs/036gs.jpg","null","reveal","image-keyboard-response","521","1671504","0.0-6.0-4.73","2688356","co38032","norming","","","","","","",""
"null","../img/tt/036tt.jpg","null","mooney2","image-keyboard-response","522","1673507","0.0-6.0-5.73","2688356","co38032","norming","","","","","","",""
"1127.9249999988824","","","post_reveal_questions","survey-likert","523","1674637","0.0-6.0-6.73","2688356","co38032","norming","","","{""aha"":6}","[0]","../img/tt/036tt.jpg","",""
"null","<div style=""font-size:60px;""> </div>","null","fixation","html-keyboard-response","524","1674839","0.0-6.0-0.74","2688356","co38032","norming","","","","","","",""
"null","../img/tt/567tt.jpg","null","mooney1","image-keyboard-response","525","1677846","0.0-6.0-1.74","2688356","co38032","norming","","","","","","",""
"3755.6299999996554","","","post_mooney1_questions","survey-likert","526","1681606","0.0-6.0-2.74","2688356","co38032","norming","","","{""curiosity"":3,""confidence"":6}","[0,1]","../img/tt/567tt.jpg","",""
"4366.125000000466","","","recognition","survey-text","527","1685974","0.0-6.0-3.74","2688356","co38032","norming","","","{""guess"":""Bread toaster""}","","../img/tt/567tt.jpg","",""
"null","../img/gs/567gs.jpg","null","reveal","image-keyboard-response","528","1687978","0.0-6.0-4.74","2688356","co38032","norming","","","","","","",""
"null","../img/tt/567tt.jpg","null","mooney2","image-keyboard-response","529","1689986","0.0-6.0-5.74","2688356","co38032","norming","","","","","","",""
"1234.259999999078","","","post_reveal_questions","survey-likert","530","1691222","0.0-6.0-6.74","2688356","co38032","norming","","","{""aha"":0}","[0]","../img/tt/567tt.jpg","",""
"null","<div style=""font-size:60px;""> </div>","null","fixation","html-keyboard-response","531","1691423","0.0-6.0-0.75","2688356","co38032","norming","","","","","","",""
"null","../img/tt/1171tt.jpg","null","mooney1","image-keyboard-response","532","1694426","0.0-6.0-1.75","2688356","co38032","norming","","","","","","",""
"2656.3900000001304","","","post_mooney1_questions","survey-likert","533","1697080","0.0-6.0-2.75","2688356","co38032","norming","","","{""curiosity"":4,""confidence"":0}","[0,1]","../img/tt/1171tt.jpg","",""
"2454.214999999618","","","recognition","survey-text","534","1699536","0.0-6.0-3.75","2688356","co38032","norming","","","{""guess"":""Chipmunk""}","","../img/tt/1171tt.jpg","",""
"null","../img/gs/1171gs.jpg","null","reveal","image-keyboard-response","535","1701545","0.0-6.0-4.75","2688356","co38032","norming","","","","","","",""
"null","../img/tt/1171tt.jpg","null","mooney2","image-keyboard-response","536","1703548","0.0-6.0-5.75","2688356","co38032","norming","","","","","","",""
"1106.5700000000652","","","post_reveal_questions","survey-likert","537","1704664","0.0-6.0-6.75","2688356","co38032","norming","","","{""aha"":3}","[0]","../img/tt/1171tt.jpg","",""
"null","<div style=""font-size:60px;""> </div>","null","fixation","html-keyboard-response","538","1704865","0.0-6.0-0.76","2688356","co38032","norming","","","","","","",""
"null","../img/tt/1107tt.jpg","null","mooney1","image-keyboard-response","539","1707874","0.0-6.0-1.76","2688356","co38032","norming","","","","","","",""
"4721.494999999879","","","post_mooney1_questions","survey-likert","540","1712600","0.0-6.0-2.76","2688356","co38032","norming","","","{""curiosity"":2,""confidence"":1}","[0,1]","../img/tt/1107tt.jpg","",""
"1126.174999999581","","","recognition","survey-text","541","1713728","0.0-6.0-3.76","2688356","co38032","norming","","","{""guess"":""Pig""}","","../img/tt/1107tt.jpg","",""
"null","../img/gs/1107gs.jpg","null","reveal","image-keyboard-response","542","1715730","0.0-6.0-4.76","2688356","co38032","norming","","","","","","",""
"null","../img/tt/1107tt.jpg","null","mooney2","image-keyboard-response","543","1717736","0.0-6.0-5.76","2688356","co38032","norming","","","","","","",""
"1541.294999999227","","","post_reveal_questions","survey-likert","544","1719280","0.0-6.0-6.76","2688356","co38032","norming","","","{""aha"":6}","[0]","../img/tt/1107tt.jpg","",""
"null","<div style=""font-size:60px;""> </div>","null","fixation","html-keyboard-response","545","1719481","0.0-6.0-0.77","2688356","co38032","norming","","","","","","",""
"null","../img/tt/1251tt.jpg","null","mooney1","image-keyboard-response","546","1722488","0.0-6.0-1.77","2688356","co38032","norming","","","","","","",""
"5956.7600000011735","","","post_mooney1_questions","survey-likert","547","1728448","0.0-6.0-2.77","2688356","co38032","norming","","","{""curiosity"":5,""confidence"":1}","[0,1]","../img/tt/1251tt.jpg","",""
"1614.4600000006612","","","recognition","survey-text","548","1730064","0.0-6.0-3.77","2688356","co38032","norming","","","{""guess"":""Human""}","","../img/tt/1251tt.jpg","",""
"null","../img/gs/1251gs.jpg","null","reveal","image-keyboard-response","549","1732066","0.0-6.0-4.77","2688356","co38032","norming","","","","","","",""
"null","../img/tt/1251tt.jpg","null","mooney2","image-keyboard-response","550","1734069","0.0-6.0-5.77","2688356","co38032","norming","","","","","","",""
"1584.8699999987148","","","post_reveal_questions","survey-likert","551","1735656","0.0-6.0-6.77","2688356","co38032","norming","","","{""aha"":5}","[0]","../img/tt/1251tt.jpg","",""
