"rt","stimulus","key_press","test_part","trial_type","trial_index","time_elapsed","internal_node_id","totalTime","subject","experiment_name","button_pressed","success","responses","question_order","currentStim","old","correct"
"24849.74500000001","Welcome to the experiment. This is an online experiment so please don't close the tab/window until we say goodbye.  Press any key to begin.","32","instructions","html-keyboard-response","0","24864","0.0-0.0","3240331","co38956","norming","","","","","","",""
"44750.505000000005","<div style='word-wrap: break-word; width: 900px'><h3>Please consider this information carefully before deciding whether to participate in this research</h3><ul style='text-align: left; font-size: .8em;'><li><b>Purpose of the research</b>: To examine how people process images.</li><li><b>What you will do in this research</b>:  Stimuli (images) will be presented on the computer and you will be asked different questions about them.</li><li><b>Time required</b>: Participation will take between 45 and 60 minutes to complete.</li><li><b>Risks</b>:  There are no anticipated risks associated with participating in this study. The effects of participating should be comparable to those you would experience from viewing a computer monitor for 30 minutes and using a mouse or keyboard.</li><li><b>Benefits</b>:  This study provides no benefits to you individually except for the credit. The study provides important information about the nature of perception and learning.</li><li><b>Confidentiality</b>:  Your participation in this study will remain confidential. No personally identifiable information will be associated with your data. Your de-identified data may be shared with other researchers and used in future projects.</li><li><b>Participation and withdrawal</b>:  Your participation in this study is completely voluntary and you may refuse to participate or you may choose to withdraw at any time without penalty.</li><li><b>How to contact the researchers</b>: If you have questions or concerns about your participation or payment, or want to request a summary of research findings, please contact Sander Van de Cruys (KU Leuven), at sander.vandecruys@kuleuven.be.</li></ul><p>The nature and purpose of this research have been sufficiently explained and I agree to participate in this study.  I understand that I am free to withdraw at any time without incurring any penalty.</p><p>Please consent by clicking the button below to continue. Otherwise, please exit the study at this time.</p></div>","","instructions","html-button-response","1","69616","0.0-1.0","3240331","co38956","norming","0","","","","","",""
"","","","instructions","fullscreen","2","74011","0.0-2.0","3240331","co38956","norming","","true","","","","",""
"32491.45000000001","","","sona","survey-html-form","3","106500","0.0-3.0","3240331","co38956","norming","","","[{""name"":""sonaid"",""value"":""38956""},{""name"":""debrief"",""value"":""yes""},{""name"":""datajoin"",""value"":""yes""}]","","","",""
"81507.265","<div style='word-wrap: break-word; width: 900px'><h3>Instructions</h3><p>This experiment will have 3 parts. In the first part you will see a series of distorted images like the one below on the left. As you can see in the righthand image, the distorted images are derived from actual photographs. In what follows, you will <strong>briefly</strong> be presented with <strong>only</strong> the distorted image.</p> <div style='float: left; margin-right: 20px;'><img src='../img/018tt.jpg' height='250' width='250'></img></div><div style='float: right; margin-left: 20px;'><img src='../img/018gs.jpg' height='250' width='250'></img></div><p>Subsequently you will be asked a few questions about the image: One question on how <strong>curious</strong> you are about the solution and one on how <strong>confident</strong> you are that you know the solution.</p>Next, we ask you to make a guess on what is in the image. Note that it is OK to name just the <strong>basic level category</strong>. For example when you see a parrot in the image, 'parrot' will obviously be a correct answer but also correct is 'bird'. However, 'animal' will <strong>not</strong> be counted as a correct response. For the example above, 'rose' would be correct or 'flower', but not 'plant'. When soccer players are depicted, 'soccer', 'football', 'soccer players' will be correct, but not 'humans', 'outdoors', or 'sports'. You do not need to describe the image in full, just name the main object in it <strong>in one or two words</strong>. All images depict objects from one of the following broad level categories: animals, inanimate objects, plants, sports, vehicles, and food. Recognizing means knowing <strong>more</strong> than these broad labels for a given image. But we always encourage you to <strong>make a guess</strong> if you can. Note that you are allowed to use <strong>Dutch and English</strong> in your answers, whatever comes easiest for you.</p><p>Press any key to continue.</p></div>","32","instructions","html-keyboard-response","4","188017","0.0-4.0","3240331","co38956","norming","","","","","","",""
"24110.25000000003","<div style='word-wrap: break-word; width: 900px'><h3>Instructions</h3> <p>Next, the solution image will be revealed to you and you'll be asked to indicate how strong your <strong>aha-experience</strong> was after seeing the solution. This describes the positive feeling of the 'click' you sometimes experience, when the pieces of the 'puzzle' fall together and you suddenly have 'insight' in the image.</p><img src='aha.jpg' height='188' width='250'></img><p>Note that there are no right or wrong answers. We are interested in what <strong>you</strong> see in the image and how <strong>you</strong> feel about it.</p><p>Press any key to start the experiment.</p></div>","32","instructions","html-keyboard-response","5","212129","0.0-5.0","3240331","co38956","norming","","","","","","",""
"null","<div style=""font-size:60px;""> </div>","null","fixation","html-keyboard-response","6","212335","0.0-6.0-0.0","3240331","co38956","norming","","","","","","",""
"null","../img/tt/1037tt.jpg","null","mooney1","image-keyboard-response","7","215347","0.0-6.0-1.0","3240331","co38956","norming","","","","","","",""
"6546.570000000036","","","post_mooney1_questions","survey-likert","8","221895","0.0-6.0-2.0","3240331","co38956","norming","","","{""curiosity"":4,""confidence"":6}","[0,1]","../img/tt/1037tt.jpg","",""
"4685.580000000016","","","recognition","survey-text","9","226583","0.0-6.0-3.0","3240331","co38956","norming","","","{""guess"":""hond""}","","../img/tt/1037tt.jpg","",""
"null","../img/gs/1037gs.jpg","null","reveal","image-keyboard-response","10","228590","0.0-6.0-4.0","3240331","co38956","norming","","","","","","",""
"null","../img/tt/1037tt.jpg","null","mooney2","image-keyboard-response","11","230600","0.0-6.0-5.0","3240331","co38956","norming","","","","","","",""
"4718.064999999973","","","post_reveal_questions","survey-likert","12","235319","0.0-6.0-6.0","3240331","co38956","norming","","","{""aha"":0}","[0]","../img/tt/1037tt.jpg","",""
"null","<div style=""font-size:60px;""> </div>","null","fixation","html-keyboard-response","13","235524","0.0-6.0-0.1","3240331","co38956","norming","","","","","","",""
"null","../img/tt/1270tt.jpg","null","mooney1","image-keyboard-response","14","238527","0.0-6.0-1.1","3240331","co38956","norming","","","","","","",""
"6631.240000000049","","","post_mooney1_questions","survey-likert","15","245159","0.0-6.0-2.1","3240331","co38956","norming","","","{""curiosity"":5,""confidence"":5}","[0,1]","../img/tt/1270tt.jpg","",""
"4213.924999999959","","","recognition","survey-text","16","249462","0.0-6.0-3.1","3240331","co38956","norming","","","{""guess"":""muis""}","","../img/tt/1270tt.jpg","",""
"null","../img/gs/1270gs.jpg","null","reveal","image-keyboard-response","17","251465","0.0-6.0-4.1","3240331","co38956","norming","","","","","","",""
"null","../img/tt/1270tt.jpg","null","mooney2","image-keyboard-response","18","253465","0.0-6.0-5.1","3240331","co38956","norming","","","","","","",""
"2635.5200000000477","","","post_reveal_questions","survey-likert","19","256102","0.0-6.0-6.1","3240331","co38956","norming","","","{""aha"":0}","[0]","../img/tt/1270tt.jpg","",""
"null","<div style=""font-size:60px;""> </div>","null","fixation","html-keyboard-response","20","256312","0.0-6.0-0.2","3240331","co38956","norming","","","","","","",""
"null","../img/tt/580tt.jpg","null","mooney1","image-keyboard-response","21","259316","0.0-6.0-1.2","3240331","co38956","norming","","","","","","",""
"8456.920000000042","","","post_mooney1_questions","survey-likert","22","267774","0.0-6.0-2.2","3240331","co38956","norming","","","{""curiosity"":6,""confidence"":0}","[0,1]","../img/tt/580tt.jpg","",""
"7941.84500000003","","","recognition","survey-text","23","275718","0.0-6.0-3.2","3240331","co38956","norming","","","{""guess"":""boom""}","","../img/tt/580tt.jpg","",""
"null","../img/gs/580gs.jpg","null","reveal","image-keyboard-response","24","277719","0.0-6.0-4.2","3240331","co38956","norming","","","","","","",""
"null","../img/tt/580tt.jpg","null","mooney2","image-keyboard-response","25","279728","0.0-6.0-5.2","3240331","co38956","norming","","","","","","",""
"3588.3300000000745","","","post_reveal_questions","survey-likert","26","283318","0.0-6.0-6.2","3240331","co38956","norming","","","{""aha"":6}","[0]","../img/tt/580tt.jpg","",""
"null","<div style=""font-size:60px;""> </div>","null","fixation","html-keyboard-response","27","283524","0.0-6.0-0.3","3240331","co38956","norming","","","","","","",""
"null","../img/tt/380tt.jpg","null","mooney1","image-keyboard-response","28","286528","0.0-6.0-1.3","3240331","co38956","norming","","","","","","",""
"4211.705000000016","","","post_mooney1_questions","survey-likert","29","290743","0.0-6.0-2.3","3240331","co38956","norming","","","{""curiosity"":5,""confidence"":3}","[0,1]","../img/tt/380tt.jpg","",""
"3934.0400000000373","","","recognition","survey-text","30","294678","0.0-6.0-3.3","3240331","co38956","norming","","","{""guess"":""vogel""}","","../img/tt/380tt.jpg","",""
"null","../img/gs/380gs.jpg","null","reveal","image-keyboard-response","31","296689","0.0-6.0-4.3","3240331","co38956","norming","","","","","","",""
"null","../img/tt/380tt.jpg","null","mooney2","image-keyboard-response","32","298695","0.0-6.0-5.3","3240331","co38956","norming","","","","","","",""
"3380.530000000028","","","post_reveal_questions","survey-likert","33","302078","0.0-6.0-6.3","3240331","co38956","norming","","","{""aha"":6}","[0]","../img/tt/380tt.jpg","",""
"null","<div style=""font-size:60px;""> </div>","null","fixation","html-keyboard-response","34","302283","0.0-6.0-0.4","3240331","co38956","norming","","","","","","",""
"null","../img/tt/085tt.jpg","null","mooney1","image-keyboard-response","35","305286","0.0-6.0-1.4","3240331","co38956","norming","","","","","","",""
"4503.675000000047","","","post_mooney1_questions","survey-likert","36","309871","0.0-6.0-2.4","3240331","co38956","norming","","","{""curiosity"":5,""confidence"":3}","[0,1]","../img/tt/085tt.jpg","",""
"3573.844999999972","","","recognition","survey-text","37","313447","0.0-6.0-3.4","3240331","co38956","norming","","","{""guess"":""geit""}","","../img/tt/085tt.jpg","",""
"null","../img/gs/085gs.jpg","null","reveal","image-keyboard-response","38","315453","0.0-6.0-4.4","3240331","co38956","norming","","","","","","",""
"null","../img/tt/085tt.jpg","null","mooney2","image-keyboard-response","39","317462","0.0-6.0-5.4","3240331","co38956","norming","","","","","","",""
"3352.1549999999697","","","post_reveal_questions","survey-likert","40","320815","0.0-6.0-6.4","3240331","co38956","norming","","","{""aha"":6}","[0]","../img/tt/085tt.jpg","",""
"null","<div style=""font-size:60px;""> </div>","null","fixation","html-keyboard-response","41","321023","0.0-6.0-0.5","3240331","co38956","norming","","","","","","",""
"null","../img/tt/279tt.jpg","null","mooney1","image-keyboard-response","42","324027","0.0-6.0-1.5","3240331","co38956","norming","","","","","","",""
"5194.304999999993","","","post_mooney1_questions","survey-likert","43","329223","0.0-6.0-2.5","3240331","co38956","norming","","","{""curiosity"":3,""confidence"":6}","[0,1]","../img/tt/279tt.jpg","",""
"3829.9249999999884","","","recognition","survey-text","44","333055","0.0-6.0-3.5","3240331","co38956","norming","","","{""guess"":""koala""}","","../img/tt/279tt.jpg","",""
"null","../img/gs/279gs.jpg","null","reveal","image-keyboard-response","45","335056","0.0-6.0-4.5","3240331","co38956","norming","","","","","","",""
"null","../img/tt/279tt.jpg","null","mooney2","image-keyboard-response","46","337063","0.0-6.0-5.5","3240331","co38956","norming","","","","","","",""
"2975.2249999999767","","","post_reveal_questions","survey-likert","47","340039","0.0-6.0-6.5","3240331","co38956","norming","","","{""aha"":0}","[0]","../img/tt/279tt.jpg","",""
"null","<div style=""font-size:60px;""> </div>","null","fixation","html-keyboard-response","48","340245","0.0-6.0-0.6","3240331","co38956","norming","","","","","","",""
"null","../img/tt/091tt.jpg","null","mooney1","image-keyboard-response","49","343257","0.0-6.0-1.6","3240331","co38956","norming","","","","","","",""
"7500.954999999958","","","post_mooney1_questions","survey-likert","50","350759","0.0-6.0-2.6","3240331","co38956","norming","","","{""curiosity"":5,""confidence"":0}","[0,1]","../img/tt/091tt.jpg","",""
"5877.505000000005","","","recognition","survey-text","51","356639","0.0-6.0-3.6","3240331","co38956","norming","","","{""guess"":""skater""}","","../img/tt/091tt.jpg","",""
"null","../img/gs/091gs.jpg","null","reveal","image-keyboard-response","52","358639","0.0-6.0-4.6","3240331","co38956","norming","","","","","","",""
"null","../img/tt/091tt.jpg","null","mooney2","image-keyboard-response","53","360642","0.0-6.0-5.6","3240331","co38956","norming","","","","","","",""
"2163.5449999999837","","","post_reveal_questions","survey-likert","54","362807","0.0-6.0-6.6","3240331","co38956","norming","","","{""aha"":6}","[0]","../img/tt/091tt.jpg","",""
"null","<div style=""font-size:60px;""> </div>","null","fixation","html-keyboard-response","55","363009","0.0-6.0-0.7","3240331","co38956","norming","","","","","","",""
"null","../img/tt/1188tt.jpg","null","mooney1","image-keyboard-response","56","366012","0.0-6.0-1.7","3240331","co38956","norming","","","","","","",""
"6098.139999999956","","","post_mooney1_questions","survey-likert","57","372203","0.0-6.0-2.7","3240331","co38956","norming","","","{""curiosity"":6,""confidence"":4}","[0,1]","../img/tt/1188tt.jpg","",""
"9398.244999999937","","","recognition","survey-text","58","381602","0.0-6.0-3.7","3240331","co38956","norming","","","{""guess"":""fietser""}","","../img/tt/1188tt.jpg","",""
"null","../img/gs/1188gs.jpg","null","reveal","image-keyboard-response","59","383609","0.0-6.0-4.7","3240331","co38956","norming","","","","","","",""
"null","../img/tt/1188tt.jpg","null","mooney2","image-keyboard-response","60","385619","0.0-6.0-5.7","3240331","co38956","norming","","","","","","",""
"2630.695000000065","","","post_reveal_questions","survey-likert","61","388251","0.0-6.0-6.7","3240331","co38956","norming","","","{""aha"":1}","[0]","../img/tt/1188tt.jpg","",""
"null","<div style=""font-size:60px;""> </div>","null","fixation","html-keyboard-response","62","388452","0.0-6.0-0.8","3240331","co38956","norming","","","","","","",""
"null","../img/tt/124tt.jpg","null","mooney1","image-keyboard-response","63","391454","0.0-6.0-1.8","3240331","co38956","norming","","","","","","",""
"4907.259999999951","","","post_mooney1_questions","survey-likert","64","396363","0.0-6.0-2.8","3240331","co38956","norming","","","{""curiosity"":3,""confidence"":6}","[0,1]","../img/tt/124tt.jpg","",""
"3054.094999999914","","","recognition","survey-text","65","399418","0.0-6.0-3.8","3240331","co38956","norming","","","{""guess"":""aap""}","","../img/tt/124tt.jpg","",""
"null","../img/gs/124gs.jpg","null","reveal","image-keyboard-response","66","401420","0.0-6.0-4.8","3240331","co38956","norming","","","","","","",""
"null","../img/tt/124tt.jpg","null","mooney2","image-keyboard-response","67","403423","0.0-6.0-5.8","3240331","co38956","norming","","","","","","",""
"3226.3600000000442","","","post_reveal_questions","survey-likert","68","406651","0.0-6.0-6.8","3240331","co38956","norming","","","{""aha"":0}","[0]","../img/tt/124tt.jpg","",""
"null","<div style=""font-size:60px;""> </div>","null","fixation","html-keyboard-response","69","406863","0.0-6.0-0.9","3240331","co38956","norming","","","","","","",""
"null","../img/tt/123tt.jpg","null","mooney1","image-keyboard-response","70","409873","0.0-6.0-1.9","3240331","co38956","norming","","","","","","",""
"5968.8150000000605","","","post_mooney1_questions","survey-likert","71","415843","0.0-6.0-2.9","3240331","co38956","norming","","","{""curiosity"":6,""confidence"":1}","[0,1]","../img/tt/123tt.jpg","",""
"3437.780000000086","","","recognition","survey-text","72","419282","0.0-6.0-3.9","3240331","co38956","norming","","","{""guess"":""boot""}","","../img/tt/123tt.jpg","",""
"null","../img/gs/123gs.jpg","null","reveal","image-keyboard-response","73","421285","0.0-6.0-4.9","3240331","co38956","norming","","","","","","",""
"null","../img/tt/123tt.jpg","null","mooney2","image-keyboard-response","74","423290","0.0-6.0-5.9","3240331","co38956","norming","","","","","","",""
"3063.390000000014","","","post_reveal_questions","survey-likert","75","426354","0.0-6.0-6.9","3240331","co38956","norming","","","{""aha"":6}","[0]","../img/tt/123tt.jpg","",""
"null","<div style=""font-size:60px;""> </div>","null","fixation","html-keyboard-response","76","426560","0.0-6.0-0.10","3240331","co38956","norming","","","","","","",""
"null","../img/tt/1237tt.jpg","null","mooney1","image-keyboard-response","77","429562","0.0-6.0-1.10","3240331","co38956","norming","","","","","","",""
"4855.379999999946","","","post_mooney1_questions","survey-likert","78","434505","0.0-6.0-2.10","3240331","co38956","norming","","","{""curiosity"":2,""confidence"":6}","[0,1]","../img/tt/1237tt.jpg","",""
"3229.844999999972","","","recognition","survey-text","79","437736","0.0-6.0-3.10","3240331","co38956","norming","","","{""guess"":""eend""}","","../img/tt/1237tt.jpg","",""
"null","../img/gs/1237gs.jpg","null","reveal","image-keyboard-response","80","439741","0.0-6.0-4.10","3240331","co38956","norming","","","","","","",""
"null","../img/tt/1237tt.jpg","null","mooney2","image-keyboard-response","81","441742","0.0-6.0-5.10","3240331","co38956","norming","","","","","","",""
"2689.3099999999395","","","post_reveal_questions","survey-likert","82","444432","0.0-6.0-6.10","3240331","co38956","norming","","","{""aha"":0}","[0]","../img/tt/1237tt.jpg","",""
"null","<div style=""font-size:60px;""> </div>","null","fixation","html-keyboard-response","83","444633","0.0-6.0-0.11","3240331","co38956","norming","","","","","","",""
"null","../img/tt/105tt.jpg","null","mooney1","image-keyboard-response","84","447638","0.0-6.0-1.11","3240331","co38956","norming","","","","","","",""
"4313.724999999977","","","post_mooney1_questions","survey-likert","85","451953","0.0-6.0-2.11","3240331","co38956","norming","","","{""curiosity"":6,""confidence"":0}","[0,1]","../img/tt/105tt.jpg","",""
"10629.954999999958","","","recognition","survey-text","86","462584","0.0-6.0-3.11","3240331","co38956","norming","","","{""guess"":""weer""}","","../img/tt/105tt.jpg","",""
"null","../img/gs/105gs.jpg","null","reveal","image-keyboard-response","87","464594","0.0-6.0-4.11","3240331","co38956","norming","","","","","","",""
"null","../img/tt/105tt.jpg","null","mooney2","image-keyboard-response","88","466596","0.0-6.0-5.11","3240331","co38956","norming","","","","","","",""
"2283.969999999972","","","post_reveal_questions","survey-likert","89","468881","0.0-6.0-6.11","3240331","co38956","norming","","","{""aha"":6}","[0]","../img/tt/105tt.jpg","",""
"null","<div style=""font-size:60px;""> </div>","null","fixation","html-keyboard-response","90","469082","0.0-6.0-0.12","3240331","co38956","norming","","","","","","",""
"null","../img/tt/442tt.jpg","null","mooney1","image-keyboard-response","91","472085","0.0-6.0-1.12","3240331","co38956","norming","","","","","","",""
"3883.0199999999604","","","post_mooney1_questions","survey-likert","92","475969","0.0-6.0-2.12","3240331","co38956","norming","","","{""curiosity"":6,""confidence"":0}","[0,1]","../img/tt/442tt.jpg","",""
"33814.00000000012","","","recognition","survey-text","93","509858","0.0-6.0-3.12","3240331","co38956","norming","","","{""guess"":""plant""}","","../img/tt/442tt.jpg","",""
"null","../img/gs/442gs.jpg","null","reveal","image-keyboard-response","94","511869","0.0-6.0-4.12","3240331","co38956","norming","","","","","","",""
"null","../img/tt/442tt.jpg","null","mooney2","image-keyboard-response","95","513871","0.0-6.0-5.12","3240331","co38956","norming","","","","","","",""
"3114.5549999998766","","","post_reveal_questions","survey-likert","96","516986","0.0-6.0-6.12","3240331","co38956","norming","","","{""aha"":4}","[0]","../img/tt/442tt.jpg","",""
"null","<div style=""font-size:60px;""> </div>","null","fixation","html-keyboard-response","97","517188","0.0-6.0-0.13","3240331","co38956","norming","","","","","","",""
"null","../img/tt/1366tt.jpg","null","mooney1","image-keyboard-response","98","520191","0.0-6.0-1.13","3240331","co38956","norming","","","","","","",""
"5554.860000000161","","","post_mooney1_questions","survey-likert","99","525747","0.0-6.0-2.13","3240331","co38956","norming","","","{""curiosity"":6,""confidence"":4}","[0,1]","../img/tt/1366tt.jpg","",""
"7773.929999999818","","","recognition","survey-text","100","533522","0.0-6.0-3.13","3240331","co38956","norming","","","{""guess"":""wrap ""}","","../img/tt/1366tt.jpg","",""
"null","../img/gs/1366gs.jpg","null","reveal","image-keyboard-response","101","535526","0.0-6.0-4.13","3240331","co38956","norming","","","","","","",""
"null","../img/tt/1366tt.jpg","null","mooney2","image-keyboard-response","102","537528","0.0-6.0-5.13","3240331","co38956","norming","","","","","","",""
"5017.5950000000885","","","post_reveal_questions","survey-likert","103","542546","0.0-6.0-6.13","3240331","co38956","norming","","","{""aha"":0}","[0]","../img/tt/1366tt.jpg","",""
"null","<div style=""font-size:60px;""> </div>","null","fixation","html-keyboard-response","104","542751","0.0-6.0-0.14","3240331","co38956","norming","","","","","","",""
"null","../img/tt/007tt.jpg","null","mooney1","image-keyboard-response","105","545752","0.0-6.0-1.14","3240331","co38956","norming","","","","","","",""
"3977.7600000000093","","","post_mooney1_questions","survey-likert","106","549731","0.0-6.0-2.14","3240331","co38956","norming","","","{""curiosity"":6,""confidence"":4}","[0,1]","../img/tt/007tt.jpg","",""
"4733.95000000007","","","recognition","survey-text","107","554467","0.0-6.0-3.14","3240331","co38956","norming","","","{""guess"":""dier""}","","../img/tt/007tt.jpg","",""
"null","../img/gs/007gs.jpg","null","reveal","image-keyboard-response","108","556470","0.0-6.0-4.14","3240331","co38956","norming","","","","","","",""
"null","../img/tt/007tt.jpg","null","mooney2","image-keyboard-response","109","558471","0.0-6.0-5.14","3240331","co38956","norming","","","","","","",""
"2634.7350000001024","","","post_reveal_questions","survey-likert","110","561107","0.0-6.0-6.14","3240331","co38956","norming","","","{""aha"":6}","[0]","../img/tt/007tt.jpg","",""
"null","<div style=""font-size:60px;""> </div>","null","fixation","html-keyboard-response","111","561308","0.0-6.0-0.15","3240331","co38956","norming","","","","","","",""
"null","../img/tt/1283tt.jpg","null","mooney1","image-keyboard-response","112","564313","0.0-6.0-1.15","3240331","co38956","norming","","","","","","",""
"5161.260000000126","","","post_mooney1_questions","survey-likert","113","569476","0.0-6.0-2.15","3240331","co38956","norming","","","{""curiosity"":6,""confidence"":3}","[0,1]","../img/tt/1283tt.jpg","",""
"4077.7949999999255","","","recognition","survey-text","114","573555","0.0-6.0-3.15","3240331","co38956","norming","","","{""guess"":""aapje""}","","../img/tt/1283tt.jpg","",""
"null","../img/gs/1283gs.jpg","null","reveal","image-keyboard-response","115","575556","0.0-6.0-4.15","3240331","co38956","norming","","","","","","",""
"null","../img/tt/1283tt.jpg","null","mooney2","image-keyboard-response","116","577561","0.0-6.0-5.15","3240331","co38956","norming","","","","","","",""
"3391.350000000093","","","post_reveal_questions","survey-likert","117","580955","0.0-6.0-6.15","3240331","co38956","norming","","","{""aha"":6}","[0]","../img/tt/1283tt.jpg","",""
"null","<div style=""font-size:60px;""> </div>","null","fixation","html-keyboard-response","118","581165","0.0-6.0-0.16","3240331","co38956","norming","","","","","","",""
"null","../img/tt/1040tt.jpg","null","mooney1","image-keyboard-response","119","584173","0.0-6.0-1.16","3240331","co38956","norming","","","","","","",""
"3513.740000000107","","","post_mooney1_questions","survey-likert","120","587691","0.0-6.0-2.16","3240331","co38956","norming","","","{""curiosity"":6,""confidence"":2}","[0,1]","../img/tt/1040tt.jpg","",""
"30006.19000000006","","","recognition","survey-text","121","617703","0.0-6.0-3.16","3240331","co38956","norming","","","{""guess"":""krokkodil ""}","","../img/tt/1040tt.jpg","",""
"null","../img/gs/1040gs.jpg","null","reveal","image-keyboard-response","122","619713","0.0-6.0-4.16","3240331","co38956","norming","","","","","","",""
"null","../img/tt/1040tt.jpg","null","mooney2","image-keyboard-response","123","621714","0.0-6.0-5.16","3240331","co38956","norming","","","","","","",""
"2444.7049999998417","","","post_reveal_questions","survey-likert","124","624160","0.0-6.0-6.16","3240331","co38956","norming","","","{""aha"":6}","[0]","../img/tt/1040tt.jpg","",""
"null","<div style=""font-size:60px;""> </div>","null","fixation","html-keyboard-response","125","624361","0.0-6.0-0.17","3240331","co38956","norming","","","","","","",""
"null","../img/tt/406tt.jpg","null","mooney1","image-keyboard-response","126","627368","0.0-6.0-1.17","3240331","co38956","norming","","","","","","",""
"3309.0400000001537","","","post_mooney1_questions","survey-likert","127","630680","0.0-6.0-2.17","3240331","co38956","norming","","","{""curiosity"":6,""confidence"":3}","[0,1]","../img/tt/406tt.jpg","",""
"6374.180000000051","","","recognition","survey-text","128","637055","0.0-6.0-3.17","3240331","co38956","norming","","","{""guess"":""vleermuis""}","","../img/tt/406tt.jpg","",""
"null","../img/gs/406gs.jpg","null","reveal","image-keyboard-response","129","639062","0.0-6.0-4.17","3240331","co38956","norming","","","","","","",""
"null","../img/tt/406tt.jpg","null","mooney2","image-keyboard-response","130","641063","0.0-6.0-5.17","3240331","co38956","norming","","","","","","",""
"1623.7299999997485","","","post_reveal_questions","survey-likert","131","642687","0.0-6.0-6.17","3240331","co38956","norming","","","{""aha"":0}","[0]","../img/tt/406tt.jpg","",""
"null","<div style=""font-size:60px;""> </div>","null","fixation","html-keyboard-response","132","642892","0.0-6.0-0.18","3240331","co38956","norming","","","","","","",""
"null","../img/tt/1046tt.jpg","null","mooney1","image-keyboard-response","133","645900","0.0-6.0-1.18","3240331","co38956","norming","","","","","","",""
"4505.949999999953","","","post_mooney1_questions","survey-likert","134","650407","0.0-6.0-2.18","3240331","co38956","norming","","","{""curiosity"":5,""confidence"":2}","[0,1]","../img/tt/1046tt.jpg","",""
"3741.869999999879","","","recognition","survey-text","135","654151","0.0-6.0-3.18","3240331","co38956","norming","","","{""guess"":""boot""}","","../img/tt/1046tt.jpg","",""
"null","../img/gs/1046gs.jpg","null","reveal","image-keyboard-response","136","656154","0.0-6.0-4.18","3240331","co38956","norming","","","","","","",""
"null","../img/tt/1046tt.jpg","null","mooney2","image-keyboard-response","137","658164","0.0-6.0-5.18","3240331","co38956","norming","","","","","","",""
"1890.794999999809","","","post_reveal_questions","survey-likert","138","660055","0.0-6.0-6.18","3240331","co38956","norming","","","{""aha"":6}","[0]","../img/tt/1046tt.jpg","",""
"null","<div style=""font-size:60px;""> </div>","null","fixation","html-keyboard-response","139","660259","0.0-6.0-0.19","3240331","co38956","norming","","","","","","",""
"null","../img/tt/052tt.jpg","null","mooney1","image-keyboard-response","140","663264","0.0-6.0-1.19","3240331","co38956","norming","","","","","","",""
"3710.2500000001164","","","post_mooney1_questions","survey-likert","141","666976","0.0-6.0-2.19","3240331","co38956","norming","","","{""curiosity"":6,""confidence"":0}","[0,1]","../img/tt/052tt.jpg","",""
"4438.030000000028","","","recognition","survey-text","142","671415","0.0-6.0-3.19","3240331","co38956","norming","","","{""guess"":""riem""}","","../img/tt/052tt.jpg","",""
"null","../img/gs/052gs.jpg","null","reveal","image-keyboard-response","143","673417","0.0-6.0-4.19","3240331","co38956","norming","","","","","","",""
"null","../img/tt/052tt.jpg","null","mooney2","image-keyboard-response","144","675418","0.0-6.0-5.19","3240331","co38956","norming","","","","","","",""
"1572.4100000000326","","","post_reveal_questions","survey-likert","145","676992","0.0-6.0-6.19","3240331","co38956","norming","","","{""aha"":6}","[0]","../img/tt/052tt.jpg","",""
"null","<div style=""font-size:60px;""> </div>","null","fixation","html-keyboard-response","146","677201","0.0-6.0-0.20","3240331","co38956","norming","","","","","","",""
"null","../img/tt/194tt.jpg","null","mooney1","image-keyboard-response","147","680202","0.0-6.0-1.20","3240331","co38956","norming","","","","","","",""
"8508.795000000042","","","post_mooney1_questions","survey-likert","148","688712","0.0-6.0-2.20","3240331","co38956","norming","","","{""curiosity"":6,""confidence"":3}","[0,1]","../img/tt/194tt.jpg","",""
"9125.914999999804","","","recognition","survey-text","149","697840","0.0-6.0-3.20","3240331","co38956","norming","","","{""guess"":""muziek speelster""}","","../img/tt/194tt.jpg","",""
"null","../img/gs/194gs.jpg","null","reveal","image-keyboard-response","150","699849","0.0-6.0-4.20","3240331","co38956","norming","","","","","","",""
"null","../img/tt/194tt.jpg","null","mooney2","image-keyboard-response","151","701852","0.0-6.0-5.20","3240331","co38956","norming","","","","","","",""
"3635.0249999997905","","","post_reveal_questions","survey-likert","152","705488","0.0-6.0-6.20","3240331","co38956","norming","","","{""aha"":1}","[0]","../img/tt/194tt.jpg","",""
"null","<div style=""font-size:60px;""> </div>","null","fixation","html-keyboard-response","153","705698","0.0-6.0-0.21","3240331","co38956","norming","","","","","","",""
"null","../img/tt/412tt.jpg","null","mooney1","image-keyboard-response","154","708707","0.0-6.0-1.21","3240331","co38956","norming","","","","","","",""
"4547.454999999842","","","post_mooney1_questions","survey-likert","155","713256","0.0-6.0-2.21","3240331","co38956","norming","","","{""curiosity"":5,""confidence"":1}","[0,1]","../img/tt/412tt.jpg","",""
"2925.845000000205","","","recognition","survey-text","156","716183","0.0-6.0-3.21","3240331","co38956","norming","","","{""guess"":""pop""}","","../img/tt/412tt.jpg","",""
"null","../img/gs/412gs.jpg","null","reveal","image-keyboard-response","157","718187","0.0-6.0-4.21","3240331","co38956","norming","","","","","","",""
"null","../img/tt/412tt.jpg","null","mooney2","image-keyboard-response","158","720191","0.0-6.0-5.21","3240331","co38956","norming","","","","","","",""
"4151.239999999991","","","post_reveal_questions","survey-likert","159","724344","0.0-6.0-6.21","3240331","co38956","norming","","","{""aha"":4}","[0]","../img/tt/412tt.jpg","",""
"null","<div style=""font-size:60px;""> </div>","null","fixation","html-keyboard-response","160","724549","0.0-6.0-0.22","3240331","co38956","norming","","","","","","",""
"null","../img/tt/079tt.jpg","null","mooney1","image-keyboard-response","161","727551","0.0-6.0-1.22","3240331","co38956","norming","","","","","","",""
"3967.3649999999907","","","post_mooney1_questions","survey-likert","162","731520","0.0-6.0-2.22","3240331","co38956","norming","","","{""curiosity"":2,""confidence"":6}","[0,1]","../img/tt/079tt.jpg","",""
"3789.9150000000373","","","recognition","survey-text","163","735311","0.0-6.0-3.22","3240331","co38956","norming","","","{""guess"":""beer""}","","../img/tt/079tt.jpg","",""
"null","../img/gs/079gs.jpg","null","reveal","image-keyboard-response","164","737315","0.0-6.0-4.22","3240331","co38956","norming","","","","","","",""
"null","../img/tt/079tt.jpg","null","mooney2","image-keyboard-response","165","739323","0.0-6.0-5.22","3240331","co38956","norming","","","","","","",""
"4243.229999999981","","","post_reveal_questions","survey-likert","166","743567","0.0-6.0-6.22","3240331","co38956","norming","","","{""aha"":0}","[0]","../img/tt/079tt.jpg","",""
"null","<div style=""font-size:60px;""> </div>","null","fixation","html-keyboard-response","167","743769","0.0-6.0-0.23","3240331","co38956","norming","","","","","","",""
"null","../img/tt/1250tt.jpg","null","mooney1","image-keyboard-response","168","746772","0.0-6.0-1.23","3240331","co38956","norming","","","","","","",""
"3714.5150000001304","","","post_mooney1_questions","survey-likert","169","750487","0.0-6.0-2.23","3240331","co38956","norming","","","{""curiosity"":6,""confidence"":1}","[0,1]","../img/tt/1250tt.jpg","",""
"16854.399999999907","","","recognition","survey-text","170","767343","0.0-6.0-3.23","3240331","co38956","norming","","","{""guess"":""grasveld ""}","","../img/tt/1250tt.jpg","",""
"null","../img/gs/1250gs.jpg","null","reveal","image-keyboard-response","171","769345","0.0-6.0-4.23","3240331","co38956","norming","","","","","","",""
"null","../img/tt/1250tt.jpg","null","mooney2","image-keyboard-response","172","771346","0.0-6.0-5.23","3240331","co38956","norming","","","","","","",""
"3795.455000000191","","","post_reveal_questions","survey-likert","173","775143","0.0-6.0-6.23","3240331","co38956","norming","","","{""aha"":5}","[0]","../img/tt/1250tt.jpg","",""
"null","<div style=""font-size:60px;""> </div>","null","fixation","html-keyboard-response","174","775350","0.0-6.0-0.24","3240331","co38956","norming","","","","","","",""
"null","../img/tt/522tt.jpg","null","mooney1","image-keyboard-response","175","778357","0.0-6.0-1.24","3240331","co38956","norming","","","","","","",""
"3223.5949999998556","","","post_mooney1_questions","survey-likert","176","781584","0.0-6.0-2.24","3240331","co38956","norming","","","{""curiosity"":6,""confidence"":0}","[0,1]","../img/tt/522tt.jpg","",""
"3982.0299999999115","","","recognition","survey-text","177","785567","0.0-6.0-3.24","3240331","co38956","norming","","","{""guess"":""man""}","","../img/tt/522tt.jpg","",""
"null","../img/gs/522gs.jpg","null","reveal","image-keyboard-response","178","787569","0.0-6.0-4.24","3240331","co38956","norming","","","","","","",""
"null","../img/tt/522tt.jpg","null","mooney2","image-keyboard-response","179","789580","0.0-6.0-5.24","3240331","co38956","norming","","","","","","",""
"2394.515000000014","","","post_reveal_questions","survey-likert","180","791976","0.0-6.0-6.24","3240331","co38956","norming","","","{""aha"":6}","[0]","../img/tt/522tt.jpg","",""
"null","<div style=""font-size:60px;""> </div>","null","fixation","html-keyboard-response","181","792179","0.0-6.0-0.25","3240331","co38956","norming","","","","","","",""
"null","../img/tt/1268tt.jpg","null","mooney1","image-keyboard-response","182","795182","0.0-6.0-1.25","3240331","co38956","norming","","","","","","",""
"4526.48499999987","","","post_mooney1_questions","survey-likert","183","799703","0.0-6.0-2.25","3240331","co38956","norming","","","{""curiosity"":6,""confidence"":3}","[0,1]","../img/tt/1268tt.jpg","",""
"3366.1999999999534","","","recognition","survey-text","184","803071","0.0-6.0-3.25","3240331","co38956","norming","","","{""guess"":""rat""}","","../img/tt/1268tt.jpg","",""
"null","../img/gs/1268gs.jpg","null","reveal","image-keyboard-response","185","805079","0.0-6.0-4.25","3240331","co38956","norming","","","","","","",""
"null","../img/tt/1268tt.jpg","null","mooney2","image-keyboard-response","186","807082","0.0-6.0-5.25","3240331","co38956","norming","","","","","","",""
"2162.585000000079","","","post_reveal_questions","survey-likert","187","809247","0.0-6.0-6.25","3240331","co38956","norming","","","{""aha"":6}","[0]","../img/tt/1268tt.jpg","",""
"null","<div style=""font-size:60px;""> </div>","null","fixation","html-keyboard-response","188","809451","0.0-6.0-0.26","3240331","co38956","norming","","","","","","",""
"null","../img/tt/121tt.jpg","null","mooney1","image-keyboard-response","189","812455","0.0-6.0-1.26","3240331","co38956","norming","","","","","","",""
"4173.135000000009","","","post_mooney1_questions","survey-likert","190","816631","0.0-6.0-2.26","3240331","co38956","norming","","","{""curiosity"":3,""confidence"":6}","[0,1]","../img/tt/121tt.jpg","",""
"6774.269999999902","","","recognition","survey-text","191","823407","0.0-6.0-3.26","3240331","co38956","norming","","","{""guess"":""kangeroe ""}","","../img/tt/121tt.jpg","",""
"null","../img/gs/121gs.jpg","null","reveal","image-keyboard-response","192","825409","0.0-6.0-4.26","3240331","co38956","norming","","","","","","",""
"null","../img/tt/121tt.jpg","null","mooney2","image-keyboard-response","193","827414","0.0-6.0-5.26","3240331","co38956","norming","","","","","","",""
"3982.3450000000885","","","post_reveal_questions","survey-likert","194","831399","0.0-6.0-6.26","3240331","co38956","norming","","","{""aha"":0}","[0]","../img/tt/121tt.jpg","",""
"null","<div style=""font-size:60px;""> </div>","null","fixation","html-keyboard-response","195","831606","0.0-6.0-0.27","3240331","co38956","norming","","","","","","",""
"null","../img/tt/112tt.jpg","null","mooney1","image-keyboard-response","196","834609","0.0-6.0-1.27","3240331","co38956","norming","","","","","","",""
"5491.475000000093","","","post_mooney1_questions","survey-likert","197","840103","0.0-6.0-2.27","3240331","co38956","norming","","","{""curiosity"":0,""confidence"":6}","[0,1]","../img/tt/112tt.jpg","",""
"4341.540000000037","","","recognition","survey-text","198","844446","0.0-6.0-3.27","3240331","co38956","norming","","","{""guess"":""fluitje""}","","../img/tt/112tt.jpg","",""
"null","../img/gs/112gs.jpg","null","reveal","image-keyboard-response","199","846448","0.0-6.0-4.27","3240331","co38956","norming","","","","","","",""
"null","../img/tt/112tt.jpg","null","mooney2","image-keyboard-response","200","848458","0.0-6.0-5.27","3240331","co38956","norming","","","","","","",""
"2746.280000000028","","","post_reveal_questions","survey-likert","201","851207","0.0-6.0-6.27","3240331","co38956","norming","","","{""aha"":0}","[0]","../img/tt/112tt.jpg","",""
"null","<div style=""font-size:60px;""> </div>","null","fixation","html-keyboard-response","202","851415","0.0-6.0-0.28","3240331","co38956","norming","","","","","","",""
"null","../img/tt/507tt.jpg","null","mooney1","image-keyboard-response","203","854420","0.0-6.0-1.28","3240331","co38956","norming","","","","","","",""
"3647.840000000084","","","post_mooney1_questions","survey-likert","204","858080","0.0-6.0-2.28","3240331","co38956","norming","","","{""curiosity"":6,""confidence"":3}","[0,1]","../img/tt/507tt.jpg","",""
"4782.005000000005","","","recognition","survey-text","205","862863","0.0-6.0-3.28","3240331","co38956","norming","","","{""guess"":""dansers ""}","","../img/tt/507tt.jpg","",""
"null","../img/gs/507gs.jpg","null","reveal","image-keyboard-response","206","864866","0.0-6.0-4.28","3240331","co38956","norming","","","","","","",""
"null","../img/tt/507tt.jpg","null","mooney2","image-keyboard-response","207","866874","0.0-6.0-5.28","3240331","co38956","norming","","","","","","",""
"3205.7249999999767","","","post_reveal_questions","survey-likert","208","870087","0.0-6.0-6.28","3240331","co38956","norming","","","{""aha"":6}","[0]","../img/tt/507tt.jpg","",""
"null","<div style=""font-size:60px;""> </div>","null","fixation","html-keyboard-response","209","870296","0.0-6.0-0.29","3240331","co38956","norming","","","","","","",""
"null","../img/tt/1024tt.jpg","null","mooney1","image-keyboard-response","210","873308","0.0-6.0-1.29","3240331","co38956","norming","","","","","","",""
"7464.755000000005","","","post_mooney1_questions","survey-likert","211","880776","0.0-6.0-2.29","3240331","co38956","norming","","","{""curiosity"":3,""confidence"":5}","[0,1]","../img/tt/1024tt.jpg","",""
"6142.125000000116","","","recognition","survey-text","212","886919","0.0-6.0-3.29","3240331","co38956","norming","","","{""guess"":""tennisster ""}","","../img/tt/1024tt.jpg","",""
"null","../img/gs/1024gs.jpg","null","reveal","image-keyboard-response","213","888922","0.0-6.0-4.29","3240331","co38956","norming","","","","","","",""
"null","../img/tt/1024tt.jpg","null","mooney2","image-keyboard-response","214","890927","0.0-6.0-5.29","3240331","co38956","norming","","","","","","",""
"2181.679999999935","","","post_reveal_questions","survey-likert","215","893111","0.0-6.0-6.29","3240331","co38956","norming","","","{""aha"":0}","[0]","../img/tt/1024tt.jpg","",""
"null","<div style=""font-size:60px;""> </div>","null","fixation","html-keyboard-response","216","893314","0.0-6.0-0.30","3240331","co38956","norming","","","","","","",""
"null","../img/tt/468tt.jpg","null","mooney1","image-keyboard-response","217","896324","0.0-6.0-1.30","3240331","co38956","norming","","","","","","",""
"3858.355000000098","","","post_mooney1_questions","survey-likert","218","900183","0.0-6.0-2.30","3240331","co38956","norming","","","{""curiosity"":6,""confidence"":0}","[0,1]","../img/tt/468tt.jpg","",""
"4214.074999999837","","","recognition","survey-text","219","904399","0.0-6.0-3.30","3240331","co38956","norming","","","{""guess"":""hoed""}","","../img/tt/468tt.jpg","",""
"null","../img/gs/468gs.jpg","null","reveal","image-keyboard-response","220","906401","0.0-6.0-4.30","3240331","co38956","norming","","","","","","",""
"null","../img/tt/468tt.jpg","null","mooney2","image-keyboard-response","221","908411","0.0-6.0-5.30","3240331","co38956","norming","","","","","","",""
"1891.3250000000698","","","post_reveal_questions","survey-likert","222","910303","0.0-6.0-6.30","3240331","co38956","norming","","","{""aha"":6}","[0]","../img/tt/468tt.jpg","",""
"null","<div style=""font-size:60px;""> </div>","null","fixation","html-keyboard-response","223","910507","0.0-6.0-0.31","3240331","co38956","norming","","","","","","",""
"null","../img/tt/1033tt.jpg","null","mooney1","image-keyboard-response","224","913513","0.0-6.0-1.31","3240331","co38956","norming","","","","","","",""
"3853.875","","","post_mooney1_questions","survey-likert","225","917368","0.0-6.0-2.31","3240331","co38956","norming","","","{""curiosity"":6,""confidence"":0}","[0,1]","../img/tt/1033tt.jpg","",""
"4397.954999999958","","","recognition","survey-text","226","921761","0.0-6.0-3.31","3240331","co38956","norming","","","{""guess"":""jager""}","","../img/tt/1033tt.jpg","",""
"null","../img/gs/1033gs.jpg","null","reveal","image-keyboard-response","227","923770","0.0-6.0-4.31","3240331","co38956","norming","","","","","","",""
"null","../img/tt/1033tt.jpg","null","mooney2","image-keyboard-response","228","925776","0.0-6.0-5.31","3240331","co38956","norming","","","","","","",""
"1761.0600000000559","","","post_reveal_questions","survey-likert","229","927538","0.0-6.0-6.31","3240331","co38956","norming","","","{""aha"":6}","[0]","../img/tt/1033tt.jpg","",""
"null","<div style=""font-size:60px;""> </div>","null","fixation","html-keyboard-response","230","927745","0.0-6.0-0.32","3240331","co38956","norming","","","","","","",""
"null","../img/tt/438tt.jpg","null","mooney1","image-keyboard-response","231","930748","0.0-6.0-1.32","3240331","co38956","norming","","","","","","",""
"5251.130000000121","","","post_mooney1_questions","survey-likert","232","936002","0.0-6.0-2.32","3240331","co38956","norming","","","{""curiosity"":3,""confidence"":5}","[0,1]","../img/tt/438tt.jpg","",""
"4173.9199999999255","","","recognition","survey-text","233","940177","0.0-6.0-3.32","3240331","co38956","norming","","","{""guess"":""vogel""}","","../img/tt/438tt.jpg","",""
"null","../img/gs/438gs.jpg","null","reveal","image-keyboard-response","234","942183","0.0-6.0-4.32","3240331","co38956","norming","","","","","","",""
"null","../img/tt/438tt.jpg","null","mooney2","image-keyboard-response","235","944185","0.0-6.0-5.32","3240331","co38956","norming","","","","","","",""
"3453.9899999999907","","","post_reveal_questions","survey-likert","236","947642","0.0-6.0-6.32","3240331","co38956","norming","","","{""aha"":6}","[0]","../img/tt/438tt.jpg","",""
"null","<div style=""font-size:60px;""> </div>","null","fixation","html-keyboard-response","237","947844","0.0-6.0-0.33","3240331","co38956","norming","","","","","","",""
"null","../img/tt/1309tt.jpg","null","mooney1","image-keyboard-response","238","950854","0.0-6.0-1.33","3240331","co38956","norming","","","","","","",""
"3288.1250000001164","","","post_mooney1_questions","survey-likert","239","954146","0.0-6.0-2.33","3240331","co38956","norming","","","{""curiosity"":6,""confidence"":4}","[0,1]","../img/tt/1309tt.jpg","",""
"3878.0849999999627","","","recognition","survey-text","240","958026","0.0-6.0-3.33","3240331","co38956","norming","","","{""guess"":""auto""}","","../img/tt/1309tt.jpg","",""
"null","../img/gs/1309gs.jpg","null","reveal","image-keyboard-response","241","960029","0.0-6.0-4.33","3240331","co38956","norming","","","","","","",""
"null","../img/tt/1309tt.jpg","null","mooney2","image-keyboard-response","242","962035","0.0-6.0-5.33","3240331","co38956","norming","","","","","","",""
"2243.8649999998743","","","post_reveal_questions","survey-likert","243","964282","0.0-6.0-6.33","3240331","co38956","norming","","","{""aha"":0}","[0]","../img/tt/1309tt.jpg","",""
"null","<div style=""font-size:60px;""> </div>","null","fixation","html-keyboard-response","244","964483","0.0-6.0-0.34","3240331","co38956","norming","","","","","","",""
"null","../img/tt/1275tt.jpg","null","mooney1","image-keyboard-response","245","967484","0.0-6.0-1.34","3240331","co38956","norming","","","","","","",""
"4746.474999999977","","","post_mooney1_questions","survey-likert","246","972234","0.0-6.0-2.34","3240331","co38956","norming","","","{""curiosity"":6,""confidence"":1}","[0,1]","../img/tt/1275tt.jpg","",""
"6061.820000000182","","","recognition","survey-text","247","978298","0.0-6.0-3.34","3240331","co38956","norming","","","{""guess"":""olifant ""}","","../img/tt/1275tt.jpg","",""
"null","../img/gs/1275gs.jpg","null","reveal","image-keyboard-response","248","980309","0.0-6.0-4.34","3240331","co38956","norming","","","","","","",""
"null","../img/tt/1275tt.jpg","null","mooney2","image-keyboard-response","249","982317","0.0-6.0-5.34","3240331","co38956","norming","","","","","","",""
"2474.089999999851","","","post_reveal_questions","survey-likert","250","984794","0.0-6.0-6.34","3240331","co38956","norming","","","{""aha"":6}","[0]","../img/tt/1275tt.jpg","",""
"null","<div style=""font-size:60px;""> </div>","null","fixation","html-keyboard-response","251","984995","0.0-6.0-0.35","3240331","co38956","norming","","","","","","",""
"null","../img/tt/080tt.jpg","null","mooney1","image-keyboard-response","252","987998","0.0-6.0-1.35","3240331","co38956","norming","","","","","","",""
"6360.655000000144","","","post_mooney1_questions","survey-likert","253","994362","0.0-6.0-2.35","3240331","co38956","norming","","","{""curiosity"":6,""confidence"":2}","[0,1]","../img/tt/080tt.jpg","",""
"4045.914999999921","","","recognition","survey-text","254","998410","0.0-6.0-3.35","3240331","co38956","norming","","","{""guess"":""bloem""}","","../img/tt/080tt.jpg","",""
"null","../img/gs/080gs.jpg","null","reveal","image-keyboard-response","255","1000411","0.0-6.0-4.35","3240331","co38956","norming","","","","","","",""
"null","../img/tt/080tt.jpg","null","mooney2","image-keyboard-response","256","1002413","0.0-6.0-5.35","3240331","co38956","norming","","","","","","",""
"1890.2900000001537","","","post_reveal_questions","survey-likert","257","1004306","0.0-6.0-6.35","3240331","co38956","norming","","","{""aha"":6}","[0]","../img/tt/080tt.jpg","",""
"null","<div style=""font-size:60px;""> </div>","null","fixation","html-keyboard-response","258","1004513","0.0-6.0-0.36","3240331","co38956","norming","","","","","","",""
"null","../img/tt/515tt.jpg","null","mooney1","image-keyboard-response","259","1007519","0.0-6.0-1.36","3240331","co38956","norming","","","","","","",""
"3135.465000000084","","","post_mooney1_questions","survey-likert","260","1010658","0.0-6.0-2.36","3240331","co38956","norming","","","{""curiosity"":6,""confidence"":3}","[0,1]","../img/tt/515tt.jpg","",""
"3646.164999999921","","","recognition","survey-text","261","1014305","0.0-6.0-3.36","3240331","co38956","norming","","","{""guess"":""vogel""}","","../img/tt/515tt.jpg","",""
"null","../img/gs/515gs.jpg","null","reveal","image-keyboard-response","262","1016313","0.0-6.0-4.36","3240331","co38956","norming","","","","","","",""
"null","../img/tt/515tt.jpg","null","mooney2","image-keyboard-response","263","1018316","0.0-6.0-5.36","3240331","co38956","norming","","","","","","",""
"1955.684999999823","","","post_reveal_questions","survey-likert","264","1020274","0.0-6.0-6.36","3240331","co38956","norming","","","{""aha"":1}","[0]","../img/tt/515tt.jpg","",""
"null","<div style=""font-size:60px;""> </div>","null","fixation","html-keyboard-response","265","1020481","0.0-6.0-0.37","3240331","co38956","norming","","","","","","",""
"null","../img/tt/1004tt.jpg","null","mooney1","image-keyboard-response","266","1023485","0.0-6.0-1.37","3240331","co38956","norming","","","","","","",""
"4123.259999999893","","","post_mooney1_questions","survey-likert","267","1027610","0.0-6.0-2.37","3240331","co38956","norming","","","{""curiosity"":6,""confidence"":4}","[0,1]","../img/tt/1004tt.jpg","",""
"2958.335000000079","","","recognition","survey-text","268","1030570","0.0-6.0-3.37","3240331","co38956","norming","","","{""guess"":""vos""}","","../img/tt/1004tt.jpg","",""
"null","../img/gs/1004gs.jpg","null","reveal","image-keyboard-response","269","1032578","0.0-6.0-4.37","3240331","co38956","norming","","","","","","",""
"null","../img/tt/1004tt.jpg","null","mooney2","image-keyboard-response","270","1034581","0.0-6.0-5.37","3240331","co38956","norming","","","","","","",""
"1930.45999999973","","","post_reveal_questions","survey-likert","271","1036514","0.0-6.0-6.37","3240331","co38956","norming","","","{""aha"":6}","[0]","../img/tt/1004tt.jpg","",""
"null","<div style=""font-size:60px;""> </div>","null","fixation","html-keyboard-response","272","1036719","0.0-6.0-0.38","3240331","co38956","norming","","","","","","",""
"null","../img/tt/1086tt.jpg","null","mooney1","image-keyboard-response","273","1039721","0.0-6.0-1.38","3240331","co38956","norming","","","","","","",""
"6015.5","","","post_mooney1_questions","survey-likert","274","1045732","0.0-6.0-2.38","3240331","co38956","norming","","","{""curiosity"":2,""confidence"":6}","[0,1]","../img/tt/1086tt.jpg","",""
"3598.339999999851","","","recognition","survey-text","275","1049332","0.0-6.0-3.38","3240331","co38956","norming","","","{""guess"":""hond""}","","../img/tt/1086tt.jpg","",""
"null","../img/gs/1086gs.jpg","null","reveal","image-keyboard-response","276","1051334","0.0-6.0-4.38","3240331","co38956","norming","","","","","","",""
"null","../img/tt/1086tt.jpg","null","mooney2","image-keyboard-response","277","1053339","0.0-6.0-5.38","3240331","co38956","norming","","","","","","",""
"3950.9549999998417","","","post_reveal_questions","survey-likert","278","1057293","0.0-6.0-6.38","3240331","co38956","norming","","","{""aha"":0}","[0]","../img/tt/1086tt.jpg","",""
"null","<div style=""font-size:60px;""> </div>","null","fixation","html-keyboard-response","279","1057495","0.0-6.0-0.39","3240331","co38956","norming","","","","","","",""
"null","../img/tt/081tt.jpg","null","mooney1","image-keyboard-response","280","1060499","0.0-6.0-1.39","3240331","co38956","norming","","","","","","",""
"3590.619999999879","","","post_mooney1_questions","survey-likert","281","1064093","0.0-6.0-2.39","3240331","co38956","norming","","","{""curiosity"":6,""confidence"":3}","[0,1]","../img/tt/081tt.jpg","",""
"6749.869999999879","","","recognition","survey-text","282","1070845","0.0-6.0-3.39","3240331","co38956","norming","","","{""guess"":""fietser ""}","","../img/tt/081tt.jpg","",""
"null","../img/gs/081gs.jpg","null","reveal","image-keyboard-response","283","1072846","0.0-6.0-4.39","3240331","co38956","norming","","","","","","",""
"null","../img/tt/081tt.jpg","null","mooney2","image-keyboard-response","284","1074848","0.0-6.0-5.39","3240331","co38956","norming","","","","","","",""
"2786.7100000001956","","","post_reveal_questions","survey-likert","285","1077637","0.0-6.0-6.39","3240331","co38956","norming","","","{""aha"":6}","[0]","../img/tt/081tt.jpg","",""
"null","<div style=""font-size:60px;""> </div>","null","fixation","html-keyboard-response","286","1077843","0.0-6.0-0.40","3240331","co38956","norming","","","","","","",""
"null","../img/tt/456tt.jpg","null","mooney1","image-keyboard-response","287","1080847","0.0-6.0-1.40","3240331","co38956","norming","","","","","","",""
"4715.399999999907","","","post_mooney1_questions","survey-likert","288","1085565","0.0-6.0-2.40","3240331","co38956","norming","","","{""curiosity"":3,""confidence"":5}","[0,1]","../img/tt/456tt.jpg","",""
"4741.084999999963","","","recognition","survey-text","289","1090308","0.0-6.0-3.40","3240331","co38956","norming","","","{""guess"":""ijsbeer""}","","../img/tt/456tt.jpg","",""
"null","../img/gs/456gs.jpg","null","reveal","image-keyboard-response","290","1092309","0.0-6.0-4.40","3240331","co38956","norming","","","","","","",""
"null","../img/tt/456tt.jpg","null","mooney2","image-keyboard-response","291","1094314","0.0-6.0-5.40","3240331","co38956","norming","","","","","","",""
"3001.399999999907","","","post_reveal_questions","survey-likert","292","1097317","0.0-6.0-6.40","3240331","co38956","norming","","","{""aha"":0}","[0]","../img/tt/456tt.jpg","",""
"null","<div style=""font-size:60px;""> </div>","null","fixation","html-keyboard-response","293","1097518","0.0-6.0-0.41","3240331","co38956","norming","","","","","","",""
"null","../img/tt/1211tt.jpg","null","mooney1","image-keyboard-response","294","1100521","0.0-6.0-1.41","3240331","co38956","norming","","","","","","",""
"3402.2750000001397","","","post_mooney1_questions","survey-likert","295","1103929","0.0-6.0-2.41","3240331","co38956","norming","","","{""curiosity"":0,""confidence"":6}","[0,1]","../img/tt/1211tt.jpg","",""
"4710.229999999981","","","recognition","survey-text","296","1108641","0.0-6.0-3.41","3240331","co38956","norming","","","{""guess"":""golfer""}","","../img/tt/1211tt.jpg","",""
"null","../img/gs/1211gs.jpg","null","reveal","image-keyboard-response","297","1110644","0.0-6.0-4.41","3240331","co38956","norming","","","","","","",""
"null","../img/tt/1211tt.jpg","null","mooney2","image-keyboard-response","298","1112650","0.0-6.0-5.41","3240331","co38956","norming","","","","","","",""
"2038.6450000000186","","","post_reveal_questions","survey-likert","299","1114690","0.0-6.0-6.41","3240331","co38956","norming","","","{""aha"":0}","[0]","../img/tt/1211tt.jpg","",""
"null","<div style=""font-size:60px;""> </div>","null","fixation","html-keyboard-response","300","1114893","0.0-6.0-0.42","3240331","co38956","norming","","","","","","",""
"null","../img/tt/1125tt.jpg","null","mooney1","image-keyboard-response","301","1117900","0.0-6.0-1.42","3240331","co38956","norming","","","","","","",""
"4066.7700000000186","","","post_mooney1_questions","survey-likert","302","1121970","0.0-6.0-2.42","3240331","co38956","norming","","","{""curiosity"":6,""confidence"":0}","[0,1]","../img/tt/1125tt.jpg","",""
"16805.999999999767","","","recognition","survey-text","303","1138777","0.0-6.0-3.42","3240331","co38956","norming","","","{""guess"":""toneel""}","","../img/tt/1125tt.jpg","",""
"null","../img/gs/1125gs.jpg","null","reveal","image-keyboard-response","304","1140780","0.0-6.0-4.42","3240331","co38956","norming","","","","","","",""
"null","../img/tt/1125tt.jpg","null","mooney2","image-keyboard-response","305","1142781","0.0-6.0-5.42","3240331","co38956","norming","","","","","","",""
"1984.1200000001118","","","post_reveal_questions","survey-likert","306","1144770","0.0-6.0-6.42","3240331","co38956","norming","","","{""aha"":6}","[0]","../img/tt/1125tt.jpg","",""
"null","<div style=""font-size:60px;""> </div>","null","fixation","html-keyboard-response","307","1144980","0.0-6.0-0.43","3240331","co38956","norming","","","","","","",""
"null","../img/tt/1234tt.jpg","null","mooney1","image-keyboard-response","308","1147983","0.0-6.0-1.43","3240331","co38956","norming","","","","","","",""
"4567.84999999986","","","post_mooney1_questions","survey-likert","309","1152554","0.0-6.0-2.43","3240331","co38956","norming","","","{""curiosity"":6,""confidence"":1}","[0,1]","../img/tt/1234tt.jpg","",""
"4958.105000000214","","","recognition","survey-text","310","1157513","0.0-6.0-3.43","3240331","co38956","norming","","","{""guess"":""leeuw""}","","../img/tt/1234tt.jpg","",""
"null","../img/gs/1234gs.jpg","null","reveal","image-keyboard-response","311","1159515","0.0-6.0-4.43","3240331","co38956","norming","","","","","","",""
"null","../img/tt/1234tt.jpg","null","mooney2","image-keyboard-response","312","1161524","0.0-6.0-5.43","3240331","co38956","norming","","","","","","",""
"3986.4550000000745","","","post_reveal_questions","survey-likert","313","1165510","0.0-6.0-6.43","3240331","co38956","norming","","","{""aha"":6}","[0]","../img/tt/1234tt.jpg","",""
"null","<div style=""font-size:60px;""> </div>","null","fixation","html-keyboard-response","314","1165720","0.0-6.0-0.44","3240331","co38956","norming","","","","","","",""
"null","../img/tt/296tt.jpg","null","mooney1","image-keyboard-response","315","1168728","0.0-6.0-1.44","3240331","co38956","norming","","","","","","",""
"3074.7249999998603","","","post_mooney1_questions","survey-likert","316","1171806","0.0-6.0-2.44","3240331","co38956","norming","","","{""curiosity"":6,""confidence"":3}","[0,1]","../img/tt/296tt.jpg","",""
"4350.0800000000745","","","recognition","survey-text","317","1176158","0.0-6.0-3.44","3240331","co38956","norming","","","{""guess"":""bank""}","","../img/tt/296tt.jpg","",""
"null","../img/gs/296gs.jpg","null","reveal","image-keyboard-response","318","1178168","0.0-6.0-4.44","3240331","co38956","norming","","","","","","",""
"null","../img/tt/296tt.jpg","null","mooney2","image-keyboard-response","319","1180170","0.0-6.0-5.44","3240331","co38956","norming","","","","","","",""
"1977.9799999997485","","","post_reveal_questions","survey-likert","320","1182150","0.0-6.0-6.44","3240331","co38956","norming","","","{""aha"":6}","[0]","../img/tt/296tt.jpg","",""
"null","<div style=""font-size:60px;""> </div>","null","fixation","html-keyboard-response","321","1182358","0.0-6.0-0.45","3240331","co38956","norming","","","","","","",""
"null","../img/tt/1148tt.jpg","null","mooney1","image-keyboard-response","322","1185363","0.0-6.0-1.45","3240331","co38956","norming","","","","","","",""
"7448.445000000065","","","post_mooney1_questions","survey-likert","323","1192814","0.0-6.0-2.45","3240331","co38956","norming","","","{""curiosity"":5,""confidence"":3}","[0,1]","../img/tt/1148tt.jpg","",""
"7261.979999999981","","","recognition","survey-text","324","1200078","0.0-6.0-3.45","3240331","co38956","norming","","","{""guess"":""volleyballer""}","","../img/tt/1148tt.jpg","",""
"null","../img/gs/1148gs.jpg","null","reveal","image-keyboard-response","325","1202079","0.0-6.0-4.45","3240331","co38956","norming","","","","","","",""
"null","../img/tt/1148tt.jpg","null","mooney2","image-keyboard-response","326","1204087","0.0-6.0-5.45","3240331","co38956","norming","","","","","","",""
"4004.899999999907","","","post_reveal_questions","survey-likert","327","1208094","0.0-6.0-6.45","3240331","co38956","norming","","","{""aha"":3}","[0]","../img/tt/1148tt.jpg","",""
"null","<div style=""font-size:60px;""> </div>","null","fixation","html-keyboard-response","328","1208299","0.0-6.0-0.46","3240331","co38956","norming","","","","","","",""
"null","../img/tt/1255tt.jpg","null","mooney1","image-keyboard-response","329","1211301","0.0-6.0-1.46","3240331","co38956","norming","","","","","","",""
"3366.029999999795","","","post_mooney1_questions","survey-likert","330","1214670","0.0-6.0-2.46","3240331","co38956","norming","","","{""curiosity"":6,""confidence"":0}","[0,1]","../img/tt/1255tt.jpg","",""
"6830.049999999814","","","recognition","survey-text","331","1221502","0.0-6.0-3.46","3240331","co38956","norming","","","{""guess"":""dier""}","","../img/tt/1255tt.jpg","",""
"null","../img/gs/1255gs.jpg","null","reveal","image-keyboard-response","332","1223515","0.0-6.0-4.46","3240331","co38956","norming","","","","","","",""
"null","../img/tt/1255tt.jpg","null","mooney2","image-keyboard-response","333","1225524","0.0-6.0-5.46","3240331","co38956","norming","","","","","","",""
"2195.6699999999255","","","post_reveal_questions","survey-likert","334","1227720","0.0-6.0-6.46","3240331","co38956","norming","","","{""aha"":6}","[0]","../img/tt/1255tt.jpg","",""
"null","<div style=""font-size:60px;""> </div>","null","fixation","html-keyboard-response","335","1227924","0.0-6.0-0.47","3240331","co38956","norming","","","","","","",""
"null","../img/tt/1241tt.jpg","null","mooney1","image-keyboard-response","336","1230927","0.0-6.0-1.47","3240331","co38956","norming","","","","","","",""
"5223.0449999999255","","","post_mooney1_questions","survey-likert","337","1236153","0.0-6.0-2.47","3240331","co38956","norming","","","{""curiosity"":6,""confidence"":1}","[0,1]","../img/tt/1241tt.jpg","",""
"8789.479999999981","","","recognition","survey-text","338","1244945","0.0-6.0-3.47","3240331","co38956","norming","","","{""guess"":""hyena""}","","../img/tt/1241tt.jpg","",""
"null","../img/gs/1241gs.jpg","null","reveal","image-keyboard-response","339","1246946","0.0-6.0-4.47","3240331","co38956","norming","","","","","","",""
"null","../img/tt/1241tt.jpg","null","mooney2","image-keyboard-response","340","1248949","0.0-6.0-5.47","3240331","co38956","norming","","","","","","",""
"1929.4850000001024","","","post_reveal_questions","survey-likert","341","1250881","0.0-6.0-6.47","3240331","co38956","norming","","","{""aha"":2}","[0]","../img/tt/1241tt.jpg","",""
"null","<div style=""font-size:60px;""> </div>","null","fixation","html-keyboard-response","342","1251083","0.0-6.0-0.48","3240331","co38956","norming","","","","","","",""
"null","../img/tt/078tt.jpg","null","mooney1","image-keyboard-response","343","1254086","0.0-6.0-1.48","3240331","co38956","norming","","","","","","",""
"2831.3649999999907","","","post_mooney1_questions","survey-likert","344","1256921","0.0-6.0-2.48","3240331","co38956","norming","","","{""curiosity"":6,""confidence"":4}","[0,1]","../img/tt/078tt.jpg","",""
"4366.199999999953","","","recognition","survey-text","345","1261289","0.0-6.0-3.48","3240331","co38956","norming","","","{""guess"":""vlinder""}","","../img/tt/078tt.jpg","",""
"null","../img/gs/078gs.jpg","null","reveal","image-keyboard-response","346","1263292","0.0-6.0-4.48","3240331","co38956","norming","","","","","","",""
"null","../img/tt/078tt.jpg","null","mooney2","image-keyboard-response","347","1265300","0.0-6.0-5.48","3240331","co38956","norming","","","","","","",""
"1522.0449999999255","","","post_reveal_questions","survey-likert","348","1266825","0.0-6.0-6.48","3240331","co38956","norming","","","{""aha"":6}","[0]","../img/tt/078tt.jpg","",""
"null","<div style=""font-size:60px;""> </div>","null","fixation","html-keyboard-response","349","1267032","0.0-6.0-0.49","3240331","co38956","norming","","","","","","",""
"null","../img/tt/108tt.jpg","null","mooney1","image-keyboard-response","350","1270041","0.0-6.0-1.49","3240331","co38956","norming","","","","","","",""
"3340.9850000001024","","","post_mooney1_questions","survey-likert","351","1273385","0.0-6.0-2.49","3240331","co38956","norming","","","{""curiosity"":6,""confidence"":0}","[0,1]","../img/tt/108tt.jpg","",""
"10678.130000000121","","","recognition","survey-text","352","1284065","0.0-6.0-3.49","3240331","co38956","norming","","","{""guess"":""blaadjes""}","","../img/tt/108tt.jpg","",""
"null","../img/gs/108gs.jpg","null","reveal","image-keyboard-response","353","1286070","0.0-6.0-4.49","3240331","co38956","norming","","","","","","",""
"null","../img/tt/108tt.jpg","null","mooney2","image-keyboard-response","354","1288074","0.0-6.0-5.49","3240331","co38956","norming","","","","","","",""
"3267.7650000001304","","","post_reveal_questions","survey-likert","355","1291345","0.0-6.0-6.49","3240331","co38956","norming","","","{""aha"":6}","[0]","../img/tt/108tt.jpg","",""
"null","<div style=""font-size:60px;""> </div>","null","fixation","html-keyboard-response","356","1291546","0.0-6.0-0.50","3240331","co38956","norming","","","","","","",""
"null","../img/tt/318tt.jpg","null","mooney1","image-keyboard-response","357","1294552","0.0-6.0-1.50","3240331","co38956","norming","","","","","","",""
"4398.715000000084","","","post_mooney1_questions","survey-likert","358","1298953","0.0-6.0-2.50","3240331","co38956","norming","","","{""curiosity"":5,""confidence"":3}","[0,1]","../img/tt/318tt.jpg","",""
"12190.330000000075","","","recognition","survey-text","359","1311145","0.0-6.0-3.50","3240331","co38956","norming","","","{""guess"":""binnen auto""}","","../img/tt/318tt.jpg","",""
"null","../img/gs/318gs.jpg","null","reveal","image-keyboard-response","360","1313146","0.0-6.0-4.50","3240331","co38956","norming","","","","","","",""
"null","../img/tt/318tt.jpg","null","mooney2","image-keyboard-response","361","1315153","0.0-6.0-5.50","3240331","co38956","norming","","","","","","",""
"1572.8950000000186","","","post_reveal_questions","survey-likert","362","1316728","0.0-6.0-6.50","3240331","co38956","norming","","","{""aha"":0}","[0]","../img/tt/318tt.jpg","",""
"null","<div style=""font-size:60px;""> </div>","null","fixation","html-keyboard-response","363","1316937","0.0-6.0-0.51","3240331","co38956","norming","","","","","","",""
"null","../img/tt/1069tt.jpg","null","mooney1","image-keyboard-response","364","1319941","0.0-6.0-1.51","3240331","co38956","norming","","","","","","",""
"4784.935000000056","","","post_mooney1_questions","survey-likert","365","1324729","0.0-6.0-2.51","3240331","co38956","norming","","","{""curiosity"":5,""confidence"":2}","[0,1]","../img/tt/1069tt.jpg","",""
"4902.2599999997765","","","recognition","survey-text","366","1329633","0.0-6.0-3.51","3240331","co38956","norming","","","{""guess"":""leeuw""}","","../img/tt/1069tt.jpg","",""
"null","../img/gs/1069gs.jpg","null","reveal","image-keyboard-response","367","1331638","0.0-6.0-4.51","3240331","co38956","norming","","","","","","",""
"null","../img/tt/1069tt.jpg","null","mooney2","image-keyboard-response","368","1333649","0.0-6.0-5.51","3240331","co38956","norming","","","","","","",""
"1525.3300000000745","","","post_reveal_questions","survey-likert","369","1335177","0.0-6.0-6.51","3240331","co38956","norming","","","{""aha"":6}","[0]","../img/tt/1069tt.jpg","",""
"null","<div style=""font-size:60px;""> </div>","null","fixation","html-keyboard-response","370","1335385","0.0-6.0-0.52","3240331","co38956","norming","","","","","","",""
"null","../img/tt/1243tt.jpg","null","mooney1","image-keyboard-response","371","1338391","0.0-6.0-1.52","3240331","co38956","norming","","","","","","",""
"4222.290000000037","","","post_mooney1_questions","survey-likert","372","1342617","0.0-6.0-2.52","3240331","co38956","norming","","","{""curiosity"":6,""confidence"":1}","[0,1]","../img/tt/1243tt.jpg","",""
"2998","","","recognition","survey-text","373","1345612","0.0-6.0-3.52","3240331","co38956","norming","","","{""guess"":""aap""}","","../img/tt/1243tt.jpg","",""
"null","../img/gs/1243gs.jpg","null","reveal","image-keyboard-response","374","1347619","0.0-6.0-4.52","3240331","co38956","norming","","","","","","",""
"null","../img/tt/1243tt.jpg","null","mooney2","image-keyboard-response","375","1349621","0.0-6.0-5.52","3240331","co38956","norming","","","","","","",""
"2028.6400000001304","","","post_reveal_questions","survey-likert","376","1351653","0.0-6.0-6.52","3240331","co38956","norming","","","{""aha"":6}","[0]","../img/tt/1243tt.jpg","",""
"null","<div style=""font-size:60px;""> </div>","null","fixation","html-keyboard-response","377","1351862","0.0-6.0-0.53","3240331","co38956","norming","","","","","","",""
"null","../img/tt/049tt.jpg","null","mooney1","image-keyboard-response","378","1354870","0.0-6.0-1.53","3240331","co38956","norming","","","","","","",""
"4074.909999999916","","","post_mooney1_questions","survey-likert","379","1358949","0.0-6.0-2.53","3240331","co38956","norming","","","{""curiosity"":6,""confidence"":3}","[0,1]","../img/tt/049tt.jpg","",""
"2622.089999999851","","","recognition","survey-text","380","1361572","0.0-6.0-3.53","3240331","co38956","norming","","","{""guess"":""mol""}","","../img/tt/049tt.jpg","",""
"null","../img/gs/049gs.jpg","null","reveal","image-keyboard-response","381","1363576","0.0-6.0-4.53","3240331","co38956","norming","","","","","","",""
"null","../img/tt/049tt.jpg","null","mooney2","image-keyboard-response","382","1365578","0.0-6.0-5.53","3240331","co38956","norming","","","","","","",""
"2063.535000000149","","","post_reveal_questions","survey-likert","383","1367644","0.0-6.0-6.53","3240331","co38956","norming","","","{""aha"":6}","[0]","../img/tt/049tt.jpg","",""
"null","<div style=""font-size:60px;""> </div>","null","fixation","html-keyboard-response","384","1367845","0.0-6.0-0.54","3240331","co38956","norming","","","","","","",""
"null","../img/tt/1102tt.jpg","null","mooney1","image-keyboard-response","385","1370849","0.0-6.0-1.54","3240331","co38956","norming","","","","","","",""
"7536.179999999935","","","post_mooney1_questions","survey-likert","386","1378388","0.0-6.0-2.54","3240331","co38956","norming","","","{""curiosity"":6,""confidence"":2}","[0,1]","../img/tt/1102tt.jpg","",""
"5726.300000000047","","","recognition","survey-text","387","1384116","0.0-6.0-3.54","3240331","co38956","norming","","","{""guess"":""hangmat""}","","../img/tt/1102tt.jpg","",""
"null","../img/gs/1102gs.jpg","null","reveal","image-keyboard-response","388","1386118","0.0-6.0-4.54","3240331","co38956","norming","","","","","","",""
"null","../img/tt/1102tt.jpg","null","mooney2","image-keyboard-response","389","1388126","0.0-6.0-5.54","3240331","co38956","norming","","","","","","",""
"2363.274999999907","","","post_reveal_questions","survey-likert","390","1390492","0.0-6.0-6.54","3240331","co38956","norming","","","{""aha"":6}","[0]","../img/tt/1102tt.jpg","",""
"null","<div style=""font-size:60px;""> </div>","null","fixation","html-keyboard-response","391","1390703","0.0-6.0-0.55","3240331","co38956","norming","","","","","","",""
"null","../img/tt/301tt.jpg","null","mooney1","image-keyboard-response","392","1393712","0.0-6.0-1.55","3240331","co38956","norming","","","","","","",""
"4195.745000000112","","","post_mooney1_questions","survey-likert","393","1397909","0.0-6.0-2.55","3240331","co38956","norming","","","{""curiosity"":6,""confidence"":1}","[0,1]","../img/tt/301tt.jpg","",""
"4373.780000000028","","","recognition","survey-text","394","1402284","0.0-6.0-3.55","3240331","co38956","norming","","","{""guess"":""brug""}","","../img/tt/301tt.jpg","",""
"null","../img/gs/301gs.jpg","null","reveal","image-keyboard-response","395","1404293","0.0-6.0-4.55","3240331","co38956","norming","","","","","","",""
"null","../img/tt/301tt.jpg","null","mooney2","image-keyboard-response","396","1406296","0.0-6.0-5.55","3240331","co38956","norming","","","","","","",""
"3981.3499999998603","","","post_reveal_questions","survey-likert","397","1410280","0.0-6.0-6.55","3240331","co38956","norming","","","{""aha"":4}","[0]","../img/tt/301tt.jpg","",""
"null","<div style=""font-size:60px;""> </div>","null","fixation","html-keyboard-response","398","1410486","0.0-6.0-0.56","3240331","co38956","norming","","","","","","",""
"null","../img/tt/315tt.jpg","null","mooney1","image-keyboard-response","399","1413492","0.0-6.0-1.56","3240331","co38956","norming","","","","","","",""
"5993.385000000009","","","post_mooney1_questions","survey-likert","400","1419489","0.0-6.0-2.56","3240331","co38956","norming","","","{""curiosity"":6,""confidence"":1}","[0,1]","../img/tt/315tt.jpg","",""
"4198.074999999953","","","recognition","survey-text","401","1423688","0.0-6.0-3.56","3240331","co38956","norming","","","{""guess"":""pauw""}","","../img/tt/315tt.jpg","",""
"null","../img/gs/315gs.jpg","null","reveal","image-keyboard-response","402","1425692","0.0-6.0-4.56","3240331","co38956","norming","","","","","","",""
"null","../img/tt/315tt.jpg","null","mooney2","image-keyboard-response","403","1427694","0.0-6.0-5.56","3240331","co38956","norming","","","","","","",""
"1905.8349999999627","","","post_reveal_questions","survey-likert","404","1429601","0.0-6.0-6.56","3240331","co38956","norming","","","{""aha"":6}","[0]","../img/tt/315tt.jpg","",""
"null","<div style=""font-size:60px;""> </div>","null","fixation","html-keyboard-response","405","1429808","0.0-6.0-0.57","3240331","co38956","norming","","","","","","",""
"null","../img/tt/559tt.jpg","null","mooney1","image-keyboard-response","406","1432810","0.0-6.0-1.57","3240331","co38956","norming","","","","","","",""
"4339.969999999972","","","post_mooney1_questions","survey-likert","407","1437153","0.0-6.0-2.57","3240331","co38956","norming","","","{""curiosity"":4,""confidence"":3}","[0,1]","../img/tt/559tt.jpg","",""
"6637.844999999972","","","recognition","survey-text","408","1443793","0.0-6.0-3.57","3240331","co38956","norming","","","{""guess"":""luidspreker""}","","../img/tt/559tt.jpg","",""
"null","../img/gs/559gs.jpg","null","reveal","image-keyboard-response","409","1445795","0.0-6.0-4.57","3240331","co38956","norming","","","","","","",""
"null","../img/tt/559tt.jpg","null","mooney2","image-keyboard-response","410","1447796","0.0-6.0-5.57","3240331","co38956","norming","","","","","","",""
"2771.4199999999255","","","post_reveal_questions","survey-likert","411","1450568","0.0-6.0-6.57","3240331","co38956","norming","","","{""aha"":0}","[0]","../img/tt/559tt.jpg","",""
"null","<div style=""font-size:60px;""> </div>","null","fixation","html-keyboard-response","412","1450772","0.0-6.0-0.58","3240331","co38956","norming","","","","","","",""
"null","../img/tt/405tt.jpg","null","mooney1","image-keyboard-response","413","1453776","0.0-6.0-1.58","3240331","co38956","norming","","","","","","",""
"4063.75","","","post_mooney1_questions","survey-likert","414","1457841","0.0-6.0-2.58","3240331","co38956","norming","","","{""curiosity"":6,""confidence"":3}","[0,1]","../img/tt/405tt.jpg","",""
"4238.104999999981","","","recognition","survey-text","415","1462081","0.0-6.0-3.58","3240331","co38956","norming","","","{""guess"":""beer""}","","../img/tt/405tt.jpg","",""
"null","../img/gs/405gs.jpg","null","reveal","image-keyboard-response","416","1464082","0.0-6.0-4.58","3240331","co38956","norming","","","","","","",""
"null","../img/tt/405tt.jpg","null","mooney2","image-keyboard-response","417","1466084","0.0-6.0-5.58","3240331","co38956","norming","","","","","","",""
"4074.094999999972","","","post_reveal_questions","survey-likert","418","1470161","0.0-6.0-6.58","3240331","co38956","norming","","","{""aha"":1}","[0]","../img/tt/405tt.jpg","",""
"null","<div style=""font-size:60px;""> </div>","null","fixation","html-keyboard-response","419","1470368","0.0-6.0-0.59","3240331","co38956","norming","","","","","","",""
"null","../img/tt/378tt.jpg","null","mooney1","image-keyboard-response","420","1473380","0.0-6.0-1.59","3240331","co38956","norming","","","","","","",""
"4433.229999999981","","","post_mooney1_questions","survey-likert","421","1477817","0.0-6.0-2.59","3240331","co38956","norming","","","{""curiosity"":6,""confidence"":3}","[0,1]","../img/tt/378tt.jpg","",""
"3630.060000000056","","","recognition","survey-text","422","1481448","0.0-6.0-3.59","3240331","co38956","norming","","","{""guess"":""puma""}","","../img/tt/378tt.jpg","",""
"null","../img/gs/378gs.jpg","null","reveal","image-keyboard-response","423","1483454","0.0-6.0-4.59","3240331","co38956","norming","","","","","","",""
"null","../img/tt/378tt.jpg","null","mooney2","image-keyboard-response","424","1485455","0.0-6.0-5.59","3240331","co38956","norming","","","","","","",""
"1837.3850000000093","","","post_reveal_questions","survey-likert","425","1487296","0.0-6.0-6.59","3240331","co38956","norming","","","{""aha"":0}","[0]","../img/tt/378tt.jpg","",""
"null","<div style=""font-size:60px;""> </div>","null","fixation","html-keyboard-response","426","1487506","0.0-6.0-0.60","3240331","co38956","norming","","","","","","",""
"null","../img/tt/497tt.jpg","null","mooney1","image-keyboard-response","427","1490509","0.0-6.0-1.60","3240331","co38956","norming","","","","","","",""
"4064.0550000001676","","","post_mooney1_questions","survey-likert","428","1494577","0.0-6.0-2.60","3240331","co38956","norming","","","{""curiosity"":4,""confidence"":4}","[0,1]","../img/tt/497tt.jpg","",""
"8125.7949999999255","","","recognition","survey-text","429","1502704","0.0-6.0-3.60","3240331","co38956","norming","","","{""guess"":""muziekspeler""}","","../img/tt/497tt.jpg","",""
"null","../img/gs/497gs.jpg","null","reveal","image-keyboard-response","430","1504706","0.0-6.0-4.60","3240331","co38956","norming","","","","","","",""
"null","../img/tt/497tt.jpg","null","mooney2","image-keyboard-response","431","1506713","0.0-6.0-5.60","3240331","co38956","norming","","","","","","",""
"4381.014999999898","","","post_reveal_questions","survey-likert","432","1511097","0.0-6.0-6.60","3240331","co38956","norming","","","{""aha"":6}","[0]","../img/tt/497tt.jpg","",""
"null","<div style=""font-size:60px;""> </div>","null","fixation","html-keyboard-response","433","1511304","0.0-6.0-0.61","3240331","co38956","norming","","","","","","",""
"null","../img/tt/053tt.jpg","null","mooney1","image-keyboard-response","434","1514307","0.0-6.0-1.61","3240331","co38956","norming","","","","","","",""
"7194.840000000084","","","post_mooney1_questions","survey-likert","435","1521505","0.0-6.0-2.61","3240331","co38956","norming","","","{""curiosity"":5,""confidence"":4}","[0,1]","../img/tt/053tt.jpg","",""
"3726.0550000001676","","","recognition","survey-text","436","1525232","0.0-6.0-3.61","3240331","co38956","norming","","","{""guess"":""kano""}","","../img/tt/053tt.jpg","",""
"null","../img/gs/053gs.jpg","null","reveal","image-keyboard-response","437","1527233","0.0-6.0-4.61","3240331","co38956","norming","","","","","","",""
"null","../img/tt/053tt.jpg","null","mooney2","image-keyboard-response","438","1529236","0.0-6.0-5.61","3240331","co38956","norming","","","","","","",""
"1641.4750000000931","","","post_reveal_questions","survey-likert","439","1530880","0.0-6.0-6.61","3240331","co38956","norming","","","{""aha"":0}","[0]","../img/tt/053tt.jpg","",""
"null","<div style=""font-size:60px;""> </div>","null","fixation","html-keyboard-response","440","1531088","0.0-6.0-0.62","3240331","co38956","norming","","","","","","",""
"null","../img/tt/1048tt.jpg","null","mooney1","image-keyboard-response","441","1534097","0.0-6.0-1.62","3240331","co38956","norming","","","","","","",""
"5621.73499999987","","","post_mooney1_questions","survey-likert","442","1539721","0.0-6.0-2.62","3240331","co38956","norming","","","{""curiosity"":6,""confidence"":0}","[0,1]","../img/tt/1048tt.jpg","",""
"4821.9550000000745","","","recognition","survey-text","443","1544545","0.0-6.0-3.62","3240331","co38956","norming","","","{""guess"":""water""}","","../img/tt/1048tt.jpg","",""
"null","../img/gs/1048gs.jpg","null","reveal","image-keyboard-response","444","1546546","0.0-6.0-4.62","3240331","co38956","norming","","","","","","",""
"null","../img/tt/1048tt.jpg","null","mooney2","image-keyboard-response","445","1548548","0.0-6.0-5.62","3240331","co38956","norming","","","","","","",""
"2881.9849999998696","","","post_reveal_questions","survey-likert","446","1551433","0.0-6.0-6.62","3240331","co38956","norming","","","{""aha"":6}","[0]","../img/tt/1048tt.jpg","",""
"null","<div style=""font-size:60px;""> </div>","null","fixation","html-keyboard-response","447","1551641","0.0-6.0-0.63","3240331","co38956","norming","","","","","","",""
"null","../img/tt/013tt.jpg","null","mooney1","image-keyboard-response","448","1554645","0.0-6.0-1.63","3240331","co38956","norming","","","","","","",""
"5346.709999999963","","","post_mooney1_questions","survey-likert","449","1559993","0.0-6.0-2.63","3240331","co38956","norming","","","{""curiosity"":4,""confidence"":4}","[0,1]","../img/tt/013tt.jpg","",""
"2621.875","","","recognition","survey-text","450","1562616","0.0-6.0-3.63","3240331","co38956","norming","","","{""guess"":""aap""}","","../img/tt/013tt.jpg","",""
"null","../img/gs/013gs.jpg","null","reveal","image-keyboard-response","451","1564619","0.0-6.0-4.63","3240331","co38956","norming","","","","","","",""
"null","../img/tt/013tt.jpg","null","mooney2","image-keyboard-response","452","1566627","0.0-6.0-5.63","3240331","co38956","norming","","","","","","",""
"2099.1299999998882","","","post_reveal_questions","survey-likert","453","1568728","0.0-6.0-6.63","3240331","co38956","norming","","","{""aha"":6}","[0]","../img/tt/013tt.jpg","",""
"null","<div style=""font-size:60px;""> </div>","null","fixation","html-keyboard-response","454","1568934","0.0-6.0-0.64","3240331","co38956","norming","","","","","","",""
"null","../img/tt/056tt.jpg","null","mooney1","image-keyboard-response","455","1571937","0.0-6.0-1.64","3240331","co38956","norming","","","","","","",""
"5028.395000000019","","","post_mooney1_questions","survey-likert","456","1576969","0.0-6.0-2.64","3240331","co38956","norming","","","{""curiosity"":4,""confidence"":5}","[0,1]","../img/tt/056tt.jpg","",""
"3813.4849999998696","","","recognition","survey-text","457","1580785","0.0-6.0-3.64","3240331","co38956","norming","","","{""guess"":""leeuw""}","","../img/tt/056tt.jpg","",""
"null","../img/gs/056gs.jpg","null","reveal","image-keyboard-response","458","1582786","0.0-6.0-4.64","3240331","co38956","norming","","","","","","",""
"null","../img/tt/056tt.jpg","null","mooney2","image-keyboard-response","459","1584790","0.0-6.0-5.64","3240331","co38956","norming","","","","","","",""
"2208.5399999998044","","","post_reveal_questions","survey-likert","460","1587001","0.0-6.0-6.64","3240331","co38956","norming","","","{""aha"":0}","[0]","../img/tt/056tt.jpg","",""
"null","<div style=""font-size:60px;""> </div>","null","fixation","html-keyboard-response","461","1587202","0.0-6.0-0.65","3240331","co38956","norming","","","","","","",""
"null","../img/tt/1061tt.jpg","null","mooney1","image-keyboard-response","462","1590206","0.0-6.0-1.65","3240331","co38956","norming","","","","","","",""
"5639.460000000196","","","post_mooney1_questions","survey-likert","463","1595849","0.0-6.0-2.65","3240331","co38956","norming","","","{""curiosity"":4,""confidence"":5}","[0,1]","../img/tt/1061tt.jpg","",""
"4685.930000000168","","","recognition","survey-text","464","1600536","0.0-6.0-3.65","3240331","co38956","norming","","","{""guess"":""skater""}","","../img/tt/1061tt.jpg","",""
"null","../img/gs/1061gs.jpg","null","reveal","image-keyboard-response","465","1602538","0.0-6.0-4.65","3240331","co38956","norming","","","","","","",""
"null","../img/tt/1061tt.jpg","null","mooney2","image-keyboard-response","466","1604541","0.0-6.0-5.65","3240331","co38956","norming","","","","","","",""
"2272.6099999998696","","","post_reveal_questions","survey-likert","467","1606817","0.0-6.0-6.65","3240331","co38956","norming","","","{""aha"":6}","[0]","../img/tt/1061tt.jpg","",""
"null","<div style=""font-size:60px;""> </div>","null","fixation","html-keyboard-response","468","1607018","0.0-6.0-0.66","3240331","co38956","norming","","","","","","",""
"null","../img/tt/084tt.jpg","null","mooney1","image-keyboard-response","469","1610021","0.0-6.0-1.66","3240331","co38956","norming","","","","","","",""
"4183.875","","","post_mooney1_questions","survey-likert","470","1614209","0.0-6.0-2.66","3240331","co38956","norming","","","{""curiosity"":3,""confidence"":5}","[0,1]","../img/tt/084tt.jpg","",""
"3493.5849999999627","","","recognition","survey-text","471","1617704","0.0-6.0-3.66","3240331","co38956","norming","","","{""guess"":""eend""}","","../img/tt/084tt.jpg","",""
"null","../img/gs/084gs.jpg","null","reveal","image-keyboard-response","472","1619710","0.0-6.0-4.66","3240331","co38956","norming","","","","","","",""
"null","../img/tt/084tt.jpg","null","mooney2","image-keyboard-response","473","1621711","0.0-6.0-5.66","3240331","co38956","norming","","","","","","",""
"2088.850000000093","","","post_reveal_questions","survey-likert","474","1623801","0.0-6.0-6.66","3240331","co38956","norming","","","{""aha"":0}","[0]","../img/tt/084tt.jpg","",""
"null","<div style=""font-size:60px;""> </div>","null","fixation","html-keyboard-response","475","1624009","0.0-6.0-0.67","3240331","co38956","norming","","","","","","",""
"null","../img/tt/358tt.jpg","null","mooney1","image-keyboard-response","476","1627012","0.0-6.0-1.67","3240331","co38956","norming","","","","","","",""
"8136.964999999851","","","post_mooney1_questions","survey-likert","477","1635153","0.0-6.0-2.67","3240331","co38956","norming","","","{""curiosity"":4,""confidence"":2}","[0,1]","../img/tt/358tt.jpg","",""
"3941.780000000028","","","recognition","survey-text","478","1639096","0.0-6.0-3.67","3240331","co38956","norming","","","{""guess"":""aap""}","","../img/tt/358tt.jpg","",""
"null","../img/gs/358gs.jpg","null","reveal","image-keyboard-response","479","1641104","0.0-6.0-4.67","3240331","co38956","norming","","","","","","",""
"null","../img/tt/358tt.jpg","null","mooney2","image-keyboard-response","480","1643108","0.0-6.0-5.67","3240331","co38956","norming","","","","","","",""
"1945.7349999998696","","","post_reveal_questions","survey-likert","481","1645057","0.0-6.0-6.67","3240331","co38956","norming","","","{""aha"":6}","[0]","../img/tt/358tt.jpg","",""
"null","<div style=""font-size:60px;""> </div>","null","fixation","html-keyboard-response","482","1645265","0.0-6.0-0.68","3240331","co38956","norming","","","","","","",""
"null","../img/tt/1175tt.jpg","null","mooney1","image-keyboard-response","483","1648268","0.0-6.0-1.68","3240331","co38956","norming","","","","","","",""
"5371.2400000002235","","","post_mooney1_questions","survey-likert","484","1653632","0.0-6.0-2.68","3240331","co38956","norming","","","{""curiosity"":4,""confidence"":2}","[0,1]","../img/tt/1175tt.jpg","",""
"7509.8300000000745","","","recognition","survey-text","485","1661144","0.0-6.0-3.68","3240331","co38956","norming","","","{""guess"":""tafeltennis""}","","../img/tt/1175tt.jpg","",""
"null","../img/gs/1175gs.jpg","null","reveal","image-keyboard-response","486","1663145","0.0-6.0-4.68","3240331","co38956","norming","","","","","","",""
"null","../img/tt/1175tt.jpg","null","mooney2","image-keyboard-response","487","1665157","0.0-6.0-5.68","3240331","co38956","norming","","","","","","",""
"1752.5249999999069","","","post_reveal_questions","survey-likert","488","1666912","0.0-6.0-6.68","3240331","co38956","norming","","","{""aha"":6}","[0]","../img/tt/1175tt.jpg","",""
"null","<div style=""font-size:60px;""> </div>","null","fixation","html-keyboard-response","489","1667115","0.0-6.0-0.69","3240331","co38956","norming","","","","","","",""
"null","../img/tt/1096tt.jpg","null","mooney1","image-keyboard-response","490","1670118","0.0-6.0-1.69","3240331","co38956","norming","","","","","","",""
"4526.864999999991","","","post_mooney1_questions","survey-likert","491","1674648","0.0-6.0-2.69","3240331","co38956","norming","","","{""curiosity"":6,""confidence"":1}","[0,1]","../img/tt/1096tt.jpg","",""
"3789.939999999944","","","recognition","survey-text","492","1678440","0.0-6.0-3.69","3240331","co38956","norming","","","{""guess"":""trap""}","","../img/tt/1096tt.jpg","",""
"null","../img/gs/1096gs.jpg","null","reveal","image-keyboard-response","493","1680442","0.0-6.0-4.69","3240331","co38956","norming","","","","","","",""
"null","../img/tt/1096tt.jpg","null","mooney2","image-keyboard-response","494","1682447","0.0-6.0-5.69","3240331","co38956","norming","","","","","","",""
"2398.5399999998044","","","post_reveal_questions","survey-likert","495","1684848","0.0-6.0-6.69","3240331","co38956","norming","","","{""aha"":6}","[0]","../img/tt/1096tt.jpg","",""
"null","<div style=""font-size:60px;""> </div>","null","fixation","html-keyboard-response","496","1685052","0.0-6.0-0.70","3240331","co38956","norming","","","","","","",""
"null","../img/tt/1260tt.jpg","null","mooney1","image-keyboard-response","497","1688060","0.0-6.0-1.70","3240331","co38956","norming","","","","","","",""
"6824.25","","","post_mooney1_questions","survey-likert","498","1694888","0.0-6.0-2.70","3240331","co38956","norming","","","{""curiosity"":6,""confidence"":2}","[0,1]","../img/tt/1260tt.jpg","",""
"4190.165000000037","","","recognition","survey-text","499","1699080","0.0-6.0-3.70","3240331","co38956","norming","","","{""guess"":""kat""}","","../img/tt/1260tt.jpg","",""
"null","../img/gs/1260gs.jpg","null","reveal","image-keyboard-response","500","1701081","0.0-6.0-4.70","3240331","co38956","norming","","","","","","",""
"null","../img/tt/1260tt.jpg","null","mooney2","image-keyboard-response","501","1703090","0.0-6.0-5.70","3240331","co38956","norming","","","","","","",""
"2315.5400000000373","","","post_reveal_questions","survey-likert","502","1705408","0.0-6.0-6.70","3240331","co38956","norming","","","{""aha"":6}","[0]","../img/tt/1260tt.jpg","",""
"null","<div style=""font-size:60px;""> </div>","null","fixation","html-keyboard-response","503","1705616","0.0-6.0-0.71","3240331","co38956","norming","","","","","","",""
"null","../img/tt/1353tt.jpg","null","mooney1","image-keyboard-response","504","1708619","0.0-6.0-1.71","3240331","co38956","norming","","","","","","",""
"4178.01500000013","","","post_mooney1_questions","survey-likert","505","1712809","0.0-6.0-2.71","3240331","co38956","norming","","","{""curiosity"":5,""confidence"":3}","[0,1]","../img/tt/1353tt.jpg","",""
"4358.055000000168","","","recognition","survey-text","506","1717169","0.0-6.0-3.71","3240331","co38956","norming","","","{""guess"":""sleutel""}","","../img/tt/1353tt.jpg","",""
"null","../img/gs/1353gs.jpg","null","reveal","image-keyboard-response","507","1719171","0.0-6.0-4.71","3240331","co38956","norming","","","","","","",""
"null","../img/tt/1353tt.jpg","null","mooney2","image-keyboard-response","508","1721175","0.0-6.0-5.71","3240331","co38956","norming","","","","","","",""
"5007.055000000168","","","post_reveal_questions","survey-likert","509","1726185","0.0-6.0-6.71","3240331","co38956","norming","","","{""aha"":6}","[0]","../img/tt/1353tt.jpg","",""
"null","<div style=""font-size:60px;""> </div>","null","fixation","html-keyboard-response","510","1726395","0.0-6.0-0.72","3240331","co38956","norming","","","","","","",""
"null","../img/tt/1173tt.jpg","null","mooney1","image-keyboard-response","511","1729399","0.0-6.0-1.72","3240331","co38956","norming","","","","","","",""
"6781.979999999981","","","post_mooney1_questions","survey-likert","512","1736185","0.0-6.0-2.72","3240331","co38956","norming","","","{""curiosity"":4,""confidence"":4}","[0,1]","../img/tt/1173tt.jpg","",""
"6094.589999999851","","","recognition","survey-text","513","1742281","0.0-6.0-3.72","3240331","co38956","norming","","","{""guess"":""rugby""}","","../img/tt/1173tt.jpg","",""
"null","../img/gs/1173gs.jpg","null","reveal","image-keyboard-response","514","1744283","0.0-6.0-4.72","3240331","co38956","norming","","","","","","",""
"null","../img/tt/1173tt.jpg","null","mooney2","image-keyboard-response","515","1746291","0.0-6.0-5.72","3240331","co38956","norming","","","","","","",""
"2177.75","","","post_reveal_questions","survey-likert","516","1748473","0.0-6.0-6.72","3240331","co38956","norming","","","{""aha"":6}","[0]","../img/tt/1173tt.jpg","",""
"null","<div style=""font-size:60px;""> </div>","null","fixation","html-keyboard-response","517","1748675","0.0-6.0-0.73","3240331","co38956","norming","","","","","","",""
"null","../img/tt/1227tt.jpg","null","mooney1","image-keyboard-response","518","1751677","0.0-6.0-1.73","3240331","co38956","norming","","","","","","",""
"3647.7600000000093","","","post_mooney1_questions","survey-likert","519","1755329","0.0-6.0-2.73","3240331","co38956","norming","","","{""curiosity"":3,""confidence"":5}","[0,1]","../img/tt/1227tt.jpg","",""
"4181.929999999935","","","recognition","survey-text","520","1759513","0.0-6.0-3.73","3240331","co38956","norming","","","{""guess"":""kippen""}","","../img/tt/1227tt.jpg","",""
"null","../img/gs/1227gs.jpg","null","reveal","image-keyboard-response","521","1761522","0.0-6.0-4.73","3240331","co38956","norming","","","","","","",""
"null","../img/tt/1227tt.jpg","null","mooney2","image-keyboard-response","522","1763524","0.0-6.0-5.73","3240331","co38956","norming","","","","","","",""
"1697.5649999999441","","","post_reveal_questions","survey-likert","523","1765225","0.0-6.0-6.73","3240331","co38956","norming","","","{""aha"":0}","[0]","../img/tt/1227tt.jpg","",""
"null","<div style=""font-size:60px;""> </div>","null","fixation","html-keyboard-response","524","1765426","0.0-6.0-0.74","3240331","co38956","norming","","","","","","",""
"null","../img/tt/064tt.jpg","null","mooney1","image-keyboard-response","525","1768429","0.0-6.0-1.74","3240331","co38956","norming","","","","","","",""
"3505.274999999907","","","post_mooney1_questions","survey-likert","526","1771937","0.0-6.0-2.74","3240331","co38956","norming","","","{""curiosity"":3,""confidence"":5}","[0,1]","../img/tt/064tt.jpg","",""
"5566.004999999888","","","recognition","survey-text","527","1777503","0.0-6.0-3.74","3240331","co38956","norming","","","{""guess"":""schildpad""}","","../img/tt/064tt.jpg","",""
"null","../img/gs/064gs.jpg","null","reveal","image-keyboard-response","528","1779505","0.0-6.0-4.74","3240331","co38956","norming","","","","","","",""
"null","../img/tt/064tt.jpg","null","mooney2","image-keyboard-response","529","1781516","0.0-6.0-5.74","3240331","co38956","norming","","","","","","",""
"1761.1350000000093","","","post_reveal_questions","survey-likert","530","1783280","0.0-6.0-6.74","3240331","co38956","norming","","","{""aha"":0}","[0]","../img/tt/064tt.jpg","",""
"null","<div style=""font-size:60px;""> </div>","null","fixation","html-keyboard-response","531","1783481","0.0-6.0-0.75","3240331","co38956","norming","","","","","","",""
"null","../img/tt/353tt.jpg","null","mooney1","image-keyboard-response","532","1786488","0.0-6.0-1.75","3240331","co38956","norming","","","","","","",""
"3227.530000000028","","","post_mooney1_questions","survey-likert","533","1789720","0.0-6.0-2.75","3240331","co38956","norming","","","{""curiosity"":3,""confidence"":6}","[0,1]","../img/tt/353tt.jpg","",""
"5518.264999999898","","","recognition","survey-text","534","1795240","0.0-6.0-3.75","3240331","co38956","norming","","","{""guess"":""pinguin ""}","","../img/tt/353tt.jpg","",""
"null","../img/gs/353gs.jpg","null","reveal","image-keyboard-response","535","1797251","0.0-6.0-4.75","3240331","co38956","norming","","","","","","",""
"null","../img/tt/353tt.jpg","null","mooney2","image-keyboard-response","536","1799252","0.0-6.0-5.75","3240331","co38956","norming","","","","","","",""
"1529.2700000000186","","","post_reveal_questions","survey-likert","537","1800784","0.0-6.0-6.75","3240331","co38956","norming","","","{""aha"":0}","[0]","../img/tt/353tt.jpg","",""
"null","<div style=""font-size:60px;""> </div>","null","fixation","html-keyboard-response","538","1800991","0.0-6.0-0.76","3240331","co38956","norming","","","","","","",""
"null","../img/tt/044tt.jpg","null","mooney1","image-keyboard-response","539","1804003","0.0-6.0-1.76","3240331","co38956","norming","","","","","","",""
"5137.550000000047","","","post_mooney1_questions","survey-likert","540","1809144","0.0-6.0-2.76","3240331","co38956","norming","","","{""curiosity"":6,""confidence"":0}","[0,1]","../img/tt/044tt.jpg","",""
"8158.0099999997765","","","recognition","survey-text","541","1817304","0.0-6.0-3.76","3240331","co38956","norming","","","{""guess"":""computer""}","","../img/tt/044tt.jpg","",""
"null","../img/gs/044gs.jpg","null","reveal","image-keyboard-response","542","1819313","0.0-6.0-4.76","3240331","co38956","norming","","","","","","",""
"null","../img/tt/044tt.jpg","null","mooney2","image-keyboard-response","543","1821325","0.0-6.0-5.76","3240331","co38956","norming","","","","","","",""
"1991.780000000028","","","post_reveal_questions","survey-likert","544","1823320","0.0-6.0-6.76","3240331","co38956","norming","","","{""aha"":6}","[0]","../img/tt/044tt.jpg","",""
"null","<div style=""font-size:60px;""> </div>","null","fixation","html-keyboard-response","545","1823523","0.0-6.0-0.77","3240331","co38956","norming","","","","","","",""
"null","../img/tt/1063tt.jpg","null","mooney1","image-keyboard-response","546","1826527","0.0-6.0-1.77","3240331","co38956","norming","","","","","","",""
"7357.685000000056","","","post_mooney1_questions","survey-likert","547","1833881","0.0-6.0-2.77","3240331","co38956","norming","","","{""curiosity"":6,""confidence"":2}","[0,1]","../img/tt/1063tt.jpg","",""
"4477.745000000112","","","recognition","survey-text","548","1838361","0.0-6.0-3.77","3240331","co38956","norming","","","{""guess"":""paard""}","","../img/tt/1063tt.jpg","",""
"null","../img/gs/1063gs.jpg","null","reveal","image-keyboard-response","549","1840363","0.0-6.0-4.77","3240331","co38956","norming","","","","","","",""
"null","../img/tt/1063tt.jpg","null","mooney2","image-keyboard-response","550","1842371","0.0-6.0-5.77","3240331","co38956","norming","","","","","","",""
"2682.4550000003073","","","post_reveal_questions","survey-likert","551","1845057","0.0-6.0-6.77","3240331","co38956","norming","","","{""aha"":3}","[0]","../img/tt/1063tt.jpg","",""
"null","<div style=""font-size:60px;""> </div>","null","fixation","html-keyboard-response","552","1845259","0.0-6.0-0.78","3240331","co38956","norming","","","","","","",""
