"rt","stimulus","key_press","test_part","trial_type","trial_index","time_elapsed","internal_node_id","totalTime","subject","experiment_name","button_pressed","success","responses","question_order","currentStim","old","correct"
"15333.810000000085","Welcome to the experiment. This is an online experiment so please don't close the tab/window until we say goodbye.  Press any key to begin.","32","instructions","html-keyboard-response","0","15349","0.0-0.0","2878311","co38065","norming","","","","","","",""
"27441.31500000003","<div style='word-wrap: break-word; width: 900px'><h3>Please consider this information carefully before deciding whether to participate in this research</h3><ul style='text-align: left; font-size: .8em;'><li><b>Purpose of the research</b>: To examine how people process images.</li><li><b>What you will do in this research</b>:  Stimuli (images) will be presented on the computer and you will be asked different questions about them.</li><li><b>Time required</b>: Participation will take between 45 and 60 minutes to complete.</li><li><b>Risks</b>:  There are no anticipated risks associated with participating in this study. The effects of participating should be comparable to those you would experience from viewing a computer monitor for 30 minutes and using a mouse or keyboard.</li><li><b>Benefits</b>:  This study provides no benefits to you individually except for the credit. The study provides important information about the nature of perception and learning.</li><li><b>Confidentiality</b>:  Your participation in this study will remain confidential. No personally identifiable information will be associated with your data. Your de-identified data may be shared with other researchers and used in future projects.</li><li><b>Participation and withdrawal</b>:  Your participation in this study is completely voluntary and you may refuse to participate or you may choose to withdraw at any time without penalty.</li><li><b>How to contact the researchers</b>: If you have questions or concerns about your participation or payment, or want to request a summary of research findings, please contact Sander Van de Cruys (KU Leuven), at sander.vandecruys@kuleuven.be.</li></ul><p>The nature and purpose of this research have been sufficiently explained and I agree to participate in this study.  I understand that I am free to withdraw at any time without incurring any penalty.</p><p>Please consent by clicking the button below to continue. Otherwise, please exit the study at this time.</p></div>","","instructions","html-button-response","1","42796","0.0-1.0","2878311","co38065","norming","0","","","","","",""
"","","","instructions","fullscreen","2","46559","0.0-2.0","2878311","co38065","norming","","true","","","","",""
"22145.604999999705","","","sona","survey-html-form","3","68712","0.0-3.0","2878311","co38065","norming","","","[{""name"":""sonaid"",""value"":""38065""},{""name"":""debrief"",""value"":""no""},{""name"":""datajoin"",""value"":""yes""}]","","","",""
"59114.800000001196","<div style='word-wrap: break-word; width: 900px'><h3>Instructions</h3><p>This experiment will have 3 parts. In the first part you will see a series of distorted images like the one below on the left. As you can see in the righthand image, the distorted images are derived from actual photographs. In what follows, you will <strong>briefly</strong> be presented with <strong>only</strong> the distorted image.</p> <div style='float: left; margin-right: 20px;'><img src='../img/018tt.jpg' height='250' width='250'></img></div><div style='float: right; margin-left: 20px;'><img src='../img/018gs.jpg' height='250' width='250'></img></div><p>Subsequently you will be asked a few questions about the image: One question on how <strong>curious</strong> you are about the solution and one on how <strong>confident</strong> you are that you know the solution.</p>Next, we ask you to make a guess on what is in the image. Note that it is OK to name just the <strong>basic level category</strong>. For example when you see a parrot in the image, 'parrot' will obviously be a correct answer but also correct is 'bird'. However, 'animal' will <strong>not</strong> be counted as a correct response. For the example above, 'rose' would be correct or 'flower', but not 'plant'. When soccer players are depicted, 'soccer', 'football', 'soccer players' will be correct, but not 'humans', 'outdoors', or 'sports'. You do not need to describe the image in full, just name the main object in it <strong>in one or two words</strong>. All images depict objects from one of the following broad level categories: animals, inanimate objects, plants, sports, vehicles, and food. Recognizing means knowing <strong>more</strong> than these broad labels for a given image. But we always encourage you to <strong>make a guess</strong> if you can. Note that you are allowed to use <strong>Dutch and English</strong> in your answers, whatever comes easiest for you.</p><p>Press any key to continue.</p></div>","32","instructions","html-keyboard-response","4","127831","0.0-4.0","2878311","co38065","norming","","","","","","",""
"148304.1000000012","<div style='word-wrap: break-word; width: 900px'><h3>Instructions</h3> <p>Next, the solution image will be revealed to you and you'll be asked to indicate how strong your <strong>aha-experience</strong> was after seeing the solution. This describes the positive feeling of the 'click' you sometimes experience, when the pieces of the 'puzzle' fall together and you suddenly have 'insight' in the image.</p><img src='aha.jpg' height='188' width='250'></img><p>Note that there are no right or wrong answers. We are interested in what <strong>you</strong> see in the image and how <strong>you</strong> feel about it.</p><p>Press any key to start the experiment.</p></div>","32","instructions","html-keyboard-response","5","276141","0.0-5.0","2878311","co38065","norming","","","","","","",""
"null","<div style=""font-size:60px;""> </div>","null","fixation","html-keyboard-response","6","276343","0.0-6.0-0.0","2878311","co38065","norming","","","","","","",""
"null","../img/tt/1154tt.jpg","null","mooney1","image-keyboard-response","7","279347","0.0-6.0-1.0","2878311","co38065","norming","","","","","","",""
"11773.029999998515","","","post_mooney1_questions","survey-likert","8","291124","0.0-6.0-2.0","2878311","co38065","norming","","","{""curiosity"":2,""confidence"":0}","[0,1]","../img/tt/1154tt.jpg","",""
"11661.869999999879","","","recognition","survey-text","9","302788","0.0-6.0-3.0","2878311","co38065","norming","","","{""guess"":""landscape""}","","../img/tt/1154tt.jpg","",""
"null","../img/gs/1154gs.jpg","null","reveal","image-keyboard-response","10","304794","0.0-6.0-4.0","2878311","co38065","norming","","","","","","",""
"null","../img/tt/1154tt.jpg","null","mooney2","image-keyboard-response","11","306796","0.0-6.0-5.0","2878311","co38065","norming","","","","","","",""
"4797.950000000128","","","post_reveal_questions","survey-likert","12","311596","0.0-6.0-6.0","2878311","co38065","norming","","","{""aha"":2}","[0]","../img/tt/1154tt.jpg","",""
"null","<div style=""font-size:60px;""> </div>","null","fixation","html-keyboard-response","13","311801","0.0-6.0-0.1","2878311","co38065","norming","","","","","","",""
"null","../img/tt/300tt.jpg","null","mooney1","image-keyboard-response","14","314813","0.0-6.0-1.1","2878311","co38065","norming","","","","","","",""
"5637.410000001197","","","post_mooney1_questions","survey-likert","15","320452","0.0-6.0-2.1","2878311","co38065","norming","","","{""curiosity"":2,""confidence"":2}","[0,1]","../img/tt/300tt.jpg","",""
"2790.020000000368","","","recognition","survey-text","16","323244","0.0-6.0-3.1","2878311","co38065","norming","","","{""guess"":""aap""}","","../img/tt/300tt.jpg","",""
"null","../img/gs/300gs.jpg","null","reveal","image-keyboard-response","17","325252","0.0-6.0-4.1","2878311","co38065","norming","","","","","","",""
"null","../img/tt/300tt.jpg","null","mooney2","image-keyboard-response","18","327255","0.0-6.0-5.1","2878311","co38065","norming","","","","","","",""
"3626.9350000002305","","","post_reveal_questions","survey-likert","19","330884","0.0-6.0-6.1","2878311","co38065","norming","","","{""aha"":1}","[0]","../img/tt/300tt.jpg","",""
"null","<div style=""font-size:60px;""> </div>","null","fixation","html-keyboard-response","20","331089","0.0-6.0-0.2","2878311","co38065","norming","","","","","","",""
"null","../img/tt/056tt.jpg","null","mooney1","image-keyboard-response","21","334097","0.0-6.0-1.2","2878311","co38065","norming","","","","","","",""
"4617.265000000829","","","post_mooney1_questions","survey-likert","22","338712","0.0-6.0-2.2","2878311","co38065","norming","","","{""curiosity"":2,""confidence"":3}","[0,1]","../img/tt/056tt.jpg","",""
"3790.2350000003353","","","recognition","survey-text","23","342504","0.0-6.0-3.2","2878311","co38065","norming","","","{""guess"":""wolf""}","","../img/tt/056tt.jpg","",""
"null","../img/gs/056gs.jpg","null","reveal","image-keyboard-response","24","344507","0.0-6.0-4.2","2878311","co38065","norming","","","","","","",""
"null","../img/tt/056tt.jpg","null","mooney2","image-keyboard-response","25","346515","0.0-6.0-5.2","2878311","co38065","norming","","","","","","",""
"3850.9900000008056","","","post_reveal_questions","survey-likert","26","350368","0.0-6.0-6.2","2878311","co38065","norming","","","{""aha"":1}","[0]","../img/tt/056tt.jpg","",""
"null","<div style=""font-size:60px;""> </div>","null","fixation","html-keyboard-response","27","350569","0.0-6.0-0.3","2878311","co38065","norming","","","","","","",""
"null","../img/tt/094tt.jpg","null","mooney1","image-keyboard-response","28","353576","0.0-6.0-1.3","2878311","co38065","norming","","","","","","",""
"4733.565000000468","","","post_mooney1_questions","survey-likert","29","358312","0.0-6.0-2.3","2878311","co38065","norming","","","{""curiosity"":2,""confidence"":1}","[0,1]","../img/tt/094tt.jpg","",""
"3669.745000001043","","","recognition","survey-text","30","361983","0.0-6.0-3.3","2878311","co38065","norming","","","{""guess"":""hond""}","","../img/tt/094tt.jpg","",""
"null","../img/gs/094gs.jpg","null","reveal","image-keyboard-response","31","363987","0.0-6.0-4.3","2878311","co38065","norming","","","","","","",""
"null","../img/tt/094tt.jpg","null","mooney2","image-keyboard-response","32","365988","0.0-6.0-5.3","2878311","co38065","norming","","","","","","",""
"4738.874999999069","","","post_reveal_questions","survey-likert","33","370728","0.0-6.0-6.3","2878311","co38065","norming","","","{""aha"":1}","[0]","../img/tt/094tt.jpg","",""
"null","<div style=""font-size:60px;""> </div>","null","fixation","html-keyboard-response","34","370933","0.0-6.0-0.4","2878311","co38065","norming","","","","","","",""
"null","../img/tt/522tt.jpg","null","mooney1","image-keyboard-response","35","373938","0.0-6.0-1.4","2878311","co38065","norming","","","","","","",""
"4563.364999999991","","","post_mooney1_questions","survey-likert","36","378504","0.0-6.0-2.4","2878311","co38065","norming","","","{""curiosity"":1,""confidence"":2}","[0,1]","../img/tt/522tt.jpg","",""
"2926.390000000538","","","recognition","survey-text","37","381432","0.0-6.0-3.4","2878311","co38065","norming","","","{""guess"":""kat""}","","../img/tt/522tt.jpg","",""
"null","../img/gs/522gs.jpg","null","reveal","image-keyboard-response","38","383441","0.0-6.0-4.4","2878311","co38065","norming","","","","","","",""
"null","../img/tt/522tt.jpg","null","mooney2","image-keyboard-response","39","385456","0.0-6.0-5.4","2878311","co38065","norming","","","","","","",""
"2206.9449999998906","","","post_reveal_questions","survey-likert","40","387664","0.0-6.0-6.4","2878311","co38065","norming","","","{""aha"":1}","[0]","../img/tt/522tt.jpg","",""
"null","<div style=""font-size:60px;""> </div>","null","fixation","html-keyboard-response","41","387865","0.0-6.0-0.5","2878311","co38065","norming","","","","","","",""
"null","../img/tt/163tt.jpg","null","mooney1","image-keyboard-response","42","390876","0.0-6.0-1.5","2878311","co38065","norming","","","","","","",""
"5080.860000000044","","","post_mooney1_questions","survey-likert","43","395960","0.0-6.0-2.5","2878311","co38065","norming","","","{""curiosity"":3,""confidence"":0}","[0,1]","../img/tt/163tt.jpg","",""
"4118.105000001378","","","recognition","survey-text","44","400078","0.0-6.0-3.5","2878311","co38065","norming","","","{""guess"":""""}","","../img/tt/163tt.jpg","",""
"null","../img/gs/163gs.jpg","null","reveal","image-keyboard-response","45","402080","0.0-6.0-4.5","2878311","co38065","norming","","","","","","",""
"null","../img/tt/163tt.jpg","null","mooney2","image-keyboard-response","46","404088","0.0-6.0-5.5","2878311","co38065","norming","","","","","","",""
"4453.320000000531","","","post_reveal_questions","survey-likert","47","408543","0.0-6.0-6.5","2878311","co38065","norming","","","{""aha"":2}","[0]","../img/tt/163tt.jpg","",""
"null","<div style=""font-size:60px;""> </div>","null","fixation","html-keyboard-response","48","408744","0.0-6.0-0.6","2878311","co38065","norming","","","","","","",""
"null","../img/tt/063tt.jpg","null","mooney1","image-keyboard-response","49","411755","0.0-6.0-1.6","2878311","co38065","norming","","","","","","",""
"4352.740000000282","","","post_mooney1_questions","survey-likert","50","416110","0.0-6.0-2.6","2878311","co38065","norming","","","{""curiosity"":1,""confidence"":4}","[0,1]","../img/tt/063tt.jpg","",""
"4518.314999999362","","","recognition","survey-text","51","420630","0.0-6.0-3.6","2878311","co38065","norming","","","{""guess"":""accordeon""}","","../img/tt/063tt.jpg","",""
"null","../img/gs/063gs.jpg","null","reveal","image-keyboard-response","52","422637","0.0-6.0-4.6","2878311","co38065","norming","","","","","","",""
"null","../img/tt/063tt.jpg","null","mooney2","image-keyboard-response","53","424639","0.0-6.0-5.6","2878311","co38065","norming","","","","","","",""
"3853.869999999006","","","post_reveal_questions","survey-likert","54","428494","0.0-6.0-6.6","2878311","co38065","norming","","","{""aha"":0}","[0]","../img/tt/063tt.jpg","",""
"null","<div style=""font-size:60px;""> </div>","null","fixation","html-keyboard-response","55","428698","0.0-6.0-0.7","2878311","co38065","norming","","","","","","",""
"null","../img/tt/076tt.jpg","null","mooney1","image-keyboard-response","56","431703","0.0-6.0-1.7","2878311","co38065","norming","","","","","","",""
"4301.250000000407","","","post_mooney1_questions","survey-likert","57","436006","0.0-6.0-2.7","2878311","co38065","norming","","","{""curiosity"":1,""confidence"":2}","[0,1]","../img/tt/076tt.jpg","",""
"5022.074999998964","","","recognition","survey-text","58","441030","0.0-6.0-3.7","2878311","co38065","norming","","","{""guess"":""rolschaatsen""}","","../img/tt/076tt.jpg","",""
"null","../img/gs/076gs.jpg","null","reveal","image-keyboard-response","59","443039","0.0-6.0-4.7","2878311","co38065","norming","","","","","","",""
"null","../img/tt/076tt.jpg","null","mooney2","image-keyboard-response","60","445046","0.0-6.0-5.7","2878311","co38065","norming","","","","","","",""
"3302.620000000403","","","post_reveal_questions","survey-likert","61","448350","0.0-6.0-6.7","2878311","co38065","norming","","","{""aha"":0}","[0]","../img/tt/076tt.jpg","",""
"null","<div style=""font-size:60px;""> </div>","null","fixation","html-keyboard-response","62","448555","0.0-6.0-0.8","2878311","co38065","norming","","","","","","",""
"null","../img/tt/319tt.jpg","null","mooney1","image-keyboard-response","63","451564","0.0-6.0-1.8","2878311","co38065","norming","","","","","","",""
"3649.0199999989127","","","post_mooney1_questions","survey-likert","64","455214","0.0-6.0-2.8","2878311","co38065","norming","","","{""curiosity"":1,""confidence"":1}","[0,1]","../img/tt/319tt.jpg","",""
"4622.5850000010105","","","recognition","survey-text","65","459838","0.0-6.0-3.8","2878311","co38065","norming","","","{""guess"":""zadel paard""}","","../img/tt/319tt.jpg","",""
"null","../img/gs/319gs.jpg","null","reveal","image-keyboard-response","66","461854","0.0-6.0-4.8","2878311","co38065","norming","","","","","","",""
"null","../img/tt/319tt.jpg","null","mooney2","image-keyboard-response","67","463865","0.0-6.0-5.8","2878311","co38065","norming","","","","","","",""
"2516.6900000003516","","","post_reveal_questions","survey-likert","68","466383","0.0-6.0-6.8","2878311","co38065","norming","","","{""aha"":3}","[0]","../img/tt/319tt.jpg","",""
"null","<div style=""font-size:60px;""> </div>","null","fixation","html-keyboard-response","69","466588","0.0-6.0-0.9","2878311","co38065","norming","","","","","","",""
"null","../img/tt/1232tt.jpg","null","mooney1","image-keyboard-response","70","469598","0.0-6.0-1.9","2878311","co38065","norming","","","","","","",""
"6006.395000000368","","","post_mooney1_questions","survey-likert","71","475607","0.0-6.0-2.9","2878311","co38065","norming","","","{""curiosity"":2,""confidence"":1}","[0,1]","../img/tt/1232tt.jpg","",""
"4454.104999998875","","","recognition","survey-text","72","480063","0.0-6.0-3.9","2878311","co38065","norming","","","{""guess"":""ruimte""}","","../img/tt/1232tt.jpg","",""
"null","../img/gs/1232gs.jpg","null","reveal","image-keyboard-response","73","482065","0.0-6.0-4.9","2878311","co38065","norming","","","","","","",""
"null","../img/tt/1232tt.jpg","null","mooney2","image-keyboard-response","74","484072","0.0-6.0-5.9","2878311","co38065","norming","","","","","","",""
"3765.699999999895","","","post_reveal_questions","survey-likert","75","487839","0.0-6.0-6.9","2878311","co38065","norming","","","{""aha"":2}","[0]","../img/tt/1232tt.jpg","",""
"null","<div style=""font-size:60px;""> </div>","null","fixation","html-keyboard-response","76","488044","0.0-6.0-0.10","2878311","co38065","norming","","","","","","",""
"null","../img/tt/1217tt.jpg","null","mooney1","image-keyboard-response","77","491047","0.0-6.0-1.10","2878311","co38065","norming","","","","","","",""
"3079.379999999248","","","post_mooney1_questions","survey-likert","78","494127","0.0-6.0-2.10","2878311","co38065","norming","","","{""curiosity"":1,""confidence"":1}","[0,1]","../img/tt/1217tt.jpg","",""
"2732.915000000503","","","recognition","survey-text","79","496863","0.0-6.0-3.10","2878311","co38065","norming","","","{""guess"":""koe""}","","../img/tt/1217tt.jpg","",""
"null","../img/gs/1217gs.jpg","null","reveal","image-keyboard-response","80","498871","0.0-6.0-4.10","2878311","co38065","norming","","","","","","",""
"null","../img/tt/1217tt.jpg","null","mooney2","image-keyboard-response","81","500881","0.0-6.0-5.10","2878311","co38065","norming","","","","","","",""
"3780.694999999483","","","post_reveal_questions","survey-likert","82","504663","0.0-6.0-6.10","2878311","co38065","norming","","","{""aha"":3}","[0]","../img/tt/1217tt.jpg","",""
"null","<div style=""font-size:60px;""> </div>","null","fixation","html-keyboard-response","83","504865","0.0-6.0-0.11","2878311","co38065","norming","","","","","","",""
"null","../img/tt/1278tt.jpg","null","mooney1","image-keyboard-response","84","507872","0.0-6.0-1.11","2878311","co38065","norming","","","","","","",""
"4252.630000000878","","","post_mooney1_questions","survey-likert","85","512127","0.0-6.0-2.11","2878311","co38065","norming","","","{""curiosity"":2,""confidence"":0}","[0,1]","../img/tt/1278tt.jpg","",""
"1118.1199999991804","","","recognition","survey-text","86","513247","0.0-6.0-3.11","2878311","co38065","norming","","","{""guess"":""""}","","../img/tt/1278tt.jpg","",""
"null","../img/gs/1278gs.jpg","null","reveal","image-keyboard-response","87","515251","0.0-6.0-4.11","2878311","co38065","norming","","","","","","",""
"null","../img/tt/1278tt.jpg","null","mooney2","image-keyboard-response","88","517253","0.0-6.0-5.11","2878311","co38065","norming","","","","","","",""
"17056.16000000015","","","post_reveal_questions","survey-likert","89","534311","0.0-6.0-6.11","2878311","co38065","norming","","","{""aha"":3}","[0]","../img/tt/1278tt.jpg","",""
"null","<div style=""font-size:60px;""> </div>","null","fixation","html-keyboard-response","90","534514","0.0-6.0-0.12","2878311","co38065","norming","","","","","","",""
"null","../img/tt/301tt.jpg","null","mooney1","image-keyboard-response","91","537525","0.0-6.0-1.12","2878311","co38065","norming","","","","","","",""
"3199.564999999013","","","post_mooney1_questions","survey-likert","92","540727","0.0-6.0-2.12","2878311","co38065","norming","","","{""curiosity"":1,""confidence"":1}","[0,1]","../img/tt/301tt.jpg","",""
"4126.114999999059","","","recognition","survey-text","93","544855","0.0-6.0-3.12","2878311","co38065","norming","","","{""guess"":""raam ""}","","../img/tt/301tt.jpg","",""
"null","../img/gs/301gs.jpg","null","reveal","image-keyboard-response","94","546858","0.0-6.0-4.12","2878311","co38065","norming","","","","","","",""
"null","../img/tt/301tt.jpg","null","mooney2","image-keyboard-response","95","548860","0.0-6.0-5.12","2878311","co38065","norming","","","","","","",""
"2985.179999999702","","","post_reveal_questions","survey-likert","96","551847","0.0-6.0-6.12","2878311","co38065","norming","","","{""aha"":2}","[0]","../img/tt/301tt.jpg","",""
"null","<div style=""font-size:60px;""> </div>","null","fixation","html-keyboard-response","97","552058","0.0-6.0-0.13","2878311","co38065","norming","","","","","","",""
"null","../img/tt/098tt.jpg","null","mooney1","image-keyboard-response","98","555068","0.0-6.0-1.13","2878311","co38065","norming","","","","","","",""
"3904.884999999893","","","post_mooney1_questions","survey-likert","99","558975","0.0-6.0-2.13","2878311","co38065","norming","","","{""curiosity"":2,""confidence"":0}","[0,1]","../img/tt/098tt.jpg","",""
"902.285000000149","","","recognition","survey-text","100","559879","0.0-6.0-3.13","2878311","co38065","norming","","","{""guess"":""""}","","../img/tt/098tt.jpg","",""
"null","../img/gs/098gs.jpg","null","reveal","image-keyboard-response","101","561881","0.0-6.0-4.13","2878311","co38065","norming","","","","","","",""
"null","../img/tt/098tt.jpg","null","mooney2","image-keyboard-response","102","563890","0.0-6.0-5.13","2878311","co38065","norming","","","","","","",""
"4675.199999999721","","","post_reveal_questions","survey-likert","103","568567","0.0-6.0-6.13","2878311","co38065","norming","","","{""aha"":2}","[0]","../img/tt/098tt.jpg","",""
"null","<div style=""font-size:60px;""> </div>","null","fixation","html-keyboard-response","104","568775","0.0-6.0-0.14","2878311","co38065","norming","","","","","","",""
"null","../img/tt/603tt.jpg","null","mooney1","image-keyboard-response","105","571781","0.0-6.0-1.14","2878311","co38065","norming","","","","","","",""
"3800.070000001113","","","post_mooney1_questions","survey-likert","106","575583","0.0-6.0-2.14","2878311","co38065","norming","","","{""curiosity"":1,""confidence"":2}","[0,1]","../img/tt/603tt.jpg","",""
"2374.024999999092","","","recognition","survey-text","107","577959","0.0-6.0-3.14","2878311","co38065","norming","","","{""guess"":""kat""}","","../img/tt/603tt.jpg","",""
"null","../img/gs/603gs.jpg","null","reveal","image-keyboard-response","108","579968","0.0-6.0-4.14","2878311","co38065","norming","","","","","","",""
"null","../img/tt/603tt.jpg","null","mooney2","image-keyboard-response","109","581976","0.0-6.0-5.14","2878311","co38065","norming","","","","","","",""
"2830.239999999292","","","post_reveal_questions","survey-likert","110","584807","0.0-6.0-6.14","2878311","co38065","norming","","","{""aha"":1}","[0]","../img/tt/603tt.jpg","",""
"null","<div style=""font-size:60px;""> </div>","null","fixation","html-keyboard-response","111","585009","0.0-6.0-0.15","2878311","co38065","norming","","","","","","",""
"null","../img/tt/1186tt.jpg","null","mooney1","image-keyboard-response","112","588018","0.0-6.0-1.15","2878311","co38065","norming","","","","","","",""
"3348.0399999989895","","","post_mooney1_questions","survey-likert","113","591367","0.0-6.0-2.15","2878311","co38065","norming","","","{""curiosity"":1,""confidence"":2}","[0,1]","../img/tt/1186tt.jpg","",""
"3446.0150000012945","","","recognition","survey-text","114","594813","0.0-6.0-3.15","2878311","co38065","norming","","","{""guess"":""wandelaar""}","","../img/tt/1186tt.jpg","",""
"null","../img/gs/1186gs.jpg","null","reveal","image-keyboard-response","115","596824","0.0-6.0-4.15","2878311","co38065","norming","","","","","","",""
"null","../img/tt/1186tt.jpg","null","mooney2","image-keyboard-response","116","598826","0.0-6.0-5.15","2878311","co38065","norming","","","","","","",""
"2833.109999999637","","","post_reveal_questions","survey-likert","117","601661","0.0-6.0-6.15","2878311","co38065","norming","","","{""aha"":3}","[0]","../img/tt/1186tt.jpg","",""
"null","<div style=""font-size:60px;""> </div>","null","fixation","html-keyboard-response","118","601872","0.0-6.0-0.16","2878311","co38065","norming","","","","","","",""
"null","../img/tt/052tt.jpg","null","mooney1","image-keyboard-response","119","604881","0.0-6.0-1.16","2878311","co38065","norming","","","","","","",""
"5417.054999999935","","","post_mooney1_questions","survey-likert","120","610301","0.0-6.0-2.16","2878311","co38065","norming","","","{""curiosity"":1,""confidence"":2}","[0,1]","../img/tt/052tt.jpg","",""
"4229.77499999979","","","recognition","survey-text","121","614533","0.0-6.0-3.16","2878311","co38065","norming","","","{""guess"":""riem""}","","../img/tt/052tt.jpg","",""
"null","../img/gs/052gs.jpg","null","reveal","image-keyboard-response","122","616543","0.0-6.0-4.16","2878311","co38065","norming","","","","","","",""
"null","../img/tt/052tt.jpg","null","mooney2","image-keyboard-response","123","618549","0.0-6.0-5.16","2878311","co38065","norming","","","","","","",""
"3485.0349999996834","","","post_reveal_questions","survey-likert","124","622036","0.0-6.0-6.16","2878311","co38065","norming","","","{""aha"":2}","[0]","../img/tt/052tt.jpg","",""
"null","<div style=""font-size:60px;""> </div>","null","fixation","html-keyboard-response","125","622240","0.0-6.0-0.17","2878311","co38065","norming","","","","","","",""
"null","../img/tt/078tt.jpg","null","mooney1","image-keyboard-response","126","625248","0.0-6.0-1.17","2878311","co38065","norming","","","","","","",""
"4290.219999998924","","","post_mooney1_questions","survey-likert","127","629541","0.0-6.0-2.17","2878311","co38065","norming","","","{""curiosity"":3,""confidence"":1}","[0,1]","../img/tt/078tt.jpg","",""
"4206.145000000019","","","recognition","survey-text","128","633749","0.0-6.0-3.17","2878311","co38065","norming","","","{""guess"":""schaap""}","","../img/tt/078tt.jpg","",""
"null","../img/gs/078gs.jpg","null","reveal","image-keyboard-response","129","635754","0.0-6.0-4.17","2878311","co38065","norming","","","","","","",""
"null","../img/tt/078tt.jpg","null","mooney2","image-keyboard-response","130","637757","0.0-6.0-5.17","2878311","co38065","norming","","","","","","",""
"3189.470000001136","","","post_reveal_questions","survey-likert","131","640949","0.0-6.0-6.17","2878311","co38065","norming","","","{""aha"":3}","[0]","../img/tt/078tt.jpg","",""
"null","<div style=""font-size:60px;""> </div>","null","fixation","html-keyboard-response","132","641151","0.0-6.0-0.18","2878311","co38065","norming","","","","","","",""
"null","../img/tt/1046tt.jpg","null","mooney1","image-keyboard-response","133","644155","0.0-6.0-1.18","2878311","co38065","norming","","","","","","",""
"4591.60999999952","","","post_mooney1_questions","survey-likert","134","648749","0.0-6.0-2.18","2878311","co38065","norming","","","{""curiosity"":1,""confidence"":0}","[0,1]","../img/tt/1046tt.jpg","",""
"1006.0450000001583","","","recognition","survey-text","135","649757","0.0-6.0-3.18","2878311","co38065","norming","","","{""guess"":""""}","","../img/tt/1046tt.jpg","",""
"null","../img/gs/1046gs.jpg","null","reveal","image-keyboard-response","136","651763","0.0-6.0-4.18","2878311","co38065","norming","","","","","","",""
"null","../img/tt/1046tt.jpg","null","mooney2","image-keyboard-response","137","653774","0.0-6.0-5.18","2878311","co38065","norming","","","","","","",""
"3273.6999999997206","","","post_reveal_questions","survey-likert","138","657049","0.0-6.0-6.18","2878311","co38065","norming","","","{""aha"":2}","[0]","../img/tt/1046tt.jpg","",""
"null","<div style=""font-size:60px;""> </div>","null","fixation","html-keyboard-response","139","657251","0.0-6.0-0.19","2878311","co38065","norming","","","","","","",""
"null","../img/tt/515tt.jpg","null","mooney1","image-keyboard-response","140","660260","0.0-6.0-1.19","2878311","co38065","norming","","","","","","",""
"3914.8950000016484","","","post_mooney1_questions","survey-likert","141","664177","0.0-6.0-2.19","2878311","co38065","norming","","","{""curiosity"":2,""confidence"":1}","[0,1]","../img/tt/515tt.jpg","",""
"3350.1550000001444","","","recognition","survey-text","142","667529","0.0-6.0-3.19","2878311","co38065","norming","","","{""guess"":""panda""}","","../img/tt/515tt.jpg","",""
"null","../img/gs/515gs.jpg","null","reveal","image-keyboard-response","143","669531","0.0-6.0-4.19","2878311","co38065","norming","","","","","","",""
"null","../img/tt/515tt.jpg","null","mooney2","image-keyboard-response","144","671533","0.0-6.0-5.19","2878311","co38065","norming","","","","","","",""
"3954.2750000000233","","","post_reveal_questions","survey-likert","145","675489","0.0-6.0-6.19","2878311","co38065","norming","","","{""aha"":2}","[0]","../img/tt/515tt.jpg","",""
"null","<div style=""font-size:60px;""> </div>","null","fixation","html-keyboard-response","146","675691","0.0-6.0-0.20","2878311","co38065","norming","","","","","","",""
"null","../img/tt/549tt.jpg","null","mooney1","image-keyboard-response","147","678694","0.0-6.0-1.20","2878311","co38065","norming","","","","","","",""
"4128.565000000875","","","post_mooney1_questions","survey-likert","148","682825","0.0-6.0-2.20","2878311","co38065","norming","","","{""curiosity"":2,""confidence"":0}","[0,1]","../img/tt/549tt.jpg","",""
"1301.8850000008242","","","recognition","survey-text","149","684129","0.0-6.0-3.20","2878311","co38065","norming","","","{""guess"":""""}","","../img/tt/549tt.jpg","",""
"null","../img/gs/549gs.jpg","null","reveal","image-keyboard-response","150","686130","0.0-6.0-4.20","2878311","co38065","norming","","","","","","",""
"null","../img/tt/549tt.jpg","null","mooney2","image-keyboard-response","151","688138","0.0-6.0-5.20","2878311","co38065","norming","","","","","","",""
"6541.414999999688","","","post_reveal_questions","survey-likert","152","694681","0.0-6.0-6.20","2878311","co38065","norming","","","{""aha"":1}","[0]","../img/tt/549tt.jpg","",""
"null","<div style=""font-size:60px;""> </div>","null","fixation","html-keyboard-response","153","694883","0.0-6.0-0.21","2878311","co38065","norming","","","","","","",""
"null","../img/tt/1224tt.jpg","null","mooney1","image-keyboard-response","154","697894","0.0-6.0-1.21","2878311","co38065","norming","","","","","","",""
"5640.699999999953","","","post_mooney1_questions","survey-likert","155","703537","0.0-6.0-2.21","2878311","co38065","norming","","","{""curiosity"":2,""confidence"":0}","[0,1]","../img/tt/1224tt.jpg","",""
"1606.1800000006333","","","recognition","survey-text","156","705145","0.0-6.0-3.21","2878311","co38065","norming","","","{""guess"":""""}","","../img/tt/1224tt.jpg","",""
"null","../img/gs/1224gs.jpg","null","reveal","image-keyboard-response","157","707148","0.0-6.0-4.21","2878311","co38065","norming","","","","","","",""
"null","../img/tt/1224tt.jpg","null","mooney2","image-keyboard-response","158","709152","0.0-6.0-5.21","2878311","co38065","norming","","","","","","",""
"2910.615000000689","","","post_reveal_questions","survey-likert","159","712065","0.0-6.0-6.21","2878311","co38065","norming","","","{""aha"":1}","[0]","../img/tt/1224tt.jpg","",""
"null","<div style=""font-size:60px;""> </div>","null","fixation","html-keyboard-response","160","712267","0.0-6.0-0.22","2878311","co38065","norming","","","","","","",""
"null","../img/tt/1024tt.jpg","null","mooney1","image-keyboard-response","161","715277","0.0-6.0-1.22","2878311","co38065","norming","","","","","","",""
"6409.609999998822","","","post_mooney1_questions","survey-likert","162","721690","0.0-6.0-2.22","2878311","co38065","norming","","","{""curiosity"":2,""confidence"":1}","[0,1]","../img/tt/1024tt.jpg","",""
"5046.1250000006985","","","recognition","survey-text","163","726737","0.0-6.0-3.22","2878311","co38065","norming","","","{""guess"":""rolstoel""}","","../img/tt/1024tt.jpg","",""
"null","../img/gs/1024gs.jpg","null","reveal","image-keyboard-response","164","728745","0.0-6.0-4.22","2878311","co38065","norming","","","","","","",""
"null","../img/tt/1024tt.jpg","null","mooney2","image-keyboard-response","165","730747","0.0-6.0-5.22","2878311","co38065","norming","","","","","","",""
"4132.0850000010105","","","post_reveal_questions","survey-likert","166","734881","0.0-6.0-6.22","2878311","co38065","norming","","","{""aha"":3}","[0]","../img/tt/1024tt.jpg","",""
"null","<div style=""font-size:60px;""> </div>","null","fixation","html-keyboard-response","167","735083","0.0-6.0-0.23","2878311","co38065","norming","","","","","","",""
"null","../img/tt/1236tt.jpg","null","mooney1","image-keyboard-response","168","738089","0.0-6.0-1.23","2878311","co38065","norming","","","","","","",""
"4591.454999999725","","","post_mooney1_questions","survey-likert","169","742682","0.0-6.0-2.23","2878311","co38065","norming","","","{""curiosity"":2,""confidence"":0}","[0,1]","../img/tt/1236tt.jpg","",""
"1669.4299999999348","","","recognition","survey-text","170","744353","0.0-6.0-3.23","2878311","co38065","norming","","","{""guess"":""""}","","../img/tt/1236tt.jpg","",""
"null","../img/gs/1236gs.jpg","null","reveal","image-keyboard-response","171","746359","0.0-6.0-4.23","2878311","co38065","norming","","","","","","",""
"null","../img/tt/1236tt.jpg","null","mooney2","image-keyboard-response","172","748362","0.0-6.0-5.23","2878311","co38065","norming","","","","","","",""
"4733.584999999963","","","post_reveal_questions","survey-likert","173","753097","0.0-6.0-6.23","2878311","co38065","norming","","","{""aha"":2}","[0]","../img/tt/1236tt.jpg","",""
"null","<div style=""font-size:60px;""> </div>","null","fixation","html-keyboard-response","174","753298","0.0-6.0-0.24","2878311","co38065","norming","","","","","","",""
"null","../img/tt/1309tt.jpg","null","mooney1","image-keyboard-response","175","756305","0.0-6.0-1.24","2878311","co38065","norming","","","","","","",""
"4630.670000000508","","","post_mooney1_questions","survey-likert","176","760937","0.0-6.0-2.24","2878311","co38065","norming","","","{""curiosity"":1,""confidence"":0}","[0,1]","../img/tt/1309tt.jpg","",""
"974.1699999995762","","","recognition","survey-text","177","761913","0.0-6.0-3.24","2878311","co38065","norming","","","{""guess"":""""}","","../img/tt/1309tt.jpg","",""
"null","../img/gs/1309gs.jpg","null","reveal","image-keyboard-response","178","763915","0.0-6.0-4.24","2878311","co38065","norming","","","","","","",""
"null","../img/tt/1309tt.jpg","null","mooney2","image-keyboard-response","179","765925","0.0-6.0-5.24","2878311","co38065","norming","","","","","","",""
"3202.4599999985658","","","post_reveal_questions","survey-likert","180","769129","0.0-6.0-6.24","2878311","co38065","norming","","","{""aha"":2}","[0]","../img/tt/1309tt.jpg","",""
"null","<div style=""font-size:60px;""> </div>","null","fixation","html-keyboard-response","181","769340","0.0-6.0-0.25","2878311","co38065","norming","","","","","","",""
"null","../img/tt/080tt.jpg","null","mooney1","image-keyboard-response","182","772347","0.0-6.0-1.25","2878311","co38065","norming","","","","","","",""
"5659.20999999973","","","post_mooney1_questions","survey-likert","183","778010","0.0-6.0-2.25","2878311","co38065","norming","","","{""curiosity"":2,""confidence"":1}","[0,1]","../img/tt/080tt.jpg","",""
"3438.08499999973","","","recognition","survey-text","184","781450","0.0-6.0-3.25","2878311","co38065","norming","","","{""guess"":""ei""}","","../img/tt/080tt.jpg","",""
"null","../img/gs/080gs.jpg","null","reveal","image-keyboard-response","185","783456","0.0-6.0-4.25","2878311","co38065","norming","","","","","","",""
"null","../img/tt/080tt.jpg","null","mooney2","image-keyboard-response","186","785466","0.0-6.0-5.25","2878311","co38065","norming","","","","","","",""
"3053.754999998957","","","post_reveal_questions","survey-likert","187","788522","0.0-6.0-6.25","2878311","co38065","norming","","","{""aha"":1}","[0]","../img/tt/080tt.jpg","",""
"null","<div style=""font-size:60px;""> </div>","null","fixation","html-keyboard-response","188","788725","0.0-6.0-0.26","2878311","co38065","norming","","","","","","",""
"null","../img/tt/1362tt.jpg","null","mooney1","image-keyboard-response","189","791734","0.0-6.0-1.26","2878311","co38065","norming","","","","","","",""
"6025.099999998929","","","post_mooney1_questions","survey-likert","190","797762","0.0-6.0-2.26","2878311","co38065","norming","","","{""curiosity"":2,""confidence"":0}","[0,1]","../img/tt/1362tt.jpg","",""
"6926.030000000494","","","recognition","survey-text","191","804690","0.0-6.0-3.26","2878311","co38065","norming","","","{""guess"":""doos""}","","../img/tt/1362tt.jpg","",""
"null","../img/gs/1362gs.jpg","null","reveal","image-keyboard-response","192","806692","0.0-6.0-4.26","2878311","co38065","norming","","","","","","",""
"null","../img/tt/1362tt.jpg","null","mooney2","image-keyboard-response","193","808694","0.0-6.0-5.26","2878311","co38065","norming","","","","","","",""
"3138.079999998794","","","post_reveal_questions","survey-likert","194","811834","0.0-6.0-6.26","2878311","co38065","norming","","","{""aha"":1}","[0]","../img/tt/1362tt.jpg","",""
"null","<div style=""font-size:60px;""> </div>","null","fixation","html-keyboard-response","195","812039","0.0-6.0-0.27","2878311","co38065","norming","","","","","","",""
"null","../img/tt/082tt.jpg","null","mooney1","image-keyboard-response","196","815045","0.0-6.0-1.27","2878311","co38065","norming","","","","","","",""
"9468.759999999776","","","post_mooney1_questions","survey-likert","197","824514","0.0-6.0-2.27","2878311","co38065","norming","","","{""curiosity"":1,""confidence"":0}","[0,1]","../img/tt/082tt.jpg","",""
"2397.870000000694","","","recognition","survey-text","198","826914","0.0-6.0-3.27","2878311","co38065","norming","","","{""guess"":""""}","","../img/tt/082tt.jpg","",""
"null","../img/gs/082gs.jpg","null","reveal","image-keyboard-response","199","828922","0.0-6.0-4.27","2878311","co38065","norming","","","","","","",""
"null","../img/tt/082tt.jpg","null","mooney2","image-keyboard-response","200","830924","0.0-6.0-5.27","2878311","co38065","norming","","","","","","",""
"3963.9900000002235","","","post_reveal_questions","survey-likert","201","834890","0.0-6.0-6.27","2878311","co38065","norming","","","{""aha"":1}","[0]","../img/tt/082tt.jpg","",""
"null","<div style=""font-size:60px;""> </div>","null","fixation","html-keyboard-response","202","835096","0.0-6.0-0.28","2878311","co38065","norming","","","","","","",""
"null","../img/tt/055tt.jpg","null","mooney1","image-keyboard-response","203","838105","0.0-6.0-1.28","2878311","co38065","norming","","","","","","",""
"5176.300000001094","","","post_mooney1_questions","survey-likert","204","843283","0.0-6.0-2.28","2878311","co38065","norming","","","{""curiosity"":2,""confidence"":1}","[0,1]","../img/tt/055tt.jpg","",""
"4782.070000001113","","","recognition","survey-text","205","848067","0.0-6.0-3.28","2878311","co38065","norming","","","{""guess"":""horse""}","","../img/tt/055tt.jpg","",""
"null","../img/gs/055gs.jpg","null","reveal","image-keyboard-response","206","850068","0.0-6.0-4.28","2878311","co38065","norming","","","","","","",""
"null","../img/tt/055tt.jpg","null","mooney2","image-keyboard-response","207","852074","0.0-6.0-5.28","2878311","co38065","norming","","","","","","",""
"8191.849999999162","","","post_reveal_questions","survey-likert","208","860267","0.0-6.0-6.28","2878311","co38065","norming","","","{""aha"":2}","[0]","../img/tt/055tt.jpg","",""
"null","<div style=""font-size:60px;""> </div>","null","fixation","html-keyboard-response","209","860468","0.0-6.0-0.29","2878311","co38065","norming","","","","","","",""
"null","../img/tt/1037tt.jpg","null","mooney1","image-keyboard-response","210","863473","0.0-6.0-1.29","2878311","co38065","norming","","","","","","",""
"3766.6549999995623","","","post_mooney1_questions","survey-likert","211","867243","0.0-6.0-2.29","2878311","co38065","norming","","","{""curiosity"":1,""confidence"":1}","[0,1]","../img/tt/1037tt.jpg","",""
"4117.949999999953","","","recognition","survey-text","212","871362","0.0-6.0-3.29","2878311","co38065","norming","","","{""guess"":""eekhoorn""}","","../img/tt/1037tt.jpg","",""
"null","../img/gs/1037gs.jpg","null","reveal","image-keyboard-response","213","873364","0.0-6.0-4.29","2878311","co38065","norming","","","","","","",""
"null","../img/tt/1037tt.jpg","null","mooney2","image-keyboard-response","214","875366","0.0-6.0-5.29","2878311","co38065","norming","","","","","","",""
"4666.195000001579","","","post_reveal_questions","survey-likert","215","880034","0.0-6.0-6.29","2878311","co38065","norming","","","{""aha"":1}","[0]","../img/tt/1037tt.jpg","",""
"null","<div style=""font-size:60px;""> </div>","null","fixation","html-keyboard-response","216","880235","0.0-6.0-0.30","2878311","co38065","norming","","","","","","",""
"null","../img/tt/1260tt.jpg","null","mooney1","image-keyboard-response","217","883245","0.0-6.0-1.30","2878311","co38065","norming","","","","","","",""
"3100.6099999995204","","","post_mooney1_questions","survey-likert","218","886347","0.0-6.0-2.30","2878311","co38065","norming","","","{""curiosity"":1,""confidence"":1}","[0,1]","../img/tt/1260tt.jpg","",""
"3069.9899999999907","","","recognition","survey-text","219","889418","0.0-6.0-3.30","2878311","co38065","norming","","","{""guess"":""hond""}","","../img/tt/1260tt.jpg","",""
"null","../img/gs/1260gs.jpg","null","reveal","image-keyboard-response","220","891428","0.0-6.0-4.30","2878311","co38065","norming","","","","","","",""
"null","../img/tt/1260tt.jpg","null","mooney2","image-keyboard-response","221","893436","0.0-6.0-5.30","2878311","co38065","norming","","","","","","",""
"4860.27999999898","","","post_reveal_questions","survey-likert","222","898294","0.0-6.0-6.30","2878311","co38065","norming","","","{""aha"":1}","[0]","../img/tt/1260tt.jpg","",""
"null","<div style=""font-size:60px;""> </div>","null","fixation","html-keyboard-response","223","898498","0.0-6.0-0.31","2878311","co38065","norming","","","","","","",""
"null","../img/tt/1251tt.jpg","null","mooney1","image-keyboard-response","224","901502","0.0-6.0-1.31","2878311","co38065","norming","","","","","","",""
"7373.910000000149","","","post_mooney1_questions","survey-likert","225","908879","0.0-6.0-2.31","2878311","co38065","norming","","","{""curiosity"":1,""confidence"":0}","[0,1]","../img/tt/1251tt.jpg","",""
"621.9200000014389","","","recognition","survey-text","226","909502","0.0-6.0-3.31","2878311","co38065","norming","","","{""guess"":""""}","","../img/tt/1251tt.jpg","",""
"null","../img/gs/1251gs.jpg","null","reveal","image-keyboard-response","227","911512","0.0-6.0-4.31","2878311","co38065","norming","","","","","","",""
"null","../img/tt/1251tt.jpg","null","mooney2","image-keyboard-response","228","913516","0.0-6.0-5.31","2878311","co38065","norming","","","","","","",""
"3368.9049999993294","","","post_reveal_questions","survey-likert","229","916886","0.0-6.0-6.31","2878311","co38065","norming","","","{""aha"":2}","[0]","../img/tt/1251tt.jpg","",""
"null","<div style=""font-size:60px;""> </div>","null","fixation","html-keyboard-response","230","917088","0.0-6.0-0.32","2878311","co38065","norming","","","","","","",""
"null","../img/tt/1202tt.jpg","null","mooney1","image-keyboard-response","231","920089","0.0-6.0-1.32","2878311","co38065","norming","","","","","","",""
"5259.774999998743","","","post_mooney1_questions","survey-likert","232","925350","0.0-6.0-2.32","2878311","co38065","norming","","","{""curiosity"":2,""confidence"":0}","[0,1]","../img/tt/1202tt.jpg","",""
"782.005000000936","","","recognition","survey-text","233","926134","0.0-6.0-3.32","2878311","co38065","norming","","","{""guess"":""""}","","../img/tt/1202tt.jpg","",""
"null","../img/gs/1202gs.jpg","null","reveal","image-keyboard-response","234","928137","0.0-6.0-4.32","2878311","co38065","norming","","","","","","",""
"null","../img/tt/1202tt.jpg","null","mooney2","image-keyboard-response","235","930147","0.0-6.0-5.32","2878311","co38065","norming","","","","","","",""
"4570.219999999623","","","post_reveal_questions","survey-likert","236","934718","0.0-6.0-6.32","2878311","co38065","norming","","","{""aha"":1}","[0]","../img/tt/1202tt.jpg","",""
"null","<div style=""font-size:60px;""> </div>","null","fixation","html-keyboard-response","237","934922","0.0-6.0-0.33","2878311","co38065","norming","","","","","","",""
"null","../img/tt/412tt.jpg","null","mooney1","image-keyboard-response","238","937926","0.0-6.0-1.33","2878311","co38065","norming","","","","","","",""
"3503.015000000247","","","post_mooney1_questions","survey-likert","239","941430","0.0-6.0-2.33","2878311","co38065","norming","","","{""curiosity"":2,""confidence"":1}","[0,1]","../img/tt/412tt.jpg","",""
"3846.0049999994226","","","recognition","survey-text","240","945278","0.0-6.0-3.33","2878311","co38065","norming","","","{""guess"":""fles""}","","../img/tt/412tt.jpg","",""
"null","../img/gs/412gs.jpg","null","reveal","image-keyboard-response","241","947279","0.0-6.0-4.33","2878311","co38065","norming","","","","","","",""
"null","../img/tt/412tt.jpg","null","mooney2","image-keyboard-response","242","949288","0.0-6.0-5.33","2878311","co38065","norming","","","","","","",""
"2877.375","","","post_reveal_questions","survey-likert","243","952166","0.0-6.0-6.33","2878311","co38065","norming","","","{""aha"":2}","[0]","../img/tt/412tt.jpg","",""
"null","<div style=""font-size:60px;""> </div>","null","fixation","html-keyboard-response","244","952375","0.0-6.0-0.34","2878311","co38065","norming","","","","","","",""
"null","../img/tt/1269tt.jpg","null","mooney1","image-keyboard-response","245","955384","0.0-6.0-1.34","2878311","co38065","norming","","","","","","",""
"4443.649999999208","","","post_mooney1_questions","survey-likert","246","959828","0.0-6.0-2.34","2878311","co38065","norming","","","{""curiosity"":2,""confidence"":1}","[0,1]","../img/tt/1269tt.jpg","",""
"3190.0350000014296","","","recognition","survey-text","247","963020","0.0-6.0-3.34","2878311","co38065","norming","","","{""guess"":""koala""}","","../img/tt/1269tt.jpg","",""
"null","../img/gs/1269gs.jpg","null","reveal","image-keyboard-response","248","965024","0.0-6.0-4.34","2878311","co38065","norming","","","","","","",""
"null","../img/tt/1269tt.jpg","null","mooney2","image-keyboard-response","249","967033","0.0-6.0-5.34","2878311","co38065","norming","","","","","","",""
"4784.910000000265","","","post_reveal_questions","survey-likert","250","971820","0.0-6.0-6.34","2878311","co38065","norming","","","{""aha"":1}","[0]","../img/tt/1269tt.jpg","",""
"null","<div style=""font-size:60px;""> </div>","null","fixation","html-keyboard-response","251","972023","0.0-6.0-0.35","2878311","co38065","norming","","","","","","",""
"null","../img/tt/1122tt.jpg","null","mooney1","image-keyboard-response","252","975026","0.0-6.0-1.35","2878311","co38065","norming","","","","","","",""
"4063.2499999993015","","","post_mooney1_questions","survey-likert","253","979092","0.0-6.0-2.35","2878311","co38065","norming","","","{""curiosity"":1,""confidence"":2}","[0,1]","../img/tt/1122tt.jpg","",""
"2901.669999999227","","","recognition","survey-text","254","981996","0.0-6.0-3.35","2878311","co38065","norming","","","{""guess"":""auto""}","","../img/tt/1122tt.jpg","",""
"null","../img/gs/1122gs.jpg","null","reveal","image-keyboard-response","255","984002","0.0-6.0-4.35","2878311","co38065","norming","","","","","","",""
"null","../img/tt/1122tt.jpg","null","mooney2","image-keyboard-response","256","986011","0.0-6.0-5.35","2878311","co38065","norming","","","","","","",""
"3168.1950000001816","","","post_reveal_questions","survey-likert","257","989180","0.0-6.0-6.35","2878311","co38065","norming","","","{""aha"":2}","[0]","../img/tt/1122tt.jpg","",""
"null","<div style=""font-size:60px;""> </div>","null","fixation","html-keyboard-response","258","989383","0.0-6.0-0.36","2878311","co38065","norming","","","","","","",""
"null","../img/tt/046tt.jpg","null","mooney1","image-keyboard-response","259","992388","0.0-6.0-1.36","2878311","co38065","norming","","","","","","",""
"5821.879999999423","","","post_mooney1_questions","survey-likert","260","998212","0.0-6.0-2.36","2878311","co38065","norming","","","{""curiosity"":0,""confidence"":1}","[0,1]","../img/tt/046tt.jpg","",""
"2989.810000000987","","","recognition","survey-text","261","1001204","0.0-6.0-3.36","2878311","co38065","norming","","","{""guess"":""hond""}","","../img/tt/046tt.jpg","",""
"null","../img/gs/046gs.jpg","null","reveal","image-keyboard-response","262","1003211","0.0-6.0-4.36","2878311","co38065","norming","","","","","","",""
"null","../img/tt/046tt.jpg","null","mooney2","image-keyboard-response","263","1005222","0.0-6.0-5.36","2878311","co38065","norming","","","","","","",""
"2075.7100000010105","","","post_reveal_questions","survey-likert","264","1007300","0.0-6.0-6.36","2878311","co38065","norming","","","{""aha"":3}","[0]","../img/tt/046tt.jpg","",""
"null","<div style=""font-size:60px;""> </div>","null","fixation","html-keyboard-response","265","1007502","0.0-6.0-0.37","2878311","co38065","norming","","","","","","",""
"null","../img/tt/353tt.jpg","null","mooney1","image-keyboard-response","266","1010505","0.0-6.0-1.37","2878311","co38065","norming","","","","","","",""
"5248.35999999952","","","post_mooney1_questions","survey-likert","267","1015756","0.0-6.0-2.37","2878311","co38065","norming","","","{""curiosity"":1,""confidence"":1}","[0,1]","../img/tt/353tt.jpg","",""
"3502.0499999991152","","","recognition","survey-text","268","1019259","0.0-6.0-3.37","2878311","co38065","norming","","","{""guess"":""pinguin""}","","../img/tt/353tt.jpg","",""
"null","../img/gs/353gs.jpg","null","reveal","image-keyboard-response","269","1021264","0.0-6.0-4.37","2878311","co38065","norming","","","","","","",""
"null","../img/tt/353tt.jpg","null","mooney2","image-keyboard-response","270","1023267","0.0-6.0-5.37","2878311","co38065","norming","","","","","","",""
"2748.070000001462","","","post_reveal_questions","survey-likert","271","1026019","0.0-6.0-6.37","2878311","co38065","norming","","","{""aha"":1}","[0]","../img/tt/353tt.jpg","",""
"null","<div style=""font-size:60px;""> </div>","null","fixation","html-keyboard-response","272","1026226","0.0-6.0-0.38","2878311","co38065","norming","","","","","","",""
"null","../img/tt/081tt.jpg","null","mooney1","image-keyboard-response","273","1029229","0.0-6.0-1.38","2878311","co38065","norming","","","","","","",""
"4043.3399999983376","","","post_mooney1_questions","survey-likert","274","1033275","0.0-6.0-2.38","2878311","co38065","norming","","","{""curiosity"":1,""confidence"":1}","[0,1]","../img/tt/081tt.jpg","",""
"3350.1700000015553","","","recognition","survey-text","275","1036627","0.0-6.0-3.38","2878311","co38065","norming","","","{""guess"":""hond""}","","../img/tt/081tt.jpg","",""
"null","../img/gs/081gs.jpg","null","reveal","image-keyboard-response","276","1038629","0.0-6.0-4.38","2878311","co38065","norming","","","","","","",""
"null","../img/tt/081tt.jpg","null","mooney2","image-keyboard-response","277","1040631","0.0-6.0-5.38","2878311","co38065","norming","","","","","","",""
"2881.914999999921","","","post_reveal_questions","survey-likert","278","1043515","0.0-6.0-6.38","2878311","co38065","norming","","","{""aha"":2}","[0]","../img/tt/081tt.jpg","",""
"null","<div style=""font-size:60px;""> </div>","null","fixation","html-keyboard-response","279","1043720","0.0-6.0-0.39","2878311","co38065","norming","","","","","","",""
"null","../img/tt/296tt.jpg","null","mooney1","image-keyboard-response","280","1046730","0.0-6.0-1.39","2878311","co38065","norming","","","","","","",""
"3918.185000000405","","","post_mooney1_questions","survey-likert","281","1050651","0.0-6.0-2.39","2878311","co38065","norming","","","{""curiosity"":1,""confidence"":2}","[0,1]","../img/tt/296tt.jpg","",""
"4734.409999998985","","","recognition","survey-text","282","1055387","0.0-6.0-3.39","2878311","co38065","norming","","","{""guess"":""zetel""}","","../img/tt/296tt.jpg","",""
"null","../img/gs/296gs.jpg","null","reveal","image-keyboard-response","283","1057390","0.0-6.0-4.39","2878311","co38065","norming","","","","","","",""
"null","../img/tt/296tt.jpg","null","mooney2","image-keyboard-response","284","1059396","0.0-6.0-5.39","2878311","co38065","norming","","","","","","",""
"2981.1599999994505","","","post_reveal_questions","survey-likert","285","1062379","0.0-6.0-6.39","2878311","co38065","norming","","","{""aha"":3}","[0]","../img/tt/296tt.jpg","",""
"null","<div style=""font-size:60px;""> </div>","null","fixation","html-keyboard-response","286","1062589","0.0-6.0-0.40","2878311","co38065","norming","","","","","","",""
"null","../img/tt/1272tt.jpg","null","mooney1","image-keyboard-response","287","1065597","0.0-6.0-1.40","2878311","co38065","norming","","","","","","",""
"3811.1399999998976","","","post_mooney1_questions","survey-likert","288","1069411","0.0-6.0-2.40","2878311","co38065","norming","","","{""curiosity"":1,""confidence"":0}","[0,1]","../img/tt/1272tt.jpg","",""
"550.054999999702","","","recognition","survey-text","289","1069963","0.0-6.0-3.40","2878311","co38065","norming","","","{""guess"":""""}","","../img/tt/1272tt.jpg","",""
"null","../img/gs/1272gs.jpg","null","reveal","image-keyboard-response","290","1071968","0.0-6.0-4.40","2878311","co38065","norming","","","","","","",""
"null","../img/tt/1272tt.jpg","null","mooney2","image-keyboard-response","291","1073980","0.0-6.0-5.40","2878311","co38065","norming","","","","","","",""
"2460.6649999986403","","","post_reveal_questions","survey-likert","292","1076443","0.0-6.0-6.40","2878311","co38065","norming","","","{""aha"":1}","[0]","../img/tt/1272tt.jpg","",""
"null","<div style=""font-size:60px;""> </div>","null","fixation","html-keyboard-response","293","1076644","0.0-6.0-0.41","2878311","co38065","norming","","","","","","",""
"null","../img/tt/1143tt.jpg","null","mooney1","image-keyboard-response","294","1079658","0.0-6.0-1.41","2878311","co38065","norming","","","","","","",""
"5599.074999999953","","","post_mooney1_questions","survey-likert","295","1085259","0.0-6.0-2.41","2878311","co38065","norming","","","{""curiosity"":0,""confidence"":0}","[0,1]","../img/tt/1143tt.jpg","",""
"1238.105000000447","","","recognition","survey-text","296","1086499","0.0-6.0-3.41","2878311","co38065","norming","","","{""guess"":""""}","","../img/tt/1143tt.jpg","",""
"null","../img/gs/1143gs.jpg","null","reveal","image-keyboard-response","297","1088510","0.0-6.0-4.41","2878311","co38065","norming","","","","","","",""
"null","../img/tt/1143tt.jpg","null","mooney2","image-keyboard-response","298","1090511","0.0-6.0-5.41","2878311","co38065","norming","","","","","","",""
"4081.2899999984074","","","post_reveal_questions","survey-likert","299","1094595","0.0-6.0-6.41","2878311","co38065","norming","","","{""aha"":0}","[0]","../img/tt/1143tt.jpg","",""
"null","<div style=""font-size:60px;""> </div>","null","fixation","html-keyboard-response","300","1094796","0.0-6.0-0.42","2878311","co38065","norming","","","","","","",""
"null","../img/tt/1363tt.jpg","null","mooney1","image-keyboard-response","301","1097807","0.0-6.0-1.42","2878311","co38065","norming","","","","","","",""
"3529.3450000009034","","","post_mooney1_questions","survey-likert","302","1101339","0.0-6.0-2.42","2878311","co38065","norming","","","{""curiosity"":1,""confidence"":1}","[0,1]","../img/tt/1363tt.jpg","",""
"2277.8999999992084","","","recognition","survey-text","303","1103619","0.0-6.0-3.42","2878311","co38065","norming","","","{""guess"":""bad""}","","../img/tt/1363tt.jpg","",""
"null","../img/gs/1363gs.jpg","null","reveal","image-keyboard-response","304","1105630","0.0-6.0-4.42","2878311","co38065","norming","","","","","","",""
"null","../img/tt/1363tt.jpg","null","mooney2","image-keyboard-response","305","1107638","0.0-6.0-5.42","2878311","co38065","norming","","","","","","",""
"4559.489999999758","","","post_reveal_questions","survey-likert","306","1112203","0.0-6.0-6.42","2878311","co38065","norming","","","{""aha"":2}","[0]","../img/tt/1363tt.jpg","",""
"null","<div style=""font-size:60px;""> </div>","null","fixation","html-keyboard-response","307","1112404","0.0-6.0-0.43","2878311","co38065","norming","","","","","","",""
"null","../img/tt/416tt.jpg","null","mooney1","image-keyboard-response","308","1115414","0.0-6.0-1.43","2878311","co38065","norming","","","","","","",""
"6417.800000000978","","","post_mooney1_questions","survey-likert","309","1121835","0.0-6.0-2.43","2878311","co38065","norming","","","{""curiosity"":1,""confidence"":1}","[0,1]","../img/tt/416tt.jpg","",""
"4085.984999999637","","","recognition","survey-text","310","1125923","0.0-6.0-3.43","2878311","co38065","norming","","","{""guess"":""flamingo""}","","../img/tt/416tt.jpg","",""
"null","../img/gs/416gs.jpg","null","reveal","image-keyboard-response","311","1127934","0.0-6.0-4.43","2878311","co38065","norming","","","","","","",""
"null","../img/tt/416tt.jpg","null","mooney2","image-keyboard-response","312","1129944","0.0-6.0-5.43","2878311","co38065","norming","","","","","","",""
"3983.9699999992736","","","post_reveal_questions","survey-likert","313","1133931","0.0-6.0-6.43","2878311","co38065","norming","","","{""aha"":2}","[0]","../img/tt/416tt.jpg","",""
"null","<div style=""font-size:60px;""> </div>","null","fixation","html-keyboard-response","314","1134133","0.0-6.0-0.44","2878311","co38065","norming","","","","","","",""
"null","../img/tt/1053tt.jpg","null","mooney1","image-keyboard-response","315","1137144","0.0-6.0-1.44","2878311","co38065","norming","","","","","","",""
"6136.024999999907","","","post_mooney1_questions","survey-likert","316","1143277","0.0-6.0-2.44","2878311","co38065","norming","","","{""curiosity"":1,""confidence"":0}","[0,1]","../img/tt/1053tt.jpg","",""
"4365.579999999609","","","recognition","survey-text","317","1147644","0.0-6.0-3.44","2878311","co38065","norming","","","{""guess"":""hond""}","","../img/tt/1053tt.jpg","",""
"null","../img/gs/1053gs.jpg","null","reveal","image-keyboard-response","318","1149654","0.0-6.0-4.44","2878311","co38065","norming","","","","","","",""
"null","../img/tt/1053tt.jpg","null","mooney2","image-keyboard-response","319","1151657","0.0-6.0-5.44","2878311","co38065","norming","","","","","","",""
"6874.890000001062","","","post_reveal_questions","survey-likert","320","1158533","0.0-6.0-6.44","2878311","co38065","norming","","","{""aha"":2}","[0]","../img/tt/1053tt.jpg","",""
"null","<div style=""font-size:60px;""> </div>","null","fixation","html-keyboard-response","321","1158734","0.0-6.0-0.45","2878311","co38065","norming","","","","","","",""
"null","../img/tt/567tt.jpg","null","mooney1","image-keyboard-response","322","1161739","0.0-6.0-1.45","2878311","co38065","norming","","","","","","",""
"5504.150000000605","","","post_mooney1_questions","survey-likert","323","1167245","0.0-6.0-2.45","2878311","co38065","norming","","","{""curiosity"":3,""confidence"":1}","[0,1]","../img/tt/567tt.jpg","",""
"3189.95999999973","","","recognition","survey-text","324","1170436","0.0-6.0-3.45","2878311","co38065","norming","","","{""guess"":""taart""}","","../img/tt/567tt.jpg","",""
"null","../img/gs/567gs.jpg","null","reveal","image-keyboard-response","325","1172447","0.0-6.0-4.45","2878311","co38065","norming","","","","","","",""
"null","../img/tt/567tt.jpg","null","mooney2","image-keyboard-response","326","1174455","0.0-6.0-5.45","2878311","co38065","norming","","","","","","",""
"10187.474999998929","","","post_reveal_questions","survey-likert","327","1184645","0.0-6.0-6.45","2878311","co38065","norming","","","{""aha"":2}","[0]","../img/tt/567tt.jpg","",""
"null","<div style=""font-size:60px;""> </div>","null","fixation","html-keyboard-response","328","1184850","0.0-6.0-0.46","2878311","co38065","norming","","","","","","",""
"null","../img/tt/318tt.jpg","null","mooney1","image-keyboard-response","329","1187854","0.0-6.0-1.46","2878311","co38065","norming","","","","","","",""
"3699.5200000000186","","","post_mooney1_questions","survey-likert","330","1191557","0.0-6.0-2.46","2878311","co38065","norming","","","{""curiosity"":1,""confidence"":1}","[0,1]","../img/tt/318tt.jpg","",""
"2925.989999999758","","","recognition","survey-text","331","1194484","0.0-6.0-3.46","2878311","co38065","norming","","","{""guess"":""auto""}","","../img/tt/318tt.jpg","",""
"null","../img/gs/318gs.jpg","null","reveal","image-keyboard-response","332","1196486","0.0-6.0-4.46","2878311","co38065","norming","","","","","","",""
"null","../img/tt/318tt.jpg","null","mooney2","image-keyboard-response","333","1198487","0.0-6.0-5.46","2878311","co38065","norming","","","","","","",""
"2867.0149999998976","","","post_reveal_questions","survey-likert","334","1201361","0.0-6.0-6.46","2878311","co38065","norming","","","{""aha"":2}","[0]","../img/tt/318tt.jpg","",""
"null","<div style=""font-size:60px;""> </div>","null","fixation","html-keyboard-response","335","1201562","0.0-6.0-0.47","2878311","co38065","norming","","","","","","",""
"null","../img/tt/1066tt.jpg","null","mooney1","image-keyboard-response","336","1204573","0.0-6.0-1.47","2878311","co38065","norming","","","","","","",""
"5288.56499999878","","","post_mooney1_questions","survey-likert","337","1209865","0.0-6.0-2.47","2878311","co38065","norming","","","{""curiosity"":2,""confidence"":1}","[0,1]","../img/tt/1066tt.jpg","",""
"2309.2700000016484","","","recognition","survey-text","338","1212176","0.0-6.0-3.47","2878311","co38065","norming","","","{""guess"":""bed""}","","../img/tt/1066tt.jpg","",""
"null","../img/gs/1066gs.jpg","null","reveal","image-keyboard-response","339","1214180","0.0-6.0-4.47","2878311","co38065","norming","","","","","","",""
"null","../img/tt/1066tt.jpg","null","mooney2","image-keyboard-response","340","1216190","0.0-6.0-5.47","2878311","co38065","norming","","","","","","",""
"4344.395000000019","","","post_reveal_questions","survey-likert","341","1220536","0.0-6.0-6.47","2878311","co38065","norming","","","{""aha"":1}","[0]","../img/tt/1066tt.jpg","",""
"null","<div style=""font-size:60px;""> </div>","null","fixation","html-keyboard-response","342","1220743","0.0-6.0-0.48","2878311","co38065","norming","","","","","","",""
"null","../img/tt/020tt.jpg","null","mooney1","image-keyboard-response","343","1223751","0.0-6.0-1.48","2878311","co38065","norming","","","","","","",""
"3854.975000000326","","","post_mooney1_questions","survey-likert","344","1227609","0.0-6.0-2.48","2878311","co38065","norming","","","{""curiosity"":2,""confidence"":0}","[0,1]","../img/tt/020tt.jpg","",""
"1373.9399999994785","","","recognition","survey-text","345","1228984","0.0-6.0-3.48","2878311","co38065","norming","","","{""guess"":""""}","","../img/tt/020tt.jpg","",""
"null","../img/gs/020gs.jpg","null","reveal","image-keyboard-response","346","1230991","0.0-6.0-4.48","2878311","co38065","norming","","","","","","",""
"null","../img/tt/020tt.jpg","null","mooney2","image-keyboard-response","347","1233000","0.0-6.0-5.48","2878311","co38065","norming","","","","","","",""
"4014.489999999525","","","post_reveal_questions","survey-likert","348","1237017","0.0-6.0-6.48","2878311","co38065","norming","","","{""aha"":3}","[0]","../img/tt/020tt.jpg","",""
"null","<div style=""font-size:60px;""> </div>","null","fixation","html-keyboard-response","349","1237222","0.0-6.0-0.49","2878311","co38065","norming","","","","","","",""
"null","../img/tt/1002tt.jpg","null","mooney1","image-keyboard-response","350","1240225","0.0-6.0-1.49","2878311","co38065","norming","","","","","","",""
"4419.510000001406","","","post_mooney1_questions","survey-likert","351","1244649","0.0-6.0-2.49","2878311","co38065","norming","","","{""curiosity"":1,""confidence"":1}","[0,1]","../img/tt/1002tt.jpg","",""
"2373.960000000894","","","recognition","survey-text","352","1247024","0.0-6.0-3.49","2878311","co38065","norming","","","{""guess"":""koe""}","","../img/tt/1002tt.jpg","",""
"null","../img/gs/1002gs.jpg","null","reveal","image-keyboard-response","353","1249031","0.0-6.0-4.49","2878311","co38065","norming","","","","","","",""
"null","../img/tt/1002tt.jpg","null","mooney2","image-keyboard-response","354","1251037","0.0-6.0-5.49","2878311","co38065","norming","","","","","","",""
"2978.750000000233","","","post_reveal_questions","survey-likert","355","1254016","0.0-6.0-6.49","2878311","co38065","norming","","","{""aha"":2}","[0]","../img/tt/1002tt.jpg","",""
"null","<div style=""font-size:60px;""> </div>","null","fixation","html-keyboard-response","356","1254219","0.0-6.0-0.50","2878311","co38065","norming","","","","","","",""
"null","../img/tt/1279tt.jpg","null","mooney1","image-keyboard-response","357","1257227","0.0-6.0-1.50","2878311","co38065","norming","","","","","","",""
"5602.640000001062","","","post_mooney1_questions","survey-likert","358","1262827","0.0-6.0-2.50","2878311","co38065","norming","","","{""curiosity"":2,""confidence"":0}","[0,1]","../img/tt/1279tt.jpg","",""
"805.9450000000652","","","recognition","survey-text","359","1263635","0.0-6.0-3.50","2878311","co38065","norming","","","{""guess"":""""}","","../img/tt/1279tt.jpg","",""
"null","../img/gs/1279gs.jpg","null","reveal","image-keyboard-response","360","1265638","0.0-6.0-4.50","2878311","co38065","norming","","","","","","",""
"null","../img/tt/1279tt.jpg","null","mooney2","image-keyboard-response","361","1267646","0.0-6.0-5.50","2878311","co38065","norming","","","","","","",""
"5906.034999999916","","","post_reveal_questions","survey-likert","362","1273555","0.0-6.0-6.50","2878311","co38065","norming","","","{""aha"":1}","[0]","../img/tt/1279tt.jpg","",""
"null","<div style=""font-size:60px;""> </div>","null","fixation","html-keyboard-response","363","1273765","0.0-6.0-0.51","2878311","co38065","norming","","","","","","",""
"null","../img/tt/044tt.jpg","null","mooney1","image-keyboard-response","364","1276774","0.0-6.0-1.51","2878311","co38065","norming","","","","","","",""
"8121.770000001648","","","post_mooney1_questions","survey-likert","365","1284899","0.0-6.0-2.51","2878311","co38065","norming","","","{""curiosity"":2,""confidence"":1}","[0,1]","../img/tt/044tt.jpg","",""
"4829.989999999991","","","recognition","survey-text","366","1289731","0.0-6.0-3.51","2878311","co38065","norming","","","{""guess"":""computer""}","","../img/tt/044tt.jpg","",""
"null","../img/gs/044gs.jpg","null","reveal","image-keyboard-response","367","1291741","0.0-6.0-4.51","2878311","co38065","norming","","","","","","",""
"null","../img/tt/044tt.jpg","null","mooney2","image-keyboard-response","368","1293742","0.0-6.0-5.51","2878311","co38065","norming","","","","","","",""
"4777.7299999997485","","","post_reveal_questions","survey-likert","369","1298523","0.0-6.0-6.51","2878311","co38065","norming","","","{""aha"":2}","[0]","../img/tt/044tt.jpg","",""
"null","<div style=""font-size:60px;""> </div>","null","fixation","html-keyboard-response","370","1298726","0.0-6.0-0.52","2878311","co38065","norming","","","","","","",""
"null","../img/tt/1283tt.jpg","null","mooney1","image-keyboard-response","371","1301736","0.0-6.0-1.52","2878311","co38065","norming","","","","","","",""
"7455.990000002319","","","post_mooney1_questions","survey-likert","372","1309195","0.0-6.0-2.52","2878311","co38065","norming","","","{""curiosity"":3,""confidence"":0}","[0,1]","../img/tt/1283tt.jpg","",""
"1622.1499999992084","","","recognition","survey-text","373","1310819","0.0-6.0-3.52","2878311","co38065","norming","","","{""guess"":""""}","","../img/tt/1283tt.jpg","",""
"null","../img/gs/1283gs.jpg","null","reveal","image-keyboard-response","374","1312822","0.0-6.0-4.52","2878311","co38065","norming","","","","","","",""
"null","../img/tt/1283tt.jpg","null","mooney2","image-keyboard-response","375","1314825","0.0-6.0-5.52","2878311","co38065","norming","","","","","","",""
"2543.3650000013877","","","post_reveal_questions","survey-likert","376","1317371","0.0-6.0-6.52","2878311","co38065","norming","","","{""aha"":4}","[0]","../img/tt/1283tt.jpg","",""
"null","<div style=""font-size:60px;""> </div>","null","fixation","html-keyboard-response","377","1317578","0.0-6.0-0.53","2878311","co38065","norming","","","","","","",""
"null","../img/tt/1130tt.jpg","null","mooney1","image-keyboard-response","378","1320585","0.0-6.0-1.53","2878311","co38065","norming","","","","","","",""
"4510.669999999693","","","post_mooney1_questions","survey-likert","379","1325106","0.0-6.0-2.53","2878311","co38065","norming","","","{""curiosity"":1,""confidence"":2}","[0,1]","../img/tt/1130tt.jpg","",""
"3501.964999999618","","","recognition","survey-text","380","1328610","0.0-6.0-3.53","2878311","co38065","norming","","","{""guess"":""fietser""}","","../img/tt/1130tt.jpg","",""
"null","../img/gs/1130gs.jpg","null","reveal","image-keyboard-response","381","1330617","0.0-6.0-4.53","2878311","co38065","norming","","","","","","",""
"null","../img/tt/1130tt.jpg","null","mooney2","image-keyboard-response","382","1332623","0.0-6.0-5.53","2878311","co38065","norming","","","","","","",""
"2393.785000000149","","","post_reveal_questions","survey-likert","383","1335018","0.0-6.0-6.53","2878311","co38065","norming","","","{""aha"":1}","[0]","../img/tt/1130tt.jpg","",""
"null","<div style=""font-size:60px;""> </div>","null","fixation","html-keyboard-response","384","1335228","0.0-6.0-0.54","2878311","co38065","norming","","","","","","",""
"null","../img/tt/008tt.jpg","null","mooney1","image-keyboard-response","385","1338230","0.0-6.0-1.54","2878311","co38065","norming","","","","","","",""
"4793.494999998249","","","post_mooney1_questions","survey-likert","386","1343026","0.0-6.0-2.54","2878311","co38065","norming","","","{""curiosity"":2,""confidence"":1}","[0,1]","../img/tt/008tt.jpg","",""
"3405.0250000001397","","","recognition","survey-text","387","1346433","0.0-6.0-3.54","2878311","co38065","norming","","","{""guess"":""brood""}","","../img/tt/008tt.jpg","",""
"null","../img/gs/008gs.jpg","null","reveal","image-keyboard-response","388","1348440","0.0-6.0-4.54","2878311","co38065","norming","","","","","","",""
"null","../img/tt/008tt.jpg","null","mooney2","image-keyboard-response","389","1350449","0.0-6.0-5.54","2878311","co38065","norming","","","","","","",""
"2710.534999998519","","","post_reveal_questions","survey-likert","390","1353162","0.0-6.0-6.54","2878311","co38065","norming","","","{""aha"":2}","[0]","../img/tt/008tt.jpg","",""
"null","<div style=""font-size:60px;""> </div>","null","fixation","html-keyboard-response","391","1353364","0.0-6.0-0.55","2878311","co38065","norming","","","","","","",""
"null","../img/tt/1181tt.jpg","null","mooney1","image-keyboard-response","392","1356369","0.0-6.0-1.55","2878311","co38065","norming","","","","","","",""
"7136.020000001648","","","post_mooney1_questions","survey-likert","393","1363506","0.0-6.0-2.55","2878311","co38065","norming","","","{""curiosity"":3,""confidence"":1}","[0,1]","../img/tt/1181tt.jpg","",""
"5990.114999996964","","","recognition","survey-text","394","1369498","0.0-6.0-3.55","2878311","co38065","norming","","","{""guess"":""werkman""}","","../img/tt/1181tt.jpg","",""
"null","../img/gs/1181gs.jpg","null","reveal","image-keyboard-response","395","1371503","0.0-6.0-4.55","2878311","co38065","norming","","","","","","",""
"null","../img/tt/1181tt.jpg","null","mooney2","image-keyboard-response","396","1373514","0.0-6.0-5.55","2878311","co38065","norming","","","","","","",""
"1974.0199999976903","","","post_reveal_questions","survey-likert","397","1375490","0.0-6.0-6.55","2878311","co38065","norming","","","{""aha"":4}","[0]","../img/tt/1181tt.jpg","",""
"null","<div style=""font-size:60px;""> </div>","null","fixation","html-keyboard-response","398","1375693","0.0-6.0-0.56","2878311","co38065","norming","","","","","","",""
"null","../img/tt/477tt.jpg","null","mooney1","image-keyboard-response","399","1378695","0.0-6.0-1.56","2878311","co38065","norming","","","","","","",""
"4624.25999999675","","","post_mooney1_questions","survey-likert","400","1383324","0.0-6.0-2.56","2878311","co38065","norming","","","{""curiosity"":2,""confidence"":1}","[0,1]","../img/tt/477tt.jpg","",""
"4469.969999998342","","","recognition","survey-text","401","1387796","0.0-6.0-3.56","2878311","co38065","norming","","","{""guess"":""kat jong""}","","../img/tt/477tt.jpg","",""
"null","../img/gs/477gs.jpg","null","reveal","image-keyboard-response","402","1389798","0.0-6.0-4.56","2878311","co38065","norming","","","","","","",""
"null","../img/tt/477tt.jpg","null","mooney2","image-keyboard-response","403","1391807","0.0-6.0-5.56","2878311","co38065","norming","","","","","","",""
"3730.4450000012293","","","post_reveal_questions","survey-likert","404","1395540","0.0-6.0-6.56","2878311","co38065","norming","","","{""aha"":3}","[0]","../img/tt/477tt.jpg","",""
"null","<div style=""font-size:60px;""> </div>","null","fixation","html-keyboard-response","405","1395747","0.0-6.0-0.57","2878311","co38065","norming","","","","","","",""
"null","../img/tt/1151tt.jpg","null","mooney1","image-keyboard-response","406","1398751","0.0-6.0-1.57","2878311","co38065","norming","","","","","","",""
"5842.885000001639","","","post_mooney1_questions","survey-likert","407","1404596","0.0-6.0-2.57","2878311","co38065","norming","","","{""curiosity"":3,""confidence"":1}","[0,1]","../img/tt/1151tt.jpg","",""
"6534.020000002813","","","recognition","survey-text","408","1411132","0.0-6.0-3.57","2878311","co38065","norming","","","{""guess"":""bergbeklimmer""}","","../img/tt/1151tt.jpg","",""
"null","../img/gs/1151gs.jpg","null","reveal","image-keyboard-response","409","1413139","0.0-6.0-4.57","2878311","co38065","norming","","","","","","",""
"null","../img/tt/1151tt.jpg","null","mooney2","image-keyboard-response","410","1415141","0.0-6.0-5.57","2878311","co38065","norming","","","","","","",""
"11540.404999999795","","","post_reveal_questions","survey-likert","411","1426684","0.0-6.0-6.57","2878311","co38065","norming","","","{""aha"":2}","[0]","../img/tt/1151tt.jpg","",""
"null","<div style=""font-size:60px;""> </div>","null","fixation","html-keyboard-response","412","1426888","0.0-6.0-0.58","2878311","co38065","norming","","","","","","",""
"null","../img/tt/1006tt.jpg","null","mooney1","image-keyboard-response","413","1429895","0.0-6.0-1.58","2878311","co38065","norming","","","","","","",""
"4209.344999999274","","","post_mooney1_questions","survey-likert","414","1434108","0.0-6.0-2.58","2878311","co38065","norming","","","{""curiosity"":1,""confidence"":3}","[0,1]","../img/tt/1006tt.jpg","",""
"3350.155000000028","","","recognition","survey-text","415","1437460","0.0-6.0-3.58","2878311","co38065","norming","","","{""guess"":""schaap""}","","../img/tt/1006tt.jpg","",""
"null","../img/gs/1006gs.jpg","null","reveal","image-keyboard-response","416","1439468","0.0-6.0-4.58","2878311","co38065","norming","","","","","","",""
"null","../img/tt/1006tt.jpg","null","mooney2","image-keyboard-response","417","1441469","0.0-6.0-5.58","2878311","co38065","norming","","","","","","",""
"4429.630000002449","","","post_reveal_questions","survey-likert","418","1445900","0.0-6.0-6.58","2878311","co38065","norming","","","{""aha"":0}","[0]","../img/tt/1006tt.jpg","",""
"null","<div style=""font-size:60px;""> </div>","null","fixation","html-keyboard-response","419","1446110","0.0-6.0-0.59","2878311","co38065","norming","","","","","","",""
"null","../img/tt/1255tt.jpg","null","mooney1","image-keyboard-response","420","1449119","0.0-6.0-1.59","2878311","co38065","norming","","","","","","",""
"4808.659999998752","","","post_mooney1_questions","survey-likert","421","1453932","0.0-6.0-2.59","2878311","co38065","norming","","","{""curiosity"":2,""confidence"":0}","[0,1]","../img/tt/1255tt.jpg","",""
"637.8900000017602","","","recognition","survey-text","422","1454572","0.0-6.0-3.59","2878311","co38065","norming","","","{""guess"":""""}","","../img/tt/1255tt.jpg","",""
"null","../img/gs/1255gs.jpg","null","reveal","image-keyboard-response","423","1456577","0.0-6.0-4.59","2878311","co38065","norming","","","","","","",""
"null","../img/tt/1255tt.jpg","null","mooney2","image-keyboard-response","424","1458581","0.0-6.0-5.59","2878311","co38065","norming","","","","","","",""
"3052.7550000005867","","","post_reveal_questions","survey-likert","425","1461636","0.0-6.0-6.59","2878311","co38065","norming","","","{""aha"":2}","[0]","../img/tt/1255tt.jpg","",""
"null","<div style=""font-size:60px;""> </div>","null","fixation","html-keyboard-response","426","1461839","0.0-6.0-0.60","2878311","co38065","norming","","","","","","",""
"null","../img/tt/1228tt.jpg","null","mooney1","image-keyboard-response","427","1464844","0.0-6.0-1.60","2878311","co38065","norming","","","","","","",""
"7981.400000000605","","","post_mooney1_questions","survey-likert","428","1472828","0.0-6.0-2.60","2878311","co38065","norming","","","{""curiosity"":1,""confidence"":1}","[0,1]","../img/tt/1228tt.jpg","",""
"3909.6800000006333","","","recognition","survey-text","429","1476740","0.0-6.0-3.60","2878311","co38065","norming","","","{""guess"":""vogel""}","","../img/tt/1228tt.jpg","",""
"null","../img/gs/1228gs.jpg","null","reveal","image-keyboard-response","430","1478744","0.0-6.0-4.60","2878311","co38065","norming","","","","","","",""
"null","../img/tt/1228tt.jpg","null","mooney2","image-keyboard-response","431","1480747","0.0-6.0-5.60","2878311","co38065","norming","","","","","","",""
"4326.789999999106","","","post_reveal_questions","survey-likert","432","1485076","0.0-6.0-6.60","2878311","co38065","norming","","","{""aha"":4}","[0]","../img/tt/1228tt.jpg","",""
"null","<div style=""font-size:60px;""> </div>","null","fixation","html-keyboard-response","433","1485278","0.0-6.0-0.61","2878311","co38065","norming","","","","","","",""
"null","../img/tt/1097tt.jpg","null","mooney1","image-keyboard-response","434","1488286","0.0-6.0-1.61","2878311","co38065","norming","","","","","","",""
"7338.644999999786","","","post_mooney1_questions","survey-likert","435","1495628","0.0-6.0-2.61","2878311","co38065","norming","","","{""curiosity"":2,""confidence"":1}","[0,1]","../img/tt/1097tt.jpg","",""
"4549.725000000559","","","recognition","survey-text","436","1500180","0.0-6.0-3.61","2878311","co38065","norming","","","{""guess"":""golfen""}","","../img/tt/1097tt.jpg","",""
"null","../img/gs/1097gs.jpg","null","reveal","image-keyboard-response","437","1502183","0.0-6.0-4.61","2878311","co38065","norming","","","","","","",""
"null","../img/tt/1097tt.jpg","null","mooney2","image-keyboard-response","438","1504185","0.0-6.0-5.61","2878311","co38065","norming","","","","","","",""
"3185.695000000065","","","post_reveal_questions","survey-likert","439","1507366","0.0-6.0-6.61","2878311","co38065","norming","","","{""aha"":3}","[0]","../img/tt/1097tt.jpg","",""
"null","<div style=""font-size:60px;""> </div>","null","fixation","html-keyboard-response","440","1507568","0.0-6.0-0.62","2878311","co38065","norming","","","","","","",""
"null","../img/tt/584tt.jpg","null","mooney1","image-keyboard-response","441","1510575","0.0-6.0-1.62","2878311","co38065","norming","","","","","","",""
"4172.555000000866","","","post_mooney1_questions","survey-likert","442","1514751","0.0-6.0-2.62","2878311","co38065","norming","","","{""curiosity"":1,""confidence"":4}","[0,1]","../img/tt/584tt.jpg","",""
"7429.789999998407","","","recognition","survey-text","443","1522182","0.0-6.0-3.62","2878311","co38065","norming","","","{""guess"":""scharen handen""}","","../img/tt/584tt.jpg","",""
"null","../img/gs/584gs.jpg","null","reveal","image-keyboard-response","444","1524190","0.0-6.0-4.62","2878311","co38065","norming","","","","","","",""
"null","../img/tt/584tt.jpg","null","mooney2","image-keyboard-response","445","1526195","0.0-6.0-5.62","2878311","co38065","norming","","","","","","",""
"2601.6049999999814","","","post_reveal_questions","survey-likert","446","1528798","0.0-6.0-6.62","2878311","co38065","norming","","","{""aha"":3}","[0]","../img/tt/584tt.jpg","",""
"null","<div style=""font-size:60px;""> </div>","null","fixation","html-keyboard-response","447","1528999","0.0-6.0-0.63","2878311","co38065","norming","","","","","","",""
"null","../img/tt/1102tt.jpg","null","mooney1","image-keyboard-response","448","1532007","0.0-6.0-1.63","2878311","co38065","norming","","","","","","",""
"5315.840000002878","","","post_mooney1_questions","survey-likert","449","1537326","0.0-6.0-2.63","2878311","co38065","norming","","","{""curiosity"":1,""confidence"":1}","[0,1]","../img/tt/1102tt.jpg","",""
"4893.9199999985285","","","recognition","survey-text","450","1542222","0.0-6.0-3.63","2878311","co38065","norming","","","{""guess"":""chauffeur""}","","../img/tt/1102tt.jpg","",""
"null","../img/gs/1102gs.jpg","null","reveal","image-keyboard-response","451","1544228","0.0-6.0-4.63","2878311","co38065","norming","","","","","","",""
"null","../img/tt/1102tt.jpg","null","mooney2","image-keyboard-response","452","1546238","0.0-6.0-5.63","2878311","co38065","norming","","","","","","",""
"3005.949999999022","","","post_reveal_questions","survey-likert","453","1549246","0.0-6.0-6.63","2878311","co38065","norming","","","{""aha"":4}","[0]","../img/tt/1102tt.jpg","",""
"null","<div style=""font-size:60px;""> </div>","null","fixation","html-keyboard-response","454","1549453","0.0-6.0-0.64","2878311","co38065","norming","","","","","","",""
"null","../img/tt/1069tt.jpg","null","mooney1","image-keyboard-response","455","1552457","0.0-6.0-1.64","2878311","co38065","norming","","","","","","",""
"2889.4599999985658","","","post_mooney1_questions","survey-likert","456","1555350","0.0-6.0-2.64","2878311","co38065","norming","","","{""curiosity"":2,""confidence"":1}","[0,1]","../img/tt/1069tt.jpg","",""
"2454.434999999823","","","recognition","survey-text","457","1557806","0.0-6.0-3.64","2878311","co38065","norming","","","{""guess"":""uil""}","","../img/tt/1069tt.jpg","",""
"null","../img/gs/1069gs.jpg","null","reveal","image-keyboard-response","458","1559813","0.0-6.0-4.64","2878311","co38065","norming","","","","","","",""
"null","../img/tt/1069tt.jpg","null","mooney2","image-keyboard-response","459","1561814","0.0-6.0-5.64","2878311","co38065","norming","","","","","","",""
"3253.455000001937","","","post_reveal_questions","survey-likert","460","1565070","0.0-6.0-6.64","2878311","co38065","norming","","","{""aha"":2}","[0]","../img/tt/1069tt.jpg","",""
"null","<div style=""font-size:60px;""> </div>","null","fixation","html-keyboard-response","461","1565275","0.0-6.0-0.65","2878311","co38065","norming","","","","","","",""
"null","../img/tt/315tt.jpg","null","mooney1","image-keyboard-response","462","1568294","0.0-6.0-1.65","2878311","co38065","norming","","","","","","",""
"7471.31499999878","","","post_mooney1_questions","survey-likert","463","1575768","0.0-6.0-2.65","2878311","co38065","norming","","","{""curiosity"":2,""confidence"":0}","[0,1]","../img/tt/315tt.jpg","",""
"1453.9650000007823","","","recognition","survey-text","464","1577224","0.0-6.0-3.65","2878311","co38065","norming","","","{""guess"":""""}","","../img/tt/315tt.jpg","",""
"null","../img/gs/315gs.jpg","null","reveal","image-keyboard-response","465","1579230","0.0-6.0-4.65","2878311","co38065","norming","","","","","","",""
"null","../img/tt/315tt.jpg","null","mooney2","image-keyboard-response","466","1581232","0.0-6.0-5.65","2878311","co38065","norming","","","","","","",""
"4197.974999999162","","","post_reveal_questions","survey-likert","467","1585432","0.0-6.0-6.65","2878311","co38065","norming","","","{""aha"":4}","[0]","../img/tt/315tt.jpg","",""
"null","<div style=""font-size:60px;""> </div>","null","fixation","html-keyboard-response","468","1585641","0.0-6.0-0.66","2878311","co38065","norming","","","","","","",""
"null","../img/tt/1142tt.jpg","null","mooney1","image-keyboard-response","469","1588644","0.0-6.0-1.66","2878311","co38065","norming","","","","","","",""
"7168.785000001546","","","post_mooney1_questions","survey-likert","470","1595816","0.0-6.0-2.66","2878311","co38065","norming","","","{""curiosity"":2,""confidence"":1}","[0,1]","../img/tt/1142tt.jpg","",""
"4821.9849999987055","","","recognition","survey-text","471","1600640","0.0-6.0-3.66","2878311","co38065","norming","","","{""guess"":""verspringen""}","","../img/tt/1142tt.jpg","",""
"null","../img/gs/1142gs.jpg","null","reveal","image-keyboard-response","472","1602648","0.0-6.0-4.66","2878311","co38065","norming","","","","","","",""
"null","../img/tt/1142tt.jpg","null","mooney2","image-keyboard-response","473","1604651","0.0-6.0-5.66","2878311","co38065","norming","","","","","","",""
"3571.059999998426","","","post_reveal_questions","survey-likert","474","1608224","0.0-6.0-6.66","2878311","co38065","norming","","","{""aha"":4}","[0]","../img/tt/1142tt.jpg","",""
"null","<div style=""font-size:60px;""> </div>","null","fixation","html-keyboard-response","475","1608428","0.0-6.0-0.67","2878311","co38065","norming","","","","","","",""
"null","../img/tt/060tt.jpg","null","mooney1","image-keyboard-response","476","1611436","0.0-6.0-1.67","2878311","co38065","norming","","","","","","",""
"3809.0200000004843","","","post_mooney1_questions","survey-likert","477","1615248","0.0-6.0-2.67","2878311","co38065","norming","","","{""curiosity"":2,""confidence"":1}","[0,1]","../img/tt/060tt.jpg","",""
"2957.880000001751","","","recognition","survey-text","478","1618208","0.0-6.0-3.67","2878311","co38065","norming","","","{""guess"":""brood""}","","../img/tt/060tt.jpg","",""
"null","../img/gs/060gs.jpg","null","reveal","image-keyboard-response","479","1620214","0.0-6.0-4.67","2878311","co38065","norming","","","","","","",""
"null","../img/tt/060tt.jpg","null","mooney2","image-keyboard-response","480","1622221","0.0-6.0-5.67","2878311","co38065","norming","","","","","","",""
"8912.945000000065","","","post_reveal_questions","survey-likert","481","1631136","0.0-6.0-6.67","2878311","co38065","norming","","","{""aha"":2}","[0]","../img/tt/060tt.jpg","",""
"null","<div style=""font-size:60px;""> </div>","null","fixation","html-keyboard-response","482","1631343","0.0-6.0-0.68","2878311","co38065","norming","","","","","","",""
"null","../img/tt/1161tt.jpg","null","mooney1","image-keyboard-response","483","1634349","0.0-6.0-1.68","2878311","co38065","norming","","","","","","",""
"6576.160000000615","","","post_mooney1_questions","survey-likert","484","1640929","0.0-6.0-2.68","2878311","co38065","norming","","","{""curiosity"":1,""confidence"":2}","[0,1]","../img/tt/1161tt.jpg","",""
"3029.6950000012293","","","recognition","survey-text","485","1643960","0.0-6.0-3.68","2878311","co38065","norming","","","{""guess"":""klimmer""}","","../img/tt/1161tt.jpg","",""
"null","../img/gs/1161gs.jpg","null","reveal","image-keyboard-response","486","1645969","0.0-6.0-4.68","2878311","co38065","norming","","","","","","",""
"null","../img/tt/1161tt.jpg","null","mooney2","image-keyboard-response","487","1647980","0.0-6.0-5.68","2878311","co38065","norming","","","","","","",""
"6482.8749999979045","","","post_reveal_questions","survey-likert","488","1654465","0.0-6.0-6.68","2878311","co38065","norming","","","{""aha"":0}","[0]","../img/tt/1161tt.jpg","",""
"null","<div style=""font-size:60px;""> </div>","null","fixation","html-keyboard-response","489","1654673","0.0-6.0-0.69","2878311","co38065","norming","","","","","","",""
"null","../img/tt/1211tt.jpg","null","mooney1","image-keyboard-response","490","1657680","0.0-6.0-1.69","2878311","co38065","norming","","","","","","",""
"3797.9199999973644","","","post_mooney1_questions","survey-likert","491","1661481","0.0-6.0-2.69","2878311","co38065","norming","","","{""curiosity"":2,""confidence"":0}","[0,1]","../img/tt/1211tt.jpg","",""
"1493.9100000010803","","","recognition","survey-text","492","1662977","0.0-6.0-3.69","2878311","co38065","norming","","","{""guess"":""""}","","../img/tt/1211tt.jpg","",""
"null","../img/gs/1211gs.jpg","null","reveal","image-keyboard-response","493","1664983","0.0-6.0-4.69","2878311","co38065","norming","","","","","","",""
"null","../img/tt/1211tt.jpg","null","mooney2","image-keyboard-response","494","1666988","0.0-6.0-5.69","2878311","co38065","norming","","","","","","",""
"5921.999999998836","","","post_reveal_questions","survey-likert","495","1672913","0.0-6.0-6.69","2878311","co38065","norming","","","{""aha"":2}","[0]","../img/tt/1211tt.jpg","",""
"null","<div style=""font-size:60px;""> </div>","null","fixation","html-keyboard-response","496","1673117","0.0-6.0-0.70","2878311","co38065","norming","","","","","","",""
"null","../img/tt/1089tt.jpg","null","mooney1","image-keyboard-response","497","1676120","0.0-6.0-1.70","2878311","co38065","norming","","","","","","",""
"3951.089999998454","","","post_mooney1_questions","survey-likert","498","1680073","0.0-6.0-2.70","2878311","co38065","norming","","","{""curiosity"":2,""confidence"":0}","[0,1]","../img/tt/1089tt.jpg","",""
"1398.0100000009406","","","recognition","survey-text","499","1681472","0.0-6.0-3.70","2878311","co38065","norming","","","{""guess"":""""}","","../img/tt/1089tt.jpg","",""
"null","../img/gs/1089gs.jpg","null","reveal","image-keyboard-response","500","1683476","0.0-6.0-4.70","2878311","co38065","norming","","","","","","",""
"null","../img/tt/1089tt.jpg","null","mooney2","image-keyboard-response","501","1685487","0.0-6.0-5.70","2878311","co38065","norming","","","","","","",""
"2574.9350000005215","","","post_reveal_questions","survey-likert","502","1688065","0.0-6.0-6.70","2878311","co38065","norming","","","{""aha"":1}","[0]","../img/tt/1089tt.jpg","",""
"null","<div style=""font-size:60px;""> </div>","null","fixation","html-keyboard-response","503","1688268","0.0-6.0-0.71","2878311","co38065","norming","","","","","","",""
"null","../img/tt/031tt.jpg","null","mooney1","image-keyboard-response","504","1691272","0.0-6.0-1.71","2878311","co38065","norming","","","","","","",""
"6670.210000000196","","","post_mooney1_questions","survey-likert","505","1697945","0.0-6.0-2.71","2878311","co38065","norming","","","{""curiosity"":1,""confidence"":3}","[0,1]","../img/tt/031tt.jpg","",""
"2149.6250000018626","","","recognition","survey-text","506","1700097","0.0-6.0-3.71","2878311","co38065","norming","","","{""guess"":""beer""}","","../img/tt/031tt.jpg","",""
"null","../img/gs/031gs.jpg","null","reveal","image-keyboard-response","507","1702099","0.0-6.0-4.71","2878311","co38065","norming","","","","","","",""
"null","../img/tt/031tt.jpg","null","mooney2","image-keyboard-response","508","1704102","0.0-6.0-5.71","2878311","co38065","norming","","","","","","",""
"5466.179999999469","","","post_reveal_questions","survey-likert","509","1709569","0.0-6.0-6.71","2878311","co38065","norming","","","{""aha"":1}","[0]","../img/tt/031tt.jpg","",""
"null","<div style=""font-size:60px;""> </div>","null","fixation","html-keyboard-response","510","1709780","0.0-6.0-0.72","2878311","co38065","norming","","","","","","",""
"null","../img/tt/1049tt.jpg","null","mooney1","image-keyboard-response","511","1712783","0.0-6.0-1.72","2878311","co38065","norming","","","","","","",""
"5142.619999998715","","","post_mooney1_questions","survey-likert","512","1717929","0.0-6.0-2.72","2878311","co38065","norming","","","{""curiosity"":2,""confidence"":0}","[0,1]","../img/tt/1049tt.jpg","",""
"2309.695000000065","","","recognition","survey-text","513","1720241","0.0-6.0-3.72","2878311","co38065","norming","","","{""guess"":""kat""}","","../img/tt/1049tt.jpg","",""
"null","../img/gs/1049gs.jpg","null","reveal","image-keyboard-response","514","1722248","0.0-6.0-4.72","2878311","co38065","norming","","","","","","",""
"null","../img/tt/1049tt.jpg","null","mooney2","image-keyboard-response","515","1724255","0.0-6.0-5.72","2878311","co38065","norming","","","","","","",""
"2807.7799999993294","","","post_reveal_questions","survey-likert","516","1727065","0.0-6.0-6.72","2878311","co38065","norming","","","{""aha"":2}","[0]","../img/tt/1049tt.jpg","",""
"null","<div style=""font-size:60px;""> </div>","null","fixation","html-keyboard-response","517","1727271","0.0-6.0-0.73","2878311","co38065","norming","","","","","","",""
"null","../img/tt/121tt.jpg","null","mooney1","image-keyboard-response","518","1730274","0.0-6.0-1.73","2878311","co38065","norming","","","","","","",""
"4028.3200000012293","","","post_mooney1_questions","survey-likert","519","1734305","0.0-6.0-2.73","2878311","co38065","norming","","","{""curiosity"":2,""confidence"":1}","[0,1]","../img/tt/121tt.jpg","",""
"4349.940000000177","","","recognition","survey-text","520","1738657","0.0-6.0-3.73","2878311","co38065","norming","","","{""guess"":""vogel""}","","../img/tt/121tt.jpg","",""
"null","../img/gs/121gs.jpg","null","reveal","image-keyboard-response","521","1740665","0.0-6.0-4.73","2878311","co38065","norming","","","","","","",""
"null","../img/tt/121tt.jpg","null","mooney2","image-keyboard-response","522","1742668","0.0-6.0-5.73","2878311","co38065","norming","","","","","","",""
"2700.0999999982305","","","post_reveal_questions","survey-likert","523","1745369","0.0-6.0-6.73","2878311","co38065","norming","","","{""aha"":2}","[0]","../img/tt/121tt.jpg","",""
"null","<div style=""font-size:60px;""> </div>","null","fixation","html-keyboard-response","524","1745573","0.0-6.0-0.74","2878311","co38065","norming","","","","","","",""
"null","../img/tt/273tt.jpg","null","mooney1","image-keyboard-response","525","1748581","0.0-6.0-1.74","2878311","co38065","norming","","","","","","",""
"4144.879999999888","","","post_mooney1_questions","survey-likert","526","1752725","0.0-6.0-2.74","2878311","co38065","norming","","","{""curiosity"":2,""confidence"":0}","[0,1]","../img/tt/273tt.jpg","",""
"661.9550000033341","","","recognition","survey-text","527","1753388","0.0-6.0-3.74","2878311","co38065","norming","","","{""guess"":""""}","","../img/tt/273tt.jpg","",""
"null","../img/gs/273gs.jpg","null","reveal","image-keyboard-response","528","1755399","0.0-6.0-4.74","2878311","co38065","norming","","","","","","",""
"null","../img/tt/273tt.jpg","null","mooney2","image-keyboard-response","529","1757402","0.0-6.0-5.74","2878311","co38065","norming","","","","","","",""
"4823.860000000335","","","post_reveal_questions","survey-likert","530","1762228","0.0-6.0-6.74","2878311","co38065","norming","","","{""aha"":4}","[0]","../img/tt/273tt.jpg","",""
"null","<div style=""font-size:60px;""> </div>","null","fixation","html-keyboard-response","531","1762434","0.0-6.0-0.75","2878311","co38065","norming","","","","","","",""
"null","../img/tt/497tt.jpg","null","mooney1","image-keyboard-response","532","1765447","0.0-6.0-1.75","2878311","co38065","norming","","","","","","",""
"3754.3549999974202","","","post_mooney1_questions","survey-likert","533","1769205","0.0-6.0-2.75","2878311","co38065","norming","","","{""curiosity"":1,""confidence"":3}","[0,1]","../img/tt/497tt.jpg","",""
"2550.069999997504","","","recognition","survey-text","534","1771756","0.0-6.0-3.75","2878311","co38065","norming","","","{""guess"":""kaas""}","","../img/tt/497tt.jpg","",""
"null","../img/gs/497gs.jpg","null","reveal","image-keyboard-response","535","1773764","0.0-6.0-4.75","2878311","co38065","norming","","","","","","",""
"null","../img/tt/497tt.jpg","null","mooney2","image-keyboard-response","536","1775775","0.0-6.0-5.75","2878311","co38065","norming","","","","","","",""
"2419.079999999609","","","post_reveal_questions","survey-likert","537","1778196","0.0-6.0-6.75","2878311","co38065","norming","","","{""aha"":3}","[0]","../img/tt/497tt.jpg","",""
"null","<div style=""font-size:60px;""> </div>","null","fixation","html-keyboard-response","538","1778400","0.0-6.0-0.76","2878311","co38065","norming","","","","","","",""
"null","../img/tt/1084tt.jpg","null","mooney1","image-keyboard-response","539","1781407","0.0-6.0-1.76","2878311","co38065","norming","","","","","","",""
"5114.164999999106","","","post_mooney1_questions","survey-likert","540","1786525","0.0-6.0-2.76","2878311","co38065","norming","","","{""curiosity"":2,""confidence"":1}","[0,1]","../img/tt/1084tt.jpg","",""
"3965.9350000002887","","","recognition","survey-text","541","1790492","0.0-6.0-3.76","2878311","co38065","norming","","","{""guess"":""taart""}","","../img/tt/1084tt.jpg","",""
"null","../img/gs/1084gs.jpg","null","reveal","image-keyboard-response","542","1792502","0.0-6.0-4.76","2878311","co38065","norming","","","","","","",""
"null","../img/tt/1084tt.jpg","null","mooney2","image-keyboard-response","543","1794504","0.0-6.0-5.76","2878311","co38065","norming","","","","","","",""
"2777.5949999995064","","","post_reveal_questions","survey-likert","544","1797284","0.0-6.0-6.76","2878311","co38065","norming","","","{""aha"":0}","[0]","../img/tt/1084tt.jpg","",""
"null","<div style=""font-size:60px;""> </div>","null","fixation","html-keyboard-response","545","1797492","0.0-6.0-0.77","2878311","co38065","norming","","","","","","",""
"null","../img/tt/357tt.jpg","null","mooney1","image-keyboard-response","546","1800505","0.0-6.0-1.77","2878311","co38065","norming","","","","","","",""
"4007.929999999702","","","post_mooney1_questions","survey-likert","547","1804517","0.0-6.0-2.77","2878311","co38065","norming","","","{""curiosity"":2,""confidence"":0}","[0,1]","../img/tt/357tt.jpg","",""
"813.9149999988731","","","recognition","survey-text","548","1805332","0.0-6.0-3.77","2878311","co38065","norming","","","{""guess"":""""}","","../img/tt/357tt.jpg","",""
"null","../img/gs/357gs.jpg","null","reveal","image-keyboard-response","549","1807335","0.0-6.0-4.77","2878311","co38065","norming","","","","","","",""
"null","../img/tt/357tt.jpg","null","mooney2","image-keyboard-response","550","1809344","0.0-6.0-5.77","2878311","co38065","norming","","","","","","",""
"2491.709999998333","","","post_reveal_questions","survey-likert","551","1811840","0.0-6.0-6.77","2878311","co38065","norming","","","{""aha"":2}","[0]","../img/tt/357tt.jpg","",""
"null","<div style=""font-size:60px;""> </div>","null","fixation","html-keyboard-response","552","1812043","0.0-6.0-0.78","2878311","co38065","norming","","","","","","",""
