"rt","stimulus","key_press","test_part","trial_type","trial_index","time_elapsed","internal_node_id","totalTime","subject","experiment_name","button_pressed","success","responses","question_order","currentStim","old","correct"
"11215.86000000002","Welcome to the experiment. This is an online experiment so please don't close the tab/window until we say goodbye.  Press any key to begin.","32","instructions","html-keyboard-response","0","11229","0.0-0.0","3101802","co38128","norming","","","","","","",""
"66198.43499999998","<div style='word-wrap: break-word; width: 900px'><h3>Please consider this information carefully before deciding whether to participate in this research</h3><ul style='text-align: left; font-size: .8em;'><li><b>Purpose of the research</b>: To examine how people process images.</li><li><b>What you will do in this research</b>:  Stimuli (images) will be presented on the computer and you will be asked different questions about them.</li><li><b>Time required</b>: Participation will take between 45 and 60 minutes to complete.</li><li><b>Risks</b>:  There are no anticipated risks associated with participating in this study. The effects of participating should be comparable to those you would experience from viewing a computer monitor for 30 minutes and using a mouse or keyboard.</li><li><b>Benefits</b>:  This study provides no benefits to you individually except for the credit. The study provides important information about the nature of perception and learning.</li><li><b>Confidentiality</b>:  Your participation in this study will remain confidential. No personally identifiable information will be associated with your data. Your de-identified data may be shared with other researchers and used in future projects.</li><li><b>Participation and withdrawal</b>:  Your participation in this study is completely voluntary and you may refuse to participate or you may choose to withdraw at any time without penalty.</li><li><b>How to contact the researchers</b>: If you have questions or concerns about your participation or payment, or want to request a summary of research findings, please contact Sander Van de Cruys (KU Leuven), at sander.vandecruys@kuleuven.be.</li></ul><p>The nature and purpose of this research have been sufficiently explained and I agree to participate in this study.  I understand that I am free to withdraw at any time without incurring any penalty.</p><p>Please consent by clicking the button below to continue. Otherwise, please exit the study at this time.</p></div>","","instructions","html-button-response","1","77430","0.0-1.0","3101802","co38128","norming","0","","","","","",""
"","","","instructions","fullscreen","2","85547","0.0-2.0","3101802","co38128","norming","","true","","","","",""
"52162.18000000005","","","sona","survey-html-form","3","137715","0.0-3.0","3101802","co38128","norming","","","[{""name"":""sonaid"",""value"":""38128""},{""name"":""debrief"",""value"":""no""},{""name"":""datajoin"",""value"":""yes""}]","","","",""
"98874.89499999999","<div style='word-wrap: break-word; width: 900px'><h3>Instructions</h3><p>This experiment will have 3 parts. In the first part you will see a series of distorted images like the one below on the left. As you can see in the righthand image, the distorted images are derived from actual photographs. In what follows, you will <strong>briefly</strong> be presented with <strong>only</strong> the distorted image.</p> <div style='float: left; margin-right: 20px;'><img src='../img/018tt.jpg' height='250' width='250'></img></div><div style='float: right; margin-left: 20px;'><img src='../img/018gs.jpg' height='250' width='250'></img></div><p>Subsequently you will be asked a few questions about the image: One question on how <strong>curious</strong> you are about the solution and one on how <strong>confident</strong> you are that you know the solution.</p>Next, we ask you to make a guess on what is in the image. Note that it is OK to name just the <strong>basic level category</strong>. For example when you see a parrot in the image, 'parrot' will obviously be a correct answer but also correct is 'bird'. However, 'animal' will <strong>not</strong> be counted as a correct response. For the example above, 'rose' would be correct or 'flower', but not 'plant'. When soccer players are depicted, 'soccer', 'football', 'soccer players' will be correct, but not 'humans', 'outdoors', or 'sports'. You do not need to describe the image in full, just name the main object in it <strong>in one or two words</strong>. All images depict objects from one of the following broad level categories: animals, inanimate objects, plants, sports, vehicles, and food. Recognizing means knowing <strong>more</strong> than these broad labels for a given image. But we always encourage you to <strong>make a guess</strong> if you can. Note that you are allowed to use <strong>Dutch and English</strong> in your answers, whatever comes easiest for you.</p><p>Press any key to continue.</p></div>","32","instructions","html-keyboard-response","4","236634","0.0-4.0","3101802","co38128","norming","","","","","","",""
"68960.255","<div style='word-wrap: break-word; width: 900px'><h3>Instructions</h3> <p>Next, the solution image will be revealed to you and you'll be asked to indicate how strong your <strong>aha-experience</strong> was after seeing the solution. This describes the positive feeling of the 'click' you sometimes experience, when the pieces of the 'puzzle' fall together and you suddenly have 'insight' in the image.</p><img src='aha.jpg' height='188' width='250'></img><p>Note that there are no right or wrong answers. We are interested in what <strong>you</strong> see in the image and how <strong>you</strong> feel about it.</p><p>Press any key to start the experiment.</p></div>","32","instructions","html-keyboard-response","5","305644","0.0-5.0","3101802","co38128","norming","","","","","","",""
"null","<div style=""font-size:60px;""> </div>","null","fixation","html-keyboard-response","6","305854","0.0-6.0-0.0","3101802","co38128","norming","","","","","","",""
"null","../img/tt/126tt.jpg","null","mooney1","image-keyboard-response","7","308858","0.0-6.0-1.0","3101802","co38128","norming","","","","","","",""
"14551.83500000008","","","post_mooney1_questions","survey-likert","8","323411","0.0-6.0-2.0","3101802","co38128","norming","","","{""curiosity"":4,""confidence"":1}","[0,1]","../img/tt/126tt.jpg","",""
"10365.080000000075","","","recognition","survey-text","9","333778","0.0-6.0-3.0","3101802","co38128","norming","","","{""guess"":""rots""}","","../img/tt/126tt.jpg","",""
"null","../img/gs/126gs.jpg","null","reveal","image-keyboard-response","10","335787","0.0-6.0-4.0","3101802","co38128","norming","","","","","","",""
"null","../img/tt/126tt.jpg","null","mooney2","image-keyboard-response","11","337790","0.0-6.0-5.0","3101802","co38128","norming","","","","","","",""
"6106.564999999944","","","post_reveal_questions","survey-likert","12","343899","0.0-6.0-6.0","3101802","co38128","norming","","","{""aha"":1}","[0]","../img/tt/126tt.jpg","",""
"null","<div style=""font-size:60px;""> </div>","null","fixation","html-keyboard-response","13","344108","0.0-6.0-0.1","3101802","co38128","norming","","","","","","",""
"null","../img/tt/1186tt.jpg","null","mooney1","image-keyboard-response","14","347110","0.0-6.0-1.1","3101802","co38128","norming","","","","","","",""
"7739.469999999972","","","post_mooney1_questions","survey-likert","15","354851","0.0-6.0-2.1","3101802","co38128","norming","","","{""curiosity"":1,""confidence"":0}","[0,1]","../img/tt/1186tt.jpg","",""
"1526.1499999999069","","","recognition","survey-text","16","356378","0.0-6.0-3.1","3101802","co38128","norming","","","{""guess"":""""}","","../img/tt/1186tt.jpg","",""
"null","../img/gs/1186gs.jpg","null","reveal","image-keyboard-response","17","358386","0.0-6.0-4.1","3101802","co38128","norming","","","","","","",""
"null","../img/tt/1186tt.jpg","null","mooney2","image-keyboard-response","18","360395","0.0-6.0-5.1","3101802","co38128","norming","","","","","","",""
"4365.20000000007","","","post_reveal_questions","survey-likert","19","364763","0.0-6.0-6.1","3101802","co38128","norming","","","{""aha"":1}","[0]","../img/tt/1186tt.jpg","",""
"null","<div style=""font-size:60px;""> </div>","null","fixation","html-keyboard-response","20","364970","0.0-6.0-0.2","3101802","co38128","norming","","","","","","",""
"null","../img/tt/1278tt.jpg","null","mooney1","image-keyboard-response","21","368034","0.0-6.0-1.2","3101802","co38128","norming","","","","","","",""
"6101.949999999953","","","post_mooney1_questions","survey-likert","22","374138","0.0-6.0-2.2","3101802","co38128","norming","","","{""curiosity"":1,""confidence"":1}","[0,1]","../img/tt/1278tt.jpg","",""
"1486.0200000000768","","","recognition","survey-text","23","375626","0.0-6.0-3.2","3101802","co38128","norming","","","{""guess"":""""}","","../img/tt/1278tt.jpg","",""
"null","../img/gs/1278gs.jpg","null","reveal","image-keyboard-response","24","377628","0.0-6.0-4.2","3101802","co38128","norming","","","","","","",""
"null","../img/tt/1278tt.jpg","null","mooney2","image-keyboard-response","25","379635","0.0-6.0-5.2","3101802","co38128","norming","","","","","","",""
"4557.305000000051","","","post_reveal_questions","survey-likert","26","384194","0.0-6.0-6.2","3101802","co38128","norming","","","{""aha"":4}","[0]","../img/tt/1278tt.jpg","",""
"null","<div style=""font-size:60px;""> </div>","null","fixation","html-keyboard-response","27","384404","0.0-6.0-0.3","3101802","co38128","norming","","","","","","",""
"null","../img/tt/1116tt.jpg","null","mooney1","image-keyboard-response","28","387405","0.0-6.0-1.3","3101802","co38128","norming","","","","","","",""
"5427.2949999999255","","","post_mooney1_questions","survey-likert","29","392834","0.0-6.0-2.3","3101802","co38128","norming","","","{""curiosity"":4,""confidence"":2}","[0,1]","../img/tt/1116tt.jpg","",""
"5134.159999999974","","","recognition","survey-text","30","397970","0.0-6.0-3.3","3101802","co38128","norming","","","{""guess"":""tafel""}","","../img/tt/1116tt.jpg","",""
"null","../img/gs/1116gs.jpg","null","reveal","image-keyboard-response","31","399973","0.0-6.0-4.3","3101802","co38128","norming","","","","","","",""
"null","../img/tt/1116tt.jpg","null","mooney2","image-keyboard-response","32","401983","0.0-6.0-5.3","3101802","co38128","norming","","","","","","",""
"6896.694999999949","","","post_reveal_questions","survey-likert","33","408882","0.0-6.0-6.3","3101802","co38128","norming","","","{""aha"":3}","[0]","../img/tt/1116tt.jpg","",""
"null","<div style=""font-size:60px;""> </div>","null","fixation","html-keyboard-response","34","409085","0.0-6.0-0.4","3101802","co38128","norming","","","","","","",""
"null","../img/tt/032tt.jpg","null","mooney1","image-keyboard-response","35","412096","0.0-6.0-1.4","3101802","co38128","norming","","","","","","",""
"5681.124999999942","","","post_mooney1_questions","survey-likert","36","417778","0.0-6.0-2.4","3101802","co38128","norming","","","{""curiosity"":5,""confidence"":2}","[0,1]","../img/tt/032tt.jpg","",""
"4733.975000000093","","","recognition","survey-text","37","422514","0.0-6.0-3.4","3101802","co38128","norming","","","{""guess"":""""}","","../img/tt/032tt.jpg","",""
"null","../img/gs/032gs.jpg","null","reveal","image-keyboard-response","38","424515","0.0-6.0-4.4","3101802","co38128","norming","","","","","","",""
"null","../img/tt/032tt.jpg","null","mooney2","image-keyboard-response","39","426519","0.0-6.0-5.4","3101802","co38128","norming","","","","","","",""
"2481.5800000000163","","","post_reveal_questions","survey-likert","40","429041","0.0-6.0-6.4","3101802","co38128","norming","","","{""aha"":1}","[0]","../img/tt/032tt.jpg","",""
"null","<div style=""font-size:60px;""> </div>","null","fixation","html-keyboard-response","41","429247","0.0-6.0-0.5","3101802","co38128","norming","","","","","","",""
"null","../img/tt/108tt.jpg","null","mooney1","image-keyboard-response","42","432258","0.0-6.0-1.5","3101802","co38128","norming","","","","","","",""
"3812.704999999958","","","post_mooney1_questions","survey-likert","43","436073","0.0-6.0-2.5","3101802","co38128","norming","","","{""curiosity"":5,""confidence"":2}","[0,1]","../img/tt/108tt.jpg","",""
"3070.0250000000233","","","recognition","survey-text","44","439145","0.0-6.0-3.5","3101802","co38128","norming","","","{""guess"":""paard""}","","../img/tt/108tt.jpg","",""
"null","../img/gs/108gs.jpg","null","reveal","image-keyboard-response","45","441154","0.0-6.0-4.5","3101802","co38128","norming","","","","","","",""
"null","../img/tt/108tt.jpg","null","mooney2","image-keyboard-response","46","443157","0.0-6.0-5.5","3101802","co38128","norming","","","","","","",""
"3113.95000000007","","","post_reveal_questions","survey-likert","47","446273","0.0-6.0-6.5","3101802","co38128","norming","","","{""aha"":1}","[0]","../img/tt/108tt.jpg","",""
"null","<div style=""font-size:60px;""> </div>","null","fixation","html-keyboard-response","48","446475","0.0-6.0-0.6","3101802","co38128","norming","","","","","","",""
"null","../img/tt/123tt.jpg","null","mooney1","image-keyboard-response","49","449479","0.0-6.0-1.6","3101802","co38128","norming","","","","","","",""
"4016.1149999999907","","","post_mooney1_questions","survey-likert","50","453497","0.0-6.0-2.6","3101802","co38128","norming","","","{""curiosity"":3,""confidence"":3}","[0,1]","../img/tt/123tt.jpg","",""
"5045.890000000014","","","recognition","survey-text","51","458545","0.0-6.0-3.6","3101802","co38128","norming","","","{""guess"":""handtas""}","","../img/tt/123tt.jpg","",""
"null","../img/gs/123gs.jpg","null","reveal","image-keyboard-response","52","460551","0.0-6.0-4.6","3101802","co38128","norming","","","","","","",""
"null","../img/tt/123tt.jpg","null","mooney2","image-keyboard-response","53","462562","0.0-6.0-5.6","3101802","co38128","norming","","","","","","",""
"3309.3800000000047","","","post_reveal_questions","survey-likert","54","465873","0.0-6.0-6.6","3101802","co38128","norming","","","{""aha"":4}","[0]","../img/tt/123tt.jpg","",""
"null","<div style=""font-size:60px;""> </div>","null","fixation","html-keyboard-response","55","466074","0.0-6.0-0.7","3101802","co38128","norming","","","","","","",""
"null","../img/tt/270tt.jpg","null","mooney1","image-keyboard-response","56","469085","0.0-6.0-1.7","3101802","co38128","norming","","","","","","",""
"6993.659999999974","","","post_mooney1_questions","survey-likert","57","476081","0.0-6.0-2.7","3101802","co38128","norming","","","{""curiosity"":4,""confidence"":2}","[0,1]","../img/tt/270tt.jpg","",""
"3070.1900000000023","","","recognition","survey-text","58","479153","0.0-6.0-3.7","3101802","co38128","norming","","","{""guess"":""boom""}","","../img/tt/270tt.jpg","",""
"null","../img/gs/270gs.jpg","null","reveal","image-keyboard-response","59","481161","0.0-6.0-4.7","3101802","co38128","norming","","","","","","",""
"null","../img/tt/270tt.jpg","null","mooney2","image-keyboard-response","60","483162","0.0-6.0-5.7","3101802","co38128","norming","","","","","","",""
"4109.289999999979","","","post_reveal_questions","survey-likert","61","487273","0.0-6.0-6.7","3101802","co38128","norming","","","{""aha"":5}","[0]","../img/tt/270tt.jpg","",""
"null","<div style=""font-size:60px;""> </div>","null","fixation","html-keyboard-response","62","487478","0.0-6.0-0.8","3101802","co38128","norming","","","","","","",""
"null","../img/tt/010tt.jpg","null","mooney1","image-keyboard-response","63","490534","0.0-6.0-1.8","3101802","co38128","norming","","","","","","",""
"7229.975000000093","","","post_mooney1_questions","survey-likert","64","497767","0.0-6.0-2.8","3101802","co38128","norming","","","{""curiosity"":2,""confidence"":0}","[0,1]","../img/tt/010tt.jpg","",""
"926.015000000014","","","recognition","survey-text","65","498694","0.0-6.0-3.8","3101802","co38128","norming","","","{""guess"":""""}","","../img/tt/010tt.jpg","",""
"null","../img/gs/010gs.jpg","null","reveal","image-keyboard-response","66","500700","0.0-6.0-4.8","3101802","co38128","norming","","","","","","",""
"null","../img/tt/010tt.jpg","null","mooney2","image-keyboard-response","67","502701","0.0-6.0-5.8","3101802","co38128","norming","","","","","","",""
"2303.5050000000047","","","post_reveal_questions","survey-likert","68","505007","0.0-6.0-6.8","3101802","co38128","norming","","","{""aha"":5}","[0]","../img/tt/010tt.jpg","",""
"null","<div style=""font-size:60px;""> </div>","null","fixation","html-keyboard-response","69","505216","0.0-6.0-0.9","3101802","co38128","norming","","","","","","",""
"null","../img/tt/1268tt.jpg","null","mooney1","image-keyboard-response","70","508225","0.0-6.0-1.9","3101802","co38128","norming","","","","","","",""
"6083.314999999944","","","post_mooney1_questions","survey-likert","71","514311","0.0-6.0-2.9","3101802","co38128","norming","","","{""curiosity"":2,""confidence"":2}","[0,1]","../img/tt/1268tt.jpg","",""
"4174.049999999988","","","recognition","survey-text","72","518486","0.0-6.0-3.9","3101802","co38128","norming","","","{""guess"":""""}","","../img/tt/1268tt.jpg","",""
"null","../img/gs/1268gs.jpg","null","reveal","image-keyboard-response","73","520491","0.0-6.0-4.9","3101802","co38128","norming","","","","","","",""
"null","../img/tt/1268tt.jpg","null","mooney2","image-keyboard-response","74","522499","0.0-6.0-5.9","3101802","co38128","norming","","","","","","",""
"3097.625","","","post_reveal_questions","survey-likert","75","525598","0.0-6.0-6.9","3101802","co38128","norming","","","{""aha"":2}","[0]","../img/tt/1268tt.jpg","",""
"null","<div style=""font-size:60px;""> </div>","null","fixation","html-keyboard-response","76","525803","0.0-6.0-0.10","3101802","co38128","norming","","","","","","",""
"null","../img/tt/085tt.jpg","null","mooney1","image-keyboard-response","77","528810","0.0-6.0-1.10","3101802","co38128","norming","","","","","","",""
"11522.355000000098","","","post_mooney1_questions","survey-likert","78","540335","0.0-6.0-2.10","3101802","co38128","norming","","","{""curiosity"":2,""confidence"":2}","[0,1]","../img/tt/085tt.jpg","",""
"4685.945000000065","","","recognition","survey-text","79","545022","0.0-6.0-3.10","3101802","co38128","norming","","","{""guess"":""benen""}","","../img/tt/085tt.jpg","",""
"null","../img/gs/085gs.jpg","null","reveal","image-keyboard-response","80","547028","0.0-6.0-4.10","3101802","co38128","norming","","","","","","",""
"null","../img/tt/085tt.jpg","null","mooney2","image-keyboard-response","81","549030","0.0-6.0-5.10","3101802","co38128","norming","","","","","","",""
"2262.4350000001723","","","post_reveal_questions","survey-likert","82","551288","0.0-6.0-6.10","3101802","co38128","norming","","","{""aha"":3}","[0]","../img/tt/085tt.jpg","",""
"null","<div style=""font-size:60px;""> </div>","null","fixation","html-keyboard-response","83","551497","0.0-6.0-0.11","3101802","co38128","norming","","","","","","",""
"null","../img/tt/1069tt.jpg","null","mooney1","image-keyboard-response","84","554503","0.0-6.0-1.11","3101802","co38128","norming","","","","","","",""
"8238.439999999944","","","post_mooney1_questions","survey-likert","85","562744","0.0-6.0-2.11","3101802","co38128","norming","","","{""curiosity"":5,""confidence"":2}","[0,1]","../img/tt/1069tt.jpg","",""
"10013.915000000037","","","recognition","survey-text","86","572759","0.0-6.0-3.11","3101802","co38128","norming","","","{""guess"":""""}","","../img/tt/1069tt.jpg","",""
"null","../img/gs/1069gs.jpg","null","reveal","image-keyboard-response","87","574766","0.0-6.0-4.11","3101802","co38128","norming","","","","","","",""
"null","../img/tt/1069tt.jpg","null","mooney2","image-keyboard-response","88","576775","0.0-6.0-5.11","3101802","co38128","norming","","","","","","",""
"3046.824999999837","","","post_reveal_questions","survey-likert","89","579824","0.0-6.0-6.11","3101802","co38128","norming","","","{""aha"":2}","[0]","../img/tt/1069tt.jpg","",""
"null","<div style=""font-size:60px;""> </div>","null","fixation","html-keyboard-response","90","580025","0.0-6.0-0.12","3101802","co38128","norming","","","","","","",""
"null","../img/tt/318tt.jpg","null","mooney1","image-keyboard-response","91","583030","0.0-6.0-1.12","3101802","co38128","norming","","","","","","",""
"3959.5","","","post_mooney1_questions","survey-likert","92","586992","0.0-6.0-2.12","3101802","co38128","norming","","","{""curiosity"":2,""confidence"":2}","[0,1]","../img/tt/318tt.jpg","",""
"2702.2600000001257","","","recognition","survey-text","93","589695","0.0-6.0-3.12","3101802","co38128","norming","","","{""guess"":""bureau""}","","../img/tt/318tt.jpg","",""
"null","../img/gs/318gs.jpg","null","reveal","image-keyboard-response","94","591697","0.0-6.0-4.12","3101802","co38128","norming","","","","","","",""
"null","../img/tt/318tt.jpg","null","mooney2","image-keyboard-response","95","593705","0.0-6.0-5.12","3101802","co38128","norming","","","","","","",""
"1436.8800000000047","","","post_reveal_questions","survey-likert","96","595144","0.0-6.0-6.12","3101802","co38128","norming","","","{""aha"":4}","[0]","../img/tt/318tt.jpg","",""
"null","<div style=""font-size:60px;""> </div>","null","fixation","html-keyboard-response","97","595353","0.0-6.0-0.13","3101802","co38128","norming","","","","","","",""
"null","../img/tt/1066tt.jpg","null","mooney1","image-keyboard-response","98","598356","0.0-6.0-1.13","3101802","co38128","norming","","","","","","",""
"3841.3850000000093","","","post_mooney1_questions","survey-likert","99","602200","0.0-6.0-2.13","3101802","co38128","norming","","","{""curiosity"":2,""confidence"":3}","[0,1]","../img/tt/1066tt.jpg","",""
"2134.2850000000326","","","recognition","survey-text","100","604335","0.0-6.0-3.13","3101802","co38128","norming","","","{""guess"":""bed""}","","../img/tt/1066tt.jpg","",""
"null","../img/gs/1066gs.jpg","null","reveal","image-keyboard-response","101","606344","0.0-6.0-4.13","3101802","co38128","norming","","","","","","",""
"null","../img/tt/1066tt.jpg","null","mooney2","image-keyboard-response","102","608345","0.0-6.0-5.13","3101802","co38128","norming","","","","","","",""
"1924.5850000000792","","","post_reveal_questions","survey-likert","103","610272","0.0-6.0-6.13","3101802","co38128","norming","","","{""aha"":5}","[0]","../img/tt/1066tt.jpg","",""
"null","<div style=""font-size:60px;""> </div>","null","fixation","html-keyboard-response","104","610478","0.0-6.0-0.14","3101802","co38128","norming","","","","","","",""
"null","../img/tt/315tt.jpg","null","mooney1","image-keyboard-response","105","613497","0.0-6.0-1.14","3101802","co38128","norming","","","","","","",""
"4051.6199999999953","","","post_mooney1_questions","survey-likert","106","617551","0.0-6.0-2.14","3101802","co38128","norming","","","{""curiosity"":2,""confidence"":1}","[0,1]","../img/tt/315tt.jpg","",""
"2166.410000000149","","","recognition","survey-text","107","619719","0.0-6.0-3.14","3101802","co38128","norming","","","{""guess"":""muis""}","","../img/tt/315tt.jpg","",""
"null","../img/gs/315gs.jpg","null","reveal","image-keyboard-response","108","621723","0.0-6.0-4.14","3101802","co38128","norming","","","","","","",""
"null","../img/tt/315tt.jpg","null","mooney2","image-keyboard-response","109","623733","0.0-6.0-5.14","3101802","co38128","norming","","","","","","",""
"2199.630000000121","","","post_reveal_questions","survey-likert","110","625934","0.0-6.0-6.14","3101802","co38128","norming","","","{""aha"":5}","[0]","../img/tt/315tt.jpg","",""
"null","<div style=""font-size:60px;""> </div>","null","fixation","html-keyboard-response","111","626145","0.0-6.0-0.15","3101802","co38128","norming","","","","","","",""
"null","../img/tt/082tt.jpg","null","mooney1","image-keyboard-response","112","629151","0.0-6.0-1.15","3101802","co38128","norming","","","","","","",""
"4509.155000000028","","","post_mooney1_questions","survey-likert","113","633663","0.0-6.0-2.15","3101802","co38128","norming","","","{""curiosity"":3,""confidence"":2}","[0,1]","../img/tt/082tt.jpg","",""
"2053.945000000065","","","recognition","survey-text","114","635718","0.0-6.0-3.15","3101802","co38128","norming","","","{""guess"":""boom""}","","../img/tt/082tt.jpg","",""
"null","../img/gs/082gs.jpg","null","reveal","image-keyboard-response","115","637721","0.0-6.0-4.15","3101802","co38128","norming","","","","","","",""
"null","../img/tt/082tt.jpg","null","mooney2","image-keyboard-response","116","639723","0.0-6.0-5.15","3101802","co38128","norming","","","","","","",""
"1818.0650000000605","","","post_reveal_questions","survey-likert","117","641542","0.0-6.0-6.15","3101802","co38128","norming","","","{""aha"":5}","[0]","../img/tt/082tt.jpg","",""
"null","<div style=""font-size:60px;""> </div>","null","fixation","html-keyboard-response","118","641750","0.0-6.0-0.16","3101802","co38128","norming","","","","","","",""
"null","../img/tt/222tt.jpg","null","mooney1","image-keyboard-response","119","644754","0.0-6.0-1.16","3101802","co38128","norming","","","","","","",""
"5025","","","post_mooney1_questions","survey-likert","120","649783","0.0-6.0-2.16","3101802","co38128","norming","","","{""curiosity"":2,""confidence"":2}","[0,1]","../img/tt/222tt.jpg","",""
"6286.195000000065","","","recognition","survey-text","121","656071","0.0-6.0-3.16","3101802","co38128","norming","","","{""guess"":""persoon""}","","../img/tt/222tt.jpg","",""
"null","../img/gs/222gs.jpg","null","reveal","image-keyboard-response","122","658076","0.0-6.0-4.16","3101802","co38128","norming","","","","","","",""
"null","../img/tt/222tt.jpg","null","mooney2","image-keyboard-response","123","660077","0.0-6.0-5.16","3101802","co38128","norming","","","","","","",""
"1919.4049999999115","","","post_reveal_questions","survey-likert","124","661998","0.0-6.0-6.16","3101802","co38128","norming","","","{""aha"":1}","[0]","../img/tt/222tt.jpg","",""
"null","<div style=""font-size:60px;""> </div>","null","fixation","html-keyboard-response","125","662204","0.0-6.0-0.17","3101802","co38128","norming","","","","","","",""
"null","../img/tt/1107tt.jpg","null","mooney1","image-keyboard-response","126","665208","0.0-6.0-1.17","3101802","co38128","norming","","","","","","",""
"3620.0400000000373","","","post_mooney1_questions","survey-likert","127","668831","0.0-6.0-2.17","3101802","co38128","norming","","","{""curiosity"":3,""confidence"":2}","[0,1]","../img/tt/1107tt.jpg","",""
"2197.955000000191","","","recognition","survey-text","128","671030","0.0-6.0-3.17","3101802","co38128","norming","","","{""guess"":""kat""}","","../img/tt/1107tt.jpg","",""
"null","../img/gs/1107gs.jpg","null","reveal","image-keyboard-response","129","673040","0.0-6.0-4.17","3101802","co38128","norming","","","","","","",""
"null","../img/tt/1107tt.jpg","null","mooney2","image-keyboard-response","130","675051","0.0-6.0-5.17","3101802","co38128","norming","","","","","","",""
"2306.9949999999953","","","post_reveal_questions","survey-likert","131","677359","0.0-6.0-6.17","3101802","co38128","norming","","","{""aha"":5}","[0]","../img/tt/1107tt.jpg","",""
"null","<div style=""font-size:60px;""> </div>","null","fixation","html-keyboard-response","132","677565","0.0-6.0-0.18","3101802","co38128","norming","","","","","","",""
"null","../img/tt/055tt.jpg","null","mooney1","image-keyboard-response","133","680569","0.0-6.0-1.18","3101802","co38128","norming","","","","","","",""
"3443.07500000007","","","post_mooney1_questions","survey-likert","134","684015","0.0-6.0-2.18","3101802","co38128","norming","","","{""curiosity"":2,""confidence"":2}","[0,1]","../img/tt/055tt.jpg","",""
"1750.0350000000326","","","recognition","survey-text","135","685766","0.0-6.0-3.18","3101802","co38128","norming","","","{""guess"":""koe""}","","../img/tt/055tt.jpg","",""
"null","../img/gs/055gs.jpg","null","reveal","image-keyboard-response","136","687768","0.0-6.0-4.18","3101802","co38128","norming","","","","","","",""
"null","../img/tt/055tt.jpg","null","mooney2","image-keyboard-response","137","689770","0.0-6.0-5.18","3101802","co38128","norming","","","","","","",""
"1602.6050000000978","","","post_reveal_questions","survey-likert","138","691374","0.0-6.0-6.18","3101802","co38128","norming","","","{""aha"":1}","[0]","../img/tt/055tt.jpg","",""
"null","<div style=""font-size:60px;""> </div>","null","fixation","html-keyboard-response","139","691583","0.0-6.0-0.19","3101802","co38128","norming","","","","","","",""
"null","../img/tt/496tt.jpg","null","mooney1","image-keyboard-response","140","694594","0.0-6.0-1.19","3101802","co38128","norming","","","","","","",""
"3321.6849999999395","","","post_mooney1_questions","survey-likert","141","697918","0.0-6.0-2.19","3101802","co38128","norming","","","{""curiosity"":1,""confidence"":1}","[0,1]","../img/tt/496tt.jpg","",""
"886.2999999999302","","","recognition","survey-text","142","698806","0.0-6.0-3.19","3101802","co38128","norming","","","{""guess"":""""}","","../img/tt/496tt.jpg","",""
"null","../img/gs/496gs.jpg","null","reveal","image-keyboard-response","143","700817","0.0-6.0-4.19","3101802","co38128","norming","","","","","","",""
"null","../img/tt/496tt.jpg","null","mooney2","image-keyboard-response","144","702828","0.0-6.0-5.19","3101802","co38128","norming","","","","","","",""
"2616.355000000098","","","post_reveal_questions","survey-likert","145","705446","0.0-6.0-6.19","3101802","co38128","norming","","","{""aha"":3}","[0]","../img/tt/496tt.jpg","",""
"null","<div style=""font-size:60px;""> </div>","null","fixation","html-keyboard-response","146","705656","0.0-6.0-0.20","3101802","co38128","norming","","","","","","",""
"null","../img/tt/049tt.jpg","null","mooney1","image-keyboard-response","147","708664","0.0-6.0-1.20","3101802","co38128","norming","","","","","","",""
"5956.249999999884","","","post_mooney1_questions","survey-likert","148","714623","0.0-6.0-2.20","3101802","co38128","norming","","","{""curiosity"":2,""confidence"":1}","[0,1]","../img/tt/049tt.jpg","",""
"982.0899999999674","","","recognition","survey-text","149","715606","0.0-6.0-3.20","3101802","co38128","norming","","","{""guess"":""""}","","../img/tt/049tt.jpg","",""
"null","../img/gs/049gs.jpg","null","reveal","image-keyboard-response","150","717612","0.0-6.0-4.20","3101802","co38128","norming","","","","","","",""
"null","../img/tt/049tt.jpg","null","mooney2","image-keyboard-response","151","719620","0.0-6.0-5.20","3101802","co38128","norming","","","","","","",""
"2097.015000000014","","","post_reveal_questions","survey-likert","152","721718","0.0-6.0-6.20","3101802","co38128","norming","","","{""aha"":4}","[0]","../img/tt/049tt.jpg","",""
"null","<div style=""font-size:60px;""> </div>","null","fixation","html-keyboard-response","153","721923","0.0-6.0-0.21","3101802","co38128","norming","","","","","","",""
"null","../img/tt/008tt.jpg","null","mooney1","image-keyboard-response","154","724934","0.0-6.0-1.21","3101802","co38128","norming","","","","","","",""
"3286.4949999999953","","","post_mooney1_questions","survey-likert","155","728223","0.0-6.0-2.21","3101802","co38128","norming","","","{""curiosity"":1,""confidence"":2}","[0,1]","../img/tt/008tt.jpg","",""
"2694.175000000163","","","recognition","survey-text","156","730919","0.0-6.0-3.21","3101802","co38128","norming","","","{""guess"":""boek""}","","../img/tt/008tt.jpg","",""
"null","../img/gs/008gs.jpg","null","reveal","image-keyboard-response","157","732921","0.0-6.0-4.21","3101802","co38128","norming","","","","","","",""
"null","../img/tt/008tt.jpg","null","mooney2","image-keyboard-response","158","734922","0.0-6.0-5.21","3101802","co38128","norming","","","","","","",""
"2642.3099999999395","","","post_reveal_questions","survey-likert","159","737562","0.0-6.0-6.21","3101802","co38128","norming","","","{""aha"":3}","[0]","../img/tt/008tt.jpg","",""
"null","<div style=""font-size:60px;""> </div>","null","fixation","html-keyboard-response","160","737767","0.0-6.0-0.22","3101802","co38128","norming","","","","","","",""
"null","../img/tt/053tt.jpg","null","mooney1","image-keyboard-response","161","740776","0.0-6.0-1.22","3101802","co38128","norming","","","","","","",""
"4000.2500000001164","","","post_mooney1_questions","survey-likert","162","744778","0.0-6.0-2.22","3101802","co38128","norming","","","{""curiosity"":3,""confidence"":2}","[0,1]","../img/tt/053tt.jpg","",""
"837.9149999999208","","","recognition","survey-text","163","745618","0.0-6.0-3.22","3101802","co38128","norming","","","{""guess"":""""}","","../img/tt/053tt.jpg","",""
"null","../img/gs/053gs.jpg","null","reveal","image-keyboard-response","164","747628","0.0-6.0-4.22","3101802","co38128","norming","","","","","","",""
"null","../img/tt/053tt.jpg","null","mooney2","image-keyboard-response","165","749629","0.0-6.0-5.22","3101802","co38128","norming","","","","","","",""
"1859.1750000000466","","","post_reveal_questions","survey-likert","166","751490","0.0-6.0-6.22","3101802","co38128","norming","","","{""aha"":5}","[0]","../img/tt/053tt.jpg","",""
"null","<div style=""font-size:60px;""> </div>","null","fixation","html-keyboard-response","167","751701","0.0-6.0-0.23","3101802","co38128","norming","","","","","","",""
"null","../img/tt/442tt.jpg","null","mooney1","image-keyboard-response","168","754707","0.0-6.0-1.23","3101802","co38128","norming","","","","","","",""
"5012.990000000107","","","post_mooney1_questions","survey-likert","169","759722","0.0-6.0-2.23","3101802","co38128","norming","","","{""curiosity"":4,""confidence"":2}","[0,1]","../img/tt/442tt.jpg","",""
"4230.07500000007","","","recognition","survey-text","170","763954","0.0-6.0-3.23","3101802","co38128","norming","","","{""guess"":""dier""}","","../img/tt/442tt.jpg","",""
"null","../img/gs/442gs.jpg","null","reveal","image-keyboard-response","171","765955","0.0-6.0-4.23","3101802","co38128","norming","","","","","","",""
"null","../img/tt/442tt.jpg","null","mooney2","image-keyboard-response","172","767965","0.0-6.0-5.23","3101802","co38128","norming","","","","","","",""
"1867.155000000028","","","post_reveal_questions","survey-likert","173","769834","0.0-6.0-6.23","3101802","co38128","norming","","","{""aha"":3}","[0]","../img/tt/442tt.jpg","",""
"null","<div style=""font-size:60px;""> </div>","null","fixation","html-keyboard-response","174","770042","0.0-6.0-0.24","3101802","co38128","norming","","","","","","",""
"null","../img/tt/380tt.jpg","null","mooney1","image-keyboard-response","175","773044","0.0-6.0-1.24","3101802","co38128","norming","","","","","","",""
"3803.969999999972","","","post_mooney1_questions","survey-likert","176","776850","0.0-6.0-2.24","3101802","co38128","norming","","","{""curiosity"":1,""confidence"":2}","[0,1]","../img/tt/380tt.jpg","",""
"2590.1049999999814","","","recognition","survey-text","177","779442","0.0-6.0-3.24","3101802","co38128","norming","","","{""guess"":""vogel""}","","../img/tt/380tt.jpg","",""
"null","../img/gs/380gs.jpg","null","reveal","image-keyboard-response","178","781443","0.0-6.0-4.24","3101802","co38128","norming","","","","","","",""
"null","../img/tt/380tt.jpg","null","mooney2","image-keyboard-response","179","783445","0.0-6.0-5.24","3101802","co38128","norming","","","","","","",""
"3619.6450000000186","","","post_reveal_questions","survey-likert","180","787066","0.0-6.0-6.24","3101802","co38128","norming","","","{""aha"":4}","[0]","../img/tt/380tt.jpg","",""
"null","<div style=""font-size:60px;""> </div>","null","fixation","html-keyboard-response","181","787273","0.0-6.0-0.25","3101802","co38128","norming","","","","","","",""
"null","../img/tt/007tt.jpg","null","mooney1","image-keyboard-response","182","790277","0.0-6.0-1.25","3101802","co38128","norming","","","","","","",""
"4595.179999999935","","","post_mooney1_questions","survey-likert","183","794874","0.0-6.0-2.25","3101802","co38128","norming","","","{""curiosity"":2,""confidence"":1}","[0,1]","../img/tt/007tt.jpg","",""
"3142.030000000028","","","recognition","survey-text","184","798018","0.0-6.0-3.25","3101802","co38128","norming","","","{""guess"":""vogel""}","","../img/tt/007tt.jpg","",""
"null","../img/gs/007gs.jpg","null","reveal","image-keyboard-response","185","800030","0.0-6.0-4.25","3101802","co38128","norming","","","","","","",""
"null","../img/tt/007tt.jpg","null","mooney2","image-keyboard-response","186","802031","0.0-6.0-5.25","3101802","co38128","norming","","","","","","",""
"3073.314999999944","","","post_reveal_questions","survey-likert","187","805106","0.0-6.0-6.25","3101802","co38128","norming","","","{""aha"":1}","[0]","../img/tt/007tt.jpg","",""
"null","<div style=""font-size:60px;""> </div>","null","fixation","html-keyboard-response","188","805317","0.0-6.0-0.26","3101802","co38128","norming","","","","","","",""
"null","../img/tt/1159tt.jpg","null","mooney1","image-keyboard-response","189","808325","0.0-6.0-1.26","3101802","co38128","norming","","","","","","",""
"4268.160000000149","","","post_mooney1_questions","survey-likert","190","812594","0.0-6.0-2.26","3101802","co38128","norming","","","{""curiosity"":3,""confidence"":3}","[0,1]","../img/tt/1159tt.jpg","",""
"2222.069999999949","","","recognition","survey-text","191","814818","0.0-6.0-3.26","3101802","co38128","norming","","","{""guess"":""piano""}","","../img/tt/1159tt.jpg","",""
"null","../img/gs/1159gs.jpg","null","reveal","image-keyboard-response","192","816828","0.0-6.0-4.26","3101802","co38128","norming","","","","","","",""
"null","../img/tt/1159tt.jpg","null","mooney2","image-keyboard-response","193","818829","0.0-6.0-5.26","3101802","co38128","norming","","","","","","",""
"3314.704999999958","","","post_reveal_questions","survey-likert","194","822146","0.0-6.0-6.26","3101802","co38128","norming","","","{""aha"":5}","[0]","../img/tt/1159tt.jpg","",""
"null","<div style=""font-size:60px;""> </div>","null","fixation","html-keyboard-response","195","822351","0.0-6.0-0.27","3101802","co38128","norming","","","","","","",""
"null","../img/tt/418tt.jpg","null","mooney1","image-keyboard-response","196","825360","0.0-6.0-1.27","3101802","co38128","norming","","","","","","",""
"4048.570000000065","","","post_mooney1_questions","survey-likert","197","829410","0.0-6.0-2.27","3101802","co38128","norming","","","{""curiosity"":1,""confidence"":0}","[0,1]","../img/tt/418tt.jpg","",""
"814.4600000000792","","","recognition","survey-text","198","830226","0.0-6.0-3.27","3101802","co38128","norming","","","{""guess"":""""}","","../img/tt/418tt.jpg","",""
"null","../img/gs/418gs.jpg","null","reveal","image-keyboard-response","199","832235","0.0-6.0-4.27","3101802","co38128","norming","","","","","","",""
"null","../img/tt/418tt.jpg","null","mooney2","image-keyboard-response","200","834242","0.0-6.0-5.27","3101802","co38128","norming","","","","","","",""
"3357.4400000000605","","","post_reveal_questions","survey-likert","201","837602","0.0-6.0-6.27","3101802","co38128","norming","","","{""aha"":2}","[0]","../img/tt/418tt.jpg","",""
"null","<div style=""font-size:60px;""> </div>","null","fixation","html-keyboard-response","202","837806","0.0-6.0-0.28","3101802","co38128","norming","","","","","","",""
"null","../img/tt/524tt.jpg","null","mooney1","image-keyboard-response","203","840816","0.0-6.0-1.28","3101802","co38128","norming","","","","","","",""
"4295.480000000098","","","post_mooney1_questions","survey-likert","204","845114","0.0-6.0-2.28","3101802","co38128","norming","","","{""curiosity"":1,""confidence"":1}","[0,1]","../img/tt/524tt.jpg","",""
"2134.2500000001164","","","recognition","survey-text","205","847250","0.0-6.0-3.28","3101802","co38128","norming","","","{""guess"":""bever""}","","../img/tt/524tt.jpg","",""
"null","../img/gs/524gs.jpg","null","reveal","image-keyboard-response","206","849259","0.0-6.0-4.28","3101802","co38128","norming","","","","","","",""
"null","../img/tt/524tt.jpg","null","mooney2","image-keyboard-response","207","851261","0.0-6.0-5.28","3101802","co38128","norming","","","","","","",""
"2843.29999999993","","","post_reveal_questions","survey-likert","208","854106","0.0-6.0-6.28","3101802","co38128","norming","","","{""aha"":5}","[0]","../img/tt/524tt.jpg","",""
"null","<div style=""font-size:60px;""> </div>","null","fixation","html-keyboard-response","209","854308","0.0-6.0-0.29","3101802","co38128","norming","","","","","","",""
"null","../img/tt/094tt.jpg","null","mooney1","image-keyboard-response","210","857322","0.0-6.0-1.29","3101802","co38128","norming","","","","","","",""
"3418.0549999998184","","","post_mooney1_questions","survey-likert","211","860743","0.0-6.0-2.29","3101802","co38128","norming","","","{""curiosity"":1,""confidence"":1}","[0,1]","../img/tt/094tt.jpg","",""
"678.1849999999395","","","recognition","survey-text","212","861422","0.0-6.0-3.29","3101802","co38128","norming","","","{""guess"":""""}","","../img/tt/094tt.jpg","",""
"null","../img/gs/094gs.jpg","null","reveal","image-keyboard-response","213","863425","0.0-6.0-4.29","3101802","co38128","norming","","","","","","",""
"null","../img/tt/094tt.jpg","null","mooney2","image-keyboard-response","214","865435","0.0-6.0-5.29","3101802","co38128","norming","","","","","","",""
"2738.6699999999255","","","post_reveal_questions","survey-likert","215","868174","0.0-6.0-6.29","3101802","co38128","norming","","","{""aha"":3}","[0]","../img/tt/094tt.jpg","",""
"null","<div style=""font-size:60px;""> </div>","null","fixation","html-keyboard-response","216","868384","0.0-6.0-0.30","3101802","co38128","norming","","","","","","",""
"null","../img/tt/1097tt.jpg","null","mooney1","image-keyboard-response","217","871392","0.0-6.0-1.30","3101802","co38128","norming","","","","","","",""
"7437.715000000084","","","post_mooney1_questions","survey-likert","218","878830","0.0-6.0-2.30","3101802","co38128","norming","","","{""curiosity"":4,""confidence"":2}","[0,1]","../img/tt/1097tt.jpg","",""
"11541.765000000014","","","recognition","survey-text","219","890374","0.0-6.0-3.30","3101802","co38128","norming","","","{""guess"":""weide""}","","../img/tt/1097tt.jpg","",""
"null","../img/gs/1097gs.jpg","null","reveal","image-keyboard-response","220","892380","0.0-6.0-4.30","3101802","co38128","norming","","","","","","",""
"null","../img/tt/1097tt.jpg","null","mooney2","image-keyboard-response","221","894385","0.0-6.0-5.30","3101802","co38128","norming","","","","","","",""
"2507.7050000000745","","","post_reveal_questions","survey-likert","222","896894","0.0-6.0-6.30","3101802","co38128","norming","","","{""aha"":3}","[0]","../img/tt/1097tt.jpg","",""
"null","<div style=""font-size:60px;""> </div>","null","fixation","html-keyboard-response","223","897105","0.0-6.0-0.31","3101802","co38128","norming","","","","","","",""
"null","../img/tt/105tt.jpg","null","mooney1","image-keyboard-response","224","900111","0.0-6.0-1.31","3101802","co38128","norming","","","","","","",""
"3645.8700000001118","","","post_mooney1_questions","survey-likert","225","903758","0.0-6.0-2.31","3101802","co38128","norming","","","{""curiosity"":1,""confidence"":0}","[0,1]","../img/tt/105tt.jpg","",""
"1846.0499999999302","","","recognition","survey-text","226","905606","0.0-6.0-3.31","3101802","co38128","norming","","","{""guess"":""""}","","../img/tt/105tt.jpg","",""
"null","../img/gs/105gs.jpg","null","reveal","image-keyboard-response","227","907614","0.0-6.0-4.31","3101802","co38128","norming","","","","","","",""
"null","../img/tt/105tt.jpg","null","mooney2","image-keyboard-response","228","909622","0.0-6.0-5.31","3101802","co38128","norming","","","","","","",""
"2502.9400000000605","","","post_reveal_questions","survey-likert","229","912126","0.0-6.0-6.31","3101802","co38128","norming","","","{""aha"":1}","[0]","../img/tt/105tt.jpg","",""
"null","<div style=""font-size:60px;""> </div>","null","fixation","html-keyboard-response","230","912333","0.0-6.0-0.32","3101802","co38128","norming","","","","","","",""
"null","../img/tt/1224tt.jpg","null","mooney1","image-keyboard-response","231","915338","0.0-6.0-1.32","3101802","co38128","norming","","","","","","",""
"3490.805000000051","","","post_mooney1_questions","survey-likert","232","918822","0.0-6.0-2.32","3101802","co38128","norming","","","{""curiosity"":1,""confidence"":1}","[0,1]","../img/tt/1224tt.jpg","",""
"2005.979999999865","","","recognition","survey-text","233","920829","0.0-6.0-3.32","3101802","co38128","norming","","","{""guess"":""kamer""}","","../img/tt/1224tt.jpg","",""
"null","../img/gs/1224gs.jpg","null","reveal","image-keyboard-response","234","922833","0.0-6.0-4.32","3101802","co38128","norming","","","","","","",""
"null","../img/tt/1224tt.jpg","null","mooney2","image-keyboard-response","235","924837","0.0-6.0-5.32","3101802","co38128","norming","","","","","","",""
"3127.715000000084","","","post_reveal_questions","survey-likert","236","927965","0.0-6.0-6.32","3101802","co38128","norming","","","{""aha"":3}","[0]","../img/tt/1224tt.jpg","",""
"null","<div style=""font-size:60px;""> </div>","null","fixation","html-keyboard-response","237","928167","0.0-6.0-0.33","3101802","co38128","norming","","","","","","",""
"null","../img/tt/1096tt.jpg","null","mooney1","image-keyboard-response","238","931171","0.0-6.0-1.33","3101802","co38128","norming","","","","","","",""
"4137.005000000005","","","post_mooney1_questions","survey-likert","239","935310","0.0-6.0-2.33","3101802","co38128","norming","","","{""curiosity"":4,""confidence"":3}","[0,1]","../img/tt/1096tt.jpg","",""
"2445.9849999998696","","","recognition","survey-text","240","937757","0.0-6.0-3.33","3101802","co38128","norming","","","{""guess"":""trap""}","","../img/tt/1096tt.jpg","",""
"null","../img/gs/1096gs.jpg","null","reveal","image-keyboard-response","241","939766","0.0-6.0-4.33","3101802","co38128","norming","","","","","","",""
"null","../img/tt/1096tt.jpg","null","mooney2","image-keyboard-response","242","941777","0.0-6.0-5.33","3101802","co38128","norming","","","","","","",""
"1707.5399999998044","","","post_reveal_questions","survey-likert","243","943485","0.0-6.0-6.33","3101802","co38128","norming","","","{""aha"":2}","[0]","../img/tt/1096tt.jpg","",""
"null","<div style=""font-size:60px;""> </div>","null","fixation","html-keyboard-response","244","943690","0.0-6.0-0.34","3101802","co38128","norming","","","","","","",""
"null","../img/tt/056tt.jpg","null","mooney1","image-keyboard-response","245","946694","0.0-6.0-1.34","3101802","co38128","norming","","","","","","",""
"3798.7950000001583","","","post_mooney1_questions","survey-likert","246","950494","0.0-6.0-2.34","3101802","co38128","norming","","","{""curiosity"":2,""confidence"":1}","[0,1]","../img/tt/056tt.jpg","",""
"1925.5550000000512","","","recognition","survey-text","247","952421","0.0-6.0-3.34","3101802","co38128","norming","","","{""guess"":""""}","","../img/tt/056tt.jpg","",""
"null","../img/gs/056gs.jpg","null","reveal","image-keyboard-response","248","954425","0.0-6.0-4.34","3101802","co38128","norming","","","","","","",""
"null","../img/tt/056tt.jpg","null","mooney2","image-keyboard-response","249","956426","0.0-6.0-5.34","3101802","co38128","norming","","","","","","",""
"2194.0400000000373","","","post_reveal_questions","survey-likert","250","958621","0.0-6.0-6.34","3101802","co38128","norming","","","{""aha"":1}","[0]","../img/tt/056tt.jpg","",""
"null","<div style=""font-size:60px;""> </div>","null","fixation","html-keyboard-response","251","958832","0.0-6.0-0.35","3101802","co38128","norming","","","","","","",""
"null","../img/tt/1243tt.jpg","null","mooney1","image-keyboard-response","252","961834","0.0-6.0-1.35","3101802","co38128","norming","","","","","","",""
"6946.585000000079","","","post_mooney1_questions","survey-likert","253","968781","0.0-6.0-2.35","3101802","co38128","norming","","","{""curiosity"":3,""confidence"":1}","[0,1]","../img/tt/1243tt.jpg","",""
"5181.8300000000745","","","recognition","survey-text","254","973965","0.0-6.0-3.35","3101802","co38128","norming","","","{""guess"":""raam""}","","../img/tt/1243tt.jpg","",""
"null","../img/gs/1243gs.jpg","null","reveal","image-keyboard-response","255","975972","0.0-6.0-4.35","3101802","co38128","norming","","","","","","",""
"null","../img/tt/1243tt.jpg","null","mooney2","image-keyboard-response","256","977992","0.0-6.0-5.35","3101802","co38128","norming","","","","","","",""
"2935.555000000051","","","post_reveal_questions","survey-likert","257","980928","0.0-6.0-6.35","3101802","co38128","norming","","","{""aha"":2}","[0]","../img/tt/1243tt.jpg","",""
"null","<div style=""font-size:60px;""> </div>","null","fixation","html-keyboard-response","258","981132","0.0-6.0-0.36","3101802","co38128","norming","","","","","","",""
"null","../img/tt/1087tt.jpg","null","mooney1","image-keyboard-response","259","984133","0.0-6.0-1.36","3101802","co38128","norming","","","","","","",""
"4186.089999999967","","","post_mooney1_questions","survey-likert","260","988321","0.0-6.0-2.36","3101802","co38128","norming","","","{""curiosity"":1,""confidence"":0}","[0,1]","../img/tt/1087tt.jpg","",""
"2549.7449999999953","","","recognition","survey-text","261","990872","0.0-6.0-3.36","3101802","co38128","norming","","","{""guess"":""dieren""}","","../img/tt/1087tt.jpg","",""
"null","../img/gs/1087gs.jpg","null","reveal","image-keyboard-response","262","992881","0.0-6.0-4.36","3101802","co38128","norming","","","","","","",""
"null","../img/tt/1087tt.jpg","null","mooney2","image-keyboard-response","263","994883","0.0-6.0-5.36","3101802","co38128","norming","","","","","","",""
"3108.074999999837","","","post_reveal_questions","survey-likert","264","997992","0.0-6.0-6.36","3101802","co38128","norming","","","{""aha"":4}","[0]","../img/tt/1087tt.jpg","",""
"null","<div style=""font-size:60px;""> </div>","null","fixation","html-keyboard-response","265","998197","0.0-6.0-0.37","3101802","co38128","norming","","","","","","",""
"null","../img/tt/1234tt.jpg","null","mooney1","image-keyboard-response","266","1001205","0.0-6.0-1.37","3101802","co38128","norming","","","","","","",""
"5097.474999999977","","","post_mooney1_questions","survey-likert","267","1006304","0.0-6.0-2.37","3101802","co38128","norming","","","{""curiosity"":3,""confidence"":2}","[0,1]","../img/tt/1234tt.jpg","",""
"2582.159999999916","","","recognition","survey-text","268","1008888","0.0-6.0-3.37","3101802","co38128","norming","","","{""guess"":""watre""}","","../img/tt/1234tt.jpg","",""
"null","../img/gs/1234gs.jpg","null","reveal","image-keyboard-response","269","1010894","0.0-6.0-4.37","3101802","co38128","norming","","","","","","",""
"null","../img/tt/1234tt.jpg","null","mooney2","image-keyboard-response","270","1012900","0.0-6.0-5.37","3101802","co38128","norming","","","","","","",""
"2306.2299999999814","","","post_reveal_questions","survey-likert","271","1015208","0.0-6.0-6.37","3101802","co38128","norming","","","{""aha"":4}","[0]","../img/tt/1234tt.jpg","",""
"null","<div style=""font-size:60px;""> </div>","null","fixation","html-keyboard-response","272","1015415","0.0-6.0-0.38","3101802","co38128","norming","","","","","","",""
"null","../img/tt/559tt.jpg","null","mooney1","image-keyboard-response","273","1018418","0.0-6.0-1.38","3101802","co38128","norming","","","","","","",""
"4619.235000000219","","","post_mooney1_questions","survey-likert","274","1023040","0.0-6.0-2.38","3101802","co38128","norming","","","{""curiosity"":3,""confidence"":2}","[0,1]","../img/tt/559tt.jpg","",""
"2502.1899999997113","","","recognition","survey-text","275","1025544","0.0-6.0-3.38","3101802","co38128","norming","","","{""guess"":""stoel""}","","../img/tt/559tt.jpg","",""
"null","../img/gs/559gs.jpg","null","reveal","image-keyboard-response","276","1027546","0.0-6.0-4.38","3101802","co38128","norming","","","","","","",""
"null","../img/tt/559tt.jpg","null","mooney2","image-keyboard-response","277","1029555","0.0-6.0-5.38","3101802","co38128","norming","","","","","","",""
"4418.094999999972","","","post_reveal_questions","survey-likert","278","1033976","0.0-6.0-6.38","3101802","co38128","norming","","","{""aha"":2}","[0]","../img/tt/559tt.jpg","",""
"null","<div style=""font-size:60px;""> </div>","null","fixation","html-keyboard-response","279","1034183","0.0-6.0-0.39","3101802","co38128","norming","","","","","","",""
"null","../img/tt/1226tt.jpg","null","mooney1","image-keyboard-response","280","1037192","0.0-6.0-1.39","3101802","co38128","norming","","","","","","",""
"6013.304999999935","","","post_mooney1_questions","survey-likert","281","1043207","0.0-6.0-2.39","3101802","co38128","norming","","","{""curiosity"":2,""confidence"":2}","[0,1]","../img/tt/1226tt.jpg","",""
"2126.3250000001863","","","recognition","survey-text","282","1045335","0.0-6.0-3.39","3101802","co38128","norming","","","{""guess"":""kaars""}","","../img/tt/1226tt.jpg","",""
"null","../img/gs/1226gs.jpg","null","reveal","image-keyboard-response","283","1047344","0.0-6.0-4.39","3101802","co38128","norming","","","","","","",""
"null","../img/tt/1226tt.jpg","null","mooney2","image-keyboard-response","284","1049345","0.0-6.0-5.39","3101802","co38128","norming","","","","","","",""
"2179.435000000056","","","post_reveal_questions","survey-likert","285","1051527","0.0-6.0-6.39","3101802","co38128","norming","","","{""aha"":5}","[0]","../img/tt/1226tt.jpg","",""
"null","<div style=""font-size:60px;""> </div>","null","fixation","html-keyboard-response","286","1051737","0.0-6.0-0.40","3101802","co38128","norming","","","","","","",""
"null","../img/tt/567tt.jpg","null","mooney1","image-keyboard-response","287","1054744","0.0-6.0-1.40","3101802","co38128","norming","","","","","","",""
"3117.064999999944","","","post_mooney1_questions","survey-likert","288","1057864","0.0-6.0-2.40","3101802","co38128","norming","","","{""curiosity"":1,""confidence"":2}","[0,1]","../img/tt/567tt.jpg","",""
"2190.0800000003073","","","recognition","survey-text","289","1060055","0.0-6.0-3.40","3101802","co38128","norming","","","{""guess"":""zeep""}","","../img/tt/567tt.jpg","",""
"null","../img/gs/567gs.jpg","null","reveal","image-keyboard-response","290","1062057","0.0-6.0-4.40","3101802","co38128","norming","","","","","","",""
"null","../img/tt/567tt.jpg","null","mooney2","image-keyboard-response","291","1064059","0.0-6.0-5.40","3101802","co38128","norming","","","","","","",""
"2099.029999999795","","","post_reveal_questions","survey-likert","292","1066159","0.0-6.0-6.40","3101802","co38128","norming","","","{""aha"":3}","[0]","../img/tt/567tt.jpg","",""
"null","<div style=""font-size:60px;""> </div>","null","fixation","html-keyboard-response","293","1066362","0.0-6.0-0.41","3101802","co38128","norming","","","","","","",""
"null","../img/tt/1004tt.jpg","null","mooney1","image-keyboard-response","294","1069364","0.0-6.0-1.41","3101802","co38128","norming","","","","","","",""
"3826.2650000001304","","","post_mooney1_questions","survey-likert","295","1073192","0.0-6.0-2.41","3101802","co38128","norming","","","{""curiosity"":1,""confidence"":1}","[0,1]","../img/tt/1004tt.jpg","",""
"3277.910000000149","","","recognition","survey-text","296","1076471","0.0-6.0-3.41","3101802","co38128","norming","","","{""guess"":""gras""}","","../img/tt/1004tt.jpg","",""
"null","../img/gs/1004gs.jpg","null","reveal","image-keyboard-response","297","1078475","0.0-6.0-4.41","3101802","co38128","norming","","","","","","",""
"null","../img/tt/1004tt.jpg","null","mooney2","image-keyboard-response","298","1080477","0.0-6.0-5.41","3101802","co38128","norming","","","","","","",""
"4568.139999999898","","","post_reveal_questions","survey-likert","299","1085047","0.0-6.0-6.41","3101802","co38128","norming","","","{""aha"":4}","[0]","../img/tt/1004tt.jpg","",""
"null","<div style=""font-size:60px;""> </div>","null","fixation","html-keyboard-response","300","1085249","0.0-6.0-0.42","3101802","co38128","norming","","","","","","",""
"null","../img/tt/1362tt.jpg","null","mooney1","image-keyboard-response","301","1088255","0.0-6.0-1.42","3101802","co38128","norming","","","","","","",""
"3470.3600000003353","","","post_mooney1_questions","survey-likert","302","1091728","0.0-6.0-2.42","3101802","co38128","norming","","","{""curiosity"":4,""confidence"":3}","[0,1]","../img/tt/1362tt.jpg","",""
"2742.0149999996647","","","recognition","survey-text","303","1094471","0.0-6.0-3.42","3101802","co38128","norming","","","{""guess"":""toilet""}","","../img/tt/1362tt.jpg","",""
"null","../img/gs/1362gs.jpg","null","reveal","image-keyboard-response","304","1096476","0.0-6.0-4.42","3101802","co38128","norming","","","","","","",""
"null","../img/tt/1362tt.jpg","null","mooney2","image-keyboard-response","305","1098484","0.0-6.0-5.42","3101802","co38128","norming","","","","","","",""
"4623.334999999963","","","post_reveal_questions","survey-likert","306","1103111","0.0-6.0-6.42","3101802","co38128","norming","","","{""aha"":2}","[0]","../img/tt/1362tt.jpg","",""
"null","<div style=""font-size:60px;""> </div>","null","fixation","html-keyboard-response","307","1103313","0.0-6.0-0.43","3101802","co38128","norming","","","","","","",""
"null","../img/tt/1078tt.jpg","null","mooney1","image-keyboard-response","308","1106319","0.0-6.0-1.43","3101802","co38128","norming","","","","","","",""
"3973.1699999996927","","","post_mooney1_questions","survey-likert","309","1110295","0.0-6.0-2.43","3101802","co38128","norming","","","{""curiosity"":1,""confidence"":2}","[0,1]","../img/tt/1078tt.jpg","",""
"1822.0499999998137","","","recognition","survey-text","310","1112119","0.0-6.0-3.43","3101802","co38128","norming","","","{""guess"":""bus""}","","../img/tt/1078tt.jpg","",""
"null","../img/gs/1078gs.jpg","null","reveal","image-keyboard-response","311","1114126","0.0-6.0-4.43","3101802","co38128","norming","","","","","","",""
"null","../img/tt/1078tt.jpg","null","mooney2","image-keyboard-response","312","1116136","0.0-6.0-5.43","3101802","co38128","norming","","","","","","",""
"3276.1750000000466","","","post_reveal_questions","survey-likert","313","1119414","0.0-6.0-6.43","3101802","co38128","norming","","","{""aha"":4}","[0]","../img/tt/1078tt.jpg","",""
"null","<div style=""font-size:60px;""> </div>","null","fixation","html-keyboard-response","314","1119615","0.0-6.0-0.44","3101802","co38128","norming","","","","","","",""
"null","../img/tt/406tt.jpg","null","mooney1","image-keyboard-response","315","1122621","0.0-6.0-1.44","3101802","co38128","norming","","","","","","",""
"7271.369999999879","","","post_mooney1_questions","survey-likert","316","1129895","0.0-6.0-2.44","3101802","co38128","norming","","","{""curiosity"":1,""confidence"":0}","[0,1]","../img/tt/406tt.jpg","",""
"958.1149999997579","","","recognition","survey-text","317","1130855","0.0-6.0-3.44","3101802","co38128","norming","","","{""guess"":""""}","","../img/tt/406tt.jpg","",""
"null","../img/gs/406gs.jpg","null","reveal","image-keyboard-response","318","1132865","0.0-6.0-4.44","3101802","co38128","norming","","","","","","",""
"null","../img/tt/406tt.jpg","null","mooney2","image-keyboard-response","319","1134869","0.0-6.0-5.44","3101802","co38128","norming","","","","","","",""
"2663.089999999851","","","post_reveal_questions","survey-likert","320","1137534","0.0-6.0-6.44","3101802","co38128","norming","","","{""aha"":0}","[0]","../img/tt/406tt.jpg","",""
"null","<div style=""font-size:60px;""> </div>","null","fixation","html-keyboard-response","321","1137740","0.0-6.0-0.45","3101802","co38128","norming","","","","","","",""
"null","../img/tt/580tt.jpg","null","mooney1","image-keyboard-response","322","1140745","0.0-6.0-1.45","3101802","co38128","norming","","","","","","",""
"3027.5049999998882","","","post_mooney1_questions","survey-likert","323","1143775","0.0-6.0-2.45","3101802","co38128","norming","","","{""curiosity"":2,""confidence"":3}","[0,1]","../img/tt/580tt.jpg","",""
"2630.160000000149","","","recognition","survey-text","324","1146406","0.0-6.0-3.45","3101802","co38128","norming","","","{""guess"":""insect""}","","../img/tt/580tt.jpg","",""
"null","../img/gs/580gs.jpg","null","reveal","image-keyboard-response","325","1148412","0.0-6.0-4.45","3101802","co38128","norming","","","","","","",""
"null","../img/tt/580tt.jpg","null","mooney2","image-keyboard-response","326","1150417","0.0-6.0-5.45","3101802","co38128","norming","","","","","","",""
"2467.4249999998137","","","post_reveal_questions","survey-likert","327","1152887","0.0-6.0-6.45","3101802","co38128","norming","","","{""aha"":4}","[0]","../img/tt/580tt.jpg","",""
"null","<div style=""font-size:60px;""> </div>","null","fixation","html-keyboard-response","328","1153090","0.0-6.0-0.46","3101802","co38128","norming","","","","","","",""
"null","../img/tt/1048tt.jpg","null","mooney1","image-keyboard-response","329","1156097","0.0-6.0-1.46","3101802","co38128","norming","","","","","","",""
"4107.629999999888","","","post_mooney1_questions","survey-likert","330","1160208","0.0-6.0-2.46","3101802","co38128","norming","","","{""curiosity"":2,""confidence"":1}","[0,1]","../img/tt/1048tt.jpg","",""
"4598.1150000002235","","","recognition","survey-text","331","1164807","0.0-6.0-3.46","3101802","co38128","norming","","","{""guess"":""boom""}","","../img/tt/1048tt.jpg","",""
"null","../img/gs/1048gs.jpg","null","reveal","image-keyboard-response","332","1166811","0.0-6.0-4.46","3101802","co38128","norming","","","","","","",""
"null","../img/tt/1048tt.jpg","null","mooney2","image-keyboard-response","333","1168821","0.0-6.0-5.46","3101802","co38128","norming","","","","","","",""
"3272.6800000001676","","","post_reveal_questions","survey-likert","334","1172095","0.0-6.0-6.46","3101802","co38128","norming","","","{""aha"":2}","[0]","../img/tt/1048tt.jpg","",""
"null","<div style=""font-size:60px;""> </div>","null","fixation","html-keyboard-response","335","1172298","0.0-6.0-0.47","3101802","co38128","norming","","","","","","",""
"null","../img/tt/1126tt.jpg","null","mooney1","image-keyboard-response","336","1175303","0.0-6.0-1.47","3101802","co38128","norming","","","","","","",""
"3917.409999999916","","","post_mooney1_questions","survey-likert","337","1179224","0.0-6.0-2.47","3101802","co38128","norming","","","{""curiosity"":1,""confidence"":1}","[0,1]","../img/tt/1126tt.jpg","",""
"2365.6049999999814","","","recognition","survey-text","338","1181591","0.0-6.0-3.47","3101802","co38128","norming","","","{""guess"":""boom""}","","../img/tt/1126tt.jpg","",""
"null","../img/gs/1126gs.jpg","null","reveal","image-keyboard-response","339","1183594","0.0-6.0-4.47","3101802","co38128","norming","","","","","","",""
"null","../img/tt/1126tt.jpg","null","mooney2","image-keyboard-response","340","1185604","0.0-6.0-5.47","3101802","co38128","norming","","","","","","",""
"2041.385000000475","","","post_reveal_questions","survey-likert","341","1187647","0.0-6.0-6.47","3101802","co38128","norming","","","{""aha"":1}","[0]","../img/tt/1126tt.jpg","",""
"null","<div style=""font-size:60px;""> </div>","null","fixation","html-keyboard-response","342","1187855","0.0-6.0-0.48","3101802","co38128","norming","","","","","","",""
"null","../img/tt/064tt.jpg","null","mooney1","image-keyboard-response","343","1190859","0.0-6.0-1.48","3101802","co38128","norming","","","","","","",""
"4265.385000000009","","","post_mooney1_questions","survey-likert","344","1195127","0.0-6.0-2.48","3101802","co38128","norming","","","{""curiosity"":1,""confidence"":0}","[0,1]","../img/tt/064tt.jpg","",""
"1926.125","","","recognition","survey-text","345","1197055","0.0-6.0-3.48","3101802","co38128","norming","","","{""guess"":""""}","","../img/tt/064tt.jpg","",""
"null","../img/gs/064gs.jpg","null","reveal","image-keyboard-response","346","1199060","0.0-6.0-4.48","3101802","co38128","norming","","","","","","",""
"null","../img/tt/064tt.jpg","null","mooney2","image-keyboard-response","347","1201066","0.0-6.0-5.48","3101802","co38128","norming","","","","","","",""
"4139.469999999972","","","post_reveal_questions","survey-likert","348","1205207","0.0-6.0-6.48","3101802","co38128","norming","","","{""aha"":2}","[0]","../img/tt/064tt.jpg","",""
"null","<div style=""font-size:60px;""> </div>","null","fixation","html-keyboard-response","349","1205409","0.0-6.0-0.49","3101802","co38128","norming","","","","","","",""
"null","../img/tt/522tt.jpg","null","mooney1","image-keyboard-response","350","1208417","0.0-6.0-1.49","3101802","co38128","norming","","","","","","",""
"6411.779999999795","","","post_mooney1_questions","survey-likert","351","1214831","0.0-6.0-2.49","3101802","co38128","norming","","","{""curiosity"":1,""confidence"":1}","[0,1]","../img/tt/522tt.jpg","",""
"4790.004999999888","","","recognition","survey-text","352","1219623","0.0-6.0-3.49","3101802","co38128","norming","","","{""guess"":""persoon""}","","../img/tt/522tt.jpg","",""
"null","../img/gs/522gs.jpg","null","reveal","image-keyboard-response","353","1221633","0.0-6.0-4.49","3101802","co38128","norming","","","","","","",""
"null","../img/tt/522tt.jpg","null","mooney2","image-keyboard-response","354","1223642","0.0-6.0-5.49","3101802","co38128","norming","","","","","","",""
"4409.619999999879","","","post_reveal_questions","survey-likert","355","1228054","0.0-6.0-6.49","3101802","co38128","norming","","","{""aha"":4}","[0]","../img/tt/522tt.jpg","",""
"null","<div style=""font-size:60px;""> </div>","null","fixation","html-keyboard-response","356","1228260","0.0-6.0-0.50","3101802","co38128","norming","","","","","","",""
"null","../img/tt/052tt.jpg","null","mooney1","image-keyboard-response","357","1231266","0.0-6.0-1.50","3101802","co38128","norming","","","","","","",""
"5392.005000000121","","","post_mooney1_questions","survey-likert","358","1236662","0.0-6.0-2.50","3101802","co38128","norming","","","{""curiosity"":4,""confidence"":2}","[0,1]","../img/tt/052tt.jpg","",""
"1894.0000000002328","","","recognition","survey-text","359","1238558","0.0-6.0-3.50","3101802","co38128","norming","","","{""guess"":""pan""}","","../img/tt/052tt.jpg","",""
"null","../img/gs/052gs.jpg","null","reveal","image-keyboard-response","360","1240565","0.0-6.0-4.50","3101802","co38128","norming","","","","","","",""
"null","../img/tt/052tt.jpg","null","mooney2","image-keyboard-response","361","1242568","0.0-6.0-5.50","3101802","co38128","norming","","","","","","",""
"1723.4750000000931","","","post_reveal_questions","survey-likert","362","1244293","0.0-6.0-6.50","3101802","co38128","norming","","","{""aha"":1}","[0]","../img/tt/052tt.jpg","",""
"null","<div style=""font-size:60px;""> </div>","null","fixation","html-keyboard-response","363","1244504","0.0-6.0-0.51","3101802","co38128","norming","","","","","","",""
"null","../img/tt/358tt.jpg","null","mooney1","image-keyboard-response","364","1247508","0.0-6.0-1.51","3101802","co38128","norming","","","","","","",""
"3008.5150000001304","","","post_mooney1_questions","survey-likert","365","1250518","0.0-6.0-2.51","3101802","co38128","norming","","","{""curiosity"":2,""confidence"":1}","[0,1]","../img/tt/358tt.jpg","",""
"3702.130000000121","","","recognition","survey-text","366","1254222","0.0-6.0-3.51","3101802","co38128","norming","","","{""guess"":""reiziger""}","","../img/tt/358tt.jpg","",""
"null","../img/gs/358gs.jpg","null","reveal","image-keyboard-response","367","1256223","0.0-6.0-4.51","3101802","co38128","norming","","","","","","",""
"null","../img/tt/358tt.jpg","null","mooney2","image-keyboard-response","368","1258225","0.0-6.0-5.51","3101802","co38128","norming","","","","","","",""
"3642.4550000000745","","","post_reveal_questions","survey-likert","369","1261870","0.0-6.0-6.51","3101802","co38128","norming","","","{""aha"":1}","[0]","../img/tt/358tt.jpg","",""
"null","<div style=""font-size:60px;""> </div>","null","fixation","html-keyboard-response","370","1262077","0.0-6.0-0.52","3101802","co38128","norming","","","","","","",""
"null","../img/tt/078tt.jpg","null","mooney1","image-keyboard-response","371","1265080","0.0-6.0-1.52","3101802","co38128","norming","","","","","","",""
"3898.875","","","post_mooney1_questions","survey-likert","372","1268982","0.0-6.0-2.52","3101802","co38128","norming","","","{""curiosity"":1,""confidence"":1}","[0,1]","../img/tt/078tt.jpg","",""
"2614.4000000003725","","","recognition","survey-text","373","1271598","0.0-6.0-3.52","3101802","co38128","norming","","","{""guess"":""insect""}","","../img/tt/078tt.jpg","",""
"null","../img/gs/078gs.jpg","null","reveal","image-keyboard-response","374","1273607","0.0-6.0-4.52","3101802","co38128","norming","","","","","","",""
"null","../img/tt/078tt.jpg","null","mooney2","image-keyboard-response","375","1275609","0.0-6.0-5.52","3101802","co38128","norming","","","","","","",""
"2082.6750000000466","","","post_reveal_questions","survey-likert","376","1277694","0.0-6.0-6.52","3101802","co38128","norming","","","{""aha"":1}","[0]","../img/tt/078tt.jpg","",""
"null","<div style=""font-size:60px;""> </div>","null","fixation","html-keyboard-response","377","1277903","0.0-6.0-0.53","3101802","co38128","norming","","","","","","",""
"null","../img/tt/1205tt.jpg","null","mooney1","image-keyboard-response","378","1280912","0.0-6.0-1.53","3101802","co38128","norming","","","","","","",""
"7699.070000000065","","","post_mooney1_questions","survey-likert","379","1288610","0.0-6.0-2.53","3101802","co38128","norming","","","{""curiosity"":4,""confidence"":0}","[0,1]","../img/tt/1205tt.jpg","",""
"998.2799999997951","","","recognition","survey-text","380","1289610","0.0-6.0-3.53","3101802","co38128","norming","","","{""guess"":""""}","","../img/tt/1205tt.jpg","",""
"null","../img/gs/1205gs.jpg","null","reveal","image-keyboard-response","381","1291620","0.0-6.0-4.53","3101802","co38128","norming","","","","","","",""
"null","../img/tt/1205tt.jpg","null","mooney2","image-keyboard-response","382","1293624","0.0-6.0-5.53","3101802","co38128","norming","","","","","","",""
"6688.044999999693","","","post_reveal_questions","survey-likert","383","1300314","0.0-6.0-6.53","3101802","co38128","norming","","","{""aha"":1}","[0]","../img/tt/1205tt.jpg","",""
"null","<div style=""font-size:60px;""> </div>","null","fixation","html-keyboard-response","384","1300521","0.0-6.0-0.54","3101802","co38128","norming","","","","","","",""
"null","../img/tt/1130tt.jpg","null","mooney1","image-keyboard-response","385","1303527","0.0-6.0-1.54","3101802","co38128","norming","","","","","","",""
"3249.519999999786","","","post_mooney1_questions","survey-likert","386","1306778","0.0-6.0-2.54","3101802","co38128","norming","","","{""curiosity"":4,""confidence"":3}","[0,1]","../img/tt/1130tt.jpg","",""
"2318.054999999702","","","recognition","survey-text","387","1309098","0.0-6.0-3.54","3101802","co38128","norming","","","{""guess"":""loper""}","","../img/tt/1130tt.jpg","",""
"null","../img/gs/1130gs.jpg","null","reveal","image-keyboard-response","388","1311108","0.0-6.0-4.54","3101802","co38128","norming","","","","","","",""
"null","../img/tt/1130tt.jpg","null","mooney2","image-keyboard-response","389","1313115","0.0-6.0-5.54","3101802","co38128","norming","","","","","","",""
"1941.1149999999907","","","post_reveal_questions","survey-likert","390","1315058","0.0-6.0-6.54","3101802","co38128","norming","","","{""aha"":4}","[0]","../img/tt/1130tt.jpg","",""
"null","<div style=""font-size:60px;""> </div>","null","fixation","html-keyboard-response","391","1315259","0.0-6.0-0.55","3101802","co38128","norming","","","","","","",""
"null","../img/tt/405tt.jpg","null","mooney1","image-keyboard-response","392","1318265","0.0-6.0-1.55","3101802","co38128","norming","","","","","","",""
"3325.7800000002608","","","post_mooney1_questions","survey-likert","393","1321594","0.0-6.0-2.55","3101802","co38128","norming","","","{""curiosity"":2,""confidence"":1}","[0,1]","../img/tt/405tt.jpg","",""
"2494.035000000149","","","recognition","survey-text","394","1324090","0.0-6.0-3.55","3101802","co38128","norming","","","{""guess"":""keuken""}","","../img/tt/405tt.jpg","",""
"null","../img/gs/405gs.jpg","null","reveal","image-keyboard-response","395","1326096","0.0-6.0-4.55","3101802","co38128","norming","","","","","","",""
"null","../img/tt/405tt.jpg","null","mooney2","image-keyboard-response","396","1328105","0.0-6.0-5.55","3101802","co38128","norming","","","","","","",""
"1735.2100000004284","","","post_reveal_questions","survey-likert","397","1329842","0.0-6.0-6.55","3101802","co38128","norming","","","{""aha"":5}","[0]","../img/tt/405tt.jpg","",""
"null","<div style=""font-size:60px;""> </div>","null","fixation","html-keyboard-response","398","1330051","0.0-6.0-0.56","3101802","co38128","norming","","","","","","",""
"null","../img/tt/1053tt.jpg","null","mooney1","image-keyboard-response","399","1333060","0.0-6.0-1.56","3101802","co38128","norming","","","","","","",""
"4524.125","","","post_mooney1_questions","survey-likert","400","1337586","0.0-6.0-2.56","3101802","co38128","norming","","","{""curiosity"":1,""confidence"":1}","[0,1]","../img/tt/1053tt.jpg","",""
"3894.1450000002515","","","recognition","survey-text","401","1341482","0.0-6.0-3.56","3101802","co38128","norming","","","{""guess"":""olifanten""}","","../img/tt/1053tt.jpg","",""
"null","../img/gs/1053gs.jpg","null","reveal","image-keyboard-response","402","1343493","0.0-6.0-4.56","3101802","co38128","norming","","","","","","",""
"null","../img/tt/1053tt.jpg","null","mooney2","image-keyboard-response","403","1345502","0.0-6.0-5.56","3101802","co38128","norming","","","","","","",""
"2030.6999999999534","","","post_reveal_questions","survey-likert","404","1347534","0.0-6.0-6.56","3101802","co38128","norming","","","{""aha"":4}","[0]","../img/tt/1053tt.jpg","",""
"null","<div style=""font-size:60px;""> </div>","null","fixation","html-keyboard-response","405","1347739","0.0-6.0-0.57","3101802","co38128","norming","","","","","","",""
"null","../img/tt/1251tt.jpg","null","mooney1","image-keyboard-response","406","1350750","0.0-6.0-1.57","3101802","co38128","norming","","","","","","",""
"3597.530000000028","","","post_mooney1_questions","survey-likert","407","1354350","0.0-6.0-2.57","3101802","co38128","norming","","","{""curiosity"":1,""confidence"":2}","[0,1]","../img/tt/1251tt.jpg","",""
"2797.945000000065","","","recognition","survey-text","408","1357150","0.0-6.0-3.57","3101802","co38128","norming","","","{""guess"":""grot""}","","../img/tt/1251tt.jpg","",""
"null","../img/gs/1251gs.jpg","null","reveal","image-keyboard-response","409","1359159","0.0-6.0-4.57","3101802","co38128","norming","","","","","","",""
"null","../img/tt/1251tt.jpg","null","mooney2","image-keyboard-response","410","1361161","0.0-6.0-5.57","3101802","co38128","norming","","","","","","",""
"2914.9050000002608","","","post_reveal_questions","survey-likert","411","1364078","0.0-6.0-6.57","3101802","co38128","norming","","","{""aha"":4}","[0]","../img/tt/1251tt.jpg","",""
"null","<div style=""font-size:60px;""> </div>","null","fixation","html-keyboard-response","412","1364282","0.0-6.0-0.58","3101802","co38128","norming","","","","","","",""
"null","../img/tt/1262tt.jpg","null","mooney1","image-keyboard-response","413","1367289","0.0-6.0-1.58","3101802","co38128","norming","","","","","","",""
"4257.664999999572","","","post_mooney1_questions","survey-likert","414","1371550","0.0-6.0-2.58","3101802","co38128","norming","","","{""curiosity"":1,""confidence"":1}","[0,1]","../img/tt/1262tt.jpg","",""
"4046.029999999795","","","recognition","survey-text","415","1375598","0.0-6.0-3.58","3101802","co38128","norming","","","{""guess"":""kinf""}","","../img/tt/1262tt.jpg","",""
"null","../img/gs/1262gs.jpg","null","reveal","image-keyboard-response","416","1377601","0.0-6.0-4.58","3101802","co38128","norming","","","","","","",""
"null","../img/tt/1262tt.jpg","null","mooney2","image-keyboard-response","417","1379603","0.0-6.0-5.58","3101802","co38128","norming","","","","","","",""
"1688.4399999999441","","","post_reveal_questions","survey-likert","418","1381293","0.0-6.0-6.58","3101802","co38128","norming","","","{""aha"":2}","[0]","../img/tt/1262tt.jpg","",""
"null","<div style=""font-size:60px;""> </div>","null","fixation","html-keyboard-response","419","1381499","0.0-6.0-0.59","3101802","co38128","norming","","","","","","",""
"null","../img/tt/1123tt.jpg","null","mooney1","image-keyboard-response","420","1384508","0.0-6.0-1.59","3101802","co38128","norming","","","","","","",""
"3094.8199999998324","","","post_mooney1_questions","survey-likert","421","1387606","0.0-6.0-2.59","3101802","co38128","norming","","","{""curiosity"":1,""confidence"":1}","[0,1]","../img/tt/1123tt.jpg","",""
"2806.1200000001118","","","recognition","survey-text","422","1390414","0.0-6.0-3.59","3101802","co38128","norming","","","{""guess"":""balspel""}","","../img/tt/1123tt.jpg","",""
"null","../img/gs/1123gs.jpg","null","reveal","image-keyboard-response","423","1392421","0.0-6.0-4.59","3101802","co38128","norming","","","","","","",""
"null","../img/tt/1123tt.jpg","null","mooney2","image-keyboard-response","424","1394424","0.0-6.0-5.59","3101802","co38128","norming","","","","","","",""
"2843.9549999998417","","","post_reveal_questions","survey-likert","425","1397269","0.0-6.0-6.59","3101802","co38128","norming","","","{""aha"":4}","[0]","../img/tt/1123tt.jpg","",""
"null","<div style=""font-size:60px;""> </div>","null","fixation","html-keyboard-response","426","1397475","0.0-6.0-0.60","3101802","co38128","norming","","","","","","",""
"null","../img/tt/1254tt.jpg","null","mooney1","image-keyboard-response","427","1400479","0.0-6.0-1.60","3101802","co38128","norming","","","","","","",""
"8685.935000000056","","","post_mooney1_questions","survey-likert","428","1409165","0.0-6.0-2.60","3101802","co38128","norming","","","{""curiosity"":3,""confidence"":1}","[0,1]","../img/tt/1254tt.jpg","",""
"1046.094999999972","","","recognition","survey-text","429","1410213","0.0-6.0-3.60","3101802","co38128","norming","","","{""guess"":""""}","","../img/tt/1254tt.jpg","",""
"null","../img/gs/1254gs.jpg","null","reveal","image-keyboard-response","430","1412222","0.0-6.0-4.60","3101802","co38128","norming","","","","","","",""
"null","../img/tt/1254tt.jpg","null","mooney2","image-keyboard-response","431","1414233","0.0-6.0-5.60","3101802","co38128","norming","","","","","","",""
"1506.6400000001304","","","post_reveal_questions","survey-likert","432","1415741","0.0-6.0-6.60","3101802","co38128","norming","","","{""aha"":1}","[0]","../img/tt/1254tt.jpg","",""
"null","<div style=""font-size:60px;""> </div>","null","fixation","html-keyboard-response","433","1415950","0.0-6.0-0.61","3101802","co38128","norming","","","","","","",""
"null","../img/tt/019tt.jpg","null","mooney1","image-keyboard-response","434","1418959","0.0-6.0-1.61","3101802","co38128","norming","","","","","","",""
"3571.9350000002887","","","post_mooney1_questions","survey-likert","435","1422533","0.0-6.0-2.61","3101802","co38128","norming","","","{""curiosity"":3,""confidence"":2}","[0,1]","../img/tt/019tt.jpg","",""
"6454.149999999907","","","recognition","survey-text","436","1428989","0.0-6.0-3.61","3101802","co38128","norming","","","{""guess"":""piano""}","","../img/tt/019tt.jpg","",""
"null","../img/gs/019gs.jpg","null","reveal","image-keyboard-response","437","1430994","0.0-6.0-4.61","3101802","co38128","norming","","","","","","",""
"null","../img/tt/019tt.jpg","null","mooney2","image-keyboard-response","438","1433004","0.0-6.0-5.61","3101802","co38128","norming","","","","","","",""
"2736.4200000001583","","","post_reveal_questions","survey-likert","439","1435741","0.0-6.0-6.61","3101802","co38128","norming","","","{""aha"":2}","[0]","../img/tt/019tt.jpg","",""
"null","<div style=""font-size:60px;""> </div>","null","fixation","html-keyboard-response","440","1435943","0.0-6.0-0.62","3101802","co38128","norming","","","","","","",""
"null","../img/tt/1040tt.jpg","null","mooney1","image-keyboard-response","441","1438947","0.0-6.0-1.62","3101802","co38128","norming","","","","","","",""
"3056.090000000084","","","post_mooney1_questions","survey-likert","442","1442005","0.0-6.0-2.62","3101802","co38128","norming","","","{""curiosity"":1,""confidence"":0}","[0,1]","../img/tt/1040tt.jpg","",""
"750.1350000002421","","","recognition","survey-text","443","1442757","0.0-6.0-3.62","3101802","co38128","norming","","","{""guess"":""""}","","../img/tt/1040tt.jpg","",""
"null","../img/gs/1040gs.jpg","null","reveal","image-keyboard-response","444","1444761","0.0-6.0-4.62","3101802","co38128","norming","","","","","","",""
"null","../img/tt/1040tt.jpg","null","mooney2","image-keyboard-response","445","1446766","0.0-6.0-5.62","3101802","co38128","norming","","","","","","",""
"1860.9950000001118","","","post_reveal_questions","survey-likert","446","1448629","0.0-6.0-6.62","3101802","co38128","norming","","","{""aha"":5}","[0]","../img/tt/1040tt.jpg","",""
"null","<div style=""font-size:60px;""> </div>","null","fixation","html-keyboard-response","447","1448832","0.0-6.0-0.63","3101802","co38128","norming","","","","","","",""
"null","../img/tt/063tt.jpg","null","mooney1","image-keyboard-response","448","1451843","0.0-6.0-1.63","3101802","co38128","norming","","","","","","",""
"5207.175000000047","","","post_mooney1_questions","survey-likert","449","1457053","0.0-6.0-2.63","3101802","co38128","norming","","","{""curiosity"":3,""confidence"":4}","[0,1]","../img/tt/063tt.jpg","",""
"5038.160000000149","","","recognition","survey-text","450","1462093","0.0-6.0-3.63","3101802","co38128","norming","","","{""guess"":""typmachine""}","","../img/tt/063tt.jpg","",""
"null","../img/gs/063gs.jpg","null","reveal","image-keyboard-response","451","1464096","0.0-6.0-4.63","3101802","co38128","norming","","","","","","",""
"null","../img/tt/063tt.jpg","null","mooney2","image-keyboard-response","452","1466099","0.0-6.0-5.63","3101802","co38128","norming","","","","","","",""
"2752.2450000001118","","","post_reveal_questions","survey-likert","453","1468853","0.0-6.0-6.63","3101802","co38128","norming","","","{""aha"":4}","[0]","../img/tt/063tt.jpg","",""
"null","<div style=""font-size:60px;""> </div>","null","fixation","html-keyboard-response","454","1469059","0.0-6.0-0.64","3101802","co38128","norming","","","","","","",""
"null","../img/tt/329tt.jpg","null","mooney1","image-keyboard-response","455","1472065","0.0-6.0-1.64","3101802","co38128","norming","","","","","","",""
"4305.399999999907","","","post_mooney1_questions","survey-likert","456","1476374","0.0-6.0-2.64","3101802","co38128","norming","","","{""curiosity"":2,""confidence"":2}","[0,1]","../img/tt/329tt.jpg","",""
"3621.765000000363","","","recognition","survey-text","457","1479998","0.0-6.0-3.64","3101802","co38128","norming","","","{""guess"":""trappen""}","","../img/tt/329tt.jpg","",""
"null","../img/gs/329gs.jpg","null","reveal","image-keyboard-response","458","1482004","0.0-6.0-4.64","3101802","co38128","norming","","","","","","",""
"null","../img/tt/329tt.jpg","null","mooney2","image-keyboard-response","459","1484007","0.0-6.0-5.64","3101802","co38128","norming","","","","","","",""
"3492.0449999999255","","","post_reveal_questions","survey-likert","460","1487501","0.0-6.0-6.64","3101802","co38128","norming","","","{""aha"":5}","[0]","../img/tt/329tt.jpg","",""
"null","<div style=""font-size:60px;""> </div>","null","fixation","html-keyboard-response","461","1487711","0.0-6.0-0.65","3101802","co38128","norming","","","","","","",""
"null","../img/tt/1232tt.jpg","null","mooney1","image-keyboard-response","462","1490716","0.0-6.0-1.65","3101802","co38128","norming","","","","","","",""
"3998.810000000056","","","post_mooney1_questions","survey-likert","463","1494717","0.0-6.0-2.65","3101802","co38128","norming","","","{""curiosity"":2,""confidence"":1}","[0,1]","../img/tt/1232tt.jpg","",""
"2990.454999999609","","","recognition","survey-text","464","1497710","0.0-6.0-3.65","3101802","co38128","norming","","","{""guess"":""gras""}","","../img/tt/1232tt.jpg","",""
"null","../img/gs/1232gs.jpg","null","reveal","image-keyboard-response","465","1499714","0.0-6.0-4.65","3101802","co38128","norming","","","","","","",""
"null","../img/tt/1232tt.jpg","null","mooney2","image-keyboard-response","466","1501717","0.0-6.0-5.65","3101802","co38128","norming","","","","","","",""
"3070.3700000003446","","","post_reveal_questions","survey-likert","467","1504789","0.0-6.0-6.65","3101802","co38128","norming","","","{""aha"":2}","[0]","../img/tt/1232tt.jpg","",""
"null","<div style=""font-size:60px;""> </div>","null","fixation","html-keyboard-response","468","1504994","0.0-6.0-0.66","3101802","co38128","norming","","","","","","",""
"null","../img/tt/1072tt.jpg","null","mooney1","image-keyboard-response","469","1507998","0.0-6.0-1.66","3101802","co38128","norming","","","","","","",""
"3396.5600000002887","","","post_mooney1_questions","survey-likert","470","1511397","0.0-6.0-2.66","3101802","co38128","norming","","","{""curiosity"":1,""confidence"":2}","[0,1]","../img/tt/1072tt.jpg","",""
"5270.329999999842","","","recognition","survey-text","471","1516670","0.0-6.0-3.66","3101802","co38128","norming","","","{""guess"":""houten trappen""}","","../img/tt/1072tt.jpg","",""
"null","../img/gs/1072gs.jpg","null","reveal","image-keyboard-response","472","1518672","0.0-6.0-4.66","3101802","co38128","norming","","","","","","",""
"null","../img/tt/1072tt.jpg","null","mooney2","image-keyboard-response","473","1520673","0.0-6.0-5.66","3101802","co38128","norming","","","","","","",""
"1873.9500000001863","","","post_reveal_questions","survey-likert","474","1522549","0.0-6.0-6.66","3101802","co38128","norming","","","{""aha"":2}","[0]","../img/tt/1072tt.jpg","",""
"null","<div style=""font-size:60px;""> </div>","null","fixation","html-keyboard-response","475","1522752","0.0-6.0-0.67","3101802","co38128","norming","","","","","","",""
"null","../img/tt/1353tt.jpg","null","mooney1","image-keyboard-response","476","1525757","0.0-6.0-1.67","3101802","co38128","norming","","","","","","",""
"4045.685000000056","","","post_mooney1_questions","survey-likert","477","1529806","0.0-6.0-2.67","3101802","co38128","norming","","","{""curiosity"":1,""confidence"":0}","[0,1]","../img/tt/1353tt.jpg","",""
"3901.9599999999627","","","recognition","survey-text","478","1533709","0.0-6.0-3.67","3101802","co38128","norming","","","{""guess"":""handen""}","","../img/tt/1353tt.jpg","",""
"null","../img/gs/1353gs.jpg","null","reveal","image-keyboard-response","479","1535718","0.0-6.0-4.67","3101802","co38128","norming","","","","","","",""
"null","../img/tt/1353tt.jpg","null","mooney2","image-keyboard-response","480","1537723","0.0-6.0-5.67","3101802","co38128","norming","","","","","","",""
"2128.4850000003353","","","post_reveal_questions","survey-likert","481","1539854","0.0-6.0-6.67","3101802","co38128","norming","","","{""aha"":1}","[0]","../img/tt/1353tt.jpg","",""
"null","<div style=""font-size:60px;""> </div>","null","fixation","html-keyboard-response","482","1540058","0.0-6.0-0.68","3101802","co38128","norming","","","","","","",""
"null","../img/tt/1211tt.jpg","null","mooney1","image-keyboard-response","483","1543069","0.0-6.0-1.68","3101802","co38128","norming","","","","","","",""
"3509.434999999823","","","post_mooney1_questions","survey-likert","484","1546582","0.0-6.0-2.68","3101802","co38128","norming","","","{""curiosity"":2,""confidence"":1}","[0,1]","../img/tt/1211tt.jpg","",""
"1862.0399999998044","","","recognition","survey-text","485","1548446","0.0-6.0-3.68","3101802","co38128","norming","","","{""guess"":""veld""}","","../img/tt/1211tt.jpg","",""
"null","../img/gs/1211gs.jpg","null","reveal","image-keyboard-response","486","1550456","0.0-6.0-4.68","3101802","co38128","norming","","","","","","",""
"null","../img/tt/1211tt.jpg","null","mooney2","image-keyboard-response","487","1552466","0.0-6.0-5.68","3101802","co38128","norming","","","","","","",""
"4961.394999999786","","","post_reveal_questions","survey-likert","488","1557429","0.0-6.0-6.68","3101802","co38128","norming","","","{""aha"":5}","[0]","../img/tt/1211tt.jpg","",""
"null","<div style=""font-size:60px;""> </div>","null","fixation","html-keyboard-response","489","1557640","0.0-6.0-0.69","3101802","co38128","norming","","","","","","",""
"null","../img/tt/1061tt.jpg","null","mooney1","image-keyboard-response","490","1560651","0.0-6.0-1.69","3101802","co38128","norming","","","","","","",""
"6671.405000000028","","","post_mooney1_questions","survey-likert","491","1567326","0.0-6.0-2.69","3101802","co38128","norming","","","{""curiosity"":2,""confidence"":1}","[0,1]","../img/tt/1061tt.jpg","",""
"2141.6749999998137","","","recognition","survey-text","492","1569469","0.0-6.0-3.69","3101802","co38128","norming","","","{""guess"":""veld""}","","../img/tt/1061tt.jpg","",""
"null","../img/gs/1061gs.jpg","null","reveal","image-keyboard-response","493","1571478","0.0-6.0-4.69","3101802","co38128","norming","","","","","","",""
"null","../img/tt/1061tt.jpg","null","mooney2","image-keyboard-response","494","1573479","0.0-6.0-5.69","3101802","co38128","norming","","","","","","",""
"1789.720000000205","","","post_reveal_questions","survey-likert","495","1575270","0.0-6.0-6.69","3101802","co38128","norming","","","{""aha"":5}","[0]","../img/tt/1061tt.jpg","",""
"null","<div style=""font-size:60px;""> </div>","null","fixation","html-keyboard-response","496","1575471","0.0-6.0-0.70","3101802","co38128","norming","","","","","","",""
"null","../img/tt/1033tt.jpg","null","mooney1","image-keyboard-response","497","1578478","0.0-6.0-1.70","3101802","co38128","norming","","","","","","",""
"4052.5749999997206","","","post_mooney1_questions","survey-likert","498","1582534","0.0-6.0-2.70","3101802","co38128","norming","","","{""curiosity"":2,""confidence"":1}","[0,1]","../img/tt/1033tt.jpg","",""
"2917.58499999973","","","recognition","survey-text","499","1585453","0.0-6.0-3.70","3101802","co38128","norming","","","{""guess"":""kano""}","","../img/tt/1033tt.jpg","",""
"null","../img/gs/1033gs.jpg","null","reveal","image-keyboard-response","500","1587461","0.0-6.0-4.70","3101802","co38128","norming","","","","","","",""
"null","../img/tt/1033tt.jpg","null","mooney2","image-keyboard-response","501","1589469","0.0-6.0-5.70","3101802","co38128","norming","","","","","","",""
"2503.2600000000093","","","post_reveal_questions","survey-likert","502","1591974","0.0-6.0-6.70","3101802","co38128","norming","","","{""aha"":2}","[0]","../img/tt/1033tt.jpg","",""
"null","<div style=""font-size:60px;""> </div>","null","fixation","html-keyboard-response","503","1592181","0.0-6.0-0.71","3101802","co38128","norming","","","","","","",""
"null","../img/tt/1055tt.jpg","null","mooney1","image-keyboard-response","504","1595188","0.0-6.0-1.71","3101802","co38128","norming","","","","","","",""
"4974.725000000093","","","post_mooney1_questions","survey-likert","505","1600165","0.0-6.0-2.71","3101802","co38128","norming","","","{""curiosity"":3,""confidence"":2}","[0,1]","../img/tt/1055tt.jpg","",""
"710.3000000002794","","","recognition","survey-text","506","1600878","0.0-6.0-3.71","3101802","co38128","norming","","","{""guess"":""""}","","../img/tt/1055tt.jpg","",""
"null","../img/gs/1055gs.jpg","null","reveal","image-keyboard-response","507","1602880","0.0-6.0-4.71","3101802","co38128","norming","","","","","","",""
"null","../img/tt/1055tt.jpg","null","mooney2","image-keyboard-response","508","1604883","0.0-6.0-5.71","3101802","co38128","norming","","","","","","",""
"1832.8599999998696","","","post_reveal_questions","survey-likert","509","1606718","0.0-6.0-6.71","3101802","co38128","norming","","","{""aha"":3}","[0]","../img/tt/1055tt.jpg","",""
"null","<div style=""font-size:60px;""> </div>","null","fixation","html-keyboard-response","510","1606919","0.0-6.0-0.72","3101802","co38128","norming","","","","","","",""
"null","../img/tt/1255tt.jpg","null","mooney1","image-keyboard-response","511","1609923","0.0-6.0-1.72","3101802","co38128","norming","","","","","","",""
"4376.095000000205","","","post_mooney1_questions","survey-likert","512","1614302","0.0-6.0-2.72","3101802","co38128","norming","","","{""curiosity"":3,""confidence"":3}","[0,1]","../img/tt/1255tt.jpg","",""
"2797.7900000000373","","","recognition","survey-text","513","1617102","0.0-6.0-3.72","3101802","co38128","norming","","","{""guess"":""konijn""}","","../img/tt/1255tt.jpg","",""
"null","../img/gs/1255gs.jpg","null","reveal","image-keyboard-response","514","1619106","0.0-6.0-4.72","3101802","co38128","norming","","","","","","",""
"null","../img/tt/1255tt.jpg","null","mooney2","image-keyboard-response","515","1621108","0.0-6.0-5.72","3101802","co38128","norming","","","","","","",""
"2534.390000000363","","","post_reveal_questions","survey-likert","516","1623646","0.0-6.0-6.72","3101802","co38128","norming","","","{""aha"":5}","[0]","../img/tt/1255tt.jpg","",""
"null","<div style=""font-size:60px;""> </div>","null","fixation","html-keyboard-response","517","1623847","0.0-6.0-0.73","3101802","co38128","norming","","","","","","",""
"null","../img/tt/189tt.jpg","null","mooney1","image-keyboard-response","518","1626851","0.0-6.0-1.73","3101802","co38128","norming","","","","","","",""
"3368.2549999998882","","","post_mooney1_questions","survey-likert","519","1630222","0.0-6.0-2.73","3101802","co38128","norming","","","{""curiosity"":2,""confidence"":1}","[0,1]","../img/tt/189tt.jpg","",""
"750.024999999674","","","recognition","survey-text","520","1630973","0.0-6.0-3.73","3101802","co38128","norming","","","{""guess"":""""}","","../img/tt/189tt.jpg","",""
"null","../img/gs/189gs.jpg","null","reveal","image-keyboard-response","521","1632981","0.0-6.0-4.73","3101802","co38128","norming","","","","","","",""
"null","../img/tt/189tt.jpg","null","mooney2","image-keyboard-response","522","1634982","0.0-6.0-5.73","3101802","co38128","norming","","","","","","",""
"3124.820000000065","","","post_reveal_questions","survey-likert","523","1638109","0.0-6.0-6.73","3101802","co38128","norming","","","{""aha"":3}","[0]","../img/tt/189tt.jpg","",""
"null","<div style=""font-size:60px;""> </div>","null","fixation","html-keyboard-response","524","1638320","0.0-6.0-0.74","3101802","co38128","norming","","","","","","",""
"null","../img/tt/1080tt.jpg","null","mooney1","image-keyboard-response","525","1641330","0.0-6.0-1.74","3101802","co38128","norming","","","","","","",""
"2928.8350000001956","","","post_mooney1_questions","survey-likert","526","1644262","0.0-6.0-2.74","3101802","co38128","norming","","","{""curiosity"":2,""confidence"":1}","[0,1]","../img/tt/1080tt.jpg","",""
"3654.0999999998603","","","recognition","survey-text","527","1647916","0.0-6.0-3.74","3101802","co38128","norming","","","{""guess"":""zetel""}","","../img/tt/1080tt.jpg","",""
"null","../img/gs/1080gs.jpg","null","reveal","image-keyboard-response","528","1649918","0.0-6.0-4.74","3101802","co38128","norming","","","","","","",""
"null","../img/tt/1080tt.jpg","null","mooney2","image-keyboard-response","529","1651921","0.0-6.0-5.74","3101802","co38128","norming","","","","","","",""
"4032.9899999999907","","","post_reveal_questions","survey-likert","530","1655956","0.0-6.0-6.74","3101802","co38128","norming","","","{""aha"":2}","[0]","../img/tt/1080tt.jpg","",""
"null","<div style=""font-size:60px;""> </div>","null","fixation","html-keyboard-response","531","1656159","0.0-6.0-0.75","3101802","co38128","norming","","","","","","",""
"null","../img/tt/1122tt.jpg","null","mooney1","image-keyboard-response","532","1659171","0.0-6.0-1.75","3101802","co38128","norming","","","","","","",""
"4014.659999999916","","","post_mooney1_questions","survey-likert","533","1663188","0.0-6.0-2.75","3101802","co38128","norming","","","{""curiosity"":2,""confidence"":1}","[0,1]","../img/tt/1122tt.jpg","",""
"4245.670000000391","","","recognition","survey-text","534","1667436","0.0-6.0-3.75","3101802","co38128","norming","","","{""guess"":""auto's""}","","../img/tt/1122tt.jpg","",""
"null","../img/gs/1122gs.jpg","null","reveal","image-keyboard-response","535","1669437","0.0-6.0-4.75","3101802","co38128","norming","","","","","","",""
"null","../img/tt/1122tt.jpg","null","mooney2","image-keyboard-response","536","1671442","0.0-6.0-5.75","3101802","co38128","norming","","","","","","",""
"5289.310000000056","","","post_reveal_questions","survey-likert","537","1676732","0.0-6.0-6.75","3101802","co38128","norming","","","{""aha"":4}","[0]","../img/tt/1122tt.jpg","",""
"null","<div style=""font-size:60px;""> </div>","null","fixation","html-keyboard-response","538","1676940","0.0-6.0-0.76","3101802","co38128","norming","","","","","","",""
"null","../img/tt/1148tt.jpg","null","mooney1","image-keyboard-response","539","1679946","0.0-6.0-1.76","3101802","co38128","norming","","","","","","",""
"5247.100000000093","","","post_mooney1_questions","survey-likert","540","1685196","0.0-6.0-2.76","3101802","co38128","norming","","","{""curiosity"":2,""confidence"":1}","[0,1]","../img/tt/1148tt.jpg","",""
"1517.9899999999907","","","recognition","survey-text","541","1686716","0.0-6.0-3.76","3101802","co38128","norming","","","{""guess"":""""}","","../img/tt/1148tt.jpg","",""
"null","../img/gs/1148gs.jpg","null","reveal","image-keyboard-response","542","1688725","0.0-6.0-4.76","3101802","co38128","norming","","","","","","",""
"null","../img/tt/1148tt.jpg","null","mooney2","image-keyboard-response","543","1690734","0.0-6.0-5.76","3101802","co38128","norming","","","","","","",""
"2578.2099999999627","","","post_reveal_questions","survey-likert","544","1693316","0.0-6.0-6.76","3101802","co38128","norming","","","{""aha"":5}","[0]","../img/tt/1148tt.jpg","",""
"null","<div style=""font-size:60px;""> </div>","null","fixation","html-keyboard-response","545","1693522","0.0-6.0-0.77","3101802","co38128","norming","","","","","","",""
"null","../img/tt/1181tt.jpg","null","mooney1","image-keyboard-response","546","1696531","0.0-6.0-1.77","3101802","co38128","norming","","","","","","",""
"4366.309999999823","","","post_mooney1_questions","survey-likert","547","1700900","0.0-6.0-2.77","3101802","co38128","norming","","","{""curiosity"":1,""confidence"":2}","[0,1]","../img/tt/1181tt.jpg","",""
"830.0200000000186","","","recognition","survey-text","548","1701732","0.0-6.0-3.77","3101802","co38128","norming","","","{""guess"":""""}","","../img/tt/1181tt.jpg","",""
"null","../img/gs/1181gs.jpg","null","reveal","image-keyboard-response","549","1703739","0.0-6.0-4.77","3101802","co38128","norming","","","","","","",""
"null","../img/tt/1181tt.jpg","null","mooney2","image-keyboard-response","550","1705749","0.0-6.0-5.77","3101802","co38128","norming","","","","","","",""
"2532.5100000000093","","","post_reveal_questions","survey-likert","551","1708285","0.0-6.0-6.77","3101802","co38128","norming","","","{""aha"":3}","[0]","../img/tt/1181tt.jpg","",""
"null","<div style=""font-size:60px;""> </div>","null","fixation","html-keyboard-response","552","1708490","0.0-6.0-0.78","3101802","co38128","norming","","","","","","",""
