"rt","stimulus","key_press","test_part","trial_type","trial_index","time_elapsed","internal_node_id","totalTime","subject","experiment_name","button_pressed","success","responses","question_order","currentStim","old","correct"
"7667.169999999999","Welcome to the experiment. This is an online experiment so please don't close the tab/window until we say goodbye.  Press any key to begin.","32","instructions","html-keyboard-response","0","7680","0.0-0.0","3200097","co38269","norming","","","","","","",""
"12118.474999999991","<div style='word-wrap: break-word; width: 900px'><h3>Please consider this information carefully before deciding whether to participate in this research</h3><ul style='text-align: left; font-size: .8em;'><li><b>Purpose of the research</b>: To examine how people process images.</li><li><b>What you will do in this research</b>:  Stimuli (images) will be presented on the computer and you will be asked different questions about them.</li><li><b>Time required</b>: Participation will take between 45 and 60 minutes to complete.</li><li><b>Risks</b>:  There are no anticipated risks associated with participating in this study. The effects of participating should be comparable to those you would experience from viewing a computer monitor for 30 minutes and using a mouse or keyboard.</li><li><b>Benefits</b>:  This study provides no benefits to you individually except for the credit. The study provides important information about the nature of perception and learning.</li><li><b>Confidentiality</b>:  Your participation in this study will remain confidential. No personally identifiable information will be associated with your data. Your de-identified data may be shared with other researchers and used in future projects.</li><li><b>Participation and withdrawal</b>:  Your participation in this study is completely voluntary and you may refuse to participate or you may choose to withdraw at any time without penalty.</li><li><b>How to contact the researchers</b>: If you have questions or concerns about your participation or payment, or want to request a summary of research findings, please contact Sander Van de Cruys (KU Leuven), at sander.vandecruys@kuleuven.be.</li></ul><p>The nature and purpose of this research have been sufficiently explained and I agree to participate in this study.  I understand that I am free to withdraw at any time without incurring any penalty.</p><p>Please consent by clicking the button below to continue. Otherwise, please exit the study at this time.</p></div>","","instructions","html-button-response","1","19800","0.0-1.0","3200097","co38269","norming","0","","","","","",""
"","","","instructions","fullscreen","2","26955","0.0-2.0","3200097","co38269","norming","","true","","","","",""
"41019.905","","","sona","survey-html-form","3","67971","0.0-3.0","3200097","co38269","norming","","","[{""name"":""sonaid"",""value"":""38269""},{""name"":""debrief"",""value"":""no""},{""name"":""datajoin"",""value"":""yes""}]","","","",""
"34006.340000000026","<div style='word-wrap: break-word; width: 900px'><h3>Instructions</h3><p>This experiment will have 3 parts. In the first part you will see a series of distorted images like the one below on the left. As you can see in the righthand image, the distorted images are derived from actual photographs. In what follows, you will <strong>briefly</strong> be presented with <strong>only</strong> the distorted image.</p> <div style='float: left; margin-right: 20px;'><img src='../img/018tt.jpg' height='250' width='250'></img></div><div style='float: right; margin-left: 20px;'><img src='../img/018gs.jpg' height='250' width='250'></img></div><p>Subsequently you will be asked a few questions about the image: One question on how <strong>curious</strong> you are about the solution and one on how <strong>confident</strong> you are that you know the solution.</p>Next, we ask you to make a guess on what is in the image. Note that it is OK to name just the <strong>basic level category</strong>. For example when you see a parrot in the image, 'parrot' will obviously be a correct answer but also correct is 'bird'. However, 'animal' will <strong>not</strong> be counted as a correct response. For the example above, 'rose' would be correct or 'flower', but not 'plant'. When soccer players are depicted, 'soccer', 'football', 'soccer players' will be correct, but not 'humans', 'outdoors', or 'sports'. You do not need to describe the image in full, just name the main object in it <strong>in one or two words</strong>. All images depict objects from one of the following broad level categories: animals, inanimate objects, plants, sports, vehicles, and food. Recognizing means knowing <strong>more</strong> than these broad labels for a given image. But we always encourage you to <strong>make a guess</strong> if you can. Note that you are allowed to use <strong>Dutch and English</strong> in your answers, whatever comes easiest for you.</p><p>Press any key to continue.</p></div>","32","instructions","html-keyboard-response","4","101978","0.0-4.0","3200097","co38269","norming","","","","","","",""
"17839.020000000004","<div style='word-wrap: break-word; width: 900px'><h3>Instructions</h3> <p>Next, the solution image will be revealed to you and you'll be asked to indicate how strong your <strong>aha-experience</strong> was after seeing the solution. This describes the positive feeling of the 'click' you sometimes experience, when the pieces of the 'puzzle' fall together and you suddenly have 'insight' in the image.</p><img src='aha.jpg' height='188' width='250'></img><p>Note that there are no right or wrong answers. We are interested in what <strong>you</strong> see in the image and how <strong>you</strong> feel about it.</p><p>Press any key to start the experiment.</p></div>","32","instructions","html-keyboard-response","5","119825","0.0-5.0","3200097","co38269","norming","","","","","","",""
"null","<div style=""font-size:60px;""> </div>","null","fixation","html-keyboard-response","6","120030","0.0-6.0-0.0","3200097","co38269","norming","","","","","","",""
"null","../img/tt/1262tt.jpg","null","mooney1","image-keyboard-response","7","123037","0.0-6.0-1.0","3200097","co38269","norming","","","","","","",""
"9452.33000000003","","","post_mooney1_questions","survey-likert","8","132490","0.0-6.0-2.0","3200097","co38269","norming","","","{""curiosity"":1,""confidence"":0}","[0,1]","../img/tt/1262tt.jpg","",""
"10565.489999999962","","","recognition","survey-text","9","143058","0.0-6.0-3.0","3200097","co38269","norming","","","{""guess"":""stoel""}","","../img/tt/1262tt.jpg","",""
"null","../img/gs/1262gs.jpg","null","reveal","image-keyboard-response","10","145068","0.0-6.0-4.0","3200097","co38269","norming","","","","","","",""
"null","../img/tt/1262tt.jpg","null","mooney2","image-keyboard-response","11","147074","0.0-6.0-5.0","3200097","co38269","norming","","","","","","",""
"5246.910000000033","","","post_reveal_questions","survey-likert","12","152322","0.0-6.0-6.0","3200097","co38269","norming","","","{""aha"":0}","[0]","../img/tt/1262tt.jpg","",""
"null","<div style=""font-size:60px;""> </div>","null","fixation","html-keyboard-response","13","152529","0.0-6.0-0.1","3200097","co38269","norming","","","","","","",""
"null","../img/tt/300tt.jpg","null","mooney1","image-keyboard-response","14","155532","0.0-6.0-1.1","3200097","co38269","norming","","","","","","",""
"13221.459999999992","","","post_mooney1_questions","survey-likert","15","168754","0.0-6.0-2.1","3200097","co38269","norming","","","{""curiosity"":6,""confidence"":0}","[0,1]","../img/tt/300tt.jpg","",""
"4326.15499999997","","","recognition","survey-text","16","173082","0.0-6.0-3.1","3200097","co38269","norming","","","{""guess"":""man""}","","../img/tt/300tt.jpg","",""
"null","../img/gs/300gs.jpg","null","reveal","image-keyboard-response","17","175084","0.0-6.0-4.1","3200097","co38269","norming","","","","","","",""
"null","../img/tt/300tt.jpg","null","mooney2","image-keyboard-response","18","177086","0.0-6.0-5.1","3200097","co38269","norming","","","","","","",""
"3961.5599999999686","","","post_reveal_questions","survey-likert","19","181071","0.0-6.0-6.1","3200097","co38269","norming","","","{""aha"":2}","[0]","../img/tt/300tt.jpg","",""
"null","<div style=""font-size:60px;""> </div>","null","fixation","html-keyboard-response","20","181276","0.0-6.0-0.2","3200097","co38269","norming","","","","","","",""
"null","../img/tt/1122tt.jpg","null","mooney1","image-keyboard-response","21","184285","0.0-6.0-1.2","3200097","co38269","norming","","","","","","",""
"5303.129999999946","","","post_mooney1_questions","survey-likert","22","189591","0.0-6.0-2.2","3200097","co38269","norming","","","{""curiosity"":5,""confidence"":2}","[0,1]","../img/tt/1122tt.jpg","",""
"4037.8150000000314","","","recognition","survey-text","23","193630","0.0-6.0-3.2","3200097","co38269","norming","","","{""guess"":""auto""}","","../img/tt/1122tt.jpg","",""
"null","../img/gs/1122gs.jpg","null","reveal","image-keyboard-response","24","195632","0.0-6.0-4.2","3200097","co38269","norming","","","","","","",""
"null","../img/tt/1122tt.jpg","null","mooney2","image-keyboard-response","25","197635","0.0-6.0-5.2","3200097","co38269","norming","","","","","","",""
"6150.749999999942","","","post_reveal_questions","survey-likert","26","203791","0.0-6.0-6.2","3200097","co38269","norming","","","{""aha"":4}","[0]","../img/tt/1122tt.jpg","",""
"null","<div style=""font-size:60px;""> </div>","null","fixation","html-keyboard-response","27","203993","0.0-6.0-0.3","3200097","co38269","norming","","","","","","",""
"null","../img/tt/534tt.jpg","null","mooney1","image-keyboard-response","28","207003","0.0-6.0-1.3","3200097","co38269","norming","","","","","","",""
"9729.10500000001","","","post_mooney1_questions","survey-likert","29","216735","0.0-6.0-2.3","3200097","co38269","norming","","","{""curiosity"":4,""confidence"":1}","[0,1]","../img/tt/534tt.jpg","",""
"8205.760000000068","","","recognition","survey-text","30","224942","0.0-6.0-3.3","3200097","co38269","norming","","","{""guess"":""plant""}","","../img/tt/534tt.jpg","",""
"null","../img/gs/534gs.jpg","null","reveal","image-keyboard-response","31","226945","0.0-6.0-4.3","3200097","co38269","norming","","","","","","",""
"null","../img/tt/534tt.jpg","null","mooney2","image-keyboard-response","32","228946","0.0-6.0-5.3","3200097","co38269","norming","","","","","","",""
"3692.1750000000175","","","post_reveal_questions","survey-likert","33","232639","0.0-6.0-6.3","3200097","co38269","norming","","","{""aha"":1}","[0]","../img/tt/534tt.jpg","",""
"null","<div style=""font-size:60px;""> </div>","null","fixation","html-keyboard-response","34","232844","0.0-6.0-0.4","3200097","co38269","norming","","","","","","",""
"null","../img/tt/599tt.jpg","null","mooney1","image-keyboard-response","35","235857","0.0-6.0-1.4","3200097","co38269","norming","","","","","","",""
"7747.279999999941","","","post_mooney1_questions","survey-likert","36","243614","0.0-6.0-2.4","3200097","co38269","norming","","","{""curiosity"":6,""confidence"":3}","[0,1]","../img/tt/599tt.jpg","",""
"7229.900000000023","","","recognition","survey-text","37","250845","0.0-6.0-3.4","3200097","co38269","norming","","","{""guess"":""dier""}","","../img/tt/599tt.jpg","",""
"null","../img/gs/599gs.jpg","null","reveal","image-keyboard-response","38","252847","0.0-6.0-4.4","3200097","co38269","norming","","","","","","",""
"null","../img/tt/599tt.jpg","null","mooney2","image-keyboard-response","39","254852","0.0-6.0-5.4","3200097","co38269","norming","","","","","","",""
"3367.134999999951","","","post_reveal_questions","survey-likert","40","258221","0.0-6.0-6.4","3200097","co38269","norming","","","{""aha"":3}","[0]","../img/tt/599tt.jpg","",""
"null","<div style=""font-size:60px;""> </div>","null","fixation","html-keyboard-response","41","258424","0.0-6.0-0.5","3200097","co38269","norming","","","","","","",""
"null","../img/tt/1043tt.jpg","null","mooney1","image-keyboard-response","42","261428","0.0-6.0-1.5","3200097","co38269","norming","","","","","","",""
"7430.65499999997","","","post_mooney1_questions","survey-likert","43","268861","0.0-6.0-2.5","3200097","co38269","norming","","","{""curiosity"":6,""confidence"":2}","[0,1]","../img/tt/1043tt.jpg","",""
"4654.5950000000885","","","recognition","survey-text","44","273518","0.0-6.0-3.5","3200097","co38269","norming","","","{""guess"":""brood""}","","../img/tt/1043tt.jpg","",""
"null","../img/gs/1043gs.jpg","null","reveal","image-keyboard-response","45","275519","0.0-6.0-4.5","3200097","co38269","norming","","","","","","",""
"null","../img/tt/1043tt.jpg","null","mooney2","image-keyboard-response","46","277524","0.0-6.0-5.5","3200097","co38269","norming","","","","","","",""
"6848.285000000033","","","post_reveal_questions","survey-likert","47","284373","0.0-6.0-6.5","3200097","co38269","norming","","","{""aha"":6}","[0]","../img/tt/1043tt.jpg","",""
"null","<div style=""font-size:60px;""> </div>","null","fixation","html-keyboard-response","48","284584","0.0-6.0-0.6","3200097","co38269","norming","","","","","","",""
"null","../img/tt/580tt.jpg","null","mooney1","image-keyboard-response","49","287588","0.0-6.0-1.6","3200097","co38269","norming","","","","","","",""
"4552.630000000005","","","post_mooney1_questions","survey-likert","50","292141","0.0-6.0-2.6","3200097","co38269","norming","","","{""curiosity"":6,""confidence"":0}","[0,1]","../img/tt/580tt.jpg","",""
"5077.940000000002","","","recognition","survey-text","51","297221","0.0-6.0-3.6","3200097","co38269","norming","","","{""guess"":""plant""}","","../img/tt/580tt.jpg","",""
"null","../img/gs/580gs.jpg","null","reveal","image-keyboard-response","52","299223","0.0-6.0-4.6","3200097","co38269","norming","","","","","","",""
"null","../img/tt/580tt.jpg","null","mooney2","image-keyboard-response","53","301244","0.0-6.0-5.6","3200097","co38269","norming","","","","","","",""
"8682.339999999967","","","post_reveal_questions","survey-likert","54","309929","0.0-6.0-6.6","3200097","co38269","norming","","","{""aha"":6}","[0]","../img/tt/580tt.jpg","",""
"null","<div style=""font-size:60px;""> </div>","null","fixation","html-keyboard-response","55","310137","0.0-6.0-0.7","3200097","co38269","norming","","","","","","",""
"null","../img/tt/524tt.jpg","null","mooney1","image-keyboard-response","56","313147","0.0-6.0-1.7","3200097","co38269","norming","","","","","","",""
"7051.420000000042","","","post_mooney1_questions","survey-likert","57","320201","0.0-6.0-2.7","3200097","co38269","norming","","","{""curiosity"":6,""confidence"":3}","[0,1]","../img/tt/524tt.jpg","",""
"4358.2950000001","","","recognition","survey-text","58","324561","0.0-6.0-3.7","3200097","co38269","norming","","","{""guess"":""dier""}","","../img/tt/524tt.jpg","",""
"null","../img/gs/524gs.jpg","null","reveal","image-keyboard-response","59","326562","0.0-6.0-4.7","3200097","co38269","norming","","","","","","",""
"null","../img/tt/524tt.jpg","null","mooney2","image-keyboard-response","60","328566","0.0-6.0-5.7","3200097","co38269","norming","","","","","","",""
"3576.740000000107","","","post_reveal_questions","survey-likert","61","332145","0.0-6.0-6.7","3200097","co38269","norming","","","{""aha"":6}","[0]","../img/tt/524tt.jpg","",""
"null","<div style=""font-size:60px;""> </div>","null","fixation","html-keyboard-response","62","332349","0.0-6.0-0.8","3200097","co38269","norming","","","","","","",""
"null","../img/tt/008tt.jpg","null","mooney1","image-keyboard-response","63","335358","0.0-6.0-1.8","3200097","co38269","norming","","","","","","",""
"7072.945000000007","","","post_mooney1_questions","survey-likert","64","342433","0.0-6.0-2.8","3200097","co38269","norming","","","{""curiosity"":6,""confidence"":1}","[0,1]","../img/tt/008tt.jpg","",""
"5966","","","recognition","survey-text","65","348400","0.0-6.0-3.8","3200097","co38269","norming","","","{""guess"":""huis""}","","../img/tt/008tt.jpg","",""
"null","../img/gs/008gs.jpg","null","reveal","image-keyboard-response","66","350402","0.0-6.0-4.8","3200097","co38269","norming","","","","","","",""
"null","../img/tt/008tt.jpg","null","mooney2","image-keyboard-response","67","352410","0.0-6.0-5.8","3200097","co38269","norming","","","","","","",""
"6533.7050000000745","","","post_reveal_questions","survey-likert","68","358945","0.0-6.0-6.8","3200097","co38269","norming","","","{""aha"":1}","[0]","../img/tt/008tt.jpg","",""
"null","<div style=""font-size:60px;""> </div>","null","fixation","html-keyboard-response","69","359149","0.0-6.0-0.9","3200097","co38269","norming","","","","","","",""
"null","../img/tt/036tt.jpg","null","mooney1","image-keyboard-response","70","362168","0.0-6.0-1.9","3200097","co38269","norming","","","","","","",""
"5331.059999999998","","","post_mooney1_questions","survey-likert","71","367502","0.0-6.0-2.9","3200097","co38269","norming","","","{""curiosity"":6,""confidence"":0}","[0,1]","../img/tt/036tt.jpg","",""
"11293.994999999995","","","recognition","survey-text","72","378797","0.0-6.0-3.9","3200097","co38269","norming","","","{""guess"":""spinneweb""}","","../img/tt/036tt.jpg","",""
"null","../img/gs/036gs.jpg","null","reveal","image-keyboard-response","73","380801","0.0-6.0-4.9","3200097","co38269","norming","","","","","","",""
"null","../img/tt/036tt.jpg","null","mooney2","image-keyboard-response","74","382804","0.0-6.0-5.9","3200097","co38269","norming","","","","","","",""
"3166.9099999999744","","","post_reveal_questions","survey-likert","75","385973","0.0-6.0-6.9","3200097","co38269","norming","","","{""aha"":6}","[0]","../img/tt/036tt.jpg","",""
"null","<div style=""font-size:60px;""> </div>","null","fixation","html-keyboard-response","76","386184","0.0-6.0-0.10","3200097","co38269","norming","","","","","","",""
"null","../img/tt/1089tt.jpg","null","mooney1","image-keyboard-response","77","389195","0.0-6.0-1.10","3200097","co38269","norming","","","","","","",""
"7399.14499999996","","","post_mooney1_questions","survey-likert","78","396597","0.0-6.0-2.10","3200097","co38269","norming","","","{""curiosity"":5,""confidence"":3}","[0,1]","../img/tt/1089tt.jpg","",""
"4254.0799999999","","","recognition","survey-text","79","400853","0.0-6.0-3.10","3200097","co38269","norming","","","{""guess"":""olifant""}","","../img/tt/1089tt.jpg","",""
"null","../img/gs/1089gs.jpg","null","reveal","image-keyboard-response","80","402860","0.0-6.0-4.10","3200097","co38269","norming","","","","","","",""
"null","../img/tt/1089tt.jpg","null","mooney2","image-keyboard-response","81","404866","0.0-6.0-5.10","3200097","co38269","norming","","","","","","",""
"4224.995000000054","","","post_reveal_questions","survey-likert","82","409093","0.0-6.0-6.10","3200097","co38269","norming","","","{""aha"":1}","[0]","../img/tt/1089tt.jpg","",""
"null","<div style=""font-size:60px;""> </div>","null","fixation","html-keyboard-response","83","409294","0.0-6.0-0.11","3200097","co38269","norming","","","","","","",""
"null","../img/tt/1128tt.jpg","null","mooney1","image-keyboard-response","84","412301","0.0-6.0-1.11","3200097","co38269","norming","","","","","","",""
"7117.5800000000745","","","post_mooney1_questions","survey-likert","85","419421","0.0-6.0-2.11","3200097","co38269","norming","","","{""curiosity"":6,""confidence"":1}","[0,1]","../img/tt/1128tt.jpg","",""
"3614.164999999979","","","recognition","survey-text","86","423037","0.0-6.0-3.11","3200097","co38269","norming","","","{""guess"":""panda""}","","../img/tt/1128tt.jpg","",""
"null","../img/gs/1128gs.jpg","null","reveal","image-keyboard-response","87","425040","0.0-6.0-4.11","3200097","co38269","norming","","","","","","",""
"null","../img/tt/1128tt.jpg","null","mooney2","image-keyboard-response","88","427043","0.0-6.0-5.11","3200097","co38269","norming","","","","","","",""
"3951.4650000000256","","","post_reveal_questions","survey-likert","89","430997","0.0-6.0-6.11","3200097","co38269","norming","","","{""aha"":2}","[0]","../img/tt/1128tt.jpg","",""
"null","<div style=""font-size:60px;""> </div>","null","fixation","html-keyboard-response","90","431207","0.0-6.0-0.12","3200097","co38269","norming","","","","","","",""
"null","../img/tt/064tt.jpg","null","mooney1","image-keyboard-response","91","434215","0.0-6.0-1.12","3200097","co38269","norming","","","","","","",""
"6027.455000000016","","","post_mooney1_questions","survey-likert","92","440245","0.0-6.0-2.12","3200097","co38269","norming","","","{""curiosity"":6,""confidence"":0}","[0,1]","../img/tt/064tt.jpg","",""
"3118.1050000000396","","","recognition","survey-text","93","443365","0.0-6.0-3.12","3200097","co38269","norming","","","{""guess"":""plant""}","","../img/tt/064tt.jpg","",""
"null","../img/gs/064gs.jpg","null","reveal","image-keyboard-response","94","445367","0.0-6.0-4.12","3200097","co38269","norming","","","","","","",""
"null","../img/tt/064tt.jpg","null","mooney2","image-keyboard-response","95","447378","0.0-6.0-5.12","3200097","co38269","norming","","","","","","",""
"3456.4000000000233","","","post_reveal_questions","survey-likert","96","450837","0.0-6.0-6.12","3200097","co38269","norming","","","{""aha"":6}","[0]","../img/tt/064tt.jpg","",""
"null","<div style=""font-size:60px;""> </div>","null","fixation","html-keyboard-response","97","451038","0.0-6.0-0.13","3200097","co38269","norming","","","","","","",""
"null","../img/tt/053tt.jpg","null","mooney1","image-keyboard-response","98","454041","0.0-6.0-1.13","3200097","co38269","norming","","","","","","",""
"5065.195000000007","","","post_mooney1_questions","survey-likert","99","459109","0.0-6.0-2.13","3200097","co38269","norming","","","{""curiosity"":6,""confidence"":0}","[0,1]","../img/tt/053tt.jpg","",""
"6302.079999999958","","","recognition","survey-text","100","465413","0.0-6.0-3.13","3200097","co38269","norming","","","{""guess"":""vogel""}","","../img/tt/053tt.jpg","",""
"null","../img/gs/053gs.jpg","null","reveal","image-keyboard-response","101","467417","0.0-6.0-4.13","3200097","co38269","norming","","","","","","",""
"null","../img/tt/053tt.jpg","null","mooney2","image-keyboard-response","102","469421","0.0-6.0-5.13","3200097","co38269","norming","","","","","","",""
"4069.590000000084","","","post_reveal_questions","survey-likert","103","473493","0.0-6.0-6.13","3200097","co38269","norming","","","{""aha"":6}","[0]","../img/tt/053tt.jpg","",""
"null","<div style=""font-size:60px;""> </div>","null","fixation","html-keyboard-response","104","473698","0.0-6.0-0.14","3200097","co38269","norming","","","","","","",""
"null","../img/tt/126tt.jpg","null","mooney1","image-keyboard-response","105","476700","0.0-6.0-1.14","3200097","co38269","norming","","","","","","",""
"8206.715000000026","","","post_mooney1_questions","survey-likert","106","484907","0.0-6.0-2.14","3200097","co38269","norming","","","{""curiosity"":6,""confidence"":1}","[0,1]","../img/tt/126tt.jpg","",""
"3214.069999999949","","","recognition","survey-text","107","488123","0.0-6.0-3.14","3200097","co38269","norming","","","{""guess"":""koe""}","","../img/tt/126tt.jpg","",""
"null","../img/gs/126gs.jpg","null","reveal","image-keyboard-response","108","490124","0.0-6.0-4.14","3200097","co38269","norming","","","","","","",""
"null","../img/tt/126tt.jpg","null","mooney2","image-keyboard-response","109","492133","0.0-6.0-5.14","3200097","co38269","norming","","","","","","",""
"4337.764999999956","","","post_reveal_questions","survey-likert","110","496475","0.0-6.0-6.14","3200097","co38269","norming","","","{""aha"":0}","[0]","../img/tt/126tt.jpg","",""
"null","<div style=""font-size:60px;""> </div>","null","fixation","html-keyboard-response","111","496685","0.0-6.0-0.15","3200097","co38269","norming","","","","","","",""
"null","../img/tt/1087tt.jpg","null","mooney1","image-keyboard-response","112","499688","0.0-6.0-1.15","3200097","co38269","norming","","","","","","",""
"4337.979999999981","","","post_mooney1_questions","survey-likert","113","504027","0.0-6.0-2.15","3200097","co38269","norming","","","{""curiosity"":6,""confidence"":1}","[0,1]","../img/tt/1087tt.jpg","",""
"3165.8400000000256","","","recognition","survey-text","114","507194","0.0-6.0-3.15","3200097","co38269","norming","","","{""guess"":""dier""}","","../img/tt/1087tt.jpg","",""
"null","../img/gs/1087gs.jpg","null","reveal","image-keyboard-response","115","509202","0.0-6.0-4.15","3200097","co38269","norming","","","","","","",""
"null","../img/tt/1087tt.jpg","null","mooney2","image-keyboard-response","116","511204","0.0-6.0-5.15","3200097","co38269","norming","","","","","","",""
"5260.749999999942","","","post_reveal_questions","survey-likert","117","516467","0.0-6.0-6.15","3200097","co38269","norming","","","{""aha"":3}","[0]","../img/tt/1087tt.jpg","",""
"null","<div style=""font-size:60px;""> </div>","null","fixation","html-keyboard-response","118","516670","0.0-6.0-0.16","3200097","co38269","norming","","","","","","",""
"null","../img/tt/079tt.jpg","null","mooney1","image-keyboard-response","119","519678","0.0-6.0-1.16","3200097","co38269","norming","","","","","","",""
"5196.130000000063","","","post_mooney1_questions","survey-likert","120","524875","0.0-6.0-2.16","3200097","co38269","norming","","","{""curiosity"":6,""confidence"":2}","[0,1]","../img/tt/079tt.jpg","",""
"2805.929999999935","","","recognition","survey-text","121","527682","0.0-6.0-3.16","3200097","co38269","norming","","","{""guess"":""beer""}","","../img/tt/079tt.jpg","",""
"null","../img/gs/079gs.jpg","null","reveal","image-keyboard-response","122","529685","0.0-6.0-4.16","3200097","co38269","norming","","","","","","",""
"null","../img/tt/079tt.jpg","null","mooney2","image-keyboard-response","123","531688","0.0-6.0-5.16","3200097","co38269","norming","","","","","","",""
"2434.085000000079","","","post_reveal_questions","survey-likert","124","534123","0.0-6.0-6.16","3200097","co38269","norming","","","{""aha"":0}","[0]","../img/tt/079tt.jpg","",""
"null","<div style=""font-size:60px;""> </div>","null","fixation","html-keyboard-response","125","534327","0.0-6.0-0.17","3200097","co38269","norming","","","","","","",""
"null","../img/tt/1363tt.jpg","null","mooney1","image-keyboard-response","126","537339","0.0-6.0-1.17","3200097","co38269","norming","","","","","","",""
"4877.2849999998","","","post_mooney1_questions","survey-likert","127","542219","0.0-6.0-2.17","3200097","co38269","norming","","","{""curiosity"":6,""confidence"":2}","[0,1]","../img/tt/1363tt.jpg","",""
"5365.730000000098","","","recognition","survey-text","128","547581","0.0-6.0-3.17","3200097","co38269","norming","","","{""guess"":""melkkan""}","","../img/tt/1363tt.jpg","",""
"null","../img/gs/1363gs.jpg","null","reveal","image-keyboard-response","129","549589","0.0-6.0-4.17","3200097","co38269","norming","","","","","","",""
"null","../img/tt/1363tt.jpg","null","mooney2","image-keyboard-response","130","551590","0.0-6.0-5.17","3200097","co38269","norming","","","","","","",""
"7870.9900000002235","","","post_reveal_questions","survey-likert","131","559462","0.0-6.0-6.17","3200097","co38269","norming","","","{""aha"":5}","[0]","../img/tt/1363tt.jpg","",""
"null","<div style=""font-size:60px;""> </div>","null","fixation","html-keyboard-response","132","559663","0.0-6.0-0.18","3200097","co38269","norming","","","","","","",""
"null","../img/tt/108tt.jpg","null","mooney1","image-keyboard-response","133","562668","0.0-6.0-1.18","3200097","co38269","norming","","","","","","",""
"4231.454999999958","","","post_mooney1_questions","survey-likert","134","566902","0.0-6.0-2.18","3200097","co38269","norming","","","{""curiosity"":6,""confidence"":0}","[0,1]","../img/tt/108tt.jpg","",""
"4806.094999999972","","","recognition","survey-text","135","571710","0.0-6.0-3.18","3200097","co38269","norming","","","{""guess"":""plant""}","","../img/tt/108tt.jpg","",""
"null","../img/gs/108gs.jpg","null","reveal","image-keyboard-response","136","573720","0.0-6.0-4.18","3200097","co38269","norming","","","","","","",""
"null","../img/tt/108tt.jpg","null","mooney2","image-keyboard-response","137","575723","0.0-6.0-5.18","3200097","co38269","norming","","","","","","",""
"3016.8850000000093","","","post_reveal_questions","survey-likert","138","578742","0.0-6.0-6.18","3200097","co38269","norming","","","{""aha"":6}","[0]","../img/tt/108tt.jpg","",""
"null","<div style=""font-size:60px;""> </div>","null","fixation","html-keyboard-response","139","578947","0.0-6.0-0.19","3200097","co38269","norming","","","","","","",""
"null","../img/tt/318tt.jpg","null","mooney1","image-keyboard-response","140","581949","0.0-6.0-1.19","3200097","co38269","norming","","","","","","",""
"3957.7000000001863","","","post_mooney1_questions","survey-likert","141","585910","0.0-6.0-2.19","3200097","co38269","norming","","","{""curiosity"":6,""confidence"":0}","[0,1]","../img/tt/318tt.jpg","",""
"5070.255000000121","","","recognition","survey-text","142","590982","0.0-6.0-3.19","3200097","co38269","norming","","","{""guess"":""speelgoed""}","","../img/tt/318tt.jpg","",""
"null","../img/gs/318gs.jpg","null","reveal","image-keyboard-response","143","592984","0.0-6.0-4.19","3200097","co38269","norming","","","","","","",""
"null","../img/tt/318tt.jpg","null","mooney2","image-keyboard-response","144","594986","0.0-6.0-5.19","3200097","co38269","norming","","","","","","",""
"1609.0400000000373","","","post_reveal_questions","survey-likert","145","596598","0.0-6.0-6.19","3200097","co38269","norming","","","{""aha"":6}","[0]","../img/tt/318tt.jpg","",""
"null","<div style=""font-size:60px;""> </div>","null","fixation","html-keyboard-response","146","596799","0.0-6.0-0.20","3200097","co38269","norming","","","","","","",""
"null","../img/tt/440tt.jpg","null","mooney1","image-keyboard-response","147","599803","0.0-6.0-1.20","3200097","co38269","norming","","","","","","",""
"4416.009999999893","","","post_mooney1_questions","survey-likert","148","604227","0.0-6.0-2.20","3200097","co38269","norming","","","{""curiosity"":6,""confidence"":0}","[0,1]","../img/tt/440tt.jpg","",""
"3661.965000000084","","","recognition","survey-text","149","607890","0.0-6.0-3.20","3200097","co38269","norming","","","{""guess"":""paard""}","","../img/tt/440tt.jpg","",""
"null","../img/gs/440gs.jpg","null","reveal","image-keyboard-response","150","609892","0.0-6.0-4.20","3200097","co38269","norming","","","","","","",""
"null","../img/tt/440tt.jpg","null","mooney2","image-keyboard-response","151","611894","0.0-6.0-5.20","3200097","co38269","norming","","","","","","",""
"2537.7299999999814","","","post_reveal_questions","survey-likert","152","614434","0.0-6.0-6.20","3200097","co38269","norming","","","{""aha"":6}","[0]","../img/tt/440tt.jpg","",""
"null","<div style=""font-size:60px;""> </div>","null","fixation","html-keyboard-response","153","614638","0.0-6.0-0.21","3200097","co38269","norming","","","","","","",""
"null","../img/tt/1146tt.jpg","null","mooney1","image-keyboard-response","154","617640","0.0-6.0-1.21","3200097","co38269","norming","","","","","","",""
"3481","","","post_mooney1_questions","survey-likert","155","621123","0.0-6.0-2.21","3200097","co38269","norming","","","{""curiosity"":6,""confidence"":2}","[0,1]","../img/tt/1146tt.jpg","",""
"4526.340000000084","","","recognition","survey-text","156","625650","0.0-6.0-3.21","3200097","co38269","norming","","","{""guess"":""auto""}","","../img/tt/1146tt.jpg","",""
"null","../img/gs/1146gs.jpg","null","reveal","image-keyboard-response","157","627653","0.0-6.0-4.21","3200097","co38269","norming","","","","","","",""
"null","../img/tt/1146tt.jpg","null","mooney2","image-keyboard-response","158","629658","0.0-6.0-5.21","3200097","co38269","norming","","","","","","",""
"2239.0800000000745","","","post_reveal_questions","survey-likert","159","631898","0.0-6.0-6.21","3200097","co38269","norming","","","{""aha"":4}","[0]","../img/tt/1146tt.jpg","",""
"null","<div style=""font-size:60px;""> </div>","null","fixation","html-keyboard-response","160","632103","0.0-6.0-0.22","3200097","co38269","norming","","","","","","",""
"null","../img/tt/1261tt.jpg","null","mooney1","image-keyboard-response","161","635113","0.0-6.0-1.22","3200097","co38269","norming","","","","","","",""
"5223.879999999772","","","post_mooney1_questions","survey-likert","162","640338","0.0-6.0-2.22","3200097","co38269","norming","","","{""curiosity"":6,""confidence"":0}","[0,1]","../img/tt/1261tt.jpg","",""
"4198.009999999893","","","recognition","survey-text","163","644538","0.0-6.0-3.22","3200097","co38269","norming","","","{""guess"":""schaap""}","","../img/tt/1261tt.jpg","",""
"null","../img/gs/1261gs.jpg","null","reveal","image-keyboard-response","164","646547","0.0-6.0-4.22","3200097","co38269","norming","","","","","","",""
"null","../img/tt/1261tt.jpg","null","mooney2","image-keyboard-response","165","648548","0.0-6.0-5.22","3200097","co38269","norming","","","","","","",""
"2164.894999999902","","","post_reveal_questions","survey-likert","166","650714","0.0-6.0-6.22","3200097","co38269","norming","","","{""aha"":6}","[0]","../img/tt/1261tt.jpg","",""
"null","<div style=""font-size:60px;""> </div>","null","fixation","html-keyboard-response","167","650921","0.0-6.0-0.23","3200097","co38269","norming","","","","","","",""
"null","../img/tt/1307tt.jpg","null","mooney1","image-keyboard-response","168","653927","0.0-6.0-1.23","3200097","co38269","norming","","","","","","",""
"4986.274999999907","","","post_mooney1_questions","survey-likert","169","658914","0.0-6.0-2.23","3200097","co38269","norming","","","{""curiosity"":6,""confidence"":1}","[0,1]","../img/tt/1307tt.jpg","",""
"4037.984999999986","","","recognition","survey-text","170","662954","0.0-6.0-3.23","3200097","co38269","norming","","","{""guess"":""wiel""}","","../img/tt/1307tt.jpg","",""
"null","../img/gs/1307gs.jpg","null","reveal","image-keyboard-response","171","664962","0.0-6.0-4.23","3200097","co38269","norming","","","","","","",""
"null","../img/tt/1307tt.jpg","null","mooney2","image-keyboard-response","172","666966","0.0-6.0-5.23","3200097","co38269","norming","","","","","","",""
"4039.4599999999627","","","post_reveal_questions","survey-likert","173","671006","0.0-6.0-6.23","3200097","co38269","norming","","","{""aha"":4}","[0]","../img/tt/1307tt.jpg","",""
"null","<div style=""font-size:60px;""> </div>","null","fixation","html-keyboard-response","174","671208","0.0-6.0-0.24","3200097","co38269","norming","","","","","","",""
"null","../img/tt/1309tt.jpg","null","mooney1","image-keyboard-response","175","674212","0.0-6.0-1.24","3200097","co38269","norming","","","","","","",""
"5400.574999999953","","","post_mooney1_questions","survey-likert","176","679614","0.0-6.0-2.24","3200097","co38269","norming","","","{""curiosity"":6,""confidence"":0}","[0,1]","../img/tt/1309tt.jpg","",""
"7350.015000000014","","","recognition","survey-text","177","686966","0.0-6.0-3.24","3200097","co38269","norming","","","{""guess"":""bos""}","","../img/tt/1309tt.jpg","",""
"null","../img/gs/1309gs.jpg","null","reveal","image-keyboard-response","178","688968","0.0-6.0-4.24","3200097","co38269","norming","","","","","","",""
"null","../img/tt/1309tt.jpg","null","mooney2","image-keyboard-response","179","690976","0.0-6.0-5.24","3200097","co38269","norming","","","","","","",""
"4981.194999999832","","","post_reveal_questions","survey-likert","180","695958","0.0-6.0-6.24","3200097","co38269","norming","","","{""aha"":6}","[0]","../img/tt/1309tt.jpg","",""
"null","<div style=""font-size:60px;""> </div>","null","fixation","html-keyboard-response","181","696159","0.0-6.0-0.25","3200097","co38269","norming","","","","","","",""
"null","../img/tt/477tt.jpg","null","mooney1","image-keyboard-response","182","699163","0.0-6.0-1.25","3200097","co38269","norming","","","","","","",""
"4313.639999999781","","","post_mooney1_questions","survey-likert","183","703478","0.0-6.0-2.25","3200097","co38269","norming","","","{""curiosity"":6,""confidence"":0}","[0,1]","../img/tt/477tt.jpg","",""
"6646.144999999902","","","recognition","survey-text","184","710126","0.0-6.0-3.25","3200097","co38269","norming","","","{""guess"":""speelgoed""}","","../img/tt/477tt.jpg","",""
"null","../img/gs/477gs.jpg","null","reveal","image-keyboard-response","185","712128","0.0-6.0-4.25","3200097","co38269","norming","","","","","","",""
"null","../img/tt/477tt.jpg","null","mooney2","image-keyboard-response","186","714129","0.0-6.0-5.25","3200097","co38269","norming","","","","","","",""
"2764.1500000001397","","","post_reveal_questions","survey-likert","187","716894","0.0-6.0-6.25","3200097","co38269","norming","","","{""aha"":4}","[0]","../img/tt/477tt.jpg","",""
"null","<div style=""font-size:60px;""> </div>","null","fixation","html-keyboard-response","188","717097","0.0-6.0-0.26","3200097","co38269","norming","","","","","","",""
"null","../img/tt/1154tt.jpg","null","mooney1","image-keyboard-response","189","720099","0.0-6.0-1.26","3200097","co38269","norming","","","","","","",""
"3826.030000000028","","","post_mooney1_questions","survey-likert","190","723926","0.0-6.0-2.26","3200097","co38269","norming","","","{""curiosity"":6,""confidence"":0}","[0,1]","../img/tt/1154tt.jpg","",""
"2694.110000000219","","","recognition","survey-text","191","726612","0.0-6.0-3.26","3200097","co38269","norming","","","{""guess"":""bos""}","","../img/tt/1154tt.jpg","",""
"null","../img/gs/1154gs.jpg","null","reveal","image-keyboard-response","192","728620","0.0-6.0-4.26","3200097","co38269","norming","","","","","","",""
"null","../img/tt/1154tt.jpg","null","mooney2","image-keyboard-response","193","730625","0.0-6.0-5.26","3200097","co38269","norming","","","","","","",""
"4674.40000000014","","","post_reveal_questions","survey-likert","194","735300","0.0-6.0-6.26","3200097","co38269","norming","","","{""aha"":5}","[0]","../img/tt/1154tt.jpg","",""
"null","<div style=""font-size:60px;""> </div>","null","fixation","html-keyboard-response","195","735508","0.0-6.0-0.27","3200097","co38269","norming","","","","","","",""
"null","../img/tt/1247tt.jpg","null","mooney1","image-keyboard-response","196","738516","0.0-6.0-1.27","3200097","co38269","norming","","","","","","",""
"3503.680000000051","","","post_mooney1_questions","survey-likert","197","742021","0.0-6.0-2.27","3200097","co38269","norming","","","{""curiosity"":6,""confidence"":1}","[0,1]","../img/tt/1247tt.jpg","",""
"3533.9100000000326","","","recognition","survey-text","198","745556","0.0-6.0-3.27","3200097","co38269","norming","","","{""guess"":""dier""}","","../img/tt/1247tt.jpg","",""
"null","../img/gs/1247gs.jpg","null","reveal","image-keyboard-response","199","747565","0.0-6.0-4.27","3200097","co38269","norming","","","","","","",""
"null","../img/tt/1247tt.jpg","null","mooney2","image-keyboard-response","200","749567","0.0-6.0-5.27","3200097","co38269","norming","","","","","","",""
"3853.0200000000186","","","post_reveal_questions","survey-likert","201","753420","0.0-6.0-6.27","3200097","co38269","norming","","","{""aha"":6}","[0]","../img/tt/1247tt.jpg","",""
"null","<div style=""font-size:60px;""> </div>","null","fixation","html-keyboard-response","202","753624","0.0-6.0-0.28","3200097","co38269","norming","","","","","","",""
"null","../img/tt/1102tt.jpg","null","mooney1","image-keyboard-response","203","756630","0.0-6.0-1.28","3200097","co38269","norming","","","","","","",""
"5829.344999999856","","","post_mooney1_questions","survey-likert","204","762461","0.0-6.0-2.28","3200097","co38269","norming","","","{""curiosity"":6,""confidence"":1}","[0,1]","../img/tt/1102tt.jpg","",""
"7702.099999999977","","","recognition","survey-text","205","770164","0.0-6.0-3.28","3200097","co38269","norming","","","{""guess"":""kat""}","","../img/tt/1102tt.jpg","",""
"null","../img/gs/1102gs.jpg","null","reveal","image-keyboard-response","206","772167","0.0-6.0-4.28","3200097","co38269","norming","","","","","","",""
"null","../img/tt/1102tt.jpg","null","mooney2","image-keyboard-response","207","774177","0.0-6.0-5.28","3200097","co38269","norming","","","","","","",""
"1576.9499999999534","","","post_reveal_questions","survey-likert","208","775757","0.0-6.0-6.28","3200097","co38269","norming","","","{""aha"":2}","[0]","../img/tt/1102tt.jpg","",""
"null","<div style=""font-size:60px;""> </div>","null","fixation","html-keyboard-response","209","775964","0.0-6.0-0.29","3200097","co38269","norming","","","","","","",""
"null","../img/tt/111tt.jpg","null","mooney1","image-keyboard-response","210","778966","0.0-6.0-1.29","3200097","co38269","norming","","","","","","",""
"7571.814999999944","","","post_mooney1_questions","survey-likert","211","786549","0.0-6.0-2.29","3200097","co38269","norming","","","{""curiosity"":6,""confidence"":6}","[0,1]","../img/tt/111tt.jpg","",""
"20118.11499999999","","","recognition","survey-text","212","806668","0.0-6.0-3.29","3200097","co38269","norming","","","{""guess"":""douch""}","","../img/tt/111tt.jpg","",""
"null","../img/gs/111gs.jpg","null","reveal","image-keyboard-response","213","808679","0.0-6.0-4.29","3200097","co38269","norming","","","","","","",""
"null","../img/tt/111tt.jpg","null","mooney2","image-keyboard-response","214","810685","0.0-6.0-5.29","3200097","co38269","norming","","","","","","",""
"2836.9649999999674","","","post_reveal_questions","survey-likert","215","813524","0.0-6.0-6.29","3200097","co38269","norming","","","{""aha"":0}","[0]","../img/tt/111tt.jpg","",""
"null","<div style=""font-size:60px;""> </div>","null","fixation","html-keyboard-response","216","813730","0.0-6.0-0.30","3200097","co38269","norming","","","","","","",""
"null","../img/tt/105tt.jpg","null","mooney1","image-keyboard-response","217","816737","0.0-6.0-1.30","3200097","co38269","norming","","","","","","",""
"3689.1399999998976","","","post_mooney1_questions","survey-likert","218","820429","0.0-6.0-2.30","3200097","co38269","norming","","","{""curiosity"":6,""confidence"":0}","[0,1]","../img/tt/105tt.jpg","",""
"8125.959999999846","","","recognition","survey-text","219","828556","0.0-6.0-3.30","3200097","co38269","norming","","","{""guess"":""tafelkleed""}","","../img/tt/105tt.jpg","",""
"null","../img/gs/105gs.jpg","null","reveal","image-keyboard-response","220","830567","0.0-6.0-4.30","3200097","co38269","norming","","","","","","",""
"null","../img/tt/105tt.jpg","null","mooney2","image-keyboard-response","221","832570","0.0-6.0-5.30","3200097","co38269","norming","","","","","","",""
"2591.984999999986","","","post_reveal_questions","survey-likert","222","835164","0.0-6.0-6.30","3200097","co38269","norming","","","{""aha"":6}","[0]","../img/tt/105tt.jpg","",""
"null","<div style=""font-size:60px;""> </div>","null","fixation","html-keyboard-response","223","835366","0.0-6.0-0.31","3200097","co38269","norming","","","","","","",""
"null","../img/tt/270tt.jpg","null","mooney1","image-keyboard-response","224","838368","0.0-6.0-1.31","3200097","co38269","norming","","","","","","",""
"3807.8799999998882","","","post_mooney1_questions","survey-likert","225","842181","0.0-6.0-2.31","3200097","co38269","norming","","","{""curiosity"":6,""confidence"":0}","[0,1]","../img/tt/270tt.jpg","",""
"8134.0299999999115","","","recognition","survey-text","226","850313","0.0-6.0-3.31","3200097","co38269","norming","","","{""guess"":""plant""}","","../img/tt/270tt.jpg","",""
"null","../img/gs/270gs.jpg","null","reveal","image-keyboard-response","227","852314","0.0-6.0-4.31","3200097","co38269","norming","","","","","","",""
"null","../img/tt/270tt.jpg","null","mooney2","image-keyboard-response","228","854319","0.0-6.0-5.31","3200097","co38269","norming","","","","","","",""
"4103.1900000000605","","","post_reveal_questions","survey-likert","229","858424","0.0-6.0-6.31","3200097","co38269","norming","","","{""aha"":4}","[0]","../img/tt/270tt.jpg","",""
"null","<div style=""font-size:60px;""> </div>","null","fixation","html-keyboard-response","230","858634","0.0-6.0-0.32","3200097","co38269","norming","","","","","","",""
"null","../img/tt/1353tt.jpg","null","mooney1","image-keyboard-response","231","861646","0.0-6.0-1.32","3200097","co38269","norming","","","","","","",""
"5578.030000000144","","","post_mooney1_questions","survey-likert","232","867225","0.0-6.0-2.32","3200097","co38269","norming","","","{""curiosity"":6,""confidence"":0}","[0,1]","../img/tt/1353tt.jpg","",""
"3869.6500000001397","","","recognition","survey-text","233","871096","0.0-6.0-3.32","3200097","co38269","norming","","","{""guess"":""plant""}","","../img/tt/1353tt.jpg","",""
"null","../img/gs/1353gs.jpg","null","reveal","image-keyboard-response","234","873098","0.0-6.0-4.32","3200097","co38269","norming","","","","","","",""
"null","../img/tt/1353tt.jpg","null","mooney2","image-keyboard-response","235","875106","0.0-6.0-5.32","3200097","co38269","norming","","","","","","",""
"3780.805000000051","","","post_reveal_questions","survey-likert","236","878888","0.0-6.0-6.32","3200097","co38269","norming","","","{""aha"":6}","[0]","../img/tt/1353tt.jpg","",""
"null","<div style=""font-size:60px;""> </div>","null","fixation","html-keyboard-response","237","879089","0.0-6.0-0.33","3200097","co38269","norming","","","","","","",""
"null","../img/tt/1024tt.jpg","null","mooney1","image-keyboard-response","238","882098","0.0-6.0-1.33","3200097","co38269","norming","","","","","","",""
"4581.030000000028","","","post_mooney1_questions","survey-likert","239","886680","0.0-6.0-2.33","3200097","co38269","norming","","","{""curiosity"":6,""confidence"":0}","[0,1]","../img/tt/1024tt.jpg","",""
"5470.064999999944","","","recognition","survey-text","240","892152","0.0-6.0-3.33","3200097","co38269","norming","","","{""guess"":""plant""}","","../img/tt/1024tt.jpg","",""
"null","../img/gs/1024gs.jpg","null","reveal","image-keyboard-response","241","894155","0.0-6.0-4.33","3200097","co38269","norming","","","","","","",""
"null","../img/tt/1024tt.jpg","null","mooney2","image-keyboard-response","242","896164","0.0-6.0-5.33","3200097","co38269","norming","","","","","","",""
"5595.4550000000745","","","post_reveal_questions","survey-likert","243","901760","0.0-6.0-6.33","3200097","co38269","norming","","","{""aha"":3}","[0]","../img/tt/1024tt.jpg","",""
"null","<div style=""font-size:60px;""> </div>","null","fixation","html-keyboard-response","244","901965","0.0-6.0-0.34","3200097","co38269","norming","","","","","","",""
"null","../img/tt/1224tt.jpg","null","mooney1","image-keyboard-response","245","904970","0.0-6.0-1.34","3200097","co38269","norming","","","","","","",""
"5205.449999999953","","","post_mooney1_questions","survey-likert","246","910181","0.0-6.0-2.34","3200097","co38269","norming","","","{""curiosity"":6,""confidence"":1}","[0,1]","../img/tt/1224tt.jpg","",""
"3893.929999999935","","","recognition","survey-text","247","914076","0.0-6.0-3.34","3200097","co38269","norming","","","{""guess"":""zanger""}","","../img/tt/1224tt.jpg","",""
"null","../img/gs/1224gs.jpg","null","reveal","image-keyboard-response","248","916081","0.0-6.0-4.34","3200097","co38269","norming","","","","","","",""
"null","../img/tt/1224tt.jpg","null","mooney2","image-keyboard-response","249","918082","0.0-6.0-5.34","3200097","co38269","norming","","","","","","",""
"2345.484999999986","","","post_reveal_questions","survey-likert","250","920429","0.0-6.0-6.34","3200097","co38269","norming","","","{""aha"":6}","[0]","../img/tt/1224tt.jpg","",""
"null","<div style=""font-size:60px;""> </div>","null","fixation","html-keyboard-response","251","920636","0.0-6.0-0.35","3200097","co38269","norming","","","","","","",""
"null","../img/tt/1366tt.jpg","null","mooney1","image-keyboard-response","252","923644","0.0-6.0-1.35","3200097","co38269","norming","","","","","","",""
"7007.324999999953","","","post_mooney1_questions","survey-likert","253","930653","0.0-6.0-2.35","3200097","co38269","norming","","","{""curiosity"":5,""confidence"":1}","[0,1]","../img/tt/1366tt.jpg","",""
"3293.939999999944","","","recognition","survey-text","254","933948","0.0-6.0-3.35","3200097","co38269","norming","","","{""guess"":""voedsel""}","","../img/tt/1366tt.jpg","",""
"null","../img/gs/1366gs.jpg","null","reveal","image-keyboard-response","255","935958","0.0-6.0-4.35","3200097","co38269","norming","","","","","","",""
"null","../img/tt/1366tt.jpg","null","mooney2","image-keyboard-response","256","937960","0.0-6.0-5.35","3200097","co38269","norming","","","","","","",""
"2625.884999999893","","","post_reveal_questions","survey-likert","257","940588","0.0-6.0-6.35","3200097","co38269","norming","","","{""aha"":3}","[0]","../img/tt/1366tt.jpg","",""
"null","<div style=""font-size:60px;""> </div>","null","fixation","html-keyboard-response","258","940795","0.0-6.0-0.36","3200097","co38269","norming","","","","","","",""
"null","../img/tt/1107tt.jpg","null","mooney1","image-keyboard-response","259","943797","0.0-6.0-1.36","3200097","co38269","norming","","","","","","",""
"5574.865000000107","","","post_mooney1_questions","survey-likert","260","949373","0.0-6.0-2.36","3200097","co38269","norming","","","{""curiosity"":6,""confidence"":5}","[0,1]","../img/tt/1107tt.jpg","",""
"3789.350000000093","","","recognition","survey-text","261","953164","0.0-6.0-3.36","3200097","co38269","norming","","","{""guess"":""poes""}","","../img/tt/1107tt.jpg","",""
"null","../img/gs/1107gs.jpg","null","reveal","image-keyboard-response","262","955165","0.0-6.0-4.36","3200097","co38269","norming","","","","","","",""
"null","../img/tt/1107tt.jpg","null","mooney2","image-keyboard-response","263","957173","0.0-6.0-5.36","3200097","co38269","norming","","","","","","",""
"4582.47499999986","","","post_reveal_questions","survey-likert","264","961757","0.0-6.0-6.36","3200097","co38269","norming","","","{""aha"":3}","[0]","../img/tt/1107tt.jpg","",""
"null","<div style=""font-size:60px;""> </div>","null","fixation","html-keyboard-response","265","961967","0.0-6.0-0.37","3200097","co38269","norming","","","","","","",""
"null","../img/tt/1053tt.jpg","null","mooney1","image-keyboard-response","266","964973","0.0-6.0-1.37","3200097","co38269","norming","","","","","","",""
"5572.680000000051","","","post_mooney1_questions","survey-likert","267","970556","0.0-6.0-2.37","3200097","co38269","norming","","","{""curiosity"":6,""confidence"":2}","[0,1]","../img/tt/1053tt.jpg","",""
"7901.984999999986","","","recognition","survey-text","268","978459","0.0-6.0-3.37","3200097","co38269","norming","","","{""guess"":""geit""}","","../img/tt/1053tt.jpg","",""
"null","../img/gs/1053gs.jpg","null","reveal","image-keyboard-response","269","980460","0.0-6.0-4.37","3200097","co38269","norming","","","","","","",""
"null","../img/tt/1053tt.jpg","null","mooney2","image-keyboard-response","270","982463","0.0-6.0-5.37","3200097","co38269","norming","","","","","","",""
"4384.035000000033","","","post_reveal_questions","survey-likert","271","986851","0.0-6.0-6.37","3200097","co38269","norming","","","{""aha"":5}","[0]","../img/tt/1053tt.jpg","",""
"null","<div style=""font-size:60px;""> </div>","null","fixation","html-keyboard-response","272","987055","0.0-6.0-0.38","3200097","co38269","norming","","","","","","",""
"null","../img/tt/353tt.jpg","null","mooney1","image-keyboard-response","273","990059","0.0-6.0-1.38","3200097","co38269","norming","","","","","","",""
"4221.389999999898","","","post_mooney1_questions","survey-likert","274","994284","0.0-6.0-2.38","3200097","co38269","norming","","","{""curiosity"":5,""confidence"":6}","[0,1]","../img/tt/353tt.jpg","",""
"4366.064999999944","","","recognition","survey-text","275","998651","0.0-6.0-3.38","3200097","co38269","norming","","","{""guess"":""pinguin""}","","../img/tt/353tt.jpg","",""
"null","../img/gs/353gs.jpg","null","reveal","image-keyboard-response","276","1000660","0.0-6.0-4.38","3200097","co38269","norming","","","","","","",""
"null","../img/tt/353tt.jpg","null","mooney2","image-keyboard-response","277","1002662","0.0-6.0-5.38","3200097","co38269","norming","","","","","","",""
"3610.560000000056","","","post_reveal_questions","survey-likert","278","1006275","0.0-6.0-6.38","3200097","co38269","norming","","","{""aha"":0}","[0]","../img/tt/353tt.jpg","",""
"null","<div style=""font-size:60px;""> </div>","null","fixation","html-keyboard-response","279","1006483","0.0-6.0-0.39","3200097","co38269","norming","","","","","","",""
"null","../img/tt/301tt.jpg","null","mooney1","image-keyboard-response","280","1009495","0.0-6.0-1.39","3200097","co38269","norming","","","","","","",""
"3984.7599999997765","","","post_mooney1_questions","survey-likert","281","1013483","0.0-6.0-2.39","3200097","co38269","norming","","","{""curiosity"":6,""confidence"":1}","[0,1]","../img/tt/301tt.jpg","",""
"3886.164999999921","","","recognition","survey-text","282","1017371","0.0-6.0-3.39","3200097","co38269","norming","","","{""guess"":""kaars""}","","../img/tt/301tt.jpg","",""
"null","../img/gs/301gs.jpg","null","reveal","image-keyboard-response","283","1019378","0.0-6.0-4.39","3200097","co38269","norming","","","","","","",""
"null","../img/tt/301tt.jpg","null","mooney2","image-keyboard-response","284","1021383","0.0-6.0-5.39","3200097","co38269","norming","","","","","","",""
"2753.7700000000186","","","post_reveal_questions","survey-likert","285","1024139","0.0-6.0-6.39","3200097","co38269","norming","","","{""aha"":5}","[0]","../img/tt/301tt.jpg","",""
"null","<div style=""font-size:60px;""> </div>","null","fixation","html-keyboard-response","286","1024341","0.0-6.0-0.40","3200097","co38269","norming","","","","","","",""
"null","../img/tt/279tt.jpg","null","mooney1","image-keyboard-response","287","1027343","0.0-6.0-1.40","3200097","co38269","norming","","","","","","",""
"8689.020000000019","","","post_mooney1_questions","survey-likert","288","1036041","0.0-6.0-2.40","3200097","co38269","norming","","","{""curiosity"":4,""confidence"":6}","[0,1]","../img/tt/279tt.jpg","",""
"3605.765000000014","","","recognition","survey-text","289","1039649","0.0-6.0-3.40","3200097","co38269","norming","","","{""guess"":""koala""}","","../img/tt/279tt.jpg","",""
"null","../img/gs/279gs.jpg","null","reveal","image-keyboard-response","290","1041656","0.0-6.0-4.40","3200097","co38269","norming","","","","","","",""
"null","../img/tt/279tt.jpg","null","mooney2","image-keyboard-response","291","1043664","0.0-6.0-5.40","3200097","co38269","norming","","","","","","",""
"4711.514999999898","","","post_reveal_questions","survey-likert","292","1048377","0.0-6.0-6.40","3200097","co38269","norming","","","{""aha"":0}","[0]","../img/tt/279tt.jpg","",""
"null","<div style=""font-size:60px;""> </div>","null","fixation","html-keyboard-response","293","1048582","0.0-6.0-0.41","3200097","co38269","norming","","","","","","",""
"null","../img/tt/1275tt.jpg","null","mooney1","image-keyboard-response","294","1051589","0.0-6.0-1.41","3200097","co38269","norming","","","","","","",""
"4474.939999999944","","","post_mooney1_questions","survey-likert","295","1056065","0.0-6.0-2.41","3200097","co38269","norming","","","{""curiosity"":6,""confidence"":1}","[0,1]","../img/tt/1275tt.jpg","",""
"2461.715000000084","","","recognition","survey-text","296","1058529","0.0-6.0-3.41","3200097","co38269","norming","","","{""guess"":""bos""}","","../img/tt/1275tt.jpg","",""
"null","../img/gs/1275gs.jpg","null","reveal","image-keyboard-response","297","1060530","0.0-6.0-4.41","3200097","co38269","norming","","","","","","",""
"null","../img/tt/1275tt.jpg","null","mooney2","image-keyboard-response","298","1062533","0.0-6.0-5.41","3200097","co38269","norming","","","","","","",""
"4209.409999999916","","","post_reveal_questions","survey-likert","299","1066745","0.0-6.0-6.41","3200097","co38269","norming","","","{""aha"":5}","[0]","../img/tt/1275tt.jpg","",""
"null","<div style=""font-size:60px;""> </div>","null","fixation","html-keyboard-response","300","1066946","0.0-6.0-0.42","3200097","co38269","norming","","","","","","",""
"null","../img/tt/1078tt.jpg","null","mooney1","image-keyboard-response","301","1069950","0.0-6.0-1.42","3200097","co38269","norming","","","","","","",""
"4607.539999999804","","","post_mooney1_questions","survey-likert","302","1074561","0.0-6.0-2.42","3200097","co38269","norming","","","{""curiosity"":5,""confidence"":3}","[0,1]","../img/tt/1078tt.jpg","",""
"5326.334999999963","","","recognition","survey-text","303","1079889","0.0-6.0-3.42","3200097","co38269","norming","","","{""guess"":""skater""}","","../img/tt/1078tt.jpg","",""
"null","../img/gs/1078gs.jpg","null","reveal","image-keyboard-response","304","1081891","0.0-6.0-4.42","3200097","co38269","norming","","","","","","",""
"null","../img/tt/1078tt.jpg","null","mooney2","image-keyboard-response","305","1083892","0.0-6.0-5.42","3200097","co38269","norming","","","","","","",""
"2183.2949999999255","","","post_reveal_questions","survey-likert","306","1086081","0.0-6.0-6.42","3200097","co38269","norming","","","{""aha"":1}","[0]","../img/tt/1078tt.jpg","",""
"null","<div style=""font-size:60px;""> </div>","null","fixation","html-keyboard-response","307","1086292","0.0-6.0-0.43","3200097","co38269","norming","","","","","","",""
"null","../img/tt/436tt.jpg","null","mooney1","image-keyboard-response","308","1089295","0.0-6.0-1.43","3200097","co38269","norming","","","","","","",""
"4526.739999999991","","","post_mooney1_questions","survey-likert","309","1093830","0.0-6.0-2.43","3200097","co38269","norming","","","{""curiosity"":6,""confidence"":3}","[0,1]","../img/tt/436tt.jpg","",""
"3150.0649999997113","","","recognition","survey-text","310","1096982","0.0-6.0-3.43","3200097","co38269","norming","","","{""guess"":""fruit""}","","../img/tt/436tt.jpg","",""
"null","../img/gs/436gs.jpg","null","reveal","image-keyboard-response","311","1098990","0.0-6.0-4.43","3200097","co38269","norming","","","","","","",""
"null","../img/tt/436tt.jpg","null","mooney2","image-keyboard-response","312","1100995","0.0-6.0-5.43","3200097","co38269","norming","","","","","","",""
"1999.0699999998324","","","post_reveal_questions","survey-likert","313","1102998","0.0-6.0-6.43","3200097","co38269","norming","","","{""aha"":2}","[0]","../img/tt/436tt.jpg","",""
"null","<div style=""font-size:60px;""> </div>","null","fixation","html-keyboard-response","314","1103204","0.0-6.0-0.44","3200097","co38269","norming","","","","","","",""
"null","../img/tt/1048tt.jpg","null","mooney1","image-keyboard-response","315","1106206","0.0-6.0-1.44","3200097","co38269","norming","","","","","","",""
"3780.685000000056","","","post_mooney1_questions","survey-likert","316","1109990","0.0-6.0-2.44","3200097","co38269","norming","","","{""curiosity"":6,""confidence"":1}","[0,1]","../img/tt/1048tt.jpg","",""
"7230.114999999758","","","recognition","survey-text","317","1117222","0.0-6.0-3.44","3200097","co38269","norming","","","{""guess"":""bergen""}","","../img/tt/1048tt.jpg","",""
"null","../img/gs/1048gs.jpg","null","reveal","image-keyboard-response","318","1119224","0.0-6.0-4.44","3200097","co38269","norming","","","","","","",""
"null","../img/tt/1048tt.jpg","null","mooney2","image-keyboard-response","319","1121230","0.0-6.0-5.44","3200097","co38269","norming","","","","","","",""
"6093.144999999786","","","post_reveal_questions","survey-likert","320","1127326","0.0-6.0-6.44","3200097","co38269","norming","","","{""aha"":6}","[0]","../img/tt/1048tt.jpg","",""
"null","<div style=""font-size:60px;""> </div>","null","fixation","html-keyboard-response","321","1127527","0.0-6.0-0.45","3200097","co38269","norming","","","","","","",""
"null","../img/tt/1199tt.jpg","null","mooney1","image-keyboard-response","322","1130532","0.0-6.0-1.45","3200097","co38269","norming","","","","","","",""
"4527.560000000056","","","post_mooney1_questions","survey-likert","323","1135062","0.0-6.0-2.45","3200097","co38269","norming","","","{""curiosity"":6,""confidence"":1}","[0,1]","../img/tt/1199tt.jpg","",""
"5701.989999999991","","","recognition","survey-text","324","1140766","0.0-6.0-3.45","3200097","co38269","norming","","","{""guess"":""danseres""}","","../img/tt/1199tt.jpg","",""
"null","../img/gs/1199gs.jpg","null","reveal","image-keyboard-response","325","1142775","0.0-6.0-4.45","3200097","co38269","norming","","","","","","",""
"null","../img/tt/1199tt.jpg","null","mooney2","image-keyboard-response","326","1144786","0.0-6.0-5.45","3200097","co38269","norming","","","","","","",""
"2976.7750000001397","","","post_reveal_questions","survey-likert","327","1147766","0.0-6.0-6.45","3200097","co38269","norming","","","{""aha"":6}","[0]","../img/tt/1199tt.jpg","",""
"null","<div style=""font-size:60px;""> </div>","null","fixation","html-keyboard-response","328","1147970","0.0-6.0-0.46","3200097","co38269","norming","","","","","","",""
"null","../img/tt/1173tt.jpg","null","mooney1","image-keyboard-response","329","1150973","0.0-6.0-1.46","3200097","co38269","norming","","","","","","",""
"4919.739999999991","","","post_mooney1_questions","survey-likert","330","1155894","0.0-6.0-2.46","3200097","co38269","norming","","","{""curiosity"":6,""confidence"":2}","[0,1]","../img/tt/1173tt.jpg","",""
"5358.060000000056","","","recognition","survey-text","331","1161254","0.0-6.0-3.46","3200097","co38269","norming","","","{""guess"":""dansers""}","","../img/tt/1173tt.jpg","",""
"null","../img/gs/1173gs.jpg","null","reveal","image-keyboard-response","332","1163259","0.0-6.0-4.46","3200097","co38269","norming","","","","","","",""
"null","../img/tt/1173tt.jpg","null","mooney2","image-keyboard-response","333","1165261","0.0-6.0-5.46","3200097","co38269","norming","","","","","","",""
"2622.945000000065","","","post_reveal_questions","survey-likert","334","1167886","0.0-6.0-6.46","3200097","co38269","norming","","","{""aha"":6}","[0]","../img/tt/1173tt.jpg","",""
"null","<div style=""font-size:60px;""> </div>","null","fixation","html-keyboard-response","335","1168091","0.0-6.0-0.47","3200097","co38269","norming","","","","","","",""
"null","../img/tt/358tt.jpg","null","mooney1","image-keyboard-response","336","1171094","0.0-6.0-1.47","3200097","co38269","norming","","","","","","",""
"7213.114999999991","","","post_mooney1_questions","survey-likert","337","1178311","0.0-6.0-2.47","3200097","co38269","norming","","","{""curiosity"":6,""confidence"":3}","[0,1]","../img/tt/358tt.jpg","",""
"4405.570000000065","","","recognition","survey-text","338","1182718","0.0-6.0-3.47","3200097","co38269","norming","","","{""guess"":""honden""}","","../img/tt/358tt.jpg","",""
"null","../img/gs/358gs.jpg","null","reveal","image-keyboard-response","339","1184727","0.0-6.0-4.47","3200097","co38269","norming","","","","","","",""
"null","../img/tt/358tt.jpg","null","mooney2","image-keyboard-response","340","1186735","0.0-6.0-5.47","3200097","co38269","norming","","","","","","",""
"1868.7999999998137","","","post_reveal_questions","survey-likert","341","1188606","0.0-6.0-6.47","3200097","co38269","norming","","","{""aha"":6}","[0]","../img/tt/358tt.jpg","",""
"null","<div style=""font-size:60px;""> </div>","null","fixation","html-keyboard-response","342","1188812","0.0-6.0-0.48","3200097","co38269","norming","","","","","","",""
"null","../img/tt/497tt.jpg","null","mooney1","image-keyboard-response","343","1191819","0.0-6.0-1.48","3200097","co38269","norming","","","","","","",""
"4648.855000000214","","","post_mooney1_questions","survey-likert","344","1196470","0.0-6.0-2.48","3200097","co38269","norming","","","{""curiosity"":6,""confidence"":1}","[0,1]","../img/tt/497tt.jpg","",""
"3726.1350000000093","","","recognition","survey-text","345","1200198","0.0-6.0-3.48","3200097","co38269","norming","","","{""guess"":""kaas""}","","../img/tt/497tt.jpg","",""
"null","../img/gs/497gs.jpg","null","reveal","image-keyboard-response","346","1202202","0.0-6.0-4.48","3200097","co38269","norming","","","","","","",""
"null","../img/tt/497tt.jpg","null","mooney2","image-keyboard-response","347","1204205","0.0-6.0-5.48","3200097","co38269","norming","","","","","","",""
"1766.4099999999162","","","post_reveal_questions","survey-likert","348","1205974","0.0-6.0-6.48","3200097","co38269","norming","","","{""aha"":5}","[0]","../img/tt/497tt.jpg","",""
"null","<div style=""font-size:60px;""> </div>","null","fixation","html-keyboard-response","349","1206176","0.0-6.0-0.49","3200097","co38269","norming","","","","","","",""
"null","../img/tt/357tt.jpg","null","mooney1","image-keyboard-response","350","1209182","0.0-6.0-1.49","3200097","co38269","norming","","","","","","",""
"4484.989999999991","","","post_mooney1_questions","survey-likert","351","1213671","0.0-6.0-2.49","3200097","co38269","norming","","","{""curiosity"":5,""confidence"":5}","[0,1]","../img/tt/357tt.jpg","",""
"2805.5900000003166","","","recognition","survey-text","352","1216478","0.0-6.0-3.49","3200097","co38269","norming","","","{""guess"":""egel""}","","../img/tt/357tt.jpg","",""
"null","../img/gs/357gs.jpg","null","reveal","image-keyboard-response","353","1218480","0.0-6.0-4.49","3200097","co38269","norming","","","","","","",""
"null","../img/tt/357tt.jpg","null","mooney2","image-keyboard-response","354","1220482","0.0-6.0-5.49","3200097","co38269","norming","","","","","","",""
"2145.4899999999907","","","post_reveal_questions","survey-likert","355","1222630","0.0-6.0-6.49","3200097","co38269","norming","","","{""aha"":1}","[0]","../img/tt/357tt.jpg","",""
"null","<div style=""font-size:60px;""> </div>","null","fixation","html-keyboard-response","356","1222833","0.0-6.0-0.50","3200097","co38269","norming","","","","","","",""
"null","../img/tt/1072tt.jpg","null","mooney1","image-keyboard-response","357","1225838","0.0-6.0-1.50","3200097","co38269","norming","","","","","","",""
"6405.215000000084","","","post_mooney1_questions","survey-likert","358","1232246","0.0-6.0-2.50","3200097","co38269","norming","","","{""curiosity"":5,""confidence"":0}","[0,1]","../img/tt/1072tt.jpg","",""
"5525.810000000289","","","recognition","survey-text","359","1237774","0.0-6.0-3.50","3200097","co38269","norming","","","{""guess"":""fornuis""}","","../img/tt/1072tt.jpg","",""
"null","../img/gs/1072gs.jpg","null","reveal","image-keyboard-response","360","1239778","0.0-6.0-4.50","3200097","co38269","norming","","","","","","",""
"null","../img/tt/1072tt.jpg","null","mooney2","image-keyboard-response","361","1241786","0.0-6.0-5.50","3200097","co38269","norming","","","","","","",""
"2681.8499999998603","","","post_reveal_questions","survey-likert","362","1244470","0.0-6.0-6.50","3200097","co38269","norming","","","{""aha"":3}","[0]","../img/tt/1072tt.jpg","",""
"null","<div style=""font-size:60px;""> </div>","null","fixation","html-keyboard-response","363","1244674","0.0-6.0-0.51","3200097","co38269","norming","","","","","","",""
"null","../img/tt/1270tt.jpg","null","mooney1","image-keyboard-response","364","1247686","0.0-6.0-1.51","3200097","co38269","norming","","","","","","",""
"6935.389999999665","","","post_mooney1_questions","survey-likert","365","1254622","0.0-6.0-2.51","3200097","co38269","norming","","","{""curiosity"":5,""confidence"":5}","[0,1]","../img/tt/1270tt.jpg","",""
"2966.0400000000373","","","recognition","survey-text","366","1257590","0.0-6.0-3.51","3200097","co38269","norming","","","{""guess"":""cavia""}","","../img/tt/1270tt.jpg","",""
"null","../img/gs/1270gs.jpg","null","reveal","image-keyboard-response","367","1259592","0.0-6.0-4.51","3200097","co38269","norming","","","","","","",""
"null","../img/tt/1270tt.jpg","null","mooney2","image-keyboard-response","368","1261600","0.0-6.0-5.51","3200097","co38269","norming","","","","","","",""
"4395.395000000019","","","post_reveal_questions","survey-likert","369","1265998","0.0-6.0-6.51","3200097","co38269","norming","","","{""aha"":0}","[0]","../img/tt/1270tt.jpg","",""
"null","<div style=""font-size:60px;""> </div>","null","fixation","html-keyboard-response","370","1266200","0.0-6.0-0.52","3200097","co38269","norming","","","","","","",""
"null","../img/tt/112tt.jpg","null","mooney1","image-keyboard-response","371","1269208","0.0-6.0-1.52","3200097","co38269","norming","","","","","","",""
"5474.380000000121","","","post_mooney1_questions","survey-likert","372","1274679","0.0-6.0-2.52","3200097","co38269","norming","","","{""curiosity"":6,""confidence"":0}","[0,1]","../img/tt/112tt.jpg","",""
"4613.90000000014","","","recognition","survey-text","373","1279295","0.0-6.0-3.52","3200097","co38269","norming","","","{""guess"":""voet""}","","../img/tt/112tt.jpg","",""
"null","../img/gs/112gs.jpg","null","reveal","image-keyboard-response","374","1281304","0.0-6.0-4.52","3200097","co38269","norming","","","","","","",""
"null","../img/tt/112tt.jpg","null","mooney2","image-keyboard-response","375","1283307","0.0-6.0-5.52","3200097","co38269","norming","","","","","","",""
"2266.8950000002515","","","post_reveal_questions","survey-likert","376","1285574","0.0-6.0-6.52","3200097","co38269","norming","","","{""aha"":6}","[0]","../img/tt/112tt.jpg","",""
"null","<div style=""font-size:60px;""> </div>","null","fixation","html-keyboard-response","377","1285780","0.0-6.0-0.53","3200097","co38269","norming","","","","","","",""
"null","../img/tt/517tt.jpg","null","mooney1","image-keyboard-response","378","1288787","0.0-6.0-1.53","3200097","co38269","norming","","","","","","",""
"5096.155000000261","","","post_mooney1_questions","survey-likert","379","1293887","0.0-6.0-2.53","3200097","co38269","norming","","","{""curiosity"":6,""confidence"":3}","[0,1]","../img/tt/517tt.jpg","",""
"6557.90000000014","","","recognition","survey-text","380","1300446","0.0-6.0-3.53","3200097","co38269","norming","","","{""guess"":""dier in boom""}","","../img/tt/517tt.jpg","",""
"null","../img/gs/517gs.jpg","null","reveal","image-keyboard-response","381","1302447","0.0-6.0-4.53","3200097","co38269","norming","","","","","","",""
"null","../img/tt/517tt.jpg","null","mooney2","image-keyboard-response","382","1304453","0.0-6.0-5.53","3200097","co38269","norming","","","","","","",""
"4582.25","","","post_reveal_questions","survey-likert","383","1309038","0.0-6.0-6.53","3200097","co38269","norming","","","{""aha"":2}","[0]","../img/tt/517tt.jpg","",""
"null","<div style=""font-size:60px;""> </div>","null","fixation","html-keyboard-response","384","1309248","0.0-6.0-0.54","3200097","co38269","norming","","","","","","",""
"null","../img/tt/1190tt.jpg","null","mooney1","image-keyboard-response","385","1312260","0.0-6.0-1.54","3200097","co38269","norming","","","","","","",""
"4518.920000000158","","","post_mooney1_questions","survey-likert","386","1316783","0.0-6.0-2.54","3200097","co38269","norming","","","{""curiosity"":6,""confidence"":0}","[0,1]","../img/tt/1190tt.jpg","",""
"4109.309999999823","","","recognition","survey-text","387","1320894","0.0-6.0-3.54","3200097","co38269","norming","","","{""guess"":""boomstam""}","","../img/tt/1190tt.jpg","",""
"null","../img/gs/1190gs.jpg","null","reveal","image-keyboard-response","388","1322904","0.0-6.0-4.54","3200097","co38269","norming","","","","","","",""
"null","../img/tt/1190tt.jpg","null","mooney2","image-keyboard-response","389","1324907","0.0-6.0-5.54","3200097","co38269","norming","","","","","","",""
"3057.064999999944","","","post_reveal_questions","survey-likert","390","1327966","0.0-6.0-6.54","3200097","co38269","norming","","","{""aha"":6}","[0]","../img/tt/1190tt.jpg","",""
"null","<div style=""font-size:60px;""> </div>","null","fixation","html-keyboard-response","391","1328169","0.0-6.0-0.55","3200097","co38269","norming","","","","","","",""
"null","../img/tt/1161tt.jpg","null","mooney1","image-keyboard-response","392","1331177","0.0-6.0-1.55","3200097","co38269","norming","","","","","","",""
"4225.635000000009","","","post_mooney1_questions","survey-likert","393","1335413","0.0-6.0-2.55","3200097","co38269","norming","","","{""curiosity"":5,""confidence"":0}","[0,1]","../img/tt/1161tt.jpg","",""
"4421.725000000093","","","recognition","survey-text","394","1339837","0.0-6.0-3.55","3200097","co38269","norming","","","{""guess"":""rotsen""}","","../img/tt/1161tt.jpg","",""
"null","../img/gs/1161gs.jpg","null","reveal","image-keyboard-response","395","1341839","0.0-6.0-4.55","3200097","co38269","norming","","","","","","",""
"null","../img/tt/1161tt.jpg","null","mooney2","image-keyboard-response","396","1343841","0.0-6.0-5.55","3200097","co38269","norming","","","","","","",""
"2761.5949999997392","","","post_reveal_questions","survey-likert","397","1346605","0.0-6.0-6.55","3200097","co38269","norming","","","{""aha"":1}","[0]","../img/tt/1161tt.jpg","",""
"null","<div style=""font-size:60px;""> </div>","null","fixation","html-keyboard-response","398","1346810","0.0-6.0-0.56","3200097","co38269","norming","","","","","","",""
"null","../img/tt/438tt.jpg","null","mooney1","image-keyboard-response","399","1349817","0.0-6.0-1.56","3200097","co38269","norming","","","","","","",""
"5496.8300000000745","","","post_mooney1_questions","survey-likert","400","1355317","0.0-6.0-2.56","3200097","co38269","norming","","","{""curiosity"":6,""confidence"":2}","[0,1]","../img/tt/438tt.jpg","",""
"4085.910000000149","","","recognition","survey-text","401","1359405","0.0-6.0-3.56","3200097","co38269","norming","","","{""guess"":""vogel""}","","../img/tt/438tt.jpg","",""
"null","../img/gs/438gs.jpg","null","reveal","image-keyboard-response","402","1361414","0.0-6.0-4.56","3200097","co38269","norming","","","","","","",""
"null","../img/tt/438tt.jpg","null","mooney2","image-keyboard-response","403","1363417","0.0-6.0-5.56","3200097","co38269","norming","","","","","","",""
"2305.064999999944","","","post_reveal_questions","survey-likert","404","1365725","0.0-6.0-6.56","3200097","co38269","norming","","","{""aha"":4}","[0]","../img/tt/438tt.jpg","",""
"null","<div style=""font-size:60px;""> </div>","null","fixation","html-keyboard-response","405","1365929","0.0-6.0-0.57","3200097","co38269","norming","","","","","","",""
"null","../img/tt/1125tt.jpg","null","mooney1","image-keyboard-response","406","1368938","0.0-6.0-1.57","3200097","co38269","norming","","","","","","",""
"4055.380000000121","","","post_mooney1_questions","survey-likert","407","1372997","0.0-6.0-2.57","3200097","co38269","norming","","","{""curiosity"":6,""confidence"":1}","[0,1]","../img/tt/1125tt.jpg","",""
"5030.215000000084","","","recognition","survey-text","408","1378029","0.0-6.0-3.57","3200097","co38269","norming","","","{""guess"":""hardlopers""}","","../img/tt/1125tt.jpg","",""
"null","../img/gs/1125gs.jpg","null","reveal","image-keyboard-response","409","1380038","0.0-6.0-4.57","3200097","co38269","norming","","","","","","",""
"null","../img/tt/1125tt.jpg","null","mooney2","image-keyboard-response","410","1382039","0.0-6.0-5.57","3200097","co38269","norming","","","","","","",""
"2619.3899999998976","","","post_reveal_questions","survey-likert","411","1384661","0.0-6.0-6.57","3200097","co38269","norming","","","{""aha"":6}","[0]","../img/tt/1125tt.jpg","",""
"null","<div style=""font-size:60px;""> </div>","null","fixation","html-keyboard-response","412","1384864","0.0-6.0-0.58","3200097","co38269","norming","","","","","","",""
"null","../img/tt/603tt.jpg","null","mooney1","image-keyboard-response","413","1387875","0.0-6.0-1.58","3200097","co38269","norming","","","","","","",""
"6623.264999999898","","","post_mooney1_questions","survey-likert","414","1394502","0.0-6.0-2.58","3200097","co38269","norming","","","{""curiosity"":5,""confidence"":2}","[0,1]","../img/tt/603tt.jpg","",""
"2805.935000000056","","","recognition","survey-text","415","1397310","0.0-6.0-3.58","3200097","co38269","norming","","","{""guess"":""poes""}","","../img/tt/603tt.jpg","",""
"null","../img/gs/603gs.jpg","null","reveal","image-keyboard-response","416","1399315","0.0-6.0-4.58","3200097","co38269","norming","","","","","","",""
"null","../img/tt/603tt.jpg","null","mooney2","image-keyboard-response","417","1401317","0.0-6.0-5.58","3200097","co38269","norming","","","","","","",""
"4798.305000000168","","","post_reveal_questions","survey-likert","418","1406118","0.0-6.0-6.58","3200097","co38269","norming","","","{""aha"":1}","[0]","../img/tt/603tt.jpg","",""
"null","<div style=""font-size:60px;""> </div>","null","fixation","html-keyboard-response","419","1406319","0.0-6.0-0.59","3200097","co38269","norming","","","","","","",""
"null","../img/tt/496tt.jpg","null","mooney1","image-keyboard-response","420","1409323","0.0-6.0-1.59","3200097","co38269","norming","","","","","","",""
"5286.565000000177","","","post_mooney1_questions","survey-likert","421","1414614","0.0-6.0-2.59","3200097","co38269","norming","","","{""curiosity"":5,""confidence"":2}","[0,1]","../img/tt/496tt.jpg","",""
"2846.0749999999534","","","recognition","survey-text","422","1417462","0.0-6.0-3.59","3200097","co38269","norming","","","{""guess"":""hond""}","","../img/tt/496tt.jpg","",""
"null","../img/gs/496gs.jpg","null","reveal","image-keyboard-response","423","1419472","0.0-6.0-4.59","3200097","co38269","norming","","","","","","",""
"null","../img/tt/496tt.jpg","null","mooney2","image-keyboard-response","424","1421473","0.0-6.0-5.59","3200097","co38269","norming","","","","","","",""
"4025.7299999999814","","","post_reveal_questions","survey-likert","425","1425502","0.0-6.0-6.59","3200097","co38269","norming","","","{""aha"":2}","[0]","../img/tt/496tt.jpg","",""
"null","<div style=""font-size:60px;""> </div>","null","fixation","html-keyboard-response","426","1425703","0.0-6.0-0.60","3200097","co38269","norming","","","","","","",""
"null","../img/tt/098tt.jpg","null","mooney1","image-keyboard-response","427","1428706","0.0-6.0-1.60","3200097","co38269","norming","","","","","","",""
"5024.449999999721","","","post_mooney1_questions","survey-likert","428","1433734","0.0-6.0-2.60","3200097","co38269","norming","","","{""curiosity"":6,""confidence"":4}","[0,1]","../img/tt/098tt.jpg","",""
"3062.1650000000373","","","recognition","survey-text","429","1436798","0.0-6.0-3.60","3200097","co38269","norming","","","{""guess"":""dier""}","","../img/tt/098tt.jpg","",""
"null","../img/gs/098gs.jpg","null","reveal","image-keyboard-response","430","1438799","0.0-6.0-4.60","3200097","co38269","norming","","","","","","",""
"null","../img/tt/098tt.jpg","null","mooney2","image-keyboard-response","431","1440801","0.0-6.0-5.60","3200097","co38269","norming","","","","","","",""
"3090.570000000065","","","post_reveal_questions","survey-likert","432","1443894","0.0-6.0-6.60","3200097","co38269","norming","","","{""aha"":2}","[0]","../img/tt/098tt.jpg","",""
"null","<div style=""font-size:60px;""> </div>","null","fixation","html-keyboard-response","433","1444095","0.0-6.0-0.61","3200097","co38269","norming","","","","","","",""
"null","../img/tt/013tt.jpg","null","mooney1","image-keyboard-response","434","1447099","0.0-6.0-1.61","3200097","co38269","norming","","","","","","",""
"8767.579999999842","","","post_mooney1_questions","survey-likert","435","1455862","0.0-6.0-2.61","3200097","co38269","norming","","","{""curiosity"":5,""confidence"":5}","[0,1]","../img/tt/013tt.jpg","",""
"5630.005000000121","","","recognition","survey-text","436","1461494","0.0-6.0-3.61","3200097","co38269","norming","","","{""guess"":""kameel""}","","../img/tt/013tt.jpg","",""
"null","../img/gs/013gs.jpg","null","reveal","image-keyboard-response","437","1463503","0.0-6.0-4.61","3200097","co38269","norming","","","","","","",""
"null","../img/tt/013tt.jpg","null","mooney2","image-keyboard-response","438","1465505","0.0-6.0-5.61","3200097","co38269","norming","","","","","","",""
"4121.939999999944","","","post_reveal_questions","survey-likert","439","1469629","0.0-6.0-6.61","3200097","co38269","norming","","","{""aha"":0}","[0]","../img/tt/013tt.jpg","",""
"null","<div style=""font-size:60px;""> </div>","null","fixation","html-keyboard-response","440","1469835","0.0-6.0-0.62","3200097","co38269","norming","","","","","","",""
"null","../img/tt/1006tt.jpg","null","mooney1","image-keyboard-response","441","1472838","0.0-6.0-1.62","3200097","co38269","norming","","","","","","",""
"4291.679999999935","","","post_mooney1_questions","survey-likert","442","1477134","0.0-6.0-2.62","3200097","co38269","norming","","","{""curiosity"":6,""confidence"":1}","[0,1]","../img/tt/1006tt.jpg","",""
"3726.0500000000466","","","recognition","survey-text","443","1480861","0.0-6.0-3.62","3200097","co38269","norming","","","{""guess"":""kameel""}","","../img/tt/1006tt.jpg","",""
"null","../img/gs/1006gs.jpg","null","reveal","image-keyboard-response","444","1482867","0.0-6.0-4.62","3200097","co38269","norming","","","","","","",""
"null","../img/tt/1006tt.jpg","null","mooney2","image-keyboard-response","445","1484868","0.0-6.0-5.62","3200097","co38269","norming","","","","","","",""
"2214.5200000000186","","","post_reveal_questions","survey-likert","446","1487086","0.0-6.0-6.62","3200097","co38269","norming","","","{""aha"":6}","[0]","../img/tt/1006tt.jpg","",""
"null","<div style=""font-size:60px;""> </div>","null","fixation","html-keyboard-response","447","1487288","0.0-6.0-0.63","3200097","co38269","norming","","","","","","",""
"null","../img/tt/194tt.jpg","null","mooney1","image-keyboard-response","448","1490298","0.0-6.0-1.63","3200097","co38269","norming","","","","","","",""
"5824.6049999997485","","","post_mooney1_questions","survey-likert","449","1496126","0.0-6.0-2.63","3200097","co38269","norming","","","{""curiosity"":6,""confidence"":0}","[0,1]","../img/tt/194tt.jpg","",""
"6518.074999999953","","","recognition","survey-text","450","1502646","0.0-6.0-3.63","3200097","co38269","norming","","","{""guess"":""snijplank""}","","../img/tt/194tt.jpg","",""
"null","../img/gs/194gs.jpg","null","reveal","image-keyboard-response","451","1504647","0.0-6.0-4.63","3200097","co38269","norming","","","","","","",""
"null","../img/tt/194tt.jpg","null","mooney2","image-keyboard-response","452","1506648","0.0-6.0-5.63","3200097","co38269","norming","","","","","","",""
"2001.559999999823","","","post_reveal_questions","survey-likert","453","1508654","0.0-6.0-6.63","3200097","co38269","norming","","","{""aha"":6}","[0]","../img/tt/194tt.jpg","",""
"null","<div style=""font-size:60px;""> </div>","null","fixation","html-keyboard-response","454","1508863","0.0-6.0-0.64","3200097","co38269","norming","","","","","","",""
"null","../img/tt/1232tt.jpg","null","mooney1","image-keyboard-response","455","1511867","0.0-6.0-1.64","3200097","co38269","norming","","","","","","",""
"5879.340000000317","","","post_mooney1_questions","survey-likert","456","1517754","0.0-6.0-2.64","3200097","co38269","norming","","","{""curiosity"":5,""confidence"":6}","[0,1]","../img/tt/1232tt.jpg","",""
"3022.274999999907","","","recognition","survey-text","457","1520778","0.0-6.0-3.64","3200097","co38269","norming","","","{""guess"":""duif""}","","../img/tt/1232tt.jpg","",""
"null","../img/gs/1232gs.jpg","null","reveal","image-keyboard-response","458","1522780","0.0-6.0-4.64","3200097","co38269","norming","","","","","","",""
"null","../img/tt/1232tt.jpg","null","mooney2","image-keyboard-response","459","1524782","0.0-6.0-5.64","3200097","co38269","norming","","","","","","",""
"3433.5100000000093","","","post_reveal_questions","survey-likert","460","1528218","0.0-6.0-6.64","3200097","co38269","norming","","","{""aha"":0}","[0]","../img/tt/1232tt.jpg","",""
"null","<div style=""font-size:60px;""> </div>","null","fixation","html-keyboard-response","461","1528426","0.0-6.0-0.65","3200097","co38269","norming","","","","","","",""
"null","../img/tt/507tt.jpg","null","mooney1","image-keyboard-response","462","1531429","0.0-6.0-1.65","3200097","co38269","norming","","","","","","",""
"6745.965000000084","","","post_mooney1_questions","survey-likert","463","1538178","0.0-6.0-2.65","3200097","co38269","norming","","","{""curiosity"":5,""confidence"":4}","[0,1]","../img/tt/507tt.jpg","",""
"4877.979999999981","","","recognition","survey-text","464","1543058","0.0-6.0-3.65","3200097","co38269","norming","","","{""guess"":""zangeres""}","","../img/tt/507tt.jpg","",""
"null","../img/gs/507gs.jpg","null","reveal","image-keyboard-response","465","1545060","0.0-6.0-4.65","3200097","co38269","norming","","","","","","",""
"null","../img/tt/507tt.jpg","null","mooney2","image-keyboard-response","466","1547070","0.0-6.0-5.65","3200097","co38269","norming","","","","","","",""
"3297.535000000149","","","post_reveal_questions","survey-likert","467","1550370","0.0-6.0-6.65","3200097","co38269","norming","","","{""aha"":5}","[0]","../img/tt/507tt.jpg","",""
"null","<div style=""font-size:60px;""> </div>","null","fixation","html-keyboard-response","468","1550572","0.0-6.0-0.66","3200097","co38269","norming","","","","","","",""
"null","../img/tt/1234tt.jpg","null","mooney1","image-keyboard-response","469","1553579","0.0-6.0-1.66","3200097","co38269","norming","","","","","","",""
"3667.465000000084","","","post_mooney1_questions","survey-likert","470","1557250","0.0-6.0-2.66","3200097","co38269","norming","","","{""curiosity"":6,""confidence"":1}","[0,1]","../img/tt/1234tt.jpg","",""
"2982.2600000000093","","","recognition","survey-text","471","1560234","0.0-6.0-3.66","3200097","co38269","norming","","","{""guess"":""boot""}","","../img/tt/1234tt.jpg","",""
"null","../img/gs/1234gs.jpg","null","reveal","image-keyboard-response","472","1562235","0.0-6.0-4.66","3200097","co38269","norming","","","","","","",""
"null","../img/tt/1234tt.jpg","null","mooney2","image-keyboard-response","473","1564237","0.0-6.0-5.66","3200097","co38269","norming","","","","","","",""
"1618.2100000001956","","","post_reveal_questions","survey-likert","474","1565858","0.0-6.0-6.66","3200097","co38269","norming","","","{""aha"":6}","[0]","../img/tt/1234tt.jpg","",""
"null","<div style=""font-size:60px;""> </div>","null","fixation","html-keyboard-response","475","1566063","0.0-6.0-0.67","3200097","co38269","norming","","","","","","",""
"null","../img/tt/1191tt.jpg","null","mooney1","image-keyboard-response","476","1569070","0.0-6.0-1.67","3200097","co38269","norming","","","","","","",""
"3616.810000000056","","","post_mooney1_questions","survey-likert","477","1572690","0.0-6.0-2.67","3200097","co38269","norming","","","{""curiosity"":6,""confidence"":3}","[0,1]","../img/tt/1191tt.jpg","",""
"3405.910000000149","","","recognition","survey-text","478","1576098","0.0-6.0-3.67","3200097","co38269","norming","","","{""guess"":""circus""}","","../img/tt/1191tt.jpg","",""
"null","../img/gs/1191gs.jpg","null","reveal","image-keyboard-response","479","1578107","0.0-6.0-4.67","3200097","co38269","norming","","","","","","",""
"null","../img/tt/1191tt.jpg","null","mooney2","image-keyboard-response","480","1580111","0.0-6.0-5.67","3200097","co38269","norming","","","","","","",""
"3995.9850000001024","","","post_reveal_questions","survey-likert","481","1584110","0.0-6.0-6.67","3200097","co38269","norming","","","{""aha"":6}","[0]","../img/tt/1191tt.jpg","",""
"null","<div style=""font-size:60px;""> </div>","null","fixation","html-keyboard-response","482","1584314","0.0-6.0-0.68","3200097","co38269","norming","","","","","","",""
"null","../img/tt/1269tt.jpg","null","mooney1","image-keyboard-response","483","1587326","0.0-6.0-1.68","3200097","co38269","norming","","","","","","",""
"5804.114999999991","","","post_mooney1_questions","survey-likert","484","1593134","0.0-6.0-2.68","3200097","co38269","norming","","","{""curiosity"":6,""confidence"":4}","[0,1]","../img/tt/1269tt.jpg","",""
"5966.100000000093","","","recognition","survey-text","485","1599102","0.0-6.0-3.68","3200097","co38269","norming","","","{""guess"":""dier""}","","../img/tt/1269tt.jpg","",""
"null","../img/gs/1269gs.jpg","null","reveal","image-keyboard-response","486","1601107","0.0-6.0-4.68","3200097","co38269","norming","","","","","","",""
"null","../img/tt/1269tt.jpg","null","mooney2","image-keyboard-response","487","1603112","0.0-6.0-5.68","3200097","co38269","norming","","","","","","",""
"1660.6850000000559","","","post_reveal_questions","survey-likert","488","1604774","0.0-6.0-6.68","3200097","co38269","norming","","","{""aha"":1}","[0]","../img/tt/1269tt.jpg","",""
"null","<div style=""font-size:60px;""> </div>","null","fixation","html-keyboard-response","489","1604977","0.0-6.0-0.69","3200097","co38269","norming","","","","","","",""
"null","../img/tt/189tt.jpg","null","mooney1","image-keyboard-response","490","1607982","0.0-6.0-1.69","3200097","co38269","norming","","","","","","",""
"3492.6650000000373","","","post_mooney1_questions","survey-likert","491","1611478","0.0-6.0-2.69","3200097","co38269","norming","","","{""curiosity"":6,""confidence"":0}","[0,1]","../img/tt/189tt.jpg","",""
"5653.755000000121","","","recognition","survey-text","492","1617133","0.0-6.0-3.69","3200097","co38269","norming","","","{""guess"":""vleermuis""}","","../img/tt/189tt.jpg","",""
"null","../img/gs/189gs.jpg","null","reveal","image-keyboard-response","493","1619137","0.0-6.0-4.69","3200097","co38269","norming","","","","","","",""
"null","../img/tt/189tt.jpg","null","mooney2","image-keyboard-response","494","1621139","0.0-6.0-5.69","3200097","co38269","norming","","","","","","",""
"1647.7099999999627","","","post_reveal_questions","survey-likert","495","1622790","0.0-6.0-6.69","3200097","co38269","norming","","","{""aha"":6}","[0]","../img/tt/189tt.jpg","",""
"null","<div style=""font-size:60px;""> </div>","null","fixation","html-keyboard-response","496","1622992","0.0-6.0-0.70","3200097","co38269","norming","","","","","","",""
"null","../img/tt/1196tt.jpg","null","mooney1","image-keyboard-response","497","1626002","0.0-6.0-1.70","3200097","co38269","norming","","","","","","",""
"3167.9199999999255","","","post_mooney1_questions","survey-likert","498","1629174","0.0-6.0-2.70","3200097","co38269","norming","","","{""curiosity"":6,""confidence"":0}","[0,1]","../img/tt/1196tt.jpg","",""
"3781.9950000001118","","","recognition","survey-text","499","1632957","0.0-6.0-3.70","3200097","co38269","norming","","","{""guess"":""huis""}","","../img/tt/1196tt.jpg","",""
"null","../img/gs/1196gs.jpg","null","reveal","image-keyboard-response","500","1634960","0.0-6.0-4.70","3200097","co38269","norming","","","","","","",""
"null","../img/tt/1196tt.jpg","null","mooney2","image-keyboard-response","501","1636962","0.0-6.0-5.70","3200097","co38269","norming","","","","","","",""
"2160.9149999998044","","","post_reveal_questions","survey-likert","502","1639123","0.0-6.0-6.70","3200097","co38269","norming","","","{""aha"":6}","[0]","../img/tt/1196tt.jpg","",""
"null","<div style=""font-size:60px;""> </div>","null","fixation","html-keyboard-response","503","1639334","0.0-6.0-0.71","3200097","co38269","norming","","","","","","",""
"null","../img/tt/1239tt.jpg","null","mooney1","image-keyboard-response","504","1642343","0.0-6.0-1.71","3200097","co38269","norming","","","","","","",""
"5026.65000000014","","","post_mooney1_questions","survey-likert","505","1647372","0.0-6.0-2.71","3200097","co38269","norming","","","{""curiosity"":4,""confidence"":6}","[0,1]","../img/tt/1239tt.jpg","",""
"2773.9149999998044","","","recognition","survey-text","506","1650147","0.0-6.0-3.71","3200097","co38269","norming","","","{""guess"":""hond""}","","../img/tt/1239tt.jpg","",""
"null","../img/gs/1239gs.jpg","null","reveal","image-keyboard-response","507","1652153","0.0-6.0-4.71","3200097","co38269","norming","","","","","","",""
"null","../img/tt/1239tt.jpg","null","mooney2","image-keyboard-response","508","1654156","0.0-6.0-5.71","3200097","co38269","norming","","","","","","",""
"3052.9149999998044","","","post_reveal_questions","survey-likert","509","1657211","0.0-6.0-6.71","3200097","co38269","norming","","","{""aha"":0}","[0]","../img/tt/1239tt.jpg","",""
"null","<div style=""font-size:60px;""> </div>","null","fixation","html-keyboard-response","510","1657418","0.0-6.0-0.72","3200097","co38269","norming","","","","","","",""
"null","../img/tt/1084tt.jpg","null","mooney1","image-keyboard-response","511","1660423","0.0-6.0-1.72","3200097","co38269","norming","","","","","","",""
"3174.9250000000466","","","post_mooney1_questions","survey-likert","512","1663603","0.0-6.0-2.72","3200097","co38269","norming","","","{""curiosity"":6,""confidence"":0}","[0,1]","../img/tt/1084tt.jpg","",""
"4045.9799999999814","","","recognition","survey-text","513","1667651","0.0-6.0-3.72","3200097","co38269","norming","","","{""guess"":""fruit""}","","../img/tt/1084tt.jpg","",""
"null","../img/gs/1084gs.jpg","null","reveal","image-keyboard-response","514","1669652","0.0-6.0-4.72","3200097","co38269","norming","","","","","","",""
"null","../img/tt/1084tt.jpg","null","mooney2","image-keyboard-response","515","1671654","0.0-6.0-5.72","3200097","co38269","norming","","","","","","",""
"2196.25","","","post_reveal_questions","survey-likert","516","1673851","0.0-6.0-6.72","3200097","co38269","norming","","","{""aha"":4}","[0]","../img/tt/1084tt.jpg","",""
"null","<div style=""font-size:60px;""> </div>","null","fixation","html-keyboard-response","517","1674053","0.0-6.0-0.73","3200097","co38269","norming","","","","","","",""
"null","../img/tt/081tt.jpg","null","mooney1","image-keyboard-response","518","1677056","0.0-6.0-1.73","3200097","co38269","norming","","","","","","",""
"3054.9849999998696","","","post_mooney1_questions","survey-likert","519","1680116","0.0-6.0-2.73","3200097","co38269","norming","","","{""curiosity"":6,""confidence"":2}","[0,1]","../img/tt/081tt.jpg","",""
"3189.9449999998324","","","recognition","survey-text","520","1683307","0.0-6.0-3.73","3200097","co38269","norming","","","{""guess"":""kikker""}","","../img/tt/081tt.jpg","",""
"null","../img/gs/081gs.jpg","null","reveal","image-keyboard-response","521","1685318","0.0-6.0-4.73","3200097","co38269","norming","","","","","","",""
"null","../img/tt/081tt.jpg","null","mooney2","image-keyboard-response","522","1687320","0.0-6.0-5.73","3200097","co38269","norming","","","","","","",""
"2424.500000000233","","","post_reveal_questions","survey-likert","523","1689747","0.0-6.0-6.73","3200097","co38269","norming","","","{""aha"":1}","[0]","../img/tt/081tt.jpg","",""
"null","<div style=""font-size:60px;""> </div>","null","fixation","html-keyboard-response","524","1689950","0.0-6.0-0.74","3200097","co38269","norming","","","","","","",""
"null","../img/tt/549tt.jpg","null","mooney1","image-keyboard-response","525","1692953","0.0-6.0-1.74","3200097","co38269","norming","","","","","","",""
"4702.395000000019","","","post_mooney1_questions","survey-likert","526","1697659","0.0-6.0-2.74","3200097","co38269","norming","","","{""curiosity"":6,""confidence"":2}","[0,1]","../img/tt/549tt.jpg","",""
"4422.215000000084","","","recognition","survey-text","527","1702081","0.0-6.0-3.74","3200097","co38269","norming","","","{""guess"":""vlinder""}","","../img/tt/549tt.jpg","",""
"null","../img/gs/549gs.jpg","null","reveal","image-keyboard-response","528","1704090","0.0-6.0-4.74","3200097","co38269","norming","","","","","","",""
"null","../img/tt/549tt.jpg","null","mooney2","image-keyboard-response","529","1706094","0.0-6.0-5.74","3200097","co38269","norming","","","","","","",""
"1904.1599999999162","","","post_reveal_questions","survey-likert","530","1708001","0.0-6.0-6.74","3200097","co38269","norming","","","{""aha"":5}","[0]","../img/tt/549tt.jpg","",""
"null","<div style=""font-size:60px;""> </div>","null","fixation","html-keyboard-response","531","1708205","0.0-6.0-0.75","3200097","co38269","norming","","","","","","",""
"null","../img/tt/1272tt.jpg","null","mooney1","image-keyboard-response","532","1711210","0.0-6.0-1.75","3200097","co38269","norming","","","","","","",""
"6027.604999999981","","","post_mooney1_questions","survey-likert","533","1717241","0.0-6.0-2.75","3200097","co38269","norming","","","{""curiosity"":6,""confidence"":0}","[0,1]","../img/tt/1272tt.jpg","",""
"5390.144999999786","","","recognition","survey-text","534","1722633","0.0-6.0-3.75","3200097","co38269","norming","","","{""guess"":""regen""}","","../img/tt/1272tt.jpg","",""
"null","../img/gs/1272gs.jpg","null","reveal","image-keyboard-response","535","1724641","0.0-6.0-4.75","3200097","co38269","norming","","","","","","",""
"null","../img/tt/1272tt.jpg","null","mooney2","image-keyboard-response","536","1726643","0.0-6.0-5.75","3200097","co38269","norming","","","","","","",""
"1979.589999999851","","","post_reveal_questions","survey-likert","537","1728625","0.0-6.0-6.75","3200097","co38269","norming","","","{""aha"":6}","[0]","../img/tt/1272tt.jpg","",""
"null","<div style=""font-size:60px;""> </div>","null","fixation","html-keyboard-response","538","1728835","0.0-6.0-0.76","3200097","co38269","norming","","","","","","",""
"null","../img/tt/1283tt.jpg","null","mooney1","image-keyboard-response","539","1731842","0.0-6.0-1.76","3200097","co38269","norming","","","","","","",""
"5547.48499999987","","","post_mooney1_questions","survey-likert","540","1737393","0.0-6.0-2.76","3200097","co38269","norming","","","{""curiosity"":5,""confidence"":2}","[0,1]","../img/tt/1283tt.jpg","",""
"2317.9749999998603","","","recognition","survey-text","541","1739713","0.0-6.0-3.76","3200097","co38269","norming","","","{""guess"":""vos""}","","../img/tt/1283tt.jpg","",""
"null","../img/gs/1283gs.jpg","null","reveal","image-keyboard-response","542","1741715","0.0-6.0-4.76","3200097","co38269","norming","","","","","","",""
"null","../img/tt/1283tt.jpg","null","mooney2","image-keyboard-response","543","1743718","0.0-6.0-5.76","3200097","co38269","norming","","","","","","",""
"3146.6650000000373","","","post_reveal_questions","survey-likert","544","1746865","0.0-6.0-6.76","3200097","co38269","norming","","","{""aha"":2}","[0]","../img/tt/1283tt.jpg","",""
"null","<div style=""font-size:60px;""> </div>","null","fixation","html-keyboard-response","545","1747069","0.0-6.0-0.77","3200097","co38269","norming","","","","","","",""
"null","../img/tt/468tt.jpg","null","mooney1","image-keyboard-response","546","1750080","0.0-6.0-1.77","3200097","co38269","norming","","","","","","",""
"3325.524999999907","","","post_mooney1_questions","survey-likert","547","1753409","0.0-6.0-2.77","3200097","co38269","norming","","","{""curiosity"":6,""confidence"":0}","[0,1]","../img/tt/468tt.jpg","",""
"3965.8300000000745","","","recognition","survey-text","548","1757377","0.0-6.0-3.77","3200097","co38269","norming","","","{""guess"":""circus""}","","../img/tt/468tt.jpg","",""
"null","../img/gs/468gs.jpg","null","reveal","image-keyboard-response","549","1759383","0.0-6.0-4.77","3200097","co38269","norming","","","","","","",""
"null","../img/tt/468tt.jpg","null","mooney2","image-keyboard-response","550","1761387","0.0-6.0-5.77","3200097","co38269","norming","","","","","","",""
"1463.0200000002515","","","post_reveal_questions","survey-likert","551","1762853","0.0-6.0-6.77","3200097","co38269","norming","","","{""aha"":6}","[0]","../img/tt/468tt.jpg","",""
"null","<div style=""font-size:60px;""> </div>","null","fixation","html-keyboard-response","552","1763055","0.0-6.0-0.78","3200097","co38269","norming","","","","","","",""
