"rt","stimulus","key_press","test_part","trial_type","trial_index","time_elapsed","internal_node_id","totalTime","subject","experiment_name","button_pressed","success","responses","question_order","currentStim","old","correct"
"8592.984999995679","Welcome to the experiment. This is an online experiment so please don't close the tab/window until we say goodbye.  Press any key to begin.","32","instructions","html-keyboard-response","0","8601","0.0-0.0","3890458","co38470","norming","","","","","","",""
"41281.01500007324","<div style='word-wrap: break-word; width: 900px'><h3>Please consider this information carefully before deciding whether to participate in this research</h3><ul style='text-align: left; font-size: .8em;'><li><b>Purpose of the research</b>: To examine how people process images.</li><li><b>What you will do in this research</b>:  Stimuli (images) will be presented on the computer and you will be asked different questions about them.</li><li><b>Time required</b>: Participation will take between 45 and 60 minutes to complete.</li><li><b>Risks</b>:  There are no anticipated risks associated with participating in this study. The effects of participating should be comparable to those you would experience from viewing a computer monitor for 30 minutes and using a mouse or keyboard.</li><li><b>Benefits</b>:  This study provides no benefits to you individually except for the credit. The study provides important information about the nature of perception and learning.</li><li><b>Confidentiality</b>:  Your participation in this study will remain confidential. No personally identifiable information will be associated with your data. Your de-identified data may be shared with other researchers and used in future projects.</li><li><b>Participation and withdrawal</b>:  Your participation in this study is completely voluntary and you may refuse to participate or you may choose to withdraw at any time without penalty.</li><li><b>How to contact the researchers</b>: If you have questions or concerns about your participation or payment, or want to request a summary of research findings, please contact Sander Van de Cruys (KU Leuven), at sander.vandecruys@kuleuven.be.</li></ul><p>The nature and purpose of this research have been sufficiently explained and I agree to participate in this study.  I understand that I am free to withdraw at any time without incurring any penalty.</p><p>Please consent by clicking the button below to continue. Otherwise, please exit the study at this time.</p></div>","","instructions","html-button-response","1","49894","0.0-1.0","3890458","co38470","norming","0","","","","","",""
"","","","instructions","fullscreen","2","55812","0.0-2.0","3890458","co38470","norming","","true","","","","",""
"134830.99500008393","","","sona","survey-html-form","3","190650","0.0-3.0","3890458","co38470","norming","","","[{""name"":""sonaid"",""value"":""38470""},{""name"":""debrief"",""value"":""yes""},{""name"":""datajoin"",""value"":""yes""}]","","","",""
"120262.49500003178","<div style='word-wrap: break-word; width: 900px'><h3>Instructions</h3><p>This experiment will have 3 parts. In the first part you will see a series of distorted images like the one below on the left. As you can see in the righthand image, the distorted images are derived from actual photographs. In what follows, you will <strong>briefly</strong> be presented with <strong>only</strong> the distorted image.</p> <div style='float: left; margin-right: 20px;'><img src='../img/018tt.jpg' height='250' width='250'></img></div><div style='float: right; margin-left: 20px;'><img src='../img/018gs.jpg' height='250' width='250'></img></div><p>Subsequently you will be asked a few questions about the image: One question on how <strong>curious</strong> you are about the solution and one on how <strong>confident</strong> you are that you know the solution.</p>Next, we ask you to make a guess on what is in the image. Note that it is OK to name just the <strong>basic level category</strong>. For example when you see a parrot in the image, 'parrot' will obviously be a correct answer but also correct is 'bird'. However, 'animal' will <strong>not</strong> be counted as a correct response. For the example above, 'rose' would be correct or 'flower', but not 'plant'. When soccer players are depicted, 'soccer', 'football', 'soccer players' will be correct, but not 'humans', 'outdoors', or 'sports'. You do not need to describe the image in full, just name the main object in it <strong>in one or two words</strong>. All images depict objects from one of the following broad level categories: animals, inanimate objects, plants, sports, vehicles, and food. Recognizing means knowing <strong>more</strong> than these broad labels for a given image. But we always encourage you to <strong>make a guess</strong> if you can. Note that you are allowed to use <strong>Dutch and English</strong> in your answers, whatever comes easiest for you.</p><p>Press any key to continue.</p></div>","32","instructions","html-keyboard-response","4","310918","0.0-4.0","3890458","co38470","norming","","","","","","",""
"15.554999932646751","<div style='word-wrap: break-word; width: 900px'><h3>Instructions</h3> <p>Next, the solution image will be revealed to you and you'll be asked to indicate how strong your <strong>aha-experience</strong> was after seeing the solution. This describes the positive feeling of the 'click' you sometimes experience, when the pieces of the 'puzzle' fall together and you suddenly have 'insight' in the image.</p><img src='aha.jpg' height='188' width='250'></img><p>Note that there are no right or wrong answers. We are interested in what <strong>you</strong> see in the image and how <strong>you</strong> feel about it.</p><p>Press any key to start the experiment.</p></div>","17","instructions","html-keyboard-response","5","310939","0.0-5.0","3890458","co38470","norming","","","","","","",""
"null","<div style=""font-size:60px;""> </div>","null","fixation","html-keyboard-response","6","311156","0.0-6.0-0.0","3890458","co38470","norming","","","","","","",""
"null","../img/tt/010tt.jpg","null","mooney1","image-keyboard-response","7","314164","0.0-6.0-1.0","3890458","co38470","norming","","","","","","",""
"35988.119999994524","","","post_mooney1_questions","survey-likert","8","350157","0.0-6.0-2.0","3890458","co38470","norming","","","{""curiosity"":5,""confidence"":0}","[0,1]","../img/tt/010tt.jpg","",""
"9929.685000097379","","","recognition","survey-text","9","360125","0.0-6.0-3.0","3890458","co38470","norming","","","{""guess"":""masker""}","","../img/tt/010tt.jpg","",""
"null","../img/gs/010gs.jpg","null","reveal","image-keyboard-response","10","362137","0.0-6.0-4.0","3890458","co38470","norming","","","","","","",""
"null","../img/tt/010tt.jpg","null","mooney2","image-keyboard-response","11","364141","0.0-6.0-5.0","3890458","co38470","norming","","","","","","",""
"8105.609999969602","","","post_reveal_questions","survey-likert","12","372249","0.0-6.0-6.0","3890458","co38470","norming","","","{""aha"":6}","[0]","../img/tt/010tt.jpg","",""
"null","<div style=""font-size:60px;""> </div>","null","fixation","html-keyboard-response","13","372491","0.0-6.0-0.1","3890458","co38470","norming","","","","","","",""
"null","../img/tt/126tt.jpg","null","mooney1","image-keyboard-response","14","375508","0.0-6.0-1.1","3890458","co38470","norming","","","","","","",""
"15528.00000004936","","","post_mooney1_questions","survey-likert","15","391040","0.0-6.0-2.1","3890458","co38470","norming","","","{""curiosity"":5,""confidence"":2}","[0,1]","../img/tt/126tt.jpg","",""
"4214.76000000257","","","recognition","survey-text","16","395301","0.0-6.0-3.1","3890458","co38470","norming","","","{""guess"":""bergen""}","","../img/tt/126tt.jpg","",""
"null","../img/gs/126gs.jpg","null","reveal","image-keyboard-response","17","397309","0.0-6.0-4.1","3890458","co38470","norming","","","","","","",""
"null","../img/tt/126tt.jpg","null","mooney2","image-keyboard-response","18","399331","0.0-6.0-5.1","3890458","co38470","norming","","","","","","",""
"5713.499999954365","","","post_reveal_questions","survey-likert","19","405049","0.0-6.0-6.1","3890458","co38470","norming","","","{""aha"":6}","[0]","../img/tt/126tt.jpg","",""
"null","<div style=""font-size:60px;""> </div>","null","fixation","html-keyboard-response","20","405285","0.0-6.0-0.2","3890458","co38470","norming","","","","","","",""
"null","../img/tt/1142tt.jpg","null","mooney1","image-keyboard-response","21","408290","0.0-6.0-1.2","3890458","co38470","norming","","","","","","",""
"7518.610000028275","","","post_mooney1_questions","survey-likert","22","415812","0.0-6.0-2.2","3890458","co38470","norming","","","{""curiosity"":4,""confidence"":3}","[0,1]","../img/tt/1142tt.jpg","",""
"10517.914999974892","","","recognition","survey-text","23","426368","0.0-6.0-3.2","3890458","co38470","norming","","","{""guess"":""een loper""}","","../img/tt/1142tt.jpg","",""
"null","../img/gs/1142gs.jpg","null","reveal","image-keyboard-response","24","428372","0.0-6.0-4.2","3890458","co38470","norming","","","","","","",""
"null","../img/tt/1142tt.jpg","null","mooney2","image-keyboard-response","25","430384","0.0-6.0-5.2","3890458","co38470","norming","","","","","","",""
"3893.51500000339","","","post_reveal_questions","survey-likert","26","434281","0.0-6.0-6.2","3890458","co38470","norming","","","{""aha"":4}","[0]","../img/tt/1142tt.jpg","",""
"null","<div style=""font-size:60px;""> </div>","null","fixation","html-keyboard-response","27","434524","0.0-6.0-0.3","3890458","co38470","norming","","","","","","",""
"null","../img/tt/1107tt.jpg","null","mooney1","image-keyboard-response","28","437538","0.0-6.0-1.3","3890458","co38470","norming","","","","","","",""
"18492.339999997057","","","post_mooney1_questions","survey-likert","29","456034","0.0-6.0-2.3","3890458","co38470","norming","","","{""curiosity"":5,""confidence"":2}","[0,1]","../img/tt/1107tt.jpg","",""
"2637.1999999973923","","","recognition","survey-text","30","458708","0.0-6.0-3.3","3890458","co38470","norming","","","{""guess"":""aap""}","","../img/tt/1107tt.jpg","",""
"null","../img/gs/1107gs.jpg","null","reveal","image-keyboard-response","31","460718","0.0-6.0-4.3","3890458","co38470","norming","","","","","","",""
"null","../img/tt/1107tt.jpg","null","mooney2","image-keyboard-response","32","462732","0.0-6.0-5.3","3890458","co38470","norming","","","","","","",""
"3461.4450000226498","","","post_reveal_questions","survey-likert","33","466196","0.0-6.0-6.3","3890458","co38470","norming","","","{""aha"":6}","[0]","../img/tt/1107tt.jpg","",""
"null","<div style=""font-size:60px;""> </div>","null","fixation","html-keyboard-response","34","466439","0.0-6.0-0.4","3890458","co38470","norming","","","","","","",""
"null","../img/tt/076tt.jpg","null","mooney1","image-keyboard-response","35","469450","0.0-6.0-1.4","3890458","co38470","norming","","","","","","",""
"4653.479999979027","","","post_mooney1_questions","survey-likert","36","474107","0.0-6.0-2.4","3890458","co38470","norming","","","{""curiosity"":4,""confidence"":3}","[0,1]","../img/tt/076tt.jpg","",""
"3226.4750000322238","","","recognition","survey-text","37","477388","0.0-6.0-3.4","3890458","co38470","norming","","","{""guess"":""schoen""}","","../img/tt/076tt.jpg","",""
"null","../img/gs/076gs.jpg","null","reveal","image-keyboard-response","38","479401","0.0-6.0-4.4","3890458","co38470","norming","","","","","","",""
"null","../img/tt/076tt.jpg","null","mooney2","image-keyboard-response","39","481415","0.0-6.0-5.4","3890458","co38470","norming","","","","","","",""
"5872.005000011995","","","post_reveal_questions","survey-likert","40","487290","0.0-6.0-6.4","3890458","co38470","norming","","","{""aha"":3}","[0]","../img/tt/076tt.jpg","",""
"null","<div style=""font-size:60px;""> </div>","null","fixation","html-keyboard-response","41","487533","0.0-6.0-0.5","3890458","co38470","norming","","","","","","",""
"null","../img/tt/412tt.jpg","null","mooney1","image-keyboard-response","42","490552","0.0-6.0-1.5","3890458","co38470","norming","","","","","","",""
"6156.88499994576","","","post_mooney1_questions","survey-likert","43","496713","0.0-6.0-2.5","3890458","co38470","norming","","","{""curiosity"":6,""confidence"":0}","[0,1]","../img/tt/412tt.jpg","",""
"4089.375000097789","","","recognition","survey-text","44","500838","0.0-6.0-3.5","3890458","co38470","norming","","","{""guess"":""""}","","../img/tt/412tt.jpg","",""
"null","../img/gs/412gs.jpg","null","reveal","image-keyboard-response","45","502855","0.0-6.0-4.5","3890458","co38470","norming","","","","","","",""
"null","../img/tt/412tt.jpg","null","mooney2","image-keyboard-response","46","504859","0.0-6.0-5.5","3890458","co38470","norming","","","","","","",""
"2728.7950000027195","","","post_reveal_questions","survey-likert","47","507590","0.0-6.0-6.5","3890458","co38470","norming","","","{""aha"":6}","[0]","../img/tt/412tt.jpg","",""
"null","<div style=""font-size:60px;""> </div>","null","fixation","html-keyboard-response","48","507841","0.0-6.0-0.6","3890458","co38470","norming","","","","","","",""
"null","../img/tt/1118tt.jpg","null","mooney1","image-keyboard-response","49","510845","0.0-6.0-1.6","3890458","co38470","norming","","","","","","",""
"10338.839999982156","","","post_mooney1_questions","survey-likert","50","521187","0.0-6.0-2.6","3890458","co38470","norming","","","{""curiosity"":6,""confidence"":1}","[0,1]","../img/tt/1118tt.jpg","",""
"19547.04000009224","","","recognition","survey-text","51","540771","0.0-6.0-3.6","3890458","co38470","norming","","","{""guess"":""rivier""}","","../img/tt/1118tt.jpg","",""
"null","../img/gs/1118gs.jpg","null","reveal","image-keyboard-response","52","542778","0.0-6.0-4.6","3890458","co38470","norming","","","","","","",""
"null","../img/tt/1118tt.jpg","null","mooney2","image-keyboard-response","53","544782","0.0-6.0-5.6","3890458","co38470","norming","","","","","","",""
"3191.729999962263","","","post_reveal_questions","survey-likert","54","547977","0.0-6.0-6.6","3890458","co38470","norming","","","{""aha"":6}","[0]","../img/tt/1118tt.jpg","",""
"null","<div style=""font-size:60px;""> </div>","null","fixation","html-keyboard-response","55","548218","0.0-6.0-0.7","3890458","co38470","norming","","","","","","",""
"null","../img/tt/567tt.jpg","null","mooney1","image-keyboard-response","56","551228","0.0-6.0-1.7","3890458","co38470","norming","","","","","","",""
"5025.455000111833","","","post_mooney1_questions","survey-likert","57","556259","0.0-6.0-2.7","3890458","co38470","norming","","","{""curiosity"":5,""confidence"":1}","[0,1]","../img/tt/567tt.jpg","",""
"5640.8250000094995","","","recognition","survey-text","58","561967","0.0-6.0-3.7","3890458","co38470","norming","","","{""guess"":""autospiegel""}","","../img/tt/567tt.jpg","",""
"null","../img/gs/567gs.jpg","null","reveal","image-keyboard-response","59","563981","0.0-6.0-4.7","3890458","co38470","norming","","","","","","",""
"null","../img/tt/567tt.jpg","null","mooney2","image-keyboard-response","60","565994","0.0-6.0-5.7","3890458","co38470","norming","","","","","","",""
"2791.3200000766665","","","post_reveal_questions","survey-likert","61","568788","0.0-6.0-6.7","3890458","co38470","norming","","","{""aha"":6}","[0]","../img/tt/567tt.jpg","",""
"null","<div style=""font-size:60px;""> </div>","null","fixation","html-keyboard-response","62","569030","0.0-6.0-0.8","3890458","co38470","norming","","","","","","",""
"null","../img/tt/1069tt.jpg","null","mooney1","image-keyboard-response","63","572039","0.0-6.0-1.8","3890458","co38470","norming","","","","","","",""
"5782.279999926686","","","post_mooney1_questions","survey-likert","64","577826","0.0-6.0-2.8","3890458","co38470","norming","","","{""curiosity"":5,""confidence"":1}","[0,1]","../img/tt/1069tt.jpg","",""
"3099.500000011176","","","recognition","survey-text","65","580977","0.0-6.0-3.8","3890458","co38470","norming","","","{""guess"":""piraat""}","","../img/tt/1069tt.jpg","",""
"null","../img/gs/1069gs.jpg","null","reveal","image-keyboard-response","66","582996","0.0-6.0-4.8","3890458","co38470","norming","","","","","","",""
"null","../img/tt/1069tt.jpg","null","mooney2","image-keyboard-response","67","585008","0.0-6.0-5.8","3890458","co38470","norming","","","","","","",""
"3653.374999994412","","","post_reveal_questions","survey-likert","68","588665","0.0-6.0-6.8","3890458","co38470","norming","","","{""aha"":6}","[0]","../img/tt/1069tt.jpg","",""
"null","<div style=""font-size:60px;""> </div>","null","fixation","html-keyboard-response","69","588917","0.0-6.0-0.9","3890458","co38470","norming","","","","","","",""
"null","../img/tt/296tt.jpg","null","mooney1","image-keyboard-response","70","591924","0.0-6.0-1.9","3890458","co38470","norming","","","","","","",""
"6749.260000069626","","","post_mooney1_questions","survey-likert","71","598677","0.0-6.0-2.9","3890458","co38470","norming","","","{""curiosity"":6,""confidence"":0}","[0,1]","../img/tt/296tt.jpg","",""
"4488.290000008419","","","recognition","survey-text","72","603201","0.0-6.0-3.9","3890458","co38470","norming","","","{""guess"":""zetel""}","","../img/tt/296tt.jpg","",""
"null","../img/gs/296gs.jpg","null","reveal","image-keyboard-response","73","605205","0.0-6.0-4.9","3890458","co38470","norming","","","","","","",""
"null","../img/tt/296tt.jpg","null","mooney2","image-keyboard-response","74","607209","0.0-6.0-5.9","3890458","co38470","norming","","","","","","",""
"3936.4549999590963","","","post_reveal_questions","survey-likert","75","611148","0.0-6.0-6.9","3890458","co38470","norming","","","{""aha"":5}","[0]","../img/tt/296tt.jpg","",""
"null","<div style=""font-size:60px;""> </div>","null","fixation","html-keyboard-response","76","611379","0.0-6.0-0.10","3890458","co38470","norming","","","","","","",""
"null","../img/tt/1171tt.jpg","null","mooney1","image-keyboard-response","77","614387","0.0-6.0-1.10","3890458","co38470","norming","","","","","","",""
"6749.019999988377","","","post_mooney1_questions","survey-likert","78","621141","0.0-6.0-2.10","3890458","co38470","norming","","","{""curiosity"":5,""confidence"":1}","[0,1]","../img/tt/1171tt.jpg","",""
"3154.1650000726804","","","recognition","survey-text","79","624352","0.0-6.0-3.10","3890458","co38470","norming","","","{""guess"":""skelet""}","","../img/tt/1171tt.jpg","",""
"null","../img/gs/1171gs.jpg","null","reveal","image-keyboard-response","80","626361","0.0-6.0-4.10","3890458","co38470","norming","","","","","","",""
"null","../img/tt/1171tt.jpg","null","mooney2","image-keyboard-response","81","628369","0.0-6.0-5.10","3890458","co38470","norming","","","","","","",""
"2689.204999944195","","","post_reveal_questions","survey-likert","82","631062","0.0-6.0-6.10","3890458","co38470","norming","","","{""aha"":6}","[0]","../img/tt/1171tt.jpg","",""
"null","<div style=""font-size:60px;""> </div>","null","fixation","html-keyboard-response","83","631294","0.0-6.0-0.11","3890458","co38470","norming","","","","","","",""
"null","../img/tt/081tt.jpg","null","mooney1","image-keyboard-response","84","634310","0.0-6.0-1.11","3890458","co38470","norming","","","","","","",""
"13715.960000059567","","","post_mooney1_questions","survey-likert","85","648030","0.0-6.0-2.11","3890458","co38470","norming","","","{""curiosity"":5,""confidence"":1}","[0,1]","../img/tt/081tt.jpg","",""
"19131.504999939352","","","recognition","survey-text","86","667198","0.0-6.0-3.11","3890458","co38470","norming","","","{""guess"":""mens met stok""}","","../img/tt/081tt.jpg","",""
"null","../img/gs/081gs.jpg","null","reveal","image-keyboard-response","87","669206","0.0-6.0-4.11","3890458","co38470","norming","","","","","","",""
"null","../img/tt/081tt.jpg","null","mooney2","image-keyboard-response","88","671209","0.0-6.0-5.11","3890458","co38470","norming","","","","","","",""
"3168.4100000420585","","","post_reveal_questions","survey-likert","89","674380","0.0-6.0-6.11","3890458","co38470","norming","","","{""aha"":6}","[0]","../img/tt/081tt.jpg","",""
"null","<div style=""font-size:60px;""> </div>","null","fixation","html-keyboard-response","90","674623","0.0-6.0-0.12","3890458","co38470","norming","","","","","","",""
"null","../img/tt/1366tt.jpg","null","mooney1","image-keyboard-response","91","677637","0.0-6.0-1.12","3890458","co38470","norming","","","","","","",""
"6456.609999993816","","","post_mooney1_questions","survey-likert","92","684096","0.0-6.0-2.12","3890458","co38470","norming","","","{""curiosity"":6,""confidence"":1}","[0,1]","../img/tt/1366tt.jpg","",""
"1656.9750000489876","","","recognition","survey-text","93","685790","0.0-6.0-3.12","3890458","co38470","norming","","","{""guess"":""rivier""}","","../img/tt/1366tt.jpg","",""
"null","../img/gs/1366gs.jpg","null","reveal","image-keyboard-response","94","687804","0.0-6.0-4.12","3890458","co38470","norming","","","","","","",""
"null","../img/tt/1366tt.jpg","null","mooney2","image-keyboard-response","95","689811","0.0-6.0-5.12","3890458","co38470","norming","","","","","","",""
"3070.449999999255","","","post_reveal_questions","survey-likert","96","692884","0.0-6.0-6.12","3890458","co38470","norming","","","{""aha"":6}","[0]","../img/tt/1366tt.jpg","",""
"null","<div style=""font-size:60px;""> </div>","null","fixation","html-keyboard-response","97","693126","0.0-6.0-0.13","3890458","co38470","norming","","","","","","",""
"null","../img/tt/1186tt.jpg","null","mooney1","image-keyboard-response","98","696130","0.0-6.0-1.13","3890458","co38470","norming","","","","","","",""
"6065.19999995362","","","post_mooney1_questions","survey-likert","99","702200","0.0-6.0-2.13","3890458","co38470","norming","","","{""curiosity"":6,""confidence"":0}","[0,1]","../img/tt/1186tt.jpg","",""
"2233.9699999429286","","","recognition","survey-text","100","704473","0.0-6.0-3.13","3890458","co38470","norming","","","{""guess"":""""}","","../img/tt/1186tt.jpg","",""
"null","../img/gs/1186gs.jpg","null","reveal","image-keyboard-response","101","706492","0.0-6.0-4.13","3890458","co38470","norming","","","","","","",""
"null","../img/tt/1186tt.jpg","null","mooney2","image-keyboard-response","102","708497","0.0-6.0-5.13","3890458","co38470","norming","","","","","","",""
"4160.585000063293","","","post_reveal_questions","survey-likert","103","712661","0.0-6.0-6.13","3890458","co38470","norming","","","{""aha"":6}","[0]","../img/tt/1186tt.jpg","",""
"null","<div style=""font-size:60px;""> </div>","null","fixation","html-keyboard-response","104","712905","0.0-6.0-0.14","3890458","co38470","norming","","","","","","",""
"null","../img/tt/055tt.jpg","null","mooney1","image-keyboard-response","105","715921","0.0-6.0-1.14","3890458","co38470","norming","","","","","","",""
"5496.824999921955","","","post_mooney1_questions","survey-likert","106","721423","0.0-6.0-2.14","3890458","co38470","norming","","","{""curiosity"":5,""confidence"":1}","[0,1]","../img/tt/055tt.jpg","",""
"1566.2550000706688","","","recognition","survey-text","107","723033","0.0-6.0-3.14","3890458","co38470","norming","","","{""guess"":""paard""}","","../img/tt/055tt.jpg","",""
"null","../img/gs/055gs.jpg","null","reveal","image-keyboard-response","108","725051","0.0-6.0-4.14","3890458","co38470","norming","","","","","","",""
"null","../img/tt/055tt.jpg","null","mooney2","image-keyboard-response","109","727055","0.0-6.0-5.14","3890458","co38470","norming","","","","","","",""
"2870.8349999506027","","","post_reveal_questions","survey-likert","110","729929","0.0-6.0-6.14","3890458","co38470","norming","","","{""aha"":5}","[0]","../img/tt/055tt.jpg","",""
"null","<div style=""font-size:60px;""> </div>","null","fixation","html-keyboard-response","111","730171","0.0-6.0-0.15","3890458","co38470","norming","","","","","","",""
"null","../img/tt/418tt.jpg","null","mooney1","image-keyboard-response","112","733179","0.0-6.0-1.15","3890458","co38470","norming","","","","","","",""
"6875.4799999296665","","","post_mooney1_questions","survey-likert","113","740058","0.0-6.0-2.15","3890458","co38470","norming","","","{""curiosity"":5,""confidence"":1}","[0,1]","../img/tt/418tt.jpg","",""
"1749.3049999466166","","","recognition","survey-text","114","741843","0.0-6.0-3.15","3890458","co38470","norming","","","{""guess"":""muizen""}","","../img/tt/418tt.jpg","",""
"null","../img/gs/418gs.jpg","null","reveal","image-keyboard-response","115","743852","0.0-6.0-4.15","3890458","co38470","norming","","","","","","",""
"null","../img/tt/418tt.jpg","null","mooney2","image-keyboard-response","116","745870","0.0-6.0-5.15","3890458","co38470","norming","","","","","","",""
"3318.879999918863","","","post_reveal_questions","survey-likert","117","749195","0.0-6.0-6.15","3890458","co38470","norming","","","{""aha"":6}","[0]","../img/tt/418tt.jpg","",""
"null","<div style=""font-size:60px;""> </div>","null","fixation","html-keyboard-response","118","749437","0.0-6.0-0.16","3890458","co38470","norming","","","","","","",""
"null","../img/tt/1234tt.jpg","null","mooney1","image-keyboard-response","119","752452","0.0-6.0-1.16","3890458","co38470","norming","","","","","","",""
"6542.049999930896","","","post_mooney1_questions","survey-likert","120","758998","0.0-6.0-2.16","3890458","co38470","norming","","","{""curiosity"":6,""confidence"":0}","[0,1]","../img/tt/1234tt.jpg","",""
"1815.7299999147654","","","recognition","survey-text","121","760849","0.0-6.0-3.16","3890458","co38470","norming","","","{""guess"":""""}","","../img/tt/1234tt.jpg","",""
"null","../img/gs/1234gs.jpg","null","reveal","image-keyboard-response","122","762868","0.0-6.0-4.16","3890458","co38470","norming","","","","","","",""
"null","../img/tt/1234tt.jpg","null","mooney2","image-keyboard-response","123","764873","0.0-6.0-5.16","3890458","co38470","norming","","","","","","",""
"3168.3699999703094","","","post_reveal_questions","survey-likert","124","768044","0.0-6.0-6.16","3890458","co38470","norming","","","{""aha"":6}","[0]","../img/tt/1234tt.jpg","",""
"null","<div style=""font-size:60px;""> </div>","null","fixation","html-keyboard-response","125","768286","0.0-6.0-0.17","3890458","co38470","norming","","","","","","",""
"null","../img/tt/1290tt.jpg","null","mooney1","image-keyboard-response","126","771313","0.0-6.0-1.17","3890458","co38470","norming","","","","","","",""
"4175.830000080168","","","post_mooney1_questions","survey-likert","127","775492","0.0-6.0-2.17","3890458","co38470","norming","","","{""curiosity"":5,""confidence"":1}","[0,1]","../img/tt/1290tt.jpg","",""
"1717.270000022836","","","recognition","survey-text","128","777251","0.0-6.0-3.17","3890458","co38470","norming","","","{""guess"":""tanden""}","","../img/tt/1290tt.jpg","",""
"null","../img/gs/1290gs.jpg","null","reveal","image-keyboard-response","129","779270","0.0-6.0-4.17","3890458","co38470","norming","","","","","","",""
"null","../img/tt/1290tt.jpg","null","mooney2","image-keyboard-response","130","781282","0.0-6.0-5.17","3890458","co38470","norming","","","","","","",""
"3276.2100000400096","","","post_reveal_questions","survey-likert","131","784562","0.0-6.0-6.17","3890458","co38470","norming","","","{""aha"":6}","[0]","../img/tt/1290tt.jpg","",""
"null","<div style=""font-size:60px;""> </div>","null","fixation","html-keyboard-response","132","784804","0.0-6.0-0.18","3890458","co38470","norming","","","","","","",""
"null","../img/tt/1262tt.jpg","null","mooney1","image-keyboard-response","133","787821","0.0-6.0-1.18","3890458","co38470","norming","","","","","","",""
"4474.034999962896","","","post_mooney1_questions","survey-likert","134","792299","0.0-6.0-2.18","3890458","co38470","norming","","","{""curiosity"":6,""confidence"":0}","[0,1]","../img/tt/1262tt.jpg","",""
"1221.7800000216812","","","recognition","survey-text","135","793556","0.0-6.0-3.18","3890458","co38470","norming","","","{""guess"":""""}","","../img/tt/1262tt.jpg","",""
"null","../img/gs/1262gs.jpg","null","reveal","image-keyboard-response","136","795583","0.0-6.0-4.18","3890458","co38470","norming","","","","","","",""
"null","../img/tt/1262tt.jpg","null","mooney2","image-keyboard-response","137","797602","0.0-6.0-5.18","3890458","co38470","norming","","","","","","",""
"3880.4950000485405","","","post_reveal_questions","survey-likert","138","801485","0.0-6.0-6.18","3890458","co38470","norming","","","{""aha"":6}","[0]","../img/tt/1262tt.jpg","",""
"null","<div style=""font-size:60px;""> </div>","null","fixation","html-keyboard-response","139","801719","0.0-6.0-0.19","3890458","co38470","norming","","","","","","",""
"null","../img/tt/1097tt.jpg","null","mooney1","image-keyboard-response","140","804728","0.0-6.0-1.19","3890458","co38470","norming","","","","","","",""
"8082.894999999553","","","post_mooney1_questions","survey-likert","141","812812","0.0-6.0-2.19","3890458","co38470","norming","","","{""curiosity"":4,""confidence"":2}","[0,1]","../img/tt/1097tt.jpg","",""
"2806.2449999852106","","","recognition","survey-text","142","815655","0.0-6.0-3.19","3890458","co38470","norming","","","{""guess"":""landwerker""}","","../img/tt/1097tt.jpg","",""
"null","../img/gs/1097gs.jpg","null","reveal","image-keyboard-response","143","817662","0.0-6.0-4.19","3890458","co38470","norming","","","","","","",""
"null","../img/tt/1097tt.jpg","null","mooney2","image-keyboard-response","144","819666","0.0-6.0-5.19","3890458","co38470","norming","","","","","","",""
"2870.824999990873","","","post_reveal_questions","survey-likert","145","822540","0.0-6.0-6.19","3890458","co38470","norming","","","{""aha"":6}","[0]","../img/tt/1097tt.jpg","",""
"null","<div style=""font-size:60px;""> </div>","null","fixation","html-keyboard-response","146","822784","0.0-6.0-0.20","3890458","co38470","norming","","","","","","",""
"null","../img/tt/584tt.jpg","null","mooney1","image-keyboard-response","147","825801","0.0-6.0-1.20","3890458","co38470","norming","","","","","","",""
"7448.820000048727","","","post_mooney1_questions","survey-likert","148","833254","0.0-6.0-2.20","3890458","co38470","norming","","","{""curiosity"":5,""confidence"":1}","[0,1]","../img/tt/584tt.jpg","",""
"19568.244999973103","","","recognition","survey-text","149","852878","0.0-6.0-3.20","3890458","co38470","norming","","","{""guess"":""paprika""}","","../img/tt/584tt.jpg","",""
"null","../img/gs/584gs.jpg","null","reveal","image-keyboard-response","150","854893","0.0-6.0-4.20","3890458","co38470","norming","","","","","","",""
"null","../img/tt/584tt.jpg","null","mooney2","image-keyboard-response","151","856910","0.0-6.0-5.20","3890458","co38470","norming","","","","","","",""
"3523.2149999355897","","","post_reveal_questions","survey-likert","152","860436","0.0-6.0-6.20","3890458","co38470","norming","","","{""aha"":6}","[0]","../img/tt/584tt.jpg","",""
"null","<div style=""font-size:60px;""> </div>","null","fixation","html-keyboard-response","153","860680","0.0-6.0-0.21","3890458","co38470","norming","","","","","","",""
"null","../img/tt/435tt.jpg","null","mooney1","image-keyboard-response","154","863693","0.0-6.0-1.21","3890458","co38470","norming","","","","","","",""
"5668.885000050068","","","post_mooney1_questions","survey-likert","155","869366","0.0-6.0-2.21","3890458","co38470","norming","","","{""curiosity"":6,""confidence"":1}","[0,1]","../img/tt/435tt.jpg","",""
"1491.87000002712","","","recognition","survey-text","156","870894","0.0-6.0-3.21","3890458","co38470","norming","","","{""guess"":""tafel""}","","../img/tt/435tt.jpg","",""
"null","../img/gs/435gs.jpg","null","reveal","image-keyboard-response","157","872910","0.0-6.0-4.21","3890458","co38470","norming","","","","","","",""
"null","../img/tt/435tt.jpg","null","mooney2","image-keyboard-response","158","874926","0.0-6.0-5.21","3890458","co38470","norming","","","","","","",""
"2856.6800000844523","","","post_reveal_questions","survey-likert","159","877785","0.0-6.0-6.21","3890458","co38470","norming","","","{""aha"":5}","[0]","../img/tt/435tt.jpg","",""
"null","<div style=""font-size:60px;""> </div>","null","fixation","html-keyboard-response","160","878030","0.0-6.0-0.22","3890458","co38470","norming","","","","","","",""
"null","../img/tt/052tt.jpg","null","mooney1","image-keyboard-response","161","881036","0.0-6.0-1.22","3890458","co38470","norming","","","","","","",""
"6491.084999986924","","","post_mooney1_questions","survey-likert","162","887530","0.0-6.0-2.22","3890458","co38470","norming","","","{""curiosity"":5,""confidence"":1}","[0,1]","../img/tt/052tt.jpg","",""
"3067.6750000566244","","","recognition","survey-text","163","890642","0.0-6.0-3.22","3890458","co38470","norming","","","{""guess"":""trommel""}","","../img/tt/052tt.jpg","",""
"null","../img/gs/052gs.jpg","null","reveal","image-keyboard-response","164","892661","0.0-6.0-4.22","3890458","co38470","norming","","","","","","",""
"null","../img/tt/052tt.jpg","null","mooney2","image-keyboard-response","165","894679","0.0-6.0-5.22","3890458","co38470","norming","","","","","","",""
"2405.3149999817833","","","post_reveal_questions","survey-likert","166","897087","0.0-6.0-6.22","3890458","co38470","norming","","","{""aha"":6}","[0]","../img/tt/052tt.jpg","",""
"null","<div style=""font-size:60px;""> </div>","null","fixation","html-keyboard-response","167","897376","0.0-6.0-0.23","3890458","co38470","norming","","","","","","",""
"null","../img/tt/477tt.jpg","null","mooney1","image-keyboard-response","168","900389","0.0-6.0-1.23","3890458","co38470","norming","","","","","","",""
"8107.420000014827","","","post_mooney1_questions","survey-likert","169","908500","0.0-6.0-2.23","3890458","co38470","norming","","","{""curiosity"":6,""confidence"":1}","[0,1]","../img/tt/477tt.jpg","",""
"4428.375000017695","","","recognition","survey-text","170","912967","0.0-6.0-3.23","3890458","co38470","norming","","","{""guess"":""skelet""}","","../img/tt/477tt.jpg","",""
"null","../img/gs/477gs.jpg","null","reveal","image-keyboard-response","171","914976","0.0-6.0-4.23","3890458","co38470","norming","","","","","","",""
"null","../img/tt/477tt.jpg","null","mooney2","image-keyboard-response","172","916978","0.0-6.0-5.23","3890458","co38470","norming","","","","","","",""
"3001.075000036508","","","post_reveal_questions","survey-likert","173","919982","0.0-6.0-6.23","3890458","co38470","norming","","","{""aha"":6}","[0]","../img/tt/477tt.jpg","",""
"null","<div style=""font-size:60px;""> </div>","null","fixation","html-keyboard-response","174","920227","0.0-6.0-0.24","3890458","co38470","norming","","","","","","",""
"null","../img/tt/1048tt.jpg","null","mooney1","image-keyboard-response","175","923245","0.0-6.0-1.24","3890458","co38470","norming","","","","","","",""
"8254.850000026636","","","post_mooney1_questions","survey-likert","176","931504","0.0-6.0-2.24","3890458","co38470","norming","","","{""curiosity"":5,""confidence"":1}","[0,1]","../img/tt/1048tt.jpg","",""
"1716.7849999386817","","","recognition","survey-text","177","933256","0.0-6.0-3.24","3890458","co38470","norming","","","{""guess"":""paard""}","","../img/tt/1048tt.jpg","",""
"null","../img/gs/1048gs.jpg","null","reveal","image-keyboard-response","178","935272","0.0-6.0-4.24","3890458","co38470","norming","","","","","","",""
"null","../img/tt/1048tt.jpg","null","mooney2","image-keyboard-response","179","937275","0.0-6.0-5.24","3890458","co38470","norming","","","","","","",""
"2900.6199999712408","","","post_reveal_questions","survey-likert","180","940179","0.0-6.0-6.24","3890458","co38470","norming","","","{""aha"":6}","[0]","../img/tt/1048tt.jpg","",""
"null","<div style=""font-size:60px;""> </div>","null","fixation","html-keyboard-response","181","940414","0.0-6.0-0.25","3890458","co38470","norming","","","","","","",""
"null","../img/tt/1200tt.jpg","null","mooney1","image-keyboard-response","182","943425","0.0-6.0-1.25","3890458","co38470","norming","","","","","","",""
"9755.04999991972","","","post_mooney1_questions","survey-likert","183","953183","0.0-6.0-2.25","3890458","co38470","norming","","","{""curiosity"":6,""confidence"":0}","[0,1]","../img/tt/1200tt.jpg","",""
"1429.2050000512972","","","recognition","survey-text","184","954650","0.0-6.0-3.25","3890458","co38470","norming","","","{""guess"":""""}","","../img/tt/1200tt.jpg","",""
"null","../img/gs/1200gs.jpg","null","reveal","image-keyboard-response","185","956658","0.0-6.0-4.25","3890458","co38470","norming","","","","","","",""
"null","../img/tt/1200tt.jpg","null","mooney2","image-keyboard-response","186","958666","0.0-6.0-5.25","3890458","co38470","norming","","","","","","",""
"3855.4650000296533","","","post_reveal_questions","survey-likert","187","962525","0.0-6.0-6.25","3890458","co38470","norming","","","{""aha"":6}","[0]","../img/tt/1200tt.jpg","",""
"null","<div style=""font-size:60px;""> </div>","null","fixation","html-keyboard-response","188","962758","0.0-6.0-0.26","3890458","co38470","norming","","","","","","",""
"null","../img/tt/1006tt.jpg","null","mooney1","image-keyboard-response","189","965770","0.0-6.0-1.26","3890458","co38470","norming","","","","","","",""
"8958.91499996651","","","post_mooney1_questions","survey-likert","190","974732","0.0-6.0-2.26","3890458","co38470","norming","","","{""curiosity"":4,""confidence"":2}","[0,1]","../img/tt/1006tt.jpg","",""
"1494.6550000458956","","","recognition","survey-text","191","976264","0.0-6.0-3.26","3890458","co38470","norming","","","{""guess"":""geit""}","","../img/tt/1006tt.jpg","",""
"null","../img/gs/1006gs.jpg","null","reveal","image-keyboard-response","192","978272","0.0-6.0-4.26","3890458","co38470","norming","","","","","","",""
"null","../img/tt/1006tt.jpg","null","mooney2","image-keyboard-response","193","980289","0.0-6.0-5.26","3890458","co38470","norming","","","","","","",""
"3973.420000053011","","","post_reveal_questions","survey-likert","194","984265","0.0-6.0-6.26","3890458","co38470","norming","","","{""aha"":4}","[0]","../img/tt/1006tt.jpg","",""
"null","<div style=""font-size:60px;""> </div>","null","fixation","html-keyboard-response","195","984507","0.0-6.0-0.27","3890458","co38470","norming","","","","","","",""
"null","../img/tt/1189tt.jpg","null","mooney1","image-keyboard-response","196","987522","0.0-6.0-1.27","3890458","co38470","norming","","","","","","",""
"7218.649999937043","","","post_mooney1_questions","survey-likert","197","994744","0.0-6.0-2.27","3890458","co38470","norming","","","{""curiosity"":5,""confidence"":1}","[0,1]","../img/tt/1189tt.jpg","",""
"2944.535000016913","","","recognition","survey-text","198","997725","0.0-6.0-3.27","3890458","co38470","norming","","","{""guess"":""hond""}","","../img/tt/1189tt.jpg","",""
"null","../img/gs/1189gs.jpg","null","reveal","image-keyboard-response","199","999741","0.0-6.0-4.27","3890458","co38470","norming","","","","","","",""
"null","../img/tt/1189tt.jpg","null","mooney2","image-keyboard-response","200","1001757","0.0-6.0-5.27","3890458","co38470","norming","","","","","","",""
"4861.204999964684","","","post_reveal_questions","survey-likert","201","1006622","0.0-6.0-6.27","3890458","co38470","norming","","","{""aha"":6}","[0]","../img/tt/1189tt.jpg","",""
"null","<div style=""font-size:60px;""> </div>","null","fixation","html-keyboard-response","202","1006867","0.0-6.0-0.28","3890458","co38470","norming","","","","","","",""
"null","../img/tt/1101tt.jpg","null","mooney1","image-keyboard-response","203","1009873","0.0-6.0-1.28","3890458","co38470","norming","","","","","","",""
"4843.1600000476465","","","post_mooney1_questions","survey-likert","204","1014720","0.0-6.0-2.28","3890458","co38470","norming","","","{""curiosity"":5,""confidence"":1}","[0,1]","../img/tt/1101tt.jpg","",""
"3086.6349999560043","","","recognition","survey-text","205","1017846","0.0-6.0-3.28","3890458","co38470","norming","","","{""guess"":""mens""}","","../img/tt/1101tt.jpg","",""
"null","../img/gs/1101gs.jpg","null","reveal","image-keyboard-response","206","1019852","0.0-6.0-4.28","3890458","co38470","norming","","","","","","",""
"null","../img/tt/1101tt.jpg","null","mooney2","image-keyboard-response","207","1021862","0.0-6.0-5.28","3890458","co38470","norming","","","","","","",""
"5171.414999989793","","","post_reveal_questions","survey-likert","208","1027036","0.0-6.0-6.28","3890458","co38470","norming","","","{""aha"":5}","[0]","../img/tt/1101tt.jpg","",""
"null","<div style=""font-size:60px;""> </div>","null","fixation","html-keyboard-response","209","1027282","0.0-6.0-0.29","3890458","co38470","norming","","","","","","",""
"null","../img/tt/307tt.jpg","null","mooney1","image-keyboard-response","210","1030292","0.0-6.0-1.29","3890458","co38470","norming","","","","","","",""
"7316.660000011325","","","post_mooney1_questions","survey-likert","211","1037614","0.0-6.0-2.29","3890458","co38470","norming","","","{""curiosity"":5,""confidence"":1}","[0,1]","../img/tt/307tt.jpg","",""
"3603.8949999492615","","","recognition","survey-text","212","1041259","0.0-6.0-3.29","3890458","co38470","norming","","","{""guess"":""banaan""}","","../img/tt/307tt.jpg","",""
"null","../img/gs/307gs.jpg","null","reveal","image-keyboard-response","213","1043278","0.0-6.0-4.29","3890458","co38470","norming","","","","","","",""
"null","../img/tt/307tt.jpg","null","mooney2","image-keyboard-response","214","1045287","0.0-6.0-5.29","3890458","co38470","norming","","","","","","",""
"4704.1400000452995","","","post_reveal_questions","survey-likert","215","1049994","0.0-6.0-6.29","3890458","co38470","norming","","","{""aha"":6}","[0]","../img/tt/307tt.jpg","",""
"null","<div style=""font-size:60px;""> </div>","null","fixation","html-keyboard-response","216","1050240","0.0-6.0-0.30","3890458","co38470","norming","","","","","","",""
"null","../img/tt/416tt.jpg","null","mooney1","image-keyboard-response","217","1053249","0.0-6.0-1.30","3890458","co38470","norming","","","","","","",""
"5029.660000000149","","","post_mooney1_questions","survey-likert","218","1058282","0.0-6.0-2.30","3890458","co38470","norming","","","{""curiosity"":5,""confidence"":1}","[0,1]","../img/tt/416tt.jpg","",""
"1710.3900000220165","","","recognition","survey-text","219","1060029","0.0-6.0-3.30","3890458","co38470","norming","","","{""guess"":""paard""}","","../img/tt/416tt.jpg","",""
"null","../img/gs/416gs.jpg","null","reveal","image-keyboard-response","220","1062047","0.0-6.0-4.30","3890458","co38470","norming","","","","","","",""
"null","../img/tt/416tt.jpg","null","mooney2","image-keyboard-response","221","1064064","0.0-6.0-5.30","3890458","co38470","norming","","","","","","",""
"3644.014999968931","","","post_reveal_questions","survey-likert","222","1067712","0.0-6.0-6.30","3890458","co38470","norming","","","{""aha"":6}","[0]","../img/tt/416tt.jpg","",""
"null","<div style=""font-size:60px;""> </div>","null","fixation","html-keyboard-response","223","1067951","0.0-6.0-0.31","3890458","co38470","norming","","","","","","",""
"null","../img/tt/315tt.jpg","null","mooney1","image-keyboard-response","224","1070968","0.0-6.0-1.31","3890458","co38470","norming","","","","","","",""
"6064.335000002757","","","post_mooney1_questions","survey-likert","225","1077036","0.0-6.0-2.31","3890458","co38470","norming","","","{""curiosity"":4,""confidence"":3}","[0,1]","../img/tt/315tt.jpg","",""
"1574.930000002496","","","recognition","survey-text","226","1078648","0.0-6.0-3.31","3890458","co38470","norming","","","{""guess"":""kat""}","","../img/tt/315tt.jpg","",""
"null","../img/gs/315gs.jpg","null","reveal","image-keyboard-response","227","1080667","0.0-6.0-4.31","3890458","co38470","norming","","","","","","",""
"null","../img/tt/315tt.jpg","null","mooney2","image-keyboard-response","228","1082718","0.0-6.0-5.31","3890458","co38470","norming","","","","","","",""
"4491.5199999231845","","","post_reveal_questions","survey-likert","229","1087212","0.0-6.0-6.31","3890458","co38470","norming","","","{""aha"":3}","[0]","../img/tt/315tt.jpg","",""
"null","<div style=""font-size:60px;""> </div>","null","fixation","html-keyboard-response","230","1087449","0.0-6.0-0.32","3890458","co38470","norming","","","","","","",""
"null","../img/tt/1190tt.jpg","null","mooney1","image-keyboard-response","231","1090465","0.0-6.0-1.32","3890458","co38470","norming","","","","","","",""
"6572.769999969751","","","post_mooney1_questions","survey-likert","232","1097043","0.0-6.0-2.32","3890458","co38470","norming","","","{""curiosity"":6,""confidence"":1}","[0,1]","../img/tt/1190tt.jpg","",""
"2776.3050000648946","","","recognition","survey-text","233","1099856","0.0-6.0-3.32","3890458","co38470","norming","","","{""guess"":""salamander""}","","../img/tt/1190tt.jpg","",""
"null","../img/gs/1190gs.jpg","null","reveal","image-keyboard-response","234","1101865","0.0-6.0-4.32","3890458","co38470","norming","","","","","","",""
"null","../img/tt/1190tt.jpg","null","mooney2","image-keyboard-response","235","1103870","0.0-6.0-5.32","3890458","co38470","norming","","","","","","",""
"3908.0400000093505","","","post_reveal_questions","survey-likert","236","1107782","0.0-6.0-6.32","3890458","co38470","norming","","","{""aha"":6}","[0]","../img/tt/1190tt.jpg","",""
"null","<div style=""font-size:60px;""> </div>","null","fixation","html-keyboard-response","237","1108010","0.0-6.0-0.33","3890458","co38470","norming","","","","","","",""
"null","../img/tt/549tt.jpg","null","mooney1","image-keyboard-response","238","1111016","0.0-6.0-1.33","3890458","co38470","norming","","","","","","",""
"5450.474999961443","","","post_mooney1_questions","survey-likert","239","1116470","0.0-6.0-2.33","3890458","co38470","norming","","","{""curiosity"":5,""confidence"":2}","[0,1]","../img/tt/549tt.jpg","",""
"1422.1149999648333","","","recognition","survey-text","240","1117929","0.0-6.0-3.33","3890458","co38470","norming","","","{""guess"":""bijl""}","","../img/tt/549tt.jpg","",""
"null","../img/gs/549gs.jpg","null","reveal","image-keyboard-response","241","1119949","0.0-6.0-4.33","3890458","co38470","norming","","","","","","",""
"null","../img/tt/549tt.jpg","null","mooney2","image-keyboard-response","242","1121963","0.0-6.0-5.33","3890458","co38470","norming","","","","","","",""
"6635.269999969751","","","post_reveal_questions","survey-likert","243","1128602","0.0-6.0-6.33","3890458","co38470","norming","","","{""aha"":6}","[0]","../img/tt/549tt.jpg","",""
"null","<div style=""font-size:60px;""> </div>","null","fixation","html-keyboard-response","244","1128848","0.0-6.0-0.34","3890458","co38470","norming","","","","","","",""
"null","../img/tt/007tt.jpg","null","mooney1","image-keyboard-response","245","1131865","0.0-6.0-1.34","3890458","co38470","norming","","","","","","",""
"7408.945000031963","","","post_mooney1_questions","survey-likert","246","1139277","0.0-6.0-2.34","3890458","co38470","norming","","","{""curiosity"":5,""confidence"":1}","[0,1]","../img/tt/007tt.jpg","",""
"4330.019999993965","","","recognition","survey-text","247","1143643","0.0-6.0-3.34","3890458","co38470","norming","","","{""guess"":""insect""}","","../img/tt/007tt.jpg","",""
"null","../img/gs/007gs.jpg","null","reveal","image-keyboard-response","248","1145662","0.0-6.0-4.34","3890458","co38470","norming","","","","","","",""
"null","../img/tt/007tt.jpg","null","mooney2","image-keyboard-response","249","1147678","0.0-6.0-5.34","3890458","co38470","norming","","","","","","",""
"6138.174999970943","","","post_reveal_questions","survey-likert","250","1153820","0.0-6.0-6.34","3890458","co38470","norming","","","{""aha"":6}","[0]","../img/tt/007tt.jpg","",""
"null","<div style=""font-size:60px;""> </div>","null","fixation","html-keyboard-response","251","1154064","0.0-6.0-0.35","3890458","co38470","norming","","","","","","",""
"null","../img/tt/1130tt.jpg","null","mooney1","image-keyboard-response","252","1157077","0.0-6.0-1.35","3890458","co38470","norming","","","","","","",""
"10696.259999996983","","","post_mooney1_questions","survey-likert","253","1167776","0.0-6.0-2.35","3890458","co38470","norming","","","{""curiosity"":2,""confidence"":5}","[0,1]","../img/tt/1130tt.jpg","",""
"5791.620000032708","","","recognition","survey-text","254","1173605","0.0-6.0-3.35","3890458","co38470","norming","","","{""guess"":""fietser""}","","../img/tt/1130tt.jpg","",""
"null","../img/gs/1130gs.jpg","null","reveal","image-keyboard-response","255","1175621","0.0-6.0-4.35","3890458","co38470","norming","","","","","","",""
"null","../img/tt/1130tt.jpg","null","mooney2","image-keyboard-response","256","1177627","0.0-6.0-5.35","3890458","co38470","norming","","","","","","",""
"4895.585000049323","","","post_reveal_questions","survey-likert","257","1182524","0.0-6.0-6.35","3890458","co38470","norming","","","{""aha"":2}","[0]","../img/tt/1130tt.jpg","",""
"null","<div style=""font-size:60px;""> </div>","null","fixation","html-keyboard-response","258","1182763","0.0-6.0-0.36","3890458","co38470","norming","","","","","","",""
"null","../img/tt/301tt.jpg","null","mooney1","image-keyboard-response","259","1185781","0.0-6.0-1.36","3890458","co38470","norming","","","","","","",""
"4778.999999980442","","","post_mooney1_questions","survey-likert","260","1190564","0.0-6.0-2.36","3890458","co38470","norming","","","{""curiosity"":5,""confidence"":1}","[0,1]","../img/tt/301tt.jpg","",""
"3778.679999988526","","","recognition","survey-text","261","1194380","0.0-6.0-3.36","3890458","co38470","norming","","","{""guess"":""handboeien""}","","../img/tt/301tt.jpg","",""
"null","../img/gs/301gs.jpg","null","reveal","image-keyboard-response","262","1196393","0.0-6.0-4.36","3890458","co38470","norming","","","","","","",""
"null","../img/tt/301tt.jpg","null","mooney2","image-keyboard-response","263","1198407","0.0-6.0-5.36","3890458","co38470","norming","","","","","","",""
"3675.3500000340864","","","post_reveal_questions","survey-likert","264","1202086","0.0-6.0-6.36","3890458","co38470","norming","","","{""aha"":6}","[0]","../img/tt/301tt.jpg","",""
"null","<div style=""font-size:60px;""> </div>","null","fixation","html-keyboard-response","265","1202330","0.0-6.0-0.37","3890458","co38470","norming","","","","","","",""
"null","../img/tt/496tt.jpg","null","mooney1","image-keyboard-response","266","1205348","0.0-6.0-1.37","3890458","co38470","norming","","","","","","",""
"5082.09500007797","","","post_mooney1_questions","survey-likert","267","1210433","0.0-6.0-2.37","3890458","co38470","norming","","","{""curiosity"":5,""confidence"":1}","[0,1]","../img/tt/496tt.jpg","",""
"2018.0949999485165","","","recognition","survey-text","268","1212488","0.0-6.0-3.37","3890458","co38470","norming","","","{""guess"":""heks""}","","../img/tt/496tt.jpg","",""
"null","../img/gs/496gs.jpg","null","reveal","image-keyboard-response","269","1214506","0.0-6.0-4.37","3890458","co38470","norming","","","","","","",""
"null","../img/tt/496tt.jpg","null","mooney2","image-keyboard-response","270","1216524","0.0-6.0-5.37","3890458","co38470","norming","","","","","","",""
"3008.3000001031905","","","post_reveal_questions","survey-likert","271","1219535","0.0-6.0-6.37","3890458","co38470","norming","","","{""aha"":6}","[0]","../img/tt/496tt.jpg","",""
"null","<div style=""font-size:60px;""> </div>","null","fixation","html-keyboard-response","272","1219794","0.0-6.0-0.38","3890458","co38470","norming","","","","","","",""
"null","../img/tt/108tt.jpg","null","mooney1","image-keyboard-response","273","1222811","0.0-6.0-1.38","3890458","co38470","norming","","","","","","",""
"7526.570000103675","","","post_mooney1_questions","survey-likert","274","1230341","0.0-6.0-2.38","3890458","co38470","norming","","","{""curiosity"":6,""confidence"":0}","[0,1]","../img/tt/108tt.jpg","",""
"1330.4100000532344","","","recognition","survey-text","275","1231708","0.0-6.0-3.38","3890458","co38470","norming","","","{""guess"":""""}","","../img/tt/108tt.jpg","",""
"null","../img/gs/108gs.jpg","null","reveal","image-keyboard-response","276","1233725","0.0-6.0-4.38","3890458","co38470","norming","","","","","","",""
"null","../img/tt/108tt.jpg","null","mooney2","image-keyboard-response","277","1235744","0.0-6.0-5.38","3890458","co38470","norming","","","","","","",""
"2623.8150000572205","","","post_reveal_questions","survey-likert","278","1238370","0.0-6.0-6.38","3890458","co38470","norming","","","{""aha"":6}","[0]","../img/tt/108tt.jpg","",""
"null","<div style=""font-size:60px;""> </div>","null","fixation","html-keyboard-response","279","1238608","0.0-6.0-0.39","3890458","co38470","norming","","","","","","",""
"null","../img/tt/1156tt.jpg","null","mooney1","image-keyboard-response","280","1241614","0.0-6.0-1.39","3890458","co38470","norming","","","","","","",""
"4611.435000086203","","","post_mooney1_questions","survey-likert","281","1246229","0.0-6.0-2.39","3890458","co38470","norming","","","{""curiosity"":5,""confidence"":1}","[0,1]","../img/tt/1156tt.jpg","",""
"1123.7450001062825","","","recognition","survey-text","282","1247391","0.0-6.0-3.39","3890458","co38470","norming","","","{""guess"":""eend""}","","../img/tt/1156tt.jpg","",""
"null","../img/gs/1156gs.jpg","null","reveal","image-keyboard-response","283","1249407","0.0-6.0-4.39","3890458","co38470","norming","","","","","","",""
"null","../img/tt/1156tt.jpg","null","mooney2","image-keyboard-response","284","1251419","0.0-6.0-5.39","3890458","co38470","norming","","","","","","",""
"3058.7599999271333","","","post_reveal_questions","survey-likert","285","1254481","0.0-6.0-6.39","3890458","co38470","norming","","","{""aha"":6}","[0]","../img/tt/1156tt.jpg","",""
"null","<div style=""font-size:60px;""> </div>","null","fixation","html-keyboard-response","286","1254727","0.0-6.0-0.40","3890458","co38470","norming","","","","","","",""
"null","../img/tt/599tt.jpg","null","mooney1","image-keyboard-response","287","1257739","0.0-6.0-1.40","3890458","co38470","norming","","","","","","",""
"5709.634999977425","","","post_mooney1_questions","survey-likert","288","1263452","0.0-6.0-2.40","3890458","co38470","norming","","","{""curiosity"":5,""confidence"":2}","[0,1]","../img/tt/599tt.jpg","",""
"1168.90000004787","","","recognition","survey-text","289","1264659","0.0-6.0-3.40","3890458","co38470","norming","","","{""guess"":""mens""}","","../img/tt/599tt.jpg","",""
"null","../img/gs/599gs.jpg","null","reveal","image-keyboard-response","290","1266678","0.0-6.0-4.40","3890458","co38470","norming","","","","","","",""
"null","../img/tt/599tt.jpg","null","mooney2","image-keyboard-response","291","1268690","0.0-6.0-5.40","3890458","co38470","norming","","","","","","",""
"2698.8600000040606","","","post_reveal_questions","survey-likert","292","1271392","0.0-6.0-6.40","3890458","co38470","norming","","","{""aha"":6}","[0]","../img/tt/599tt.jpg","",""
"null","<div style=""font-size:60px;""> </div>","null","fixation","html-keyboard-response","293","1271642","0.0-6.0-0.41","3890458","co38470","norming","","","","","","",""
"null","../img/tt/1070tt.jpg","null","mooney1","image-keyboard-response","294","1274646","0.0-6.0-1.41","3890458","co38470","norming","","","","","","",""
"6607.250000000931","","","post_mooney1_questions","survey-likert","295","1281258","0.0-6.0-2.41","3890458","co38470","norming","","","{""curiosity"":6,""confidence"":0}","[0,1]","../img/tt/1070tt.jpg","",""
"1241.4300000527874","","","recognition","survey-text","296","1282538","0.0-6.0-3.41","3890458","co38470","norming","","","{""guess"":""""}","","../img/tt/1070tt.jpg","",""
"null","../img/gs/1070gs.jpg","null","reveal","image-keyboard-response","297","1284571","0.0-6.0-4.41","3890458","co38470","norming","","","","","","",""
"null","../img/tt/1070tt.jpg","null","mooney2","image-keyboard-response","298","1286587","0.0-6.0-5.41","3890458","co38470","norming","","","","","","",""
"4857.65000001993","","","post_reveal_questions","survey-likert","299","1291449","0.0-6.0-6.41","3890458","co38470","norming","","","{""aha"":6}","[0]","../img/tt/1070tt.jpg","",""
"null","<div style=""font-size:60px;""> </div>","null","fixation","html-keyboard-response","300","1291692","0.0-6.0-0.42","3890458","co38470","norming","","","","","","",""
"null","../img/tt/1089tt.jpg","null","mooney1","image-keyboard-response","301","1294703","0.0-6.0-1.42","3890458","co38470","norming","","","","","","",""
"4645.159999956377","","","post_mooney1_questions","survey-likert","302","1299351","0.0-6.0-2.42","3890458","co38470","norming","","","{""curiosity"":5,""confidence"":1}","[0,1]","../img/tt/1089tt.jpg","",""
"2485.039999941364","","","recognition","survey-text","303","1301874","0.0-6.0-3.42","3890458","co38470","norming","","","{""guess"":""kar""}","","../img/tt/1089tt.jpg","",""
"null","../img/gs/1089gs.jpg","null","reveal","image-keyboard-response","304","1303891","0.0-6.0-4.42","3890458","co38470","norming","","","","","","",""
"null","../img/tt/1089tt.jpg","null","mooney2","image-keyboard-response","305","1305896","0.0-6.0-5.42","3890458","co38470","norming","","","","","","",""
"2761.2049999879673","","","post_reveal_questions","survey-likert","306","1308661","0.0-6.0-6.42","3890458","co38470","norming","","","{""aha"":6}","[0]","../img/tt/1089tt.jpg","",""
"null","<div style=""font-size:60px;""> </div>","null","fixation","html-keyboard-response","307","1308903","0.0-6.0-0.43","3890458","co38470","norming","","","","","","",""
"null","../img/tt/1024tt.jpg","null","mooney1","image-keyboard-response","308","1311921","0.0-6.0-1.43","3890458","co38470","norming","","","","","","",""
"6566.180000081658","","","post_mooney1_questions","survey-likert","309","1318491","0.0-6.0-2.43","3890458","co38470","norming","","","{""curiosity"":5,""confidence"":1}","[0,1]","../img/tt/1024tt.jpg","",""
"2456.64999994915","","","recognition","survey-text","310","1321013","0.0-6.0-3.43","3890458","co38470","norming","","","{""guess"":""rolstoel""}","","../img/tt/1024tt.jpg","",""
"null","../img/gs/1024gs.jpg","null","reveal","image-keyboard-response","311","1323017","0.0-6.0-4.43","3890458","co38470","norming","","","","","","",""
"null","../img/tt/1024tt.jpg","null","mooney2","image-keyboard-response","312","1325020","0.0-6.0-5.43","3890458","co38470","norming","","","","","","",""
"7353.140000021085","","","post_reveal_questions","survey-likert","313","1332376","0.0-6.0-6.43","3890458","co38470","norming","","","{""aha"":5}","[0]","../img/tt/1024tt.jpg","",""
"null","<div style=""font-size:60px;""> </div>","null","fixation","html-keyboard-response","314","1332609","0.0-6.0-0.44","3890458","co38470","norming","","","","","","",""
"null","../img/tt/1116tt.jpg","null","mooney1","image-keyboard-response","315","1335626","0.0-6.0-1.44","3890458","co38470","norming","","","","","","",""
"6472.044999944046","","","post_mooney1_questions","survey-likert","316","1342102","0.0-6.0-2.44","3890458","co38470","norming","","","{""curiosity"":4,""confidence"":2}","[0,1]","../img/tt/1116tt.jpg","",""
"1391.804999904707","","","recognition","survey-text","317","1343529","0.0-6.0-3.44","3890458","co38470","norming","","","{""guess"":""auto""}","","../img/tt/1116tt.jpg","",""
"null","../img/gs/1116gs.jpg","null","reveal","image-keyboard-response","318","1345539","0.0-6.0-4.44","3890458","co38470","norming","","","","","","",""
"null","../img/tt/1116tt.jpg","null","mooney2","image-keyboard-response","319","1347552","0.0-6.0-5.44","3890458","co38470","norming","","","","","","",""
"3147.5550000322983","","","post_reveal_questions","survey-likert","320","1350702","0.0-6.0-6.44","3890458","co38470","norming","","","{""aha"":6}","[0]","../img/tt/1116tt.jpg","",""
"null","<div style=""font-size:60px;""> </div>","null","fixation","html-keyboard-response","321","1350934","0.0-6.0-0.45","3890458","co38470","norming","","","","","","",""
"null","../img/tt/1063tt.jpg","null","mooney1","image-keyboard-response","322","1353939","0.0-6.0-1.45","3890458","co38470","norming","","","","","","",""
"6117.465000017546","","","post_mooney1_questions","survey-likert","323","1360061","0.0-6.0-2.45","3890458","co38470","norming","","","{""curiosity"":5,""confidence"":2}","[0,1]","../img/tt/1063tt.jpg","",""
"1508.6000000592321","","","recognition","survey-text","324","1361604","0.0-6.0-3.45","3890458","co38470","norming","","","{""guess"":""paard""}","","../img/tt/1063tt.jpg","",""
"null","../img/gs/1063gs.jpg","null","reveal","image-keyboard-response","325","1363619","0.0-6.0-4.45","3890458","co38470","norming","","","","","","",""
"null","../img/tt/1063tt.jpg","null","mooney2","image-keyboard-response","326","1365634","0.0-6.0-5.45","3890458","co38470","norming","","","","","","",""
"3930.4949999786913","","","post_reveal_questions","survey-likert","327","1369567","0.0-6.0-6.45","3890458","co38470","norming","","","{""aha"":3}","[0]","../img/tt/1063tt.jpg","",""
"null","<div style=""font-size:60px;""> </div>","null","fixation","html-keyboard-response","328","1369835","0.0-6.0-0.46","3890458","co38470","norming","","","","","","",""
"null","../img/tt/1044tt.jpg","null","mooney1","image-keyboard-response","329","1372848","0.0-6.0-1.46","3890458","co38470","norming","","","","","","",""
"6960.844999994151","","","post_mooney1_questions","survey-likert","330","1379813","0.0-6.0-2.46","3890458","co38470","norming","","","{""curiosity"":5,""confidence"":1}","[0,1]","../img/tt/1044tt.jpg","",""
"1257.8099999809638","","","recognition","survey-text","331","1381107","0.0-6.0-3.46","3890458","co38470","norming","","","{""guess"":""paard""}","","../img/tt/1044tt.jpg","",""
"null","../img/gs/1044gs.jpg","null","reveal","image-keyboard-response","332","1383114","0.0-6.0-4.46","3890458","co38470","norming","","","","","","",""
"null","../img/tt/1044tt.jpg","null","mooney2","image-keyboard-response","333","1385130","0.0-6.0-5.46","3890458","co38470","norming","","","","","","",""
"6274.6749999932945","","","post_reveal_questions","survey-likert","334","1391408","0.0-6.0-6.46","3890458","co38470","norming","","","{""aha"":6}","[0]","../img/tt/1044tt.jpg","",""
"null","<div style=""font-size:60px;""> </div>","null","fixation","html-keyboard-response","335","1391651","0.0-6.0-0.47","3890458","co38470","norming","","","","","","",""
"null","../img/tt/063tt.jpg","null","mooney1","image-keyboard-response","336","1394665","0.0-6.0-1.47","3890458","co38470","norming","","","","","","",""
"4021.8549999408424","","","post_mooney1_questions","survey-likert","337","1398690","0.0-6.0-2.47","3890458","co38470","norming","","","{""curiosity"":5,""confidence"":2}","[0,1]","../img/tt/063tt.jpg","",""
"2511.5099999820814","","","recognition","survey-text","338","1401239","0.0-6.0-3.47","3890458","co38470","norming","","","{""guess"":""computer""}","","../img/tt/063tt.jpg","",""
"null","../img/gs/063gs.jpg","null","reveal","image-keyboard-response","339","1403256","0.0-6.0-4.47","3890458","co38470","norming","","","","","","",""
"null","../img/tt/063tt.jpg","null","mooney2","image-keyboard-response","340","1405262","0.0-6.0-5.47","3890458","co38470","norming","","","","","","",""
"2456.8350000772625","","","post_reveal_questions","survey-likert","341","1407722","0.0-6.0-6.47","3890458","co38470","norming","","","{""aha"":6}","[0]","../img/tt/063tt.jpg","",""
"null","<div style=""font-size:60px;""> </div>","null","fixation","html-keyboard-response","342","1407965","0.0-6.0-0.48","3890458","co38470","norming","","","","","","",""
"null","../img/tt/436tt.jpg","null","mooney1","image-keyboard-response","343","1410982","0.0-6.0-1.48","3890458","co38470","norming","","","","","","",""
"4260.75499993749","","","post_mooney1_questions","survey-likert","344","1415247","0.0-6.0-2.48","3890458","co38470","norming","","","{""curiosity"":5,""confidence"":1}","[0,1]","../img/tt/436tt.jpg","",""
"2021.7049999628216","","","recognition","survey-text","345","1417305","0.0-6.0-3.48","3890458","co38470","norming","","","{""guess"":""ribben""}","","../img/tt/436tt.jpg","",""
"null","../img/gs/436gs.jpg","null","reveal","image-keyboard-response","346","1419311","0.0-6.0-4.48","3890458","co38470","norming","","","","","","",""
"null","../img/tt/436tt.jpg","null","mooney2","image-keyboard-response","347","1421315","0.0-6.0-5.48","3890458","co38470","norming","","","","","","",""
"2795.1100000645965","","","post_reveal_questions","survey-likert","348","1424114","0.0-6.0-6.48","3890458","co38470","norming","","","{""aha"":6}","[0]","../img/tt/436tt.jpg","",""
"null","<div style=""font-size:60px;""> </div>","null","fixation","html-keyboard-response","349","1424348","0.0-6.0-0.49","3890458","co38470","norming","","","","","","",""
"null","../img/tt/1127tt.jpg","null","mooney1","image-keyboard-response","350","1427364","0.0-6.0-1.49","3890458","co38470","norming","","","","","","",""
"4677.669999888167","","","post_mooney1_questions","survey-likert","351","1432045","0.0-6.0-2.49","3890458","co38470","norming","","","{""curiosity"":5,""confidence"":2}","[0,1]","../img/tt/1127tt.jpg","",""
"2642.725000041537","","","recognition","survey-text","352","1434728","0.0-6.0-3.49","3890458","co38470","norming","","","{""guess"":""caf""}","","../img/tt/1127tt.jpg","",""
"null","../img/gs/1127gs.jpg","null","reveal","image-keyboard-response","353","1436744","0.0-6.0-4.49","3890458","co38470","norming","","","","","","",""
"null","../img/tt/1127tt.jpg","null","mooney2","image-keyboard-response","354","1438761","0.0-6.0-5.49","3890458","co38470","norming","","","","","","",""
"3111.864999984391","","","post_reveal_questions","survey-likert","355","1441877","0.0-6.0-6.49","3890458","co38470","norming","","","{""aha"":6}","[0]","../img/tt/1127tt.jpg","",""
"null","<div style=""font-size:60px;""> </div>","null","fixation","html-keyboard-response","356","1442113","0.0-6.0-0.50","3890458","co38470","norming","","","","","","",""
"null","../img/tt/497tt.jpg","null","mooney1","image-keyboard-response","357","1445128","0.0-6.0-1.50","3890458","co38470","norming","","","","","","",""
"4667.320000007749","","","post_mooney1_questions","survey-likert","358","1449799","0.0-6.0-2.50","3890458","co38470","norming","","","{""curiosity"":5,""confidence"":2}","[0,1]","../img/tt/497tt.jpg","",""
"1943.8699999591336","","","recognition","survey-text","359","1451777","0.0-6.0-3.50","3890458","co38470","norming","","","{""guess"":""klok""}","","../img/tt/497tt.jpg","",""
"null","../img/gs/497gs.jpg","null","reveal","image-keyboard-response","360","1453797","0.0-6.0-4.50","3890458","co38470","norming","","","","","","",""
"null","../img/tt/497tt.jpg","null","mooney2","image-keyboard-response","361","1455810","0.0-6.0-5.50","3890458","co38470","norming","","","","","","",""
"2841.3500000024214","","","post_reveal_questions","survey-likert","362","1458654","0.0-6.0-6.50","3890458","co38470","norming","","","{""aha"":6}","[0]","../img/tt/497tt.jpg","",""
"null","<div style=""font-size:60px;""> </div>","null","fixation","html-keyboard-response","363","1458884","0.0-6.0-0.51","3890458","co38470","norming","","","","","","",""
"null","../img/tt/1242tt.jpg","null","mooney1","image-keyboard-response","364","1461895","0.0-6.0-1.51","3890458","co38470","norming","","","","","","",""
"8062.180000008084","","","post_mooney1_questions","survey-likert","365","1469961","0.0-6.0-2.51","3890458","co38470","norming","","","{""curiosity"":5,""confidence"":1}","[0,1]","../img/tt/1242tt.jpg","",""
"3485.510000027716","","","recognition","survey-text","366","1473479","0.0-6.0-3.51","3890458","co38470","norming","","","{""guess"":""salamander""}","","../img/tt/1242tt.jpg","",""
"null","../img/gs/1242gs.jpg","null","reveal","image-keyboard-response","367","1475484","0.0-6.0-4.51","3890458","co38470","norming","","","","","","",""
"null","../img/tt/1242tt.jpg","null","mooney2","image-keyboard-response","368","1477494","0.0-6.0-5.51","3890458","co38470","norming","","","","","","",""
"3975.9700000286102","","","post_reveal_questions","survey-likert","369","1481474","0.0-6.0-6.51","3890458","co38470","norming","","","{""aha"":6}","[0]","../img/tt/1242tt.jpg","",""
"null","<div style=""font-size:60px;""> </div>","null","fixation","html-keyboard-response","370","1481710","0.0-6.0-0.52","3890458","co38470","norming","","","","","","",""
"null","../img/tt/040tt.jpg","null","mooney1","image-keyboard-response","371","1484729","0.0-6.0-1.52","3890458","co38470","norming","","","","","","",""
"5165.760000003502","","","post_mooney1_questions","survey-likert","372","1489898","0.0-6.0-2.52","3890458","co38470","norming","","","{""curiosity"":5,""confidence"":1}","[0,1]","../img/tt/040tt.jpg","",""
"4631.745000020601","","","recognition","survey-text","373","1494561","0.0-6.0-3.52","3890458","co38470","norming","","","{""guess"":""wolf""}","","../img/tt/040tt.jpg","",""
"null","../img/gs/040gs.jpg","null","reveal","image-keyboard-response","374","1496579","0.0-6.0-4.52","3890458","co38470","norming","","","","","","",""
"null","../img/tt/040tt.jpg","null","mooney2","image-keyboard-response","375","1498591","0.0-6.0-5.52","3890458","co38470","norming","","","","","","",""
"2129.450000007637","","","post_reveal_questions","survey-likert","376","1500724","0.0-6.0-6.52","3890458","co38470","norming","","","{""aha"":6}","[0]","../img/tt/040tt.jpg","",""
"null","<div style=""font-size:60px;""> </div>","null","fixation","html-keyboard-response","377","1500965","0.0-6.0-0.53","3890458","co38470","norming","","","","","","",""
"null","../img/tt/1091tt.jpg","null","mooney1","image-keyboard-response","378","1503980","0.0-6.0-1.53","3890458","co38470","norming","","","","","","",""
"6510.499999974854","","","post_mooney1_questions","survey-likert","379","1510494","0.0-6.0-2.53","3890458","co38470","norming","","","{""curiosity"":2,""confidence"":4}","[0,1]","../img/tt/1091tt.jpg","",""
"1657.454999978654","","","recognition","survey-text","380","1512198","0.0-6.0-3.53","3890458","co38470","norming","","","{""guess"":""paard""}","","../img/tt/1091tt.jpg","",""
"null","../img/gs/1091gs.jpg","null","reveal","image-keyboard-response","381","1514204","0.0-6.0-4.53","3890458","co38470","norming","","","","","","",""
"null","../img/tt/1091tt.jpg","null","mooney2","image-keyboard-response","382","1516208","0.0-6.0-5.53","3890458","co38470","norming","","","","","","",""
"3148.119999910705","","","post_reveal_questions","survey-likert","383","1519358","0.0-6.0-6.53","3890458","co38470","norming","","","{""aha"":3}","[0]","../img/tt/1091tt.jpg","",""
"null","<div style=""font-size:60px;""> </div>","null","fixation","html-keyboard-response","384","1519594","0.0-6.0-0.54","3890458","co38470","norming","","","","","","",""
"null","../img/tt/1227tt.jpg","null","mooney1","image-keyboard-response","385","1522638","0.0-6.0-1.54","3890458","co38470","norming","","","","","","",""
"8835.220000008121","","","post_mooney1_questions","survey-likert","386","1531476","0.0-6.0-2.54","3890458","co38470","norming","","","{""curiosity"":5,""confidence"":1}","[0,1]","../img/tt/1227tt.jpg","",""
"2344.5650000358","","","recognition","survey-text","387","1533856","0.0-6.0-3.54","3890458","co38470","norming","","","{""guess"":""koeien""}","","../img/tt/1227tt.jpg","",""
"null","../img/gs/1227gs.jpg","null","reveal","image-keyboard-response","388","1535873","0.0-6.0-4.54","3890458","co38470","norming","","","","","","",""
"null","../img/tt/1227tt.jpg","null","mooney2","image-keyboard-response","389","1537877","0.0-6.0-5.54","3890458","co38470","norming","","","","","","",""
"3705.004999996163","","","post_reveal_questions","survey-likert","390","1541586","0.0-6.0-6.54","3890458","co38470","norming","","","{""aha"":6}","[0]","../img/tt/1227tt.jpg","",""
"null","<div style=""font-size:60px;""> </div>","null","fixation","html-keyboard-response","391","1541829","0.0-6.0-0.55","3890458","co38470","norming","","","","","","",""
"null","../img/tt/406tt.jpg","null","mooney1","image-keyboard-response","392","1544840","0.0-6.0-1.55","3890458","co38470","norming","","","","","","",""
"8669.80000003241","","","post_mooney1_questions","survey-likert","393","1553513","0.0-6.0-2.55","3890458","co38470","norming","","","{""curiosity"":6,""confidence"":0}","[0,1]","../img/tt/406tt.jpg","",""
"324.37500008381903","","","recognition","survey-text","394","1553871","0.0-6.0-3.55","3890458","co38470","norming","","","{""guess"":""""}","","../img/tt/406tt.jpg","",""
"null","../img/gs/406gs.jpg","null","reveal","image-keyboard-response","395","1555893","0.0-6.0-4.55","3890458","co38470","norming","","","","","","",""
"null","../img/tt/406tt.jpg","null","mooney2","image-keyboard-response","396","1557905","0.0-6.0-5.55","3890458","co38470","norming","","","","","","",""
"2553.814999992028","","","post_reveal_questions","survey-likert","397","1560462","0.0-6.0-6.55","3890458","co38470","norming","","","{""aha"":6}","[0]","../img/tt/406tt.jpg","",""
"null","<div style=""font-size:60px;""> </div>","null","fixation","html-keyboard-response","398","1560693","0.0-6.0-0.56","3890458","co38470","norming","","","","","","",""
"null","../img/tt/353tt.jpg","null","mooney1","image-keyboard-response","399","1563709","0.0-6.0-1.56","3890458","co38470","norming","","","","","","",""
"4085.6149999890476","","","post_mooney1_questions","survey-likert","400","1567798","0.0-6.0-2.56","3890458","co38470","norming","","","{""curiosity"":6,""confidence"":0}","[0,1]","../img/tt/353tt.jpg","",""
"539.2600001068786","","","recognition","survey-text","401","1568370","0.0-6.0-3.56","3890458","co38470","norming","","","{""guess"":""""}","","../img/tt/353tt.jpg","",""
"null","../img/gs/353gs.jpg","null","reveal","image-keyboard-response","402","1570388","0.0-6.0-4.56","3890458","co38470","norming","","","","","","",""
"null","../img/tt/353tt.jpg","null","mooney2","image-keyboard-response","403","1572406","0.0-6.0-5.56","3890458","co38470","norming","","","","","","",""
"2592.65999996569","","","post_reveal_questions","survey-likert","404","1575002","0.0-6.0-6.56","3890458","co38470","norming","","","{""aha"":6}","[0]","../img/tt/353tt.jpg","",""
"null","<div style=""font-size:60px;""> </div>","null","fixation","html-keyboard-response","405","1575244","0.0-6.0-0.57","3890458","co38470","norming","","","","","","",""
"null","../img/tt/357tt.jpg","null","mooney1","image-keyboard-response","406","1578259","0.0-6.0-1.57","3890458","co38470","norming","","","","","","",""
"13364.590000011958","","","post_mooney1_questions","survey-likert","407","1591628","0.0-6.0-2.57","3890458","co38470","norming","","","{""curiosity"":5,""confidence"":1}","[0,1]","../img/tt/357tt.jpg","",""
"1474.5499999262393","","","recognition","survey-text","408","1593140","0.0-6.0-3.57","3890458","co38470","norming","","","{""guess"":""hond""}","","../img/tt/357tt.jpg","",""
"null","../img/gs/357gs.jpg","null","reveal","image-keyboard-response","409","1595155","0.0-6.0-4.57","3890458","co38470","norming","","","","","","",""
"null","../img/tt/357tt.jpg","null","mooney2","image-keyboard-response","410","1597170","0.0-6.0-5.57","3890458","co38470","norming","","","","","","",""
"2396.420000004582","","","post_reveal_questions","survey-likert","411","1599570","0.0-6.0-6.57","3890458","co38470","norming","","","{""aha"":6}","[0]","../img/tt/357tt.jpg","",""
"null","<div style=""font-size:60px;""> </div>","null","fixation","html-keyboard-response","412","1599807","0.0-6.0-0.58","3890458","co38470","norming","","","","","","",""
"null","../img/tt/1278tt.jpg","null","mooney1","image-keyboard-response","413","1602814","0.0-6.0-1.58","3890458","co38470","norming","","","","","","",""
"4605.089999968186","","","post_mooney1_questions","survey-likert","414","1607424","0.0-6.0-2.58","3890458","co38470","norming","","","{""curiosity"":5,""confidence"":1}","[0,1]","../img/tt/1278tt.jpg","",""
"1894.9649999849498","","","recognition","survey-text","415","1609351","0.0-6.0-3.58","3890458","co38470","norming","","","{""guess"":""land""}","","../img/tt/1278tt.jpg","",""
"null","../img/gs/1278gs.jpg","null","reveal","image-keyboard-response","416","1611366","0.0-6.0-4.58","3890458","co38470","norming","","","","","","",""
"null","../img/tt/1278tt.jpg","null","mooney2","image-keyboard-response","417","1613379","0.0-6.0-5.58","3890458","co38470","norming","","","","","","",""
"3546.944999950938","","","post_reveal_questions","survey-likert","418","1616927","0.0-6.0-6.58","3890458","co38470","norming","","","{""aha"":6}","[0]","../img/tt/1278tt.jpg","",""
"null","<div style=""font-size:60px;""> </div>","null","fixation","html-keyboard-response","419","1617170","0.0-6.0-0.59","3890458","co38470","norming","","","","","","",""
"null","../img/tt/524tt.jpg","null","mooney1","image-keyboard-response","420","1620182","0.0-6.0-1.59","3890458","co38470","norming","","","","","","",""
"6356.324999942444","","","post_mooney1_questions","survey-likert","421","1626542","0.0-6.0-2.59","3890458","co38470","norming","","","{""curiosity"":5,""confidence"":2}","[0,1]","../img/tt/524tt.jpg","",""
"2930.244999937713","","","recognition","survey-text","422","1629510","0.0-6.0-3.59","3890458","co38470","norming","","","{""guess"":""kalkoen""}","","../img/tt/524tt.jpg","",""
"null","../img/gs/524gs.jpg","null","reveal","image-keyboard-response","423","1631517","0.0-6.0-4.59","3890458","co38470","norming","","","","","","",""
"null","../img/tt/524tt.jpg","null","mooney2","image-keyboard-response","424","1633533","0.0-6.0-5.59","3890458","co38470","norming","","","","","","",""
"3155.284999986179","","","post_reveal_questions","survey-likert","425","1636691","0.0-6.0-6.59","3890458","co38470","norming","","","{""aha"":5}","[0]","../img/tt/524tt.jpg","",""
"null","<div style=""font-size:60px;""> </div>","null","fixation","html-keyboard-response","426","1636920","0.0-6.0-0.60","3890458","co38470","norming","","","","","","",""
"null","../img/tt/1235tt.jpg","null","mooney1","image-keyboard-response","427","1639990","0.0-6.0-1.60","3890458","co38470","norming","","","","","","",""
"5627.089999965392","","","post_mooney1_questions","survey-likert","428","1645620","0.0-6.0-2.60","3890458","co38470","norming","","","{""curiosity"":5,""confidence"":1}","[0,1]","../img/tt/1235tt.jpg","",""
"1485.4599999962375","","","recognition","survey-text","429","1647141","0.0-6.0-3.60","3890458","co38470","norming","","","{""guess"":""pasta""}","","../img/tt/1235tt.jpg","",""
"null","../img/gs/1235gs.jpg","null","reveal","image-keyboard-response","430","1649150","0.0-6.0-4.60","3890458","co38470","norming","","","","","","",""
"null","../img/tt/1235tt.jpg","null","mooney2","image-keyboard-response","431","1651153","0.0-6.0-5.60","3890458","co38470","norming","","","","","","",""
"2716.6299999225885","","","post_reveal_questions","survey-likert","432","1653873","0.0-6.0-6.60","3890458","co38470","norming","","","{""aha"":6}","[0]","../img/tt/1235tt.jpg","",""
"null","<div style=""font-size:60px;""> </div>","null","fixation","html-keyboard-response","433","1654102","0.0-6.0-0.61","3890458","co38470","norming","","","","","","",""
"null","../img/tt/1128tt.jpg","null","mooney1","image-keyboard-response","434","1657119","0.0-6.0-1.61","3890458","co38470","norming","","","","","","",""
"8064.149999991059","","","post_mooney1_questions","survey-likert","435","1665187","0.0-6.0-2.61","3890458","co38470","norming","","","{""curiosity"":6,""confidence"":0}","[0,1]","../img/tt/1128tt.jpg","",""
"561.7299999576062","","","recognition","survey-text","436","1665783","0.0-6.0-3.61","3890458","co38470","norming","","","{""guess"":""""}","","../img/tt/1128tt.jpg","",""
"null","../img/gs/1128gs.jpg","null","reveal","image-keyboard-response","437","1667798","0.0-6.0-4.61","3890458","co38470","norming","","","","","","",""
"null","../img/tt/1128tt.jpg","null","mooney2","image-keyboard-response","438","1669829","0.0-6.0-5.61","3890458","co38470","norming","","","","","","",""
"2509.0049999998882","","","post_reveal_questions","survey-likert","439","1672341","0.0-6.0-6.61","3890458","co38470","norming","","","{""aha"":6}","[0]","../img/tt/1128tt.jpg","",""
"null","<div style=""font-size:60px;""> </div>","null","fixation","html-keyboard-response","440","1672584","0.0-6.0-0.62","3890458","co38470","norming","","","","","","",""
"null","../img/tt/1122tt.jpg","null","mooney1","image-keyboard-response","441","1675599","0.0-6.0-1.62","3890458","co38470","norming","","","","","","",""
"4835.175000014715","","","post_mooney1_questions","survey-likert","442","1680441","0.0-6.0-2.62","3890458","co38470","norming","","","{""curiosity"":5,""confidence"":1}","[0,1]","../img/tt/1122tt.jpg","",""
"2633.6649999720976","","","recognition","survey-text","443","1683128","0.0-6.0-3.62","3890458","co38470","norming","","","{""guess"":""winkel""}","","../img/tt/1122tt.jpg","",""
"null","../img/gs/1122gs.jpg","null","reveal","image-keyboard-response","444","1685135","0.0-6.0-4.62","3890458","co38470","norming","","","","","","",""
"null","../img/tt/1122tt.jpg","null","mooney2","image-keyboard-response","445","1687149","0.0-6.0-5.62","3890458","co38470","norming","","","","","","",""
"4226.120000006631","","","post_reveal_questions","survey-likert","446","1691379","0.0-6.0-6.62","3890458","co38470","norming","","","{""aha"":6}","[0]","../img/tt/1122tt.jpg","",""
"null","<div style=""font-size:60px;""> </div>","null","fixation","html-keyboard-response","447","1691617","0.0-6.0-0.63","3890458","co38470","norming","","","","","","",""
"null","../img/tt/1037tt.jpg","null","mooney1","image-keyboard-response","448","1694636","0.0-6.0-1.63","3890458","co38470","norming","","","","","","",""
"10613.000000012107","","","post_mooney1_questions","survey-likert","449","1705252","0.0-6.0-2.63","3890458","co38470","norming","","","{""curiosity"":5,""confidence"":1}","[0,1]","../img/tt/1037tt.jpg","",""
"6601.300000096671","","","recognition","survey-text","450","1711891","0.0-6.0-3.63","3890458","co38470","norming","","","{""guess"":""kuiken""}","","../img/tt/1037tt.jpg","",""
"null","../img/gs/1037gs.jpg","null","reveal","image-keyboard-response","451","1713906","0.0-6.0-4.63","3890458","co38470","norming","","","","","","",""
"null","../img/tt/1037tt.jpg","null","mooney2","image-keyboard-response","452","1715913","0.0-6.0-5.63","3890458","co38470","norming","","","","","","",""
"3829.1149999713525","","","post_reveal_questions","survey-likert","453","1719746","0.0-6.0-6.63","3890458","co38470","norming","","","{""aha"":6}","[0]","../img/tt/1037tt.jpg","",""
"null","<div style=""font-size:60px;""> </div>","null","fixation","html-keyboard-response","454","1719983","0.0-6.0-0.64","3890458","co38470","norming","","","","","","",""
"null","../img/tt/438tt.jpg","null","mooney1","image-keyboard-response","455","1723002","0.0-6.0-1.64","3890458","co38470","norming","","","","","","",""
"4095.574999926612","","","post_mooney1_questions","survey-likert","456","1727102","0.0-6.0-2.64","3890458","co38470","norming","","","{""curiosity"":5,""confidence"":1}","[0,1]","../img/tt/438tt.jpg","",""
"5650.724999955855","","","recognition","survey-text","457","1732807","0.0-6.0-3.64","3890458","co38470","norming","","","{""guess"":""salamander""}","","../img/tt/438tt.jpg","",""
"null","../img/gs/438gs.jpg","null","reveal","image-keyboard-response","458","1734815","0.0-6.0-4.64","3890458","co38470","norming","","","","","","",""
"null","../img/tt/438tt.jpg","null","mooney2","image-keyboard-response","459","1736829","0.0-6.0-5.64","3890458","co38470","norming","","","","","","",""
"2909.070000052452","","","post_reveal_questions","survey-likert","460","1739741","0.0-6.0-6.64","3890458","co38470","norming","","","{""aha"":6}","[0]","../img/tt/438tt.jpg","",""
"null","<div style=""font-size:60px;""> </div>","null","fixation","html-keyboard-response","461","1739981","0.0-6.0-0.65","3890458","co38470","norming","","","","","","",""
"null","../img/tt/124tt.jpg","null","mooney1","image-keyboard-response","462","1742999","0.0-6.0-1.65","3890458","co38470","norming","","","","","","",""
"5511.159999994561","","","post_mooney1_questions","survey-likert","463","1748514","0.0-6.0-2.65","3890458","co38470","norming","","","{""curiosity"":4,""confidence"":2}","[0,1]","../img/tt/124tt.jpg","",""
"1126.8749999580905","","","recognition","survey-text","464","1749677","0.0-6.0-3.65","3890458","co38470","norming","","","{""guess"":""aap""}","","../img/tt/124tt.jpg","",""
"null","../img/gs/124gs.jpg","null","reveal","image-keyboard-response","465","1751697","0.0-6.0-4.65","3890458","co38470","norming","","","","","","",""
"null","../img/tt/124tt.jpg","null","mooney2","image-keyboard-response","466","1753711","0.0-6.0-5.65","3890458","co38470","norming","","","","","","",""
"4333.285000058822","","","post_reveal_questions","survey-likert","467","1758048","0.0-6.0-6.65","3890458","co38470","norming","","","{""aha"":3}","[0]","../img/tt/124tt.jpg","",""
"null","<div style=""font-size:60px;""> </div>","null","fixation","html-keyboard-response","468","1758281","0.0-6.0-0.66","3890458","co38470","norming","","","","","","",""
"null","../img/tt/079tt.jpg","null","mooney1","image-keyboard-response","469","1761297","0.0-6.0-1.66","3890458","co38470","norming","","","","","","",""
"3959.0750000206754","","","post_mooney1_questions","survey-likert","470","1765260","0.0-6.0-2.66","3890458","co38470","norming","","","{""curiosity"":3,""confidence"":3}","[0,1]","../img/tt/079tt.jpg","",""
"1133.5149999940768","","","recognition","survey-text","471","1766429","0.0-6.0-3.66","3890458","co38470","norming","","","{""guess"":""beer""}","","../img/tt/079tt.jpg","",""
"null","../img/gs/079gs.jpg","null","reveal","image-keyboard-response","472","1768450","0.0-6.0-4.66","3890458","co38470","norming","","","","","","",""
"null","../img/tt/079tt.jpg","null","mooney2","image-keyboard-response","473","1770462","0.0-6.0-5.66","3890458","co38470","norming","","","","","","",""
"3356.4349999651313","","","post_reveal_questions","survey-likert","474","1773821","0.0-6.0-6.66","3890458","co38470","norming","","","{""aha"":2}","[0]","../img/tt/079tt.jpg","",""
"null","<div style=""font-size:60px;""> </div>","null","fixation","html-keyboard-response","475","1774063","0.0-6.0-0.67","3890458","co38470","norming","","","","","","",""
"null","../img/tt/405tt.jpg","null","mooney1","image-keyboard-response","476","1777080","0.0-6.0-1.67","3890458","co38470","norming","","","","","","",""
"6281.704999972135","","","post_mooney1_questions","survey-likert","477","1783366","0.0-6.0-2.67","3890458","co38470","norming","","","{""curiosity"":3,""confidence"":3}","[0,1]","../img/tt/405tt.jpg","",""
"1406.554999994114","","","recognition","survey-text","478","1784807","0.0-6.0-3.67","3890458","co38470","norming","","","{""guess"":""koala""}","","../img/tt/405tt.jpg","",""
"null","../img/gs/405gs.jpg","null","reveal","image-keyboard-response","479","1786814","0.0-6.0-4.67","3890458","co38470","norming","","","","","","",""
"null","../img/tt/405tt.jpg","null","mooney2","image-keyboard-response","480","1788826","0.0-6.0-5.67","3890458","co38470","norming","","","","","","",""
"3589.3649999052286","","","post_reveal_questions","survey-likert","481","1792419","0.0-6.0-6.67","3890458","co38470","norming","","","{""aha"":2}","[0]","../img/tt/405tt.jpg","",""
"null","<div style=""font-size:60px;""> </div>","null","fixation","html-keyboard-response","482","1792665","0.0-6.0-0.68","3890458","co38470","norming","","","","","","",""
"null","../img/tt/056tt.jpg","null","mooney1","image-keyboard-response","483","1795678","0.0-6.0-1.68","3890458","co38470","norming","","","","","","",""
"12733.074999996461","","","post_mooney1_questions","survey-likert","484","1808413","0.0-6.0-2.68","3890458","co38470","norming","","","{""curiosity"":6,""confidence"":0}","[0,1]","../img/tt/056tt.jpg","",""
"634.1049999464303","","","recognition","survey-text","485","1809080","0.0-6.0-3.68","3890458","co38470","norming","","","{""guess"":""""}","","../img/tt/056tt.jpg","",""
"null","../img/gs/056gs.jpg","null","reveal","image-keyboard-response","486","1811099","0.0-6.0-4.68","3890458","co38470","norming","","","","","","",""
"null","../img/tt/056tt.jpg","null","mooney2","image-keyboard-response","487","1813109","0.0-6.0-5.68","3890458","co38470","norming","","","","","","",""
"2980.20499991253","","","post_reveal_questions","survey-likert","488","1816092","0.0-6.0-6.68","3890458","co38470","norming","","","{""aha"":6}","[0]","../img/tt/056tt.jpg","",""
"null","<div style=""font-size:60px;""> </div>","null","fixation","html-keyboard-response","489","1816338","0.0-6.0-0.69","3890458","co38470","norming","","","","","","",""
"null","../img/tt/1087tt.jpg","null","mooney1","image-keyboard-response","490","1819356","0.0-6.0-1.69","3890458","co38470","norming","","","","","","",""
"3004.865000024438","","","post_mooney1_questions","survey-likert","491","1822365","0.0-6.0-2.69","3890458","co38470","norming","","","{""curiosity"":5,""confidence"":1}","[0,1]","../img/tt/1087tt.jpg","",""
"3936.695000040345","","","recognition","survey-text","492","1826335","0.0-6.0-3.69","3890458","co38470","norming","","","{""guess"":""lammetje""}","","../img/tt/1087tt.jpg","",""
"null","../img/gs/1087gs.jpg","null","reveal","image-keyboard-response","493","1828340","0.0-6.0-4.69","3890458","co38470","norming","","","","","","",""
"null","../img/tt/1087tt.jpg","null","mooney2","image-keyboard-response","494","1830363","0.0-6.0-5.69","3890458","co38470","norming","","","","","","",""
"3660.6400000164285","","","post_reveal_questions","survey-likert","495","1834027","0.0-6.0-6.69","3890458","co38470","norming","","","{""aha"":4}","[0]","../img/tt/1087tt.jpg","",""
"null","<div style=""font-size:60px;""> </div>","null","fixation","html-keyboard-response","496","1834259","0.0-6.0-0.70","3890458","co38470","norming","","","","","","",""
"null","../img/tt/1027tt.jpg","null","mooney1","image-keyboard-response","497","1837262","0.0-6.0-1.70","3890458","co38470","norming","","","","","","",""
"10598.70500001125","","","post_mooney1_questions","survey-likert","498","1847865","0.0-6.0-2.70","3890458","co38470","norming","","","{""curiosity"":4,""confidence"":3}","[0,1]","../img/tt/1027tt.jpg","",""
"1066.3500000955537","","","recognition","survey-text","499","1848972","0.0-6.0-3.70","3890458","co38470","norming","","","{""guess"":""koe""}","","../img/tt/1027tt.jpg","",""
"null","../img/gs/1027gs.jpg","null","reveal","image-keyboard-response","500","1850987","0.0-6.0-4.70","3890458","co38470","norming","","","","","","",""
"null","../img/tt/1027tt.jpg","null","mooney2","image-keyboard-response","501","1853004","0.0-6.0-5.70","3890458","co38470","norming","","","","","","",""
"3410.6050000991672","","","post_reveal_questions","survey-likert","502","1856418","0.0-6.0-6.70","3890458","co38470","norming","","","{""aha"":2}","[0]","../img/tt/1027tt.jpg","",""
"null","<div style=""font-size:60px;""> </div>","null","fixation","html-keyboard-response","503","1856657","0.0-6.0-0.71","3890458","co38470","norming","","","","","","",""
"null","../img/tt/1175tt.jpg","null","mooney1","image-keyboard-response","504","1859674","0.0-6.0-1.71","3890458","co38470","norming","","","","","","",""
"5778.590000001714","","","post_mooney1_questions","survey-likert","505","1865457","0.0-6.0-2.71","3890458","co38470","norming","","","{""curiosity"":5,""confidence"":1}","[0,1]","../img/tt/1175tt.jpg","",""
"1778.954999987036","","","recognition","survey-text","506","1867273","0.0-6.0-3.71","3890458","co38470","norming","","","{""guess"":""muizen""}","","../img/tt/1175tt.jpg","",""
"null","../img/gs/1175gs.jpg","null","reveal","image-keyboard-response","507","1869290","0.0-6.0-4.71","3890458","co38470","norming","","","","","","",""
"null","../img/tt/1175tt.jpg","null","mooney2","image-keyboard-response","508","1871307","0.0-6.0-5.71","3890458","co38470","norming","","","","","","",""
"2636.090000043623","","","post_reveal_questions","survey-likert","509","1873946","0.0-6.0-6.71","3890458","co38470","norming","","","{""aha"":6}","[0]","../img/tt/1175tt.jpg","",""
"null","<div style=""font-size:60px;""> </div>","null","fixation","html-keyboard-response","510","1874190","0.0-6.0-0.72","3890458","co38470","norming","","","","","","",""
"null","../img/tt/184tt.jpg","null","mooney1","image-keyboard-response","511","1877208","0.0-6.0-1.72","3890458","co38470","norming","","","","","","",""
"7451.424999977462","","","post_mooney1_questions","survey-likert","512","1884662","0.0-6.0-2.72","3890458","co38470","norming","","","{""curiosity"":5,""confidence"":1}","[0,1]","../img/tt/184tt.jpg","",""
"3775.915000005625","","","recognition","survey-text","513","1888472","0.0-6.0-3.72","3890458","co38470","norming","","","{""guess"":""krokodil""}","","../img/tt/184tt.jpg","",""
"null","../img/gs/184gs.jpg","null","reveal","image-keyboard-response","514","1890478","0.0-6.0-4.72","3890458","co38470","norming","","","","","","",""
"null","../img/tt/184tt.jpg","null","mooney2","image-keyboard-response","515","1892488","0.0-6.0-5.72","3890458","co38470","norming","","","","","","",""
"4621.464999974705","","","post_reveal_questions","survey-likert","516","1897112","0.0-6.0-6.72","3890458","co38470","norming","","","{""aha"":6}","[0]","../img/tt/184tt.jpg","",""
"null","<div style=""font-size:60px;""> </div>","null","fixation","html-keyboard-response","517","1897340","0.0-6.0-0.73","3890458","co38470","norming","","","","","","",""
"null","../img/tt/1053tt.jpg","null","mooney1","image-keyboard-response","518","1900358","0.0-6.0-1.73","3890458","co38470","norming","","","","","","",""
"5914.160000043921","","","post_mooney1_questions","survey-likert","519","1906277","0.0-6.0-2.73","3890458","co38470","norming","","","{""curiosity"":5,""confidence"":1}","[0,1]","../img/tt/1053tt.jpg","",""
"1790.995000046678","","","recognition","survey-text","520","1908118","0.0-6.0-3.73","3890458","co38470","norming","","","{""guess"":""tijger""}","","../img/tt/1053tt.jpg","",""
"null","../img/gs/1053gs.jpg","null","reveal","image-keyboard-response","521","1910136","0.0-6.0-4.73","3890458","co38470","norming","","","","","","",""
"null","../img/tt/1053tt.jpg","null","mooney2","image-keyboard-response","522","1912153","0.0-6.0-5.73","3890458","co38470","norming","","","","","","",""
"7141.139999963343","","","post_reveal_questions","survey-likert","523","1919298","0.0-6.0-6.73","3890458","co38470","norming","","","{""aha"":6}","[0]","../img/tt/1053tt.jpg","",""
"null","<div style=""font-size:60px;""> </div>","null","fixation","html-keyboard-response","524","1919542","0.0-6.0-0.74","3890458","co38470","norming","","","","","","",""
"null","../img/tt/468tt.jpg","null","mooney1","image-keyboard-response","525","1922554","0.0-6.0-1.74","3890458","co38470","norming","","","","","","",""
"6498.399999924004","","","post_mooney1_questions","survey-likert","526","1929057","0.0-6.0-2.74","3890458","co38470","norming","","","{""curiosity"":5,""confidence"":1}","[0,1]","../img/tt/468tt.jpg","",""
"49429.80000004172","","","recognition","survey-text","527","1978525","0.0-6.0-3.74","3890458","co38470","norming","","","{""guess"":""waaier""}","","../img/tt/468tt.jpg","",""
"null","../img/gs/468gs.jpg","null","reveal","image-keyboard-response","528","1980532","0.0-6.0-4.74","3890458","co38470","norming","","","","","","",""
"null","../img/tt/468tt.jpg","null","mooney2","image-keyboard-response","529","1982535","0.0-6.0-5.74","3890458","co38470","norming","","","","","","",""
"264019.1900000209","","","post_reveal_questions","survey-likert","530","2246556","0.0-6.0-6.74","3890458","co38470","norming","","","{""aha"":6}","[0]","../img/tt/468tt.jpg","",""
"null","<div style=""font-size:60px;""> </div>","null","fixation","html-keyboard-response","531","2246799","0.0-6.0-0.75","3890458","co38470","norming","","","","","","",""
"null","../img/tt/319tt.jpg","null","mooney1","image-keyboard-response","532","2249805","0.0-6.0-1.75","3890458","co38470","norming","","","","","","",""
"6694.115000078455","","","post_mooney1_questions","survey-likert","533","2256503","0.0-6.0-2.75","3890458","co38470","norming","","","{""curiosity"":2,""confidence"":4}","[0,1]","../img/tt/319tt.jpg","",""
"7045.874999952503","","","recognition","survey-text","534","2263585","0.0-6.0-3.75","3890458","co38470","norming","","","{""guess"":""twee ezels""}","","../img/tt/319tt.jpg","",""
"null","../img/gs/319gs.jpg","null","reveal","image-keyboard-response","535","2265598","0.0-6.0-4.75","3890458","co38470","norming","","","","","","",""
"null","../img/tt/319tt.jpg","null","mooney2","image-keyboard-response","536","2267615","0.0-6.0-5.75","3890458","co38470","norming","","","","","","",""
"6883.874999941327","","","post_reveal_questions","survey-likert","537","2274501","0.0-6.0-6.75","3890458","co38470","norming","","","{""aha"":2}","[0]","../img/tt/319tt.jpg","",""
"null","<div style=""font-size:60px;""> </div>","null","fixation","html-keyboard-response","538","2274735","0.0-6.0-0.76","3890458","co38470","norming","","","","","","",""
"null","../img/tt/1283tt.jpg","null","mooney1","image-keyboard-response","539","2277747","0.0-6.0-1.76","3890458","co38470","norming","","","","","","",""
"4324.795000022277","","","post_mooney1_questions","survey-likert","540","2282076","0.0-6.0-2.76","3890458","co38470","norming","","","{""curiosity"":5,""confidence"":1}","[0,1]","../img/tt/1283tt.jpg","",""
"2747.139999992214","","","recognition","survey-text","541","2284856","0.0-6.0-3.76","3890458","co38470","norming","","","{""guess"":""salamander""}","","../img/tt/1283tt.jpg","",""
"null","../img/gs/1283gs.jpg","null","reveal","image-keyboard-response","542","2286861","0.0-6.0-4.76","3890458","co38470","norming","","","","","","",""
"null","../img/tt/1283tt.jpg","null","mooney2","image-keyboard-response","543","2288877","0.0-6.0-5.76","3890458","co38470","norming","","","","","","",""
"6501.159999985248","","","post_reveal_questions","survey-likert","544","2295382","0.0-6.0-6.76","3890458","co38470","norming","","","{""aha"":6}","[0]","../img/tt/1283tt.jpg","",""
"null","<div style=""font-size:60px;""> </div>","null","fixation","html-keyboard-response","545","2295615","0.0-6.0-0.77","3890458","co38470","norming","","","","","","",""
"null","../img/tt/078tt.jpg","null","mooney1","image-keyboard-response","546","2298629","0.0-6.0-1.77","3890458","co38470","norming","","","","","","",""
"3785.895000095479","","","post_mooney1_questions","survey-likert","547","2302418","0.0-6.0-2.77","3890458","co38470","norming","","","{""curiosity"":5,""confidence"":1}","[0,1]","../img/tt/078tt.jpg","",""
"1480.8349999366328","","","recognition","survey-text","548","2303932","0.0-6.0-3.77","3890458","co38470","norming","","","{""guess"":""bes""}","","../img/tt/078tt.jpg","",""
"null","../img/gs/078gs.jpg","null","reveal","image-keyboard-response","549","2305950","0.0-6.0-4.77","3890458","co38470","norming","","","","","","",""
"null","../img/tt/078tt.jpg","null","mooney2","image-keyboard-response","550","2307953","0.0-6.0-5.77","3890458","co38470","norming","","","","","","",""
"2640.3550000395626","","","post_reveal_questions","survey-likert","551","2310598","0.0-6.0-6.77","3890458","co38470","norming","","","{""aha"":5}","[0]","../img/tt/078tt.jpg","",""
