"rt","stimulus","key_press","test_part","trial_type","trial_index","time_elapsed","internal_node_id","totalTime","subject","experiment_name","button_pressed","success","responses","question_order","currentStim","old","correct"
"11325.434999991558","Welcome to the experiment. This is an online experiment so please don't close the tab/window until we say goodbye.  Press any key to begin.","32","instructions","html-keyboard-response","0","11330","0.0-0.0","2803133","co38176","norming","","","","","","",""
"46390.739999988","<div style='word-wrap: break-word; width: 900px'><h3>Please consider this information carefully before deciding whether to participate in this research</h3><ul style='text-align: left; font-size: .8em;'><li><b>Purpose of the research</b>: To examine how people process images.</li><li><b>What you will do in this research</b>:  Stimuli (images) will be presented on the computer and you will be asked different questions about them.</li><li><b>Time required</b>: Participation will take between 45 and 60 minutes to complete.</li><li><b>Risks</b>:  There are no anticipated risks associated with participating in this study. The effects of participating should be comparable to those you would experience from viewing a computer monitor for 30 minutes and using a mouse or keyboard.</li><li><b>Benefits</b>:  This study provides no benefits to you individually except for the credit. The study provides important information about the nature of perception and learning.</li><li><b>Confidentiality</b>:  Your participation in this study will remain confidential. No personally identifiable information will be associated with your data. Your de-identified data may be shared with other researchers and used in future projects.</li><li><b>Participation and withdrawal</b>:  Your participation in this study is completely voluntary and you may refuse to participate or you may choose to withdraw at any time without penalty.</li><li><b>How to contact the researchers</b>: If you have questions or concerns about your participation or payment, or want to request a summary of research findings, please contact Sander Van de Cruys (KU Leuven), at sander.vandecruys@kuleuven.be.</li></ul><p>The nature and purpose of this research have been sufficiently explained and I agree to participate in this study.  I understand that I am free to withdraw at any time without incurring any penalty.</p><p>Please consent by clicking the button below to continue. Otherwise, please exit the study at this time.</p></div>","","instructions","html-button-response","1","57722","0.0-1.0","2803133","co38176","norming","0","","","","","",""
"","","","instructions","fullscreen","2","66757","0.0-2.0","2803133","co38176","norming","","true","","","","",""
"27581.72000000195","","","sona","survey-html-form","3","94341","0.0-3.0","2803133","co38176","norming","","","[{""name"":""sonaid"",""value"":""38176""},{""name"":""debrief"",""value"":""yes""},{""name"":""datajoin"",""value"":""yes""}]","","","",""
"86567.28999999177","<div style='word-wrap: break-word; width: 900px'><h3>Instructions</h3><p>This experiment will have 3 parts. In the first part you will see a series of distorted images like the one below on the left. As you can see in the righthand image, the distorted images are derived from actual photographs. In what follows, you will <strong>briefly</strong> be presented with <strong>only</strong> the distorted image.</p> <div style='float: left; margin-right: 20px;'><img src='../img/018tt.jpg' height='250' width='250'></img></div><div style='float: right; margin-left: 20px;'><img src='../img/018gs.jpg' height='250' width='250'></img></div><p>Subsequently you will be asked a few questions about the image: One question on how <strong>curious</strong> you are about the solution and one on how <strong>confident</strong> you are that you know the solution.</p>Next, we ask you to make a guess on what is in the image. Note that it is OK to name just the <strong>basic level category</strong>. For example when you see a parrot in the image, 'parrot' will obviously be a correct answer but also correct is 'bird'. However, 'animal' will <strong>not</strong> be counted as a correct response. For the example above, 'rose' would be correct or 'flower', but not 'plant'. When soccer players are depicted, 'soccer', 'football', 'soccer players' will be correct, but not 'humans', 'outdoors', or 'sports'. You do not need to describe the image in full, just name the main object in it <strong>in one or two words</strong>. All images depict objects from one of the following broad level categories: animals, inanimate objects, plants, sports, vehicles, and food. Recognizing means knowing <strong>more</strong> than these broad labels for a given image. But we always encourage you to <strong>make a guess</strong> if you can. Note that you are allowed to use <strong>Dutch and English</strong> in your answers, whatever comes easiest for you.</p><p>Press any key to continue.</p></div>","32","instructions","html-keyboard-response","4","180915","0.0-4.0","2803133","co38176","norming","","","","","","",""
"20190.80500000564","<div style='word-wrap: break-word; width: 900px'><h3>Instructions</h3> <p>Next, the solution image will be revealed to you and you'll be asked to indicate how strong your <strong>aha-experience</strong> was after seeing the solution. This describes the positive feeling of the 'click' you sometimes experience, when the pieces of the 'puzzle' fall together and you suddenly have 'insight' in the image.</p><img src='aha.jpg' height='188' width='250'></img><p>Note that there are no right or wrong answers. We are interested in what <strong>you</strong> see in the image and how <strong>you</strong> feel about it.</p><p>Press any key to start the experiment.</p></div>","32","instructions","html-keyboard-response","5","201107","0.0-5.0","2803133","co38176","norming","","","","","","",""
"null","<div style=""font-size:60px;""> </div>","null","fixation","html-keyboard-response","6","201311","0.0-6.0-0.0","2803133","co38176","norming","","","","","","",""
"null","../img/tt/121tt.jpg","null","mooney1","image-keyboard-response","7","204318","0.0-6.0-1.0","2803133","co38176","norming","","","","","","",""
"16681.010000000242","","","post_mooney1_questions","survey-likert","8","221002","0.0-6.0-2.0","2803133","co38176","norming","","","{""curiosity"":6,""confidence"":0}","[0,1]","../img/tt/121tt.jpg","",""
"15429.75499999011","","","recognition","survey-text","9","236434","0.0-6.0-3.0","2803133","co38176","norming","","","{""guess"":""animal""}","","../img/tt/121tt.jpg","",""
"null","../img/gs/121gs.jpg","null","reveal","image-keyboard-response","10","238444","0.0-6.0-4.0","2803133","co38176","norming","","","","","","",""
"null","../img/tt/121tt.jpg","null","mooney2","image-keyboard-response","11","240447","0.0-6.0-5.0","2803133","co38176","norming","","","","","","",""
"5664.660000009462","","","post_reveal_questions","survey-likert","12","246107","0.0-6.0-6.0","2803133","co38176","norming","","","{""aha"":4}","[0]","../img/tt/121tt.jpg","",""
"null","<div style=""font-size:60px;""> </div>","null","fixation","html-keyboard-response","13","246316","0.0-6.0-0.1","2803133","co38176","norming","","","","","","",""
"null","../img/tt/477tt.jpg","null","mooney1","image-keyboard-response","14","249322","0.0-6.0-1.1","2803133","co38176","norming","","","","","","",""
"7366.874999992433","","","post_mooney1_questions","survey-likert","15","256691","0.0-6.0-2.1","2803133","co38176","norming","","","{""curiosity"":5,""confidence"":1}","[0,1]","../img/tt/477tt.jpg","",""
"3734.3149999942398","","","recognition","survey-text","16","260427","0.0-6.0-3.1","2803133","co38176","norming","","","{""guess"":""dolfijn""}","","../img/tt/477tt.jpg","",""
"null","../img/gs/477gs.jpg","null","reveal","image-keyboard-response","17","262432","0.0-6.0-4.1","2803133","co38176","norming","","","","","","",""
"null","../img/tt/477tt.jpg","null","mooney2","image-keyboard-response","18","264440","0.0-6.0-5.1","2803133","co38176","norming","","","","","","",""
"5065.62500000291","","","post_reveal_questions","survey-likert","19","269507","0.0-6.0-6.1","2803133","co38176","norming","","","{""aha"":3}","[0]","../img/tt/477tt.jpg","",""
"null","<div style=""font-size:60px;""> </div>","null","fixation","html-keyboard-response","20","269710","0.0-6.0-0.2","2803133","co38176","norming","","","","","","",""
"null","../img/tt/1260tt.jpg","null","mooney1","image-keyboard-response","21","272720","0.0-6.0-1.2","2803133","co38176","norming","","","","","","",""
"9233.15499999444","","","post_mooney1_questions","survey-likert","22","281955","0.0-6.0-2.2","2803133","co38176","norming","","","{""curiosity"":5,""confidence"":0}","[0,1]","../img/tt/1260tt.jpg","",""
"2838.1999999983236","","","recognition","survey-text","23","284795","0.0-6.0-3.2","2803133","co38176","norming","","","{""guess"":""food""}","","../img/tt/1260tt.jpg","",""
"null","../img/gs/1260gs.jpg","null","reveal","image-keyboard-response","24","286805","0.0-6.0-4.2","2803133","co38176","norming","","","","","","",""
"null","../img/tt/1260tt.jpg","null","mooney2","image-keyboard-response","25","288813","0.0-6.0-5.2","2803133","co38176","norming","","","","","","",""
"3588.099999993574","","","post_reveal_questions","survey-likert","26","292403","0.0-6.0-6.2","2803133","co38176","norming","","","{""aha"":5}","[0]","../img/tt/1260tt.jpg","",""
"null","<div style=""font-size:60px;""> </div>","null","fixation","html-keyboard-response","27","292607","0.0-6.0-0.3","2803133","co38176","norming","","","","","","",""
"null","../img/tt/357tt.jpg","null","mooney1","image-keyboard-response","28","295615","0.0-6.0-1.3","2803133","co38176","norming","","","","","","",""
"5761.829999988549","","","post_mooney1_questions","survey-likert","29","301379","0.0-6.0-2.3","2803133","co38176","norming","","","{""curiosity"":4,""confidence"":1}","[0,1]","../img/tt/357tt.jpg","",""
"2773.7149999884423","","","recognition","survey-text","30","304154","0.0-6.0-3.3","2803133","co38176","norming","","","{""guess"":""tree""}","","../img/tt/357tt.jpg","",""
"null","../img/gs/357gs.jpg","null","reveal","image-keyboard-response","31","306168","0.0-6.0-4.3","2803133","co38176","norming","","","","","","",""
"null","../img/tt/357tt.jpg","null","mooney2","image-keyboard-response","32","308171","0.0-6.0-5.3","2803133","co38176","norming","","","","","","",""
"4072.0000000001164","","","post_reveal_questions","survey-likert","33","312245","0.0-6.0-6.3","2803133","co38176","norming","","","{""aha"":2}","[0]","../img/tt/357tt.jpg","",""
"null","<div style=""font-size:60px;""> </div>","null","fixation","html-keyboard-response","34","312453","0.0-6.0-0.4","2803133","co38176","norming","","","","","","",""
"null","../img/tt/1236tt.jpg","null","mooney1","image-keyboard-response","35","315457","0.0-6.0-1.4","2803133","co38176","norming","","","","","","",""
"10617.854999989504","","","post_mooney1_questions","survey-likert","36","326077","0.0-6.0-2.4","2803133","co38176","norming","","","{""curiosity"":4,""confidence"":0}","[0,1]","../img/tt/1236tt.jpg","",""
"5014.33000000543","","","recognition","survey-text","37","331093","0.0-6.0-3.4","2803133","co38176","norming","","","{""guess"":""human""}","","../img/tt/1236tt.jpg","",""
"null","../img/gs/1236gs.jpg","null","reveal","image-keyboard-response","38","333099","0.0-6.0-4.4","2803133","co38176","norming","","","","","","",""
"null","../img/tt/1236tt.jpg","null","mooney2","image-keyboard-response","39","335114","0.0-6.0-5.4","2803133","co38176","norming","","","","","","",""
"1992.4499999906402","","","post_reveal_questions","survey-likert","40","337109","0.0-6.0-6.4","2803133","co38176","norming","","","{""aha"":4}","[0]","../img/tt/1236tt.jpg","",""
"null","<div style=""font-size:60px;""> </div>","null","fixation","html-keyboard-response","41","337311","0.0-6.0-0.5","2803133","co38176","norming","","","","","","",""
"null","../img/tt/079tt.jpg","null","mooney1","image-keyboard-response","42","340313","0.0-6.0-1.5","2803133","co38176","norming","","","","","","",""
"4835.1350000011735","","","post_mooney1_questions","survey-likert","43","345149","0.0-6.0-2.5","2803133","co38176","norming","","","{""curiosity"":2,""confidence"":5}","[0,1]","../img/tt/079tt.jpg","",""
"2598.2850000000326","","","recognition","survey-text","44","347749","0.0-6.0-3.5","2803133","co38176","norming","","","{""guess"":""beer""}","","../img/tt/079tt.jpg","",""
"null","../img/gs/079gs.jpg","null","reveal","image-keyboard-response","45","349752","0.0-6.0-4.5","2803133","co38176","norming","","","","","","",""
"null","../img/tt/079tt.jpg","null","mooney2","image-keyboard-response","46","351757","0.0-6.0-5.5","2803133","co38176","norming","","","","","","",""
"3566.225000002305","","","post_reveal_questions","survey-likert","47","355325","0.0-6.0-6.5","2803133","co38176","norming","","","{""aha"":0}","[0]","../img/tt/079tt.jpg","",""
"null","<div style=""font-size:60px;""> </div>","null","fixation","html-keyboard-response","48","355527","0.0-6.0-0.6","2803133","co38176","norming","","","","","","",""
"null","../img/tt/140tt.jpg","null","mooney1","image-keyboard-response","49","358532","0.0-6.0-1.6","2803133","co38176","norming","","","","","","",""
"5359.010000000126","","","post_mooney1_questions","survey-likert","50","363893","0.0-6.0-2.6","2803133","co38176","norming","","","{""curiosity"":3,""confidence"":4}","[0,1]","../img/tt/140tt.jpg","",""
"2222.215000001597","","","recognition","survey-text","51","366117","0.0-6.0-3.6","2803133","co38176","norming","","","{""guess"":""fork""}","","../img/tt/140tt.jpg","",""
"null","../img/gs/140gs.jpg","null","reveal","image-keyboard-response","52","368117","0.0-6.0-4.6","2803133","co38176","norming","","","","","","",""
"null","../img/tt/140tt.jpg","null","mooney2","image-keyboard-response","53","370128","0.0-6.0-5.6","2803133","co38176","norming","","","","","","",""
"3645.810000001802","","","post_reveal_questions","survey-likert","54","373776","0.0-6.0-6.6","2803133","co38176","norming","","","{""aha"":1}","[0]","../img/tt/140tt.jpg","",""
"null","<div style=""font-size:60px;""> </div>","null","fixation","html-keyboard-response","55","373981","0.0-6.0-0.7","2803133","co38176","norming","","","","","","",""
"null","../img/tt/1069tt.jpg","null","mooney1","image-keyboard-response","56","376984","0.0-6.0-1.7","2803133","co38176","norming","","","","","","",""
"5854.274999990594","","","post_mooney1_questions","survey-likert","57","382840","0.0-6.0-2.7","2803133","co38176","norming","","","{""curiosity"":5,""confidence"":1}","[0,1]","../img/tt/1069tt.jpg","",""
"6094.094999993104","","","recognition","survey-text","58","388936","0.0-6.0-3.7","2803133","co38176","norming","","","{""guess"":""""}","","../img/tt/1069tt.jpg","",""
"null","../img/gs/1069gs.jpg","null","reveal","image-keyboard-response","59","390945","0.0-6.0-4.7","2803133","co38176","norming","","","","","","",""
"null","../img/tt/1069tt.jpg","null","mooney2","image-keyboard-response","60","392947","0.0-6.0-5.7","2803133","co38176","norming","","","","","","",""
"3355.550000007497","","","post_reveal_questions","survey-likert","61","396304","0.0-6.0-6.7","2803133","co38176","norming","","","{""aha"":4}","[0]","../img/tt/1069tt.jpg","",""
"null","<div style=""font-size:60px;""> </div>","null","fixation","html-keyboard-response","62","396505","0.0-6.0-0.8","2803133","co38176","norming","","","","","","",""
"null","../img/tt/1151tt.jpg","null","mooney1","image-keyboard-response","63","399511","0.0-6.0-1.8","2803133","co38176","norming","","","","","","",""
"5791.100000002189","","","post_mooney1_questions","survey-likert","64","405304","0.0-6.0-2.8","2803133","co38176","norming","","","{""curiosity"":4,""confidence"":2}","[0,1]","../img/tt/1151tt.jpg","",""
"1862.0299999893177","","","recognition","survey-text","65","407167","0.0-6.0-3.8","2803133","co38176","norming","","","{""guess"":""cow""}","","../img/tt/1151tt.jpg","",""
"null","../img/gs/1151gs.jpg","null","reveal","image-keyboard-response","66","409172","0.0-6.0-4.8","2803133","co38176","norming","","","","","","",""
"null","../img/tt/1151tt.jpg","null","mooney2","image-keyboard-response","67","411176","0.0-6.0-5.8","2803133","co38176","norming","","","","","","",""
"3326.1249999923166","","","post_reveal_questions","survey-likert","68","414504","0.0-6.0-6.8","2803133","co38176","norming","","","{""aha"":3}","[0]","../img/tt/1151tt.jpg","",""
"null","<div style=""font-size:60px;""> </div>","null","fixation","html-keyboard-response","69","414712","0.0-6.0-0.9","2803133","co38176","norming","","","","","","",""
"null","../img/tt/1242tt.jpg","null","mooney1","image-keyboard-response","70","417715","0.0-6.0-1.9","2803133","co38176","norming","","","","","","",""
"5107.105000002775","","","post_mooney1_questions","survey-likert","71","422824","0.0-6.0-2.9","2803133","co38176","norming","","","{""curiosity"":5,""confidence"":0}","[0,1]","../img/tt/1242tt.jpg","",""
"814.0649999986636","","","recognition","survey-text","72","423640","0.0-6.0-3.9","2803133","co38176","norming","","","{""guess"":""""}","","../img/tt/1242tt.jpg","",""
"null","../img/gs/1242gs.jpg","null","reveal","image-keyboard-response","73","425648","0.0-6.0-4.9","2803133","co38176","norming","","","","","","",""
"null","../img/tt/1242tt.jpg","null","mooney2","image-keyboard-response","74","427662","0.0-6.0-5.9","2803133","co38176","norming","","","","","","",""
"4294.549999991432","","","post_reveal_questions","survey-likert","75","431958","0.0-6.0-6.9","2803133","co38176","norming","","","{""aha"":2}","[0]","../img/tt/1242tt.jpg","",""
"null","<div style=""font-size:60px;""> </div>","null","fixation","html-keyboard-response","76","432168","0.0-6.0-0.10","2803133","co38176","norming","","","","","","",""
"null","../img/tt/112tt.jpg","null","mooney1","image-keyboard-response","77","435173","0.0-6.0-1.10","2803133","co38176","norming","","","","","","",""
"5398.704999999609","","","post_mooney1_questions","survey-likert","78","440574","0.0-6.0-2.10","2803133","co38176","norming","","","{""curiosity"":5,""confidence"":2}","[0,1]","../img/tt/112tt.jpg","",""
"1701.6100000037113","","","recognition","survey-text","79","442278","0.0-6.0-3.10","2803133","co38176","norming","","","{""guess"":""car""}","","../img/tt/112tt.jpg","",""
"null","../img/gs/112gs.jpg","null","reveal","image-keyboard-response","80","444286","0.0-6.0-4.10","2803133","co38176","norming","","","","","","",""
"null","../img/tt/112tt.jpg","null","mooney2","image-keyboard-response","81","446289","0.0-6.0-5.10","2803133","co38176","norming","","","","","","",""
"3115.9150000021327","","","post_reveal_questions","survey-likert","82","449406","0.0-6.0-6.10","2803133","co38176","norming","","","{""aha"":2}","[0]","../img/tt/112tt.jpg","",""
"null","<div style=""font-size:60px;""> </div>","null","fixation","html-keyboard-response","83","449607","0.0-6.0-0.11","2803133","co38176","norming","","","","","","",""
"null","../img/tt/1096tt.jpg","null","mooney1","image-keyboard-response","84","452619","0.0-6.0-1.11","2803133","co38176","norming","","","","","","",""
"5402.329999997164","","","post_mooney1_questions","survey-likert","85","458022","0.0-6.0-2.11","2803133","co38176","norming","","","{""curiosity"":5,""confidence"":1}","[0,1]","../img/tt/1096tt.jpg","",""
"3454.360000003362","","","recognition","survey-text","86","461478","0.0-6.0-3.11","2803133","co38176","norming","","","{""guess"":""schuur""}","","../img/tt/1096tt.jpg","",""
"null","../img/gs/1096gs.jpg","null","reveal","image-keyboard-response","87","463488","0.0-6.0-4.11","2803133","co38176","norming","","","","","","",""
"null","../img/tt/1096tt.jpg","null","mooney2","image-keyboard-response","88","465490","0.0-6.0-5.11","2803133","co38176","norming","","","","","","",""
"3378.855000002659","","","post_reveal_questions","survey-likert","89","468870","0.0-6.0-6.11","2803133","co38176","norming","","","{""aha"":4}","[0]","../img/tt/1096tt.jpg","",""
"null","<div style=""font-size:60px;""> </div>","null","fixation","html-keyboard-response","90","469080","0.0-6.0-0.12","2803133","co38176","norming","","","","","","",""
"null","../img/tt/046tt.jpg","null","mooney1","image-keyboard-response","91","472082","0.0-6.0-1.12","2803133","co38176","norming","","","","","","",""
"5450.809999994817","","","post_mooney1_questions","survey-likert","92","477534","0.0-6.0-2.12","2803133","co38176","norming","","","{""curiosity"":5,""confidence"":2}","[0,1]","../img/tt/046tt.jpg","",""
"3238.100000002305","","","recognition","survey-text","93","480774","0.0-6.0-3.12","2803133","co38176","norming","","","{""guess"":""varken""}","","../img/tt/046tt.jpg","",""
"null","../img/gs/046gs.jpg","null","reveal","image-keyboard-response","94","482776","0.0-6.0-4.12","2803133","co38176","norming","","","","","","",""
"null","../img/tt/046tt.jpg","null","mooney2","image-keyboard-response","95","484782","0.0-6.0-5.12","2803133","co38176","norming","","","","","","",""
"2318.1649999896763","","","post_reveal_questions","survey-likert","96","487102","0.0-6.0-6.12","2803133","co38176","norming","","","{""aha"":5}","[0]","../img/tt/046tt.jpg","",""
"null","<div style=""font-size:60px;""> </div>","null","fixation","html-keyboard-response","97","487305","0.0-6.0-0.13","2803133","co38176","norming","","","","","","",""
"null","../img/tt/1049tt.jpg","null","mooney1","image-keyboard-response","98","490313","0.0-6.0-1.13","2803133","co38176","norming","","","","","","",""
"5355.714999997872","","","post_mooney1_questions","survey-likert","99","495671","0.0-6.0-2.13","2803133","co38176","norming","","","{""curiosity"":5,""confidence"":2}","[0,1]","../img/tt/1049tt.jpg","",""
"3134.024999992107","","","recognition","survey-text","100","498807","0.0-6.0-3.13","2803133","co38176","norming","","","{""guess"":""schaap""}","","../img/tt/1049tt.jpg","",""
"null","../img/gs/1049gs.jpg","null","reveal","image-keyboard-response","101","500818","0.0-6.0-4.13","2803133","co38176","norming","","","","","","",""
"null","../img/tt/1049tt.jpg","null","mooney2","image-keyboard-response","102","502819","0.0-6.0-5.13","2803133","co38176","norming","","","","","","",""
"2162.255000002915","","","post_reveal_questions","survey-likert","103","504983","0.0-6.0-6.13","2803133","co38176","norming","","","{""aha"":6}","[0]","../img/tt/1049tt.jpg","",""
"null","<div style=""font-size:60px;""> </div>","null","fixation","html-keyboard-response","104","505189","0.0-6.0-0.14","2803133","co38176","norming","","","","","","",""
"null","../img/tt/1228tt.jpg","null","mooney1","image-keyboard-response","105","508198","0.0-6.0-1.14","2803133","co38176","norming","","","","","","",""
"7126.785000000382","","","post_mooney1_questions","survey-likert","106","515327","0.0-6.0-2.14","2803133","co38176","norming","","","{""curiosity"":6,""confidence"":3}","[0,1]","../img/tt/1228tt.jpg","",""
"2166.0699999920325","","","recognition","survey-text","107","517495","0.0-6.0-3.14","2803133","co38176","norming","","","{""guess"":""bird""}","","../img/tt/1228tt.jpg","",""
"null","../img/gs/1228gs.jpg","null","reveal","image-keyboard-response","108","519503","0.0-6.0-4.14","2803133","co38176","norming","","","","","","",""
"null","../img/tt/1228tt.jpg","null","mooney2","image-keyboard-response","109","521513","0.0-6.0-5.14","2803133","co38176","norming","","","","","","",""
"2563.750000001164","","","post_reveal_questions","survey-likert","110","524079","0.0-6.0-6.14","2803133","co38176","norming","","","{""aha"":1}","[0]","../img/tt/1228tt.jpg","",""
"null","<div style=""font-size:60px;""> </div>","null","fixation","html-keyboard-response","111","524280","0.0-6.0-0.15","2803133","co38176","norming","","","","","","",""
"null","../img/tt/1086tt.jpg","null","mooney1","image-keyboard-response","112","527291","0.0-6.0-1.15","2803133","co38176","norming","","","","","","",""
"5953.914999990957","","","post_mooney1_questions","survey-likert","113","533247","0.0-6.0-2.15","2803133","co38176","norming","","","{""curiosity"":5,""confidence"":0}","[0,1]","../img/tt/1086tt.jpg","",""
"934.2699999979232","","","recognition","survey-text","114","534183","0.0-6.0-3.15","2803133","co38176","norming","","","{""guess"":""""}","","../img/tt/1086tt.jpg","",""
"null","../img/gs/1086gs.jpg","null","reveal","image-keyboard-response","115","536188","0.0-6.0-4.15","2803133","co38176","norming","","","","","","",""
"null","../img/tt/1086tt.jpg","null","mooney2","image-keyboard-response","116","538192","0.0-6.0-5.15","2803133","co38176","norming","","","","","","",""
"4165.53000001295","","","post_reveal_questions","survey-likert","117","542359","0.0-6.0-6.15","2803133","co38176","norming","","","{""aha"":0}","[0]","../img/tt/1086tt.jpg","",""
"null","<div style=""font-size:60px;""> </div>","null","fixation","html-keyboard-response","118","542566","0.0-6.0-0.16","2803133","co38176","norming","","","","","","",""
"null","../img/tt/1146tt.jpg","null","mooney1","image-keyboard-response","119","545575","0.0-6.0-1.16","2803133","co38176","norming","","","","","","",""
"8389.824999991106","","","post_mooney1_questions","survey-likert","120","553960","0.0-6.0-2.16","2803133","co38176","norming","","","{""curiosity"":5,""confidence"":1}","[0,1]","../img/tt/1146tt.jpg","",""
"2301.5400000003865","","","recognition","survey-text","121","556263","0.0-6.0-3.16","2803133","co38176","norming","","","{""guess"":""""}","","../img/tt/1146tt.jpg","",""
"null","../img/gs/1146gs.jpg","null","reveal","image-keyboard-response","122","558266","0.0-6.0-4.16","2803133","co38176","norming","","","","","","",""
"null","../img/tt/1146tt.jpg","null","mooney2","image-keyboard-response","123","560274","0.0-6.0-5.16","2803133","co38176","norming","","","","","","",""
"5499.514999988605","","","post_reveal_questions","survey-likert","124","565776","0.0-6.0-6.16","2803133","co38176","norming","","","{""aha"":4}","[0]","../img/tt/1146tt.jpg","",""
"null","<div style=""font-size:60px;""> </div>","null","fixation","html-keyboard-response","125","565980","0.0-6.0-0.17","2803133","co38176","norming","","","","","","",""
"null","../img/tt/1097tt.jpg","null","mooney1","image-keyboard-response","126","568988","0.0-6.0-1.17","2803133","co38176","norming","","","","","","",""
"9457.70500000799","","","post_mooney1_questions","survey-likert","127","578448","0.0-6.0-2.17","2803133","co38176","norming","","","{""curiosity"":4,""confidence"":3}","[0,1]","../img/tt/1097tt.jpg","",""
"3822.1550000016578","","","recognition","survey-text","128","582271","0.0-6.0-3.17","2803133","co38176","norming","","","{""guess"":""landbouwer""}","","../img/tt/1097tt.jpg","",""
"null","../img/gs/1097gs.jpg","null","reveal","image-keyboard-response","129","584273","0.0-6.0-4.17","2803133","co38176","norming","","","","","","",""
"null","../img/tt/1097tt.jpg","null","mooney2","image-keyboard-response","130","586274","0.0-6.0-5.17","2803133","co38176","norming","","","","","","",""
"2131.695000003674","","","post_reveal_questions","survey-likert","131","588408","0.0-6.0-6.17","2803133","co38176","norming","","","{""aha"":4}","[0]","../img/tt/1097tt.jpg","",""
"null","<div style=""font-size:60px;""> </div>","null","fixation","html-keyboard-response","132","588610","0.0-6.0-0.18","2803133","co38176","norming","","","","","","",""
"null","../img/tt/1118tt.jpg","null","mooney1","image-keyboard-response","133","591613","0.0-6.0-1.18","2803133","co38176","norming","","","","","","",""
"16160.459999999148","","","post_mooney1_questions","survey-likert","134","607776","0.0-6.0-2.18","2803133","co38176","norming","","","{""curiosity"":6,""confidence"":2}","[0,1]","../img/tt/1118tt.jpg","",""
"2270.0350000086473","","","recognition","survey-text","135","610047","0.0-6.0-3.18","2803133","co38176","norming","","","{""guess"":""kajak""}","","../img/tt/1118tt.jpg","",""
"null","../img/gs/1118gs.jpg","null","reveal","image-keyboard-response","136","612054","0.0-6.0-4.18","2803133","co38176","norming","","","","","","",""
"null","../img/tt/1118tt.jpg","null","mooney2","image-keyboard-response","137","614064","0.0-6.0-5.18","2803133","co38176","norming","","","","","","",""
"2142.3000000067987","","","post_reveal_questions","survey-likert","138","616208","0.0-6.0-6.18","2803133","co38176","norming","","","{""aha"":2}","[0]","../img/tt/1118tt.jpg","",""
"null","<div style=""font-size:60px;""> </div>","null","fixation","html-keyboard-response","139","616413","0.0-6.0-0.19","2803133","co38176","norming","","","","","","",""
"null","../img/tt/052tt.jpg","null","mooney1","image-keyboard-response","140","619423","0.0-6.0-1.19","2803133","co38176","norming","","","","","","",""
"12511.800000007497","","","post_mooney1_questions","survey-likert","141","631936","0.0-6.0-2.19","2803133","co38176","norming","","","{""curiosity"":5,""confidence"":1}","[0,1]","../img/tt/052tt.jpg","",""
"2310.104999996838","","","recognition","survey-text","142","634248","0.0-6.0-3.19","2803133","co38176","norming","","","{""guess"":""riem""}","","../img/tt/052tt.jpg","",""
"null","../img/gs/052gs.jpg","null","reveal","image-keyboard-response","143","636253","0.0-6.0-4.19","2803133","co38176","norming","","","","","","",""
"null","../img/tt/052tt.jpg","null","mooney2","image-keyboard-response","144","638255","0.0-6.0-5.19","2803133","co38176","norming","","","","","","",""
"3439.7599999938393","","","post_reveal_questions","survey-likert","145","641696","0.0-6.0-6.19","2803133","co38176","norming","","","{""aha"":4}","[0]","../img/tt/052tt.jpg","",""
"null","<div style=""font-size:60px;""> </div>","null","fixation","html-keyboard-response","146","641903","0.0-6.0-0.20","2803133","co38176","norming","","","","","","",""
"null","../img/tt/412tt.jpg","null","mooney1","image-keyboard-response","147","644913","0.0-6.0-1.20","2803133","co38176","norming","","","","","","",""
"6132.969999991474","","","post_mooney1_questions","survey-likert","148","651048","0.0-6.0-2.20","2803133","co38176","norming","","","{""curiosity"":4,""confidence"":1}","[0,1]","../img/tt/412tt.jpg","",""
"9662.01000000001","","","recognition","survey-text","149","660712","0.0-6.0-3.20","2803133","co38176","norming","","","{""guess"":""zonnecrème""}","","../img/tt/412tt.jpg","",""
"null","../img/gs/412gs.jpg","null","reveal","image-keyboard-response","150","662719","0.0-6.0-4.20","2803133","co38176","norming","","","","","","",""
"null","../img/tt/412tt.jpg","null","mooney2","image-keyboard-response","151","664728","0.0-6.0-5.20","2803133","co38176","norming","","","","","","",""
"9926.789999997709","","","post_reveal_questions","survey-likert","152","674648","0.0-6.0-6.20","2803133","co38176","norming","","","{""aha"":3}","[0]","../img/tt/412tt.jpg","",""
"null","<div style=""font-size:60px;""> </div>","null","fixation","html-keyboard-response","153","674849","0.0-6.0-0.21","2803133","co38176","norming","","","","","","",""
"null","../img/tt/1224tt.jpg","null","mooney1","image-keyboard-response","154","677854","0.0-6.0-1.21","2803133","co38176","norming","","","","","","",""
"28743.78999999317","","","post_mooney1_questions","survey-likert","155","706600","0.0-6.0-2.21","2803133","co38176","norming","","","{""curiosity"":5,""confidence"":0}","[0,1]","../img/tt/1224tt.jpg","",""
"2534.5049999887124","","","recognition","survey-text","156","709136","0.0-6.0-3.21","2803133","co38176","norming","","","{""guess"":""human""}","","../img/tt/1224tt.jpg","",""
"null","../img/gs/1224gs.jpg","null","reveal","image-keyboard-response","157","711142","0.0-6.0-4.21","2803133","co38176","norming","","","","","","",""
"null","../img/tt/1224tt.jpg","null","mooney2","image-keyboard-response","158","713143","0.0-6.0-5.21","2803133","co38176","norming","","","","","","",""
"2639.595000000554","","","post_reveal_questions","survey-likert","159","715784","0.0-6.0-6.21","2803133","co38176","norming","","","{""aha"":4}","[0]","../img/tt/1224tt.jpg","",""
"null","<div style=""font-size:60px;""> </div>","null","fixation","html-keyboard-response","160","715989","0.0-6.0-0.22","2803133","co38176","norming","","","","","","",""
"null","../img/tt/091tt.jpg","null","mooney1","image-keyboard-response","161","718991","0.0-6.0-1.22","2803133","co38176","norming","","","","","","",""
"2903.6850000120467","","","post_mooney1_questions","survey-likert","162","721896","0.0-6.0-2.22","2803133","co38176","norming","","","{""curiosity"":6,""confidence"":0}","[0,1]","../img/tt/091tt.jpg","",""
"838.1599999993341","","","recognition","survey-text","163","722736","0.0-6.0-3.22","2803133","co38176","norming","","","{""guess"":""""}","","../img/tt/091tt.jpg","",""
"null","../img/gs/091gs.jpg","null","reveal","image-keyboard-response","164","724742","0.0-6.0-4.22","2803133","co38176","norming","","","","","","",""
"null","../img/tt/091tt.jpg","null","mooney2","image-keyboard-response","165","726743","0.0-6.0-5.22","2803133","co38176","norming","","","","","","",""
"1615.5349999899045","","","post_reveal_questions","survey-likert","166","728360","0.0-6.0-6.22","2803133","co38176","norming","","","{""aha"":1}","[0]","../img/tt/091tt.jpg","",""
"null","<div style=""font-size:60px;""> </div>","null","fixation","html-keyboard-response","167","728568","0.0-6.0-0.23","2803133","co38176","norming","","","","","","",""
"null","../img/tt/1226tt.jpg","null","mooney1","image-keyboard-response","168","731577","0.0-6.0-1.23","2803133","co38176","norming","","","","","","",""
"6333.410000006552","","","post_mooney1_questions","survey-likert","169","737917","0.0-6.0-2.23","2803133","co38176","norming","","","{""curiosity"":4,""confidence"":2}","[0,1]","../img/tt/1226tt.jpg","",""
"2822.5949999905424","","","recognition","survey-text","170","740741","0.0-6.0-3.23","2803133","co38176","norming","","","{""guess"":""zwaan""}","","../img/tt/1226tt.jpg","",""
"null","../img/gs/1226gs.jpg","null","reveal","image-keyboard-response","171","742746","0.0-6.0-4.23","2803133","co38176","norming","","","","","","",""
"null","../img/tt/1226tt.jpg","null","mooney2","image-keyboard-response","172","744751","0.0-6.0-5.23","2803133","co38176","norming","","","","","","",""
"2477.194999999483","","","post_reveal_questions","survey-likert","173","747229","0.0-6.0-6.23","2803133","co38176","norming","","","{""aha"":4}","[0]","../img/tt/1226tt.jpg","",""
"null","<div style=""font-size:60px;""> </div>","null","fixation","html-keyboard-response","174","747434","0.0-6.0-0.24","2803133","co38176","norming","","","","","","",""
"null","../img/tt/319tt.jpg","null","mooney1","image-keyboard-response","175","750444","0.0-6.0-1.24","2803133","co38176","norming","","","","","","",""
"5119.260000006761","","","post_mooney1_questions","survey-likert","176","755565","0.0-6.0-2.24","2803133","co38176","norming","","","{""curiosity"":4,""confidence"":3}","[0,1]","../img/tt/319tt.jpg","",""
"2118.1050000013784","","","recognition","survey-text","177","757685","0.0-6.0-3.24","2803133","co38176","norming","","","{""guess"":""ezel""}","","../img/tt/319tt.jpg","",""
"null","../img/gs/319gs.jpg","null","reveal","image-keyboard-response","178","759695","0.0-6.0-4.24","2803133","co38176","norming","","","","","","",""
"null","../img/tt/319tt.jpg","null","mooney2","image-keyboard-response","179","761705","0.0-6.0-5.24","2803133","co38176","norming","","","","","","",""
"3498.284999994212","","","post_reveal_questions","survey-likert","180","765205","0.0-6.0-6.24","2803133","co38176","norming","","","{""aha"":0}","[0]","../img/tt/319tt.jpg","",""
"null","<div style=""font-size:60px;""> </div>","null","fixation","html-keyboard-response","181","765408","0.0-6.0-0.25","2803133","co38176","norming","","","","","","",""
"null","../img/tt/1362tt.jpg","null","mooney1","image-keyboard-response","182","768411","0.0-6.0-1.25","2803133","co38176","norming","","","","","","",""
"5232.310000006692","","","post_mooney1_questions","survey-likert","183","773645","0.0-6.0-2.25","2803133","co38176","norming","","","{""curiosity"":5,""confidence"":2}","[0,1]","../img/tt/1362tt.jpg","",""
"1686.0900000028778","","","recognition","survey-text","184","775333","0.0-6.0-3.25","2803133","co38176","norming","","","{""guess"":""hoed""}","","../img/tt/1362tt.jpg","",""
"null","../img/gs/1362gs.jpg","null","reveal","image-keyboard-response","185","777335","0.0-6.0-4.25","2803133","co38176","norming","","","","","","",""
"null","../img/tt/1362tt.jpg","null","mooney2","image-keyboard-response","186","779336","0.0-6.0-5.25","2803133","co38176","norming","","","","","","",""
"5043.234999990091","","","post_reveal_questions","survey-likert","187","784381","0.0-6.0-6.25","2803133","co38176","norming","","","{""aha"":3}","[0]","../img/tt/1362tt.jpg","",""
"null","<div style=""font-size:60px;""> </div>","null","fixation","html-keyboard-response","188","784588","0.0-6.0-0.26","2803133","co38176","norming","","","","","","",""
"null","../img/tt/1250tt.jpg","null","mooney1","image-keyboard-response","189","787590","0.0-6.0-1.26","2803133","co38176","norming","","","","","","",""
"4085.2450000093086","","","post_mooney1_questions","survey-likert","190","791677","0.0-6.0-2.26","2803133","co38176","norming","","","{""curiosity"":6,""confidence"":0}","[0,1]","../img/tt/1250tt.jpg","",""
"774.1099999984726","","","recognition","survey-text","191","792453","0.0-6.0-3.26","2803133","co38176","norming","","","{""guess"":""""}","","../img/tt/1250tt.jpg","",""
"null","../img/gs/1250gs.jpg","null","reveal","image-keyboard-response","192","794461","0.0-6.0-4.26","2803133","co38176","norming","","","","","","",""
"null","../img/tt/1250tt.jpg","null","mooney2","image-keyboard-response","193","796473","0.0-6.0-5.26","2803133","co38176","norming","","","","","","",""
"4782.875000004424","","","post_reveal_questions","survey-likert","194","801258","0.0-6.0-6.26","2803133","co38176","norming","","","{""aha"":4}","[0]","../img/tt/1250tt.jpg","",""
"null","<div style=""font-size:60px;""> </div>","null","fixation","html-keyboard-response","195","801460","0.0-6.0-0.27","2803133","co38176","norming","","","","","","",""
"null","../img/tt/163tt.jpg","null","mooney1","image-keyboard-response","196","804466","0.0-6.0-1.27","2803133","co38176","norming","","","","","","",""
"18830.705000000307","","","post_mooney1_questions","survey-likert","197","823298","0.0-6.0-2.27","2803133","co38176","norming","","","{""curiosity"":5,""confidence"":3}","[0,1]","../img/tt/163tt.jpg","",""
"2549.8349999979837","","","recognition","survey-text","198","825850","0.0-6.0-3.27","2803133","co38176","norming","","","{""guess"":""flower""}","","../img/tt/163tt.jpg","",""
"null","../img/gs/163gs.jpg","null","reveal","image-keyboard-response","199","827854","0.0-6.0-4.27","2803133","co38176","norming","","","","","","",""
"null","../img/tt/163tt.jpg","null","mooney2","image-keyboard-response","200","829856","0.0-6.0-5.27","2803133","co38176","norming","","","","","","",""
"2880.490000010468","","","post_reveal_questions","survey-likert","201","832738","0.0-6.0-6.27","2803133","co38176","norming","","","{""aha"":1}","[0]","../img/tt/163tt.jpg","",""
"null","<div style=""font-size:60px;""> </div>","null","fixation","html-keyboard-response","202","832944","0.0-6.0-0.28","2803133","co38176","norming","","","","","","",""
"null","../img/tt/517tt.jpg","null","mooney1","image-keyboard-response","203","835946","0.0-6.0-1.28","2803133","co38176","norming","","","","","","",""
"3998.1950000073994","","","post_mooney1_questions","survey-likert","204","839946","0.0-6.0-2.28","2803133","co38176","norming","","","{""curiosity"":4,""confidence"":2}","[0,1]","../img/tt/517tt.jpg","",""
"1950.2900000079535","","","recognition","survey-text","205","841898","0.0-6.0-3.28","2803133","co38176","norming","","","{""guess"":""pa,da""}","","../img/tt/517tt.jpg","",""
"null","../img/gs/517gs.jpg","null","reveal","image-keyboard-response","206","843902","0.0-6.0-4.28","2803133","co38176","norming","","","","","","",""
"null","../img/tt/517tt.jpg","null","mooney2","image-keyboard-response","207","845904","0.0-6.0-5.28","2803133","co38176","norming","","","","","","",""
"7079.7549999988405","","","post_reveal_questions","survey-likert","208","852986","0.0-6.0-6.28","2803133","co38176","norming","","","{""aha"":2}","[0]","../img/tt/517tt.jpg","",""
"null","<div style=""font-size:60px;""> </div>","null","fixation","html-keyboard-response","209","853196","0.0-6.0-0.29","2803133","co38176","norming","","","","","","",""
"null","../img/tt/590tt.jpg","null","mooney1","image-keyboard-response","210","856201","0.0-6.0-1.29","2803133","co38176","norming","","","","","","",""
"3718.4399999969173","","","post_mooney1_questions","survey-likert","211","859917","0.0-6.0-2.29","2803133","co38176","norming","","","{""curiosity"":6,""confidence"":0}","[0,1]","../img/tt/590tt.jpg","",""
"949.6550000039861","","","recognition","survey-text","212","860869","0.0-6.0-3.29","2803133","co38176","norming","","","{""guess"":""""}","","../img/tt/590tt.jpg","",""
"null","../img/gs/590gs.jpg","null","reveal","image-keyboard-response","213","862876","0.0-6.0-4.29","2803133","co38176","norming","","","","","","",""
"null","../img/tt/590tt.jpg","null","mooney2","image-keyboard-response","214","864886","0.0-6.0-5.29","2803133","co38176","norming","","","","","","",""
"3133.84500000393","","","post_reveal_questions","survey-likert","215","868021","0.0-6.0-6.29","2803133","co38176","norming","","","{""aha"":3}","[0]","../img/tt/590tt.jpg","",""
"null","<div style=""font-size:60px;""> </div>","null","fixation","html-keyboard-response","216","868222","0.0-6.0-0.30","2803133","co38176","norming","","","","","","",""
"null","../img/tt/118tt.jpg","null","mooney1","image-keyboard-response","217","871232","0.0-6.0-1.30","2803133","co38176","norming","","","","","","",""
"6323.744999986957","","","post_mooney1_questions","survey-likert","218","877557","0.0-6.0-2.30","2803133","co38176","norming","","","{""curiosity"":3,""confidence"":0}","[0,1]","../img/tt/118tt.jpg","",""
"2237.745000005816","","","recognition","survey-text","219","879797","0.0-6.0-3.30","2803133","co38176","norming","","","{""guess"":""hek""}","","../img/tt/118tt.jpg","",""
"null","../img/gs/118gs.jpg","null","reveal","image-keyboard-response","220","881804","0.0-6.0-4.30","2803133","co38176","norming","","","","","","",""
"null","../img/tt/118tt.jpg","null","mooney2","image-keyboard-response","221","883805","0.0-6.0-5.30","2803133","co38176","norming","","","","","","",""
"5959.084999994957","","","post_reveal_questions","survey-likert","222","889765","0.0-6.0-6.30","2803133","co38176","norming","","","{""aha"":1}","[0]","../img/tt/118tt.jpg","",""
"null","<div style=""font-size:60px;""> </div>","null","fixation","html-keyboard-response","223","889976","0.0-6.0-0.31","2803133","co38176","norming","","","","","","",""
"null","../img/tt/1154tt.jpg","null","mooney1","image-keyboard-response","224","892979","0.0-6.0-1.31","2803133","co38176","norming","","","","","","",""
"5592.674999992596","","","post_mooney1_questions","survey-likert","225","898573","0.0-6.0-2.31","2803133","co38176","norming","","","{""curiosity"":4,""confidence"":4}","[0,1]","../img/tt/1154tt.jpg","",""
"1910.0000000034925","","","recognition","survey-text","226","900485","0.0-6.0-3.31","2803133","co38176","norming","","","{""guess"":""kajak""}","","../img/tt/1154tt.jpg","",""
"null","../img/gs/1154gs.jpg","null","reveal","image-keyboard-response","227","902496","0.0-6.0-4.31","2803133","co38176","norming","","","","","","",""
"null","../img/tt/1154tt.jpg","null","mooney2","image-keyboard-response","228","904505","0.0-6.0-5.31","2803133","co38176","norming","","","","","","",""
"2922.5099999894155","","","post_reveal_questions","survey-likert","229","907429","0.0-6.0-6.31","2803133","co38176","norming","","","{""aha"":0}","[0]","../img/tt/1154tt.jpg","",""
"null","<div style=""font-size:60px;""> </div>","null","fixation","html-keyboard-response","230","907639","0.0-6.0-0.32","2803133","co38176","norming","","","","","","",""
"null","../img/tt/296tt.jpg","null","mooney1","image-keyboard-response","231","910643","0.0-6.0-1.32","2803133","co38176","norming","","","","","","",""
"14385.379999992438","","","post_mooney1_questions","survey-likert","232","925029","0.0-6.0-2.32","2803133","co38176","norming","","","{""curiosity"":4,""confidence"":2}","[0,1]","../img/tt/296tt.jpg","",""
"5261.845000000903","","","recognition","survey-text","233","930292","0.0-6.0-3.32","2803133","co38176","norming","","","{""guess"":""doktersbed""}","","../img/tt/296tt.jpg","",""
"null","../img/gs/296gs.jpg","null","reveal","image-keyboard-response","234","932295","0.0-6.0-4.32","2803133","co38176","norming","","","","","","",""
"null","../img/tt/296tt.jpg","null","mooney2","image-keyboard-response","235","934299","0.0-6.0-5.32","2803133","co38176","norming","","","","","","",""
"3935.9549999935552","","","post_reveal_questions","survey-likert","236","938236","0.0-6.0-6.32","2803133","co38176","norming","","","{""aha"":1}","[0]","../img/tt/296tt.jpg","",""
"null","<div style=""font-size:60px;""> </div>","null","fixation","html-keyboard-response","237","938438","0.0-6.0-0.33","2803133","co38176","norming","","","","","","",""
"null","../img/tt/515tt.jpg","null","mooney1","image-keyboard-response","238","941448","0.0-6.0-1.33","2803133","co38176","norming","","","","","","",""
"4386.23999999254","","","post_mooney1_questions","survey-likert","239","945837","0.0-6.0-2.33","2803133","co38176","norming","","","{""curiosity"":4,""confidence"":3}","[0,1]","../img/tt/515tt.jpg","",""
"1526.2749999965308","","","recognition","survey-text","240","947364","0.0-6.0-3.33","2803133","co38176","norming","","","{""guess"":""bird""}","","../img/tt/515tt.jpg","",""
"null","../img/gs/515gs.jpg","null","reveal","image-keyboard-response","241","949372","0.0-6.0-4.33","2803133","co38176","norming","","","","","","",""
"null","../img/tt/515tt.jpg","null","mooney2","image-keyboard-response","242","951374","0.0-6.0-5.33","2803133","co38176","norming","","","","","","",""
"2132.2800000052666","","","post_reveal_questions","survey-likert","243","953508","0.0-6.0-6.33","2803133","co38176","norming","","","{""aha"":0}","[0]","../img/tt/515tt.jpg","",""
"null","<div style=""font-size:60px;""> </div>","null","fixation","html-keyboard-response","244","953713","0.0-6.0-0.34","2803133","co38176","norming","","","","","","",""
"null","../img/tt/1044tt.jpg","null","mooney1","image-keyboard-response","245","956719","0.0-6.0-1.34","2803133","co38176","norming","","","","","","",""
"4572.67999999749","","","post_mooney1_questions","survey-likert","246","961292","0.0-6.0-2.34","2803133","co38176","norming","","","{""curiosity"":6,""confidence"":0}","[0,1]","../img/tt/1044tt.jpg","",""
"965.9050000045681","","","recognition","survey-text","247","962260","0.0-6.0-3.34","2803133","co38176","norming","","","{""guess"":""""}","","../img/tt/1044tt.jpg","",""
"null","../img/gs/1044gs.jpg","null","reveal","image-keyboard-response","248","964269","0.0-6.0-4.34","2803133","co38176","norming","","","","","","",""
"null","../img/tt/1044tt.jpg","null","mooney2","image-keyboard-response","249","966277","0.0-6.0-5.34","2803133","co38176","norming","","","","","","",""
"4149.434999999357","","","post_reveal_questions","survey-likert","250","970428","0.0-6.0-6.34","2803133","co38176","norming","","","{""aha"":2}","[0]","../img/tt/1044tt.jpg","",""
"null","<div style=""font-size:60px;""> </div>","null","fixation","html-keyboard-response","251","970638","0.0-6.0-0.35","2803133","co38176","norming","","","","","","",""
"null","../img/tt/080tt.jpg","null","mooney1","image-keyboard-response","252","973647","0.0-6.0-1.35","2803133","co38176","norming","","","","","","",""
"5275.129999994533","","","post_mooney1_questions","survey-likert","253","978924","0.0-6.0-2.35","2803133","co38176","norming","","","{""curiosity"":4,""confidence"":0}","[0,1]","../img/tt/080tt.jpg","",""
"653.8750000036089","","","recognition","survey-text","254","979580","0.0-6.0-3.35","2803133","co38176","norming","","","{""guess"":""""}","","../img/tt/080tt.jpg","",""
"null","../img/gs/080gs.jpg","null","reveal","image-keyboard-response","255","981589","0.0-6.0-4.35","2803133","co38176","norming","","","","","","",""
"null","../img/tt/080tt.jpg","null","mooney2","image-keyboard-response","256","983606","0.0-6.0-5.35","2803133","co38176","norming","","","","","","",""
"2851.5749999933178","","","post_reveal_questions","survey-likert","257","986460","0.0-6.0-6.35","2803133","co38176","norming","","","{""aha"":3}","[0]","../img/tt/080tt.jpg","",""
"null","<div style=""font-size:60px;""> </div>","null","fixation","html-keyboard-response","258","986665","0.0-6.0-0.36","2803133","co38176","norming","","","","","","",""
"null","../img/tt/063tt.jpg","null","mooney1","image-keyboard-response","259","989669","0.0-6.0-1.36","2803133","co38176","norming","","","","","","",""
"7556.584999998449","","","post_mooney1_questions","survey-likert","260","997228","0.0-6.0-2.36","2803133","co38176","norming","","","{""curiosity"":5,""confidence"":1}","[0,1]","../img/tt/063tt.jpg","",""
"5566.295000011451","","","recognition","survey-text","261","1002796","0.0-6.0-3.36","2803133","co38176","norming","","","{""guess"":""typemachine""}","","../img/tt/063tt.jpg","",""
"null","../img/gs/063gs.jpg","null","reveal","image-keyboard-response","262","1004805","0.0-6.0-4.36","2803133","co38176","norming","","","","","","",""
"null","../img/tt/063tt.jpg","null","mooney2","image-keyboard-response","263","1006814","0.0-6.0-5.36","2803133","co38176","norming","","","","","","",""
"3332.2750000079395","","","post_reveal_questions","survey-likert","264","1010148","0.0-6.0-6.36","2803133","co38176","norming","","","{""aha"":1}","[0]","../img/tt/063tt.jpg","",""
"null","<div style=""font-size:60px;""> </div>","null","fixation","html-keyboard-response","265","1010357","0.0-6.0-0.37","2803133","co38176","norming","","","","","","",""
"null","../img/tt/013tt.jpg","null","mooney1","image-keyboard-response","266","1013367","0.0-6.0-1.37","2803133","co38176","norming","","","","","","",""
"3786.514999999781","","","post_mooney1_questions","survey-likert","267","1017156","0.0-6.0-2.37","2803133","co38176","norming","","","{""curiosity"":6,""confidence"":0}","[0,1]","../img/tt/013tt.jpg","",""
"1222.284999996191","","","recognition","survey-text","268","1018380","0.0-6.0-3.37","2803133","co38176","norming","","","{""guess"":"" ""}","","../img/tt/013tt.jpg","",""
"null","../img/gs/013gs.jpg","null","reveal","image-keyboard-response","269","1020382","0.0-6.0-4.37","2803133","co38176","norming","","","","","","",""
"null","../img/tt/013tt.jpg","null","mooney2","image-keyboard-response","270","1022385","0.0-6.0-5.37","2803133","co38176","norming","","","","","","",""
"1545.5649999930756","","","post_reveal_questions","survey-likert","271","1023932","0.0-6.0-6.37","2803133","co38176","norming","","","{""aha"":6}","[0]","../img/tt/013tt.jpg","",""
"null","<div style=""font-size:60px;""> </div>","null","fixation","html-keyboard-response","272","1024138","0.0-6.0-0.38","2803133","co38176","norming","","","","","","",""
"null","../img/tt/1159tt.jpg","null","mooney1","image-keyboard-response","273","1027147","0.0-6.0-1.38","2803133","co38176","norming","","","","","","",""
"6831.205000009504","","","post_mooney1_questions","survey-likert","274","1033980","0.0-6.0-2.38","2803133","co38176","norming","","","{""curiosity"":4,""confidence"":1}","[0,1]","../img/tt/1159tt.jpg","",""
"3902.1100000099977","","","recognition","survey-text","275","1037884","0.0-6.0-3.38","2803133","co38176","norming","","","{""guess"":""weide""}","","../img/tt/1159tt.jpg","",""
"null","../img/gs/1159gs.jpg","null","reveal","image-keyboard-response","276","1039889","0.0-6.0-4.38","2803133","co38176","norming","","","","","","",""
"null","../img/tt/1159tt.jpg","null","mooney2","image-keyboard-response","277","1041898","0.0-6.0-5.38","2803133","co38176","norming","","","","","","",""
"1622.7400000061607","","","post_reveal_questions","survey-likert","278","1043524","0.0-6.0-6.38","2803133","co38176","norming","","","{""aha"":4}","[0]","../img/tt/1159tt.jpg","",""
"null","<div style=""font-size:60px;""> </div>","null","fixation","html-keyboard-response","279","1043734","0.0-6.0-0.39","2803133","co38176","norming","","","","","","",""
"null","../img/tt/1089tt.jpg","null","mooney1","image-keyboard-response","280","1046743","0.0-6.0-1.39","2803133","co38176","norming","","","","","","",""
"5915.489999999292","","","post_mooney1_questions","survey-likert","281","1052660","0.0-6.0-2.39","2803133","co38176","norming","","","{""curiosity"":6,""confidence"":2}","[0,1]","../img/tt/1089tt.jpg","",""
"1238.6499999994412","","","recognition","survey-text","282","1053900","0.0-6.0-3.39","2803133","co38176","norming","","","{""guess"":""koe""}","","../img/tt/1089tt.jpg","",""
"null","../img/gs/1089gs.jpg","null","reveal","image-keyboard-response","283","1055908","0.0-6.0-4.39","2803133","co38176","norming","","","","","","",""
"null","../img/tt/1089tt.jpg","null","mooney2","image-keyboard-response","284","1057910","0.0-6.0-5.39","2803133","co38176","norming","","","","","","",""
"1948.8399999972899","","","post_reveal_questions","survey-likert","285","1059860","0.0-6.0-6.39","2803133","co38176","norming","","","{""aha"":2}","[0]","../img/tt/1089tt.jpg","",""
"null","<div style=""font-size:60px;""> </div>","null","fixation","html-keyboard-response","286","1060063","0.0-6.0-0.40","2803133","co38176","norming","","","","","","",""
"null","../img/tt/1127tt.jpg","null","mooney1","image-keyboard-response","287","1063065","0.0-6.0-1.40","2803133","co38176","norming","","","","","","",""
"3537.125000002794","","","post_mooney1_questions","survey-likert","288","1066605","0.0-6.0-2.40","2803133","co38176","norming","","","{""curiosity"":6,""confidence"":0}","[0,1]","../img/tt/1127tt.jpg","",""
"870.1000000000931","","","recognition","survey-text","289","1067476","0.0-6.0-3.40","2803133","co38176","norming","","","{""guess"":""""}","","../img/tt/1127tt.jpg","",""
"null","../img/gs/1127gs.jpg","null","reveal","image-keyboard-response","290","1069478","0.0-6.0-4.40","2803133","co38176","norming","","","","","","",""
"null","../img/tt/1127tt.jpg","null","mooney2","image-keyboard-response","291","1071480","0.0-6.0-5.40","2803133","co38176","norming","","","","","","",""
"3010.934999998659","","","post_reveal_questions","survey-likert","292","1074492","0.0-6.0-6.40","2803133","co38176","norming","","","{""aha"":0}","[0]","../img/tt/1127tt.jpg","",""
"null","<div style=""font-size:60px;""> </div>","null","fixation","html-keyboard-response","293","1074703","0.0-6.0-0.41","2803133","co38176","norming","","","","","","",""
"null","../img/tt/126tt.jpg","null","mooney1","image-keyboard-response","294","1077704","0.0-6.0-1.41","2803133","co38176","norming","","","","","","",""
"4090.964999995893","","","post_mooney1_questions","survey-likert","295","1081797","0.0-6.0-2.41","2803133","co38176","norming","","","{""curiosity"":5,""confidence"":2}","[0,1]","../img/tt/126tt.jpg","",""
"2149.8999999896623","","","recognition","survey-text","296","1083948","0.0-6.0-3.41","2803133","co38176","norming","","","{""guess"":""water""}","","../img/tt/126tt.jpg","",""
"null","../img/gs/126gs.jpg","null","reveal","image-keyboard-response","297","1085959","0.0-6.0-4.41","2803133","co38176","norming","","","","","","",""
"null","../img/tt/126tt.jpg","null","mooney2","image-keyboard-response","298","1087968","0.0-6.0-5.41","2803133","co38176","norming","","","","","","",""
"3954.624999998603","","","post_reveal_questions","survey-likert","299","1091924","0.0-6.0-6.41","2803133","co38176","norming","","","{""aha"":1}","[0]","../img/tt/126tt.jpg","",""
"null","<div style=""font-size:60px;""> </div>","null","fixation","html-keyboard-response","300","1092133","0.0-6.0-0.42","2803133","co38176","norming","","","","","","",""
"null","../img/tt/1268tt.jpg","null","mooney1","image-keyboard-response","301","1095142","0.0-6.0-1.42","2803133","co38176","norming","","","","","","",""
"3060.8750000102445","","","post_mooney1_questions","survey-likert","302","1098205","0.0-6.0-2.42","2803133","co38176","norming","","","{""curiosity"":5,""confidence"":0}","[0,1]","../img/tt/1268tt.jpg","",""
"782.0250000075903","","","recognition","survey-text","303","1098988","0.0-6.0-3.42","2803133","co38176","norming","","","{""guess"":""""}","","../img/tt/1268tt.jpg","",""
"null","../img/gs/1268gs.jpg","null","reveal","image-keyboard-response","304","1100994","0.0-6.0-4.42","2803133","co38176","norming","","","","","","",""
"null","../img/tt/1268tt.jpg","null","mooney2","image-keyboard-response","305","1103004","0.0-6.0-5.42","2803133","co38176","norming","","","","","","",""
"2340.530000001192","","","post_reveal_questions","survey-likert","306","1105346","0.0-6.0-6.42","2803133","co38176","norming","","","{""aha"":2}","[0]","../img/tt/1268tt.jpg","",""
"null","<div style=""font-size:60px;""> </div>","null","fixation","html-keyboard-response","307","1105553","0.0-6.0-0.43","2803133","co38176","norming","","","","","","",""
"null","../img/tt/1290tt.jpg","null","mooney1","image-keyboard-response","308","1108560","0.0-6.0-1.43","2803133","co38176","norming","","","","","","",""
"3911.6450000000186","","","post_mooney1_questions","survey-likert","309","1112474","0.0-6.0-2.43","2803133","co38176","norming","","","{""curiosity"":5,""confidence"":1}","[0,1]","../img/tt/1290tt.jpg","",""
"5054.264999998966","","","recognition","survey-text","310","1117530","0.0-6.0-3.43","2803133","co38176","norming","","","{""guess"":""kabelbaan""}","","../img/tt/1290tt.jpg","",""
"null","../img/gs/1290gs.jpg","null","reveal","image-keyboard-response","311","1119533","0.0-6.0-4.43","2803133","co38176","norming","","","","","","",""
"null","../img/tt/1290tt.jpg","null","mooney2","image-keyboard-response","312","1121542","0.0-6.0-5.43","2803133","co38176","norming","","","","","","",""
"1674.2450000019744","","","post_reveal_questions","survey-likert","313","1123218","0.0-6.0-6.43","2803133","co38176","norming","","","{""aha"":1}","[0]","../img/tt/1290tt.jpg","",""
"null","<div style=""font-size:60px;""> </div>","null","fixation","html-keyboard-response","314","1123425","0.0-6.0-0.44","2803133","co38176","norming","","","","","","",""
"null","../img/tt/1125tt.jpg","null","mooney1","image-keyboard-response","315","1126426","0.0-6.0-1.44","2803133","co38176","norming","","","","","","",""
"4727.109999992419","","","post_mooney1_questions","survey-likert","316","1131154","0.0-6.0-2.44","2803133","co38176","norming","","","{""curiosity"":5,""confidence"":2}","[0,1]","../img/tt/1125tt.jpg","",""
"2389.8650000046473","","","recognition","survey-text","317","1133546","0.0-6.0-3.44","2803133","co38176","norming","","","{""guess"":""lezen""}","","../img/tt/1125tt.jpg","",""
"null","../img/gs/1125gs.jpg","null","reveal","image-keyboard-response","318","1135552","0.0-6.0-4.44","2803133","co38176","norming","","","","","","",""
"null","../img/tt/1125tt.jpg","null","mooney2","image-keyboard-response","319","1137563","0.0-6.0-5.44","2803133","co38176","norming","","","","","","",""
"2612.385000000242","","","post_reveal_questions","survey-likert","320","1140178","0.0-6.0-6.44","2803133","co38176","norming","","","{""aha"":4}","[0]","../img/tt/1125tt.jpg","",""
"null","<div style=""font-size:60px;""> </div>","null","fixation","html-keyboard-response","321","1140380","0.0-6.0-0.45","2803133","co38176","norming","","","","","","",""
"null","../img/tt/416tt.jpg","null","mooney1","image-keyboard-response","322","1143386","0.0-6.0-1.45","2803133","co38176","norming","","","","","","",""
"5245.399999999907","","","post_mooney1_questions","survey-likert","323","1148634","0.0-6.0-2.45","2803133","co38176","norming","","","{""curiosity"":4,""confidence"":3}","[0,1]","../img/tt/416tt.jpg","",""
"2093.844999995781","","","recognition","survey-text","324","1150730","0.0-6.0-3.45","2803133","co38176","norming","","","{""guess"":""straat""}","","../img/tt/416tt.jpg","",""
"null","../img/gs/416gs.jpg","null","reveal","image-keyboard-response","325","1152740","0.0-6.0-4.45","2803133","co38176","norming","","","","","","",""
"null","../img/tt/416tt.jpg","null","mooney2","image-keyboard-response","326","1154744","0.0-6.0-5.45","2803133","co38176","norming","","","","","","",""
"3704.9050000060815","","","post_reveal_questions","survey-likert","327","1158450","0.0-6.0-6.45","2803133","co38176","norming","","","{""aha"":1}","[0]","../img/tt/416tt.jpg","",""
"null","<div style=""font-size:60px;""> </div>","null","fixation","html-keyboard-response","328","1158654","0.0-6.0-0.46","2803133","co38176","norming","","","","","","",""
"null","../img/tt/1130tt.jpg","null","mooney1","image-keyboard-response","329","1161664","0.0-6.0-1.46","2803133","co38176","norming","","","","","","",""
"7471.404999989551","","","post_mooney1_questions","survey-likert","330","1169140","0.0-6.0-2.46","2803133","co38176","norming","","","{""curiosity"":5,""confidence"":3}","[0,1]","../img/tt/1130tt.jpg","",""
"2422.044999999227","","","recognition","survey-text","331","1171564","0.0-6.0-3.46","2803133","co38176","norming","","","{""guess"":""basket""}","","../img/tt/1130tt.jpg","",""
"null","../img/gs/1130gs.jpg","null","reveal","image-keyboard-response","332","1173570","0.0-6.0-4.46","2803133","co38176","norming","","","","","","",""
"null","../img/tt/1130tt.jpg","null","mooney2","image-keyboard-response","333","1175571","0.0-6.0-5.46","2803133","co38176","norming","","","","","","",""
"5046.344999995315","","","post_reveal_questions","survey-likert","334","1180620","0.0-6.0-6.46","2803133","co38176","norming","","","{""aha"":4}","[0]","../img/tt/1130tt.jpg","",""
"null","<div style=""font-size:60px;""> </div>","null","fixation","html-keyboard-response","335","1180827","0.0-6.0-0.47","2803133","co38176","norming","","","","","","",""
"null","../img/tt/060tt.jpg","null","mooney1","image-keyboard-response","336","1183836","0.0-6.0-1.47","2803133","co38176","norming","","","","","","",""
"3972.9349999979604","","","post_mooney1_questions","survey-likert","337","1187812","0.0-6.0-2.47","2803133","co38176","norming","","","{""curiosity"":5,""confidence"":2}","[0,1]","../img/tt/060tt.jpg","",""
"4581.754999991972","","","recognition","survey-text","338","1192396","0.0-6.0-3.47","2803133","co38176","norming","","","{""guess"":""brood""}","","../img/tt/060tt.jpg","",""
"null","../img/gs/060gs.jpg","null","reveal","image-keyboard-response","339","1194406","0.0-6.0-4.47","2803133","co38176","norming","","","","","","",""
"null","../img/tt/060tt.jpg","null","mooney2","image-keyboard-response","340","1196416","0.0-6.0-5.47","2803133","co38176","norming","","","","","","",""
"4137.545000005048","","","post_reveal_questions","survey-likert","341","1200555","0.0-6.0-6.47","2803133","co38176","norming","","","{""aha"":6}","[0]","../img/tt/060tt.jpg","",""
"null","<div style=""font-size:60px;""> </div>","null","fixation","html-keyboard-response","342","1200765","0.0-6.0-0.48","2803133","co38176","norming","","","","","","",""
"null","../img/tt/318tt.jpg","null","mooney1","image-keyboard-response","343","1203767","0.0-6.0-1.48","2803133","co38176","norming","","","","","","",""
"4330.584999988787","","","post_mooney1_questions","survey-likert","344","1208100","0.0-6.0-2.48","2803133","co38176","norming","","","{""curiosity"":5,""confidence"":0}","[0,1]","../img/tt/318tt.jpg","",""
"901.9899999985937","","","recognition","survey-text","345","1209003","0.0-6.0-3.48","2803133","co38176","norming","","","{""guess"":""""}","","../img/tt/318tt.jpg","",""
"null","../img/gs/318gs.jpg","null","reveal","image-keyboard-response","346","1211014","0.0-6.0-4.48","2803133","co38176","norming","","","","","","",""
"null","../img/tt/318tt.jpg","null","mooney2","image-keyboard-response","347","1213022","0.0-6.0-5.48","2803133","co38176","norming","","","","","","",""
"2412.0949999925215","","","post_reveal_questions","survey-likert","348","1215436","0.0-6.0-6.48","2803133","co38176","norming","","","{""aha"":4}","[0]","../img/tt/318tt.jpg","",""
"null","<div style=""font-size:60px;""> </div>","null","fixation","html-keyboard-response","349","1215642","0.0-6.0-0.49","2803133","co38176","norming","","","","","","",""
"null","../img/tt/1191tt.jpg","null","mooney1","image-keyboard-response","350","1218654","0.0-6.0-1.49","2803133","co38176","norming","","","","","","",""
"6180.655000003986","","","post_mooney1_questions","survey-likert","351","1224836","0.0-6.0-2.49","2803133","co38176","norming","","","{""curiosity"":6,""confidence"":1}","[0,1]","../img/tt/1191tt.jpg","",""
"845.9449999937788","","","recognition","survey-text","352","1225679","0.0-6.0-3.49","2803133","co38176","norming","","","{""guess"":""""}","","../img/tt/1191tt.jpg","",""
"null","../img/gs/1191gs.jpg","null","reveal","image-keyboard-response","353","1227682","0.0-6.0-4.49","2803133","co38176","norming","","","","","","",""
"null","../img/tt/1191tt.jpg","null","mooney2","image-keyboard-response","354","1229683","0.0-6.0-5.49","2803133","co38176","norming","","","","","","",""
"2513.57500000461","","","post_reveal_questions","survey-likert","355","1232199","0.0-6.0-6.49","2803133","co38176","norming","","","{""aha"":5}","[0]","../img/tt/1191tt.jpg","",""
"null","<div style=""font-size:60px;""> </div>","null","fixation","html-keyboard-response","356","1232405","0.0-6.0-0.50","2803133","co38176","norming","","","","","","",""
"null","../img/tt/1175tt.jpg","null","mooney1","image-keyboard-response","357","1235414","0.0-6.0-1.50","2803133","co38176","norming","","","","","","",""
"3558.039999989094","","","post_mooney1_questions","survey-likert","358","1238975","0.0-6.0-2.50","2803133","co38176","norming","","","{""curiosity"":5,""confidence"":1}","[0,1]","../img/tt/1175tt.jpg","",""
"3670.1350000076927","","","recognition","survey-text","359","1242647","0.0-6.0-3.50","2803133","co38176","norming","","","{""guess"":""mexicaan""}","","../img/tt/1175tt.jpg","",""
"null","../img/gs/1175gs.jpg","null","reveal","image-keyboard-response","360","1244652","0.0-6.0-4.50","2803133","co38176","norming","","","","","","",""
"null","../img/tt/1175tt.jpg","null","mooney2","image-keyboard-response","361","1246658","0.0-6.0-5.50","2803133","co38176","norming","","","","","","",""
"3124.3450000036974","","","post_reveal_questions","survey-likert","362","1249783","0.0-6.0-6.50","2803133","co38176","norming","","","{""aha"":2}","[0]","../img/tt/1175tt.jpg","",""
"null","<div style=""font-size:60px;""> </div>","null","fixation","html-keyboard-response","363","1249985","0.0-6.0-0.51","2803133","co38176","norming","","","","","","",""
"null","../img/tt/1070tt.jpg","null","mooney1","image-keyboard-response","364","1252988","0.0-6.0-1.51","2803133","co38176","norming","","","","","","",""
"4184.769999992568","","","post_mooney1_questions","survey-likert","365","1257175","0.0-6.0-2.51","2803133","co38176","norming","","","{""curiosity"":6,""confidence"":0}","[0,1]","../img/tt/1070tt.jpg","",""
"2510.485000006389","","","recognition","survey-text","366","1259687","0.0-6.0-3.51","2803133","co38176","norming","","","{""guess"":""taart""}","","../img/tt/1070tt.jpg","",""
"null","../img/gs/1070gs.jpg","null","reveal","image-keyboard-response","367","1261690","0.0-6.0-4.51","2803133","co38176","norming","","","","","","",""
"null","../img/tt/1070tt.jpg","null","mooney2","image-keyboard-response","368","1263692","0.0-6.0-5.51","2803133","co38176","norming","","","","","","",""
"2673.479999997653","","","post_reveal_questions","survey-likert","369","1266367","0.0-6.0-6.51","2803133","co38176","norming","","","{""aha"":0}","[0]","../img/tt/1070tt.jpg","",""
"null","<div style=""font-size:60px;""> </div>","null","fixation","html-keyboard-response","370","1266570","0.0-6.0-0.52","2803133","co38176","norming","","","","","","",""
"null","../img/tt/599tt.jpg","null","mooney1","image-keyboard-response","371","1269575","0.0-6.0-1.52","2803133","co38176","norming","","","","","","",""
"4333.63500000257","","","post_mooney1_questions","survey-likert","372","1273911","0.0-6.0-2.52","2803133","co38176","norming","","","{""curiosity"":5,""confidence"":2}","[0,1]","../img/tt/599tt.jpg","",""
"4814.299999998417","","","recognition","survey-text","373","1278727","0.0-6.0-3.52","2803133","co38176","norming","","","{""guess"":""bivakmuts""}","","../img/tt/599tt.jpg","",""
"null","../img/gs/599gs.jpg","null","reveal","image-keyboard-response","374","1280737","0.0-6.0-4.52","2803133","co38176","norming","","","","","","",""
"null","../img/tt/599tt.jpg","null","mooney2","image-keyboard-response","375","1282739","0.0-6.0-5.52","2803133","co38176","norming","","","","","","",""
"3090.3599999875296","","","post_reveal_questions","survey-likert","376","1285834","0.0-6.0-6.52","2803133","co38176","norming","","","{""aha"":0}","[0]","../img/tt/599tt.jpg","",""
"null","<div style=""font-size:60px;""> </div>","null","fixation","html-keyboard-response","377","1286042","0.0-6.0-0.53","2803133","co38176","norming","","","","","","",""
"null","../img/tt/1061tt.jpg","null","mooney1","image-keyboard-response","378","1289052","0.0-6.0-1.53","2803133","co38176","norming","","","","","","",""
"7275.584999995772","","","post_mooney1_questions","survey-likert","379","1296330","0.0-6.0-2.53","2803133","co38176","norming","","","{""curiosity"":6,""confidence"":0}","[0,1]","../img/tt/1061tt.jpg","",""
"877.6999999973923","","","recognition","survey-text","380","1297210","0.0-6.0-3.53","2803133","co38176","norming","","","{""guess"":""""}","","../img/tt/1061tt.jpg","",""
"null","../img/gs/1061gs.jpg","null","reveal","image-keyboard-response","381","1299215","0.0-6.0-4.53","2803133","co38176","norming","","","","","","",""
"null","../img/tt/1061tt.jpg","null","mooney2","image-keyboard-response","382","1301222","0.0-6.0-5.53","2803133","co38176","norming","","","","","","",""
"2401.719999994384","","","post_reveal_questions","survey-likert","383","1303626","0.0-6.0-6.53","2803133","co38176","norming","","","{""aha"":1}","[0]","../img/tt/1061tt.jpg","",""
"null","<div style=""font-size:60px;""> </div>","null","fixation","html-keyboard-response","384","1303835","0.0-6.0-0.54","2803133","co38176","norming","","","","","","",""
"null","../img/tt/580tt.jpg","null","mooney1","image-keyboard-response","385","1306838","0.0-6.0-1.54","2803133","co38176","norming","","","","","","",""
"2929.8200000049546","","","post_mooney1_questions","survey-likert","386","1309770","0.0-6.0-2.54","2803133","co38176","norming","","","{""curiosity"":5,""confidence"":1}","[0,1]","../img/tt/580tt.jpg","",""
"2446.200000005774","","","recognition","survey-text","387","1312218","0.0-6.0-3.54","2803133","co38176","norming","","","{""guess"":""boom""}","","../img/tt/580tt.jpg","",""
"null","../img/gs/580gs.jpg","null","reveal","image-keyboard-response","388","1314229","0.0-6.0-4.54","2803133","co38176","norming","","","","","","",""
"null","../img/tt/580tt.jpg","null","mooney2","image-keyboard-response","389","1316239","0.0-6.0-5.54","2803133","co38176","norming","","","","","","",""
"1921.1550000035204","","","post_reveal_questions","survey-likert","390","1318162","0.0-6.0-6.54","2803133","co38176","norming","","","{""aha"":2}","[0]","../img/tt/580tt.jpg","",""
"null","<div style=""font-size:60px;""> </div>","null","fixation","html-keyboard-response","391","1318365","0.0-6.0-0.55","2803133","co38176","norming","","","","","","",""
"null","../img/tt/053tt.jpg","null","mooney1","image-keyboard-response","392","1321376","0.0-6.0-1.55","2803133","co38176","norming","","","","","","",""
"3126.505000007339","","","post_mooney1_questions","survey-likert","393","1324506","0.0-6.0-2.55","2803133","co38176","norming","","","{""curiosity"":6,""confidence"":1}","[0,1]","../img/tt/053tt.jpg","",""
"1518.2849999982864","","","recognition","survey-text","394","1326026","0.0-6.0-3.55","2803133","co38176","norming","","","{""guess"":""sea""}","","../img/tt/053tt.jpg","",""
"null","../img/gs/053gs.jpg","null","reveal","image-keyboard-response","395","1328027","0.0-6.0-4.55","2803133","co38176","norming","","","","","","",""
"null","../img/tt/053tt.jpg","null","mooney2","image-keyboard-response","396","1330030","0.0-6.0-5.55","2803133","co38176","norming","","","","","","",""
"3169.614999991609","","","post_reveal_questions","survey-likert","397","1333201","0.0-6.0-6.55","2803133","co38176","norming","","","{""aha"":4}","[0]","../img/tt/053tt.jpg","",""
"null","<div style=""font-size:60px;""> </div>","null","fixation","html-keyboard-response","398","1333404","0.0-6.0-0.56","2803133","co38176","norming","","","","","","",""
"null","../img/tt/1161tt.jpg","null","mooney1","image-keyboard-response","399","1336410","0.0-6.0-1.56","2803133","co38176","norming","","","","","","",""
"4253.224999993108","","","post_mooney1_questions","survey-likert","400","1340666","0.0-6.0-2.56","2803133","co38176","norming","","","{""curiosity"":5,""confidence"":0}","[0,1]","../img/tt/1161tt.jpg","",""
"1094.1800000001676","","","recognition","survey-text","401","1341762","0.0-6.0-3.56","2803133","co38176","norming","","","{""guess"":""""}","","../img/tt/1161tt.jpg","",""
"null","../img/gs/1161gs.jpg","null","reveal","image-keyboard-response","402","1343771","0.0-6.0-4.56","2803133","co38176","norming","","","","","","",""
"null","../img/tt/1161tt.jpg","null","mooney2","image-keyboard-response","403","1345782","0.0-6.0-5.56","2803133","co38176","norming","","","","","","",""
"3450.314999994822","","","post_reveal_questions","survey-likert","404","1349238","0.0-6.0-6.56","2803133","co38176","norming","","","{""aha"":5}","[0]","../img/tt/1161tt.jpg","",""
"null","<div style=""font-size:60px;""> </div>","null","fixation","html-keyboard-response","405","1349440","0.0-6.0-0.57","2803133","co38176","norming","","","","","","",""
"null","../img/tt/1078tt.jpg","null","mooney1","image-keyboard-response","406","1352449","0.0-6.0-1.57","2803133","co38176","norming","","","","","","",""
"4963.17499999702","","","post_mooney1_questions","survey-likert","407","1357415","0.0-6.0-2.57","2803133","co38176","norming","","","{""curiosity"":5,""confidence"":2}","[0,1]","../img/tt/1078tt.jpg","",""
"3557.9200000064448","","","recognition","survey-text","408","1360974","0.0-6.0-3.57","2803133","co38176","norming","","","{""guess"":""working""}","","../img/tt/1078tt.jpg","",""
"null","../img/gs/1078gs.jpg","null","reveal","image-keyboard-response","409","1362980","0.0-6.0-4.57","2803133","co38176","norming","","","","","","",""
"null","../img/tt/1078tt.jpg","null","mooney2","image-keyboard-response","410","1364990","0.0-6.0-5.57","2803133","co38176","norming","","","","","","",""
"2342.604999997886","","","post_reveal_questions","survey-likert","411","1367334","0.0-6.0-6.57","2803133","co38176","norming","","","{""aha"":4}","[0]","../img/tt/1078tt.jpg","",""
"null","<div style=""font-size:60px;""> </div>","null","fixation","html-keyboard-response","412","1367540","0.0-6.0-0.58","2803133","co38176","norming","","","","","","",""
"null","../img/tt/1107tt.jpg","null","mooney1","image-keyboard-response","413","1370546","0.0-6.0-1.58","2803133","co38176","norming","","","","","","",""
"3929.8750000018626","","","post_mooney1_questions","survey-likert","414","1374479","0.0-6.0-2.58","2803133","co38176","norming","","","{""curiosity"":6,""confidence"":2}","[0,1]","../img/tt/1107tt.jpg","",""
"2061.6699999955017","","","recognition","survey-text","415","1376542","0.0-6.0-3.58","2803133","co38176","norming","","","{""guess"":""kitten""}","","../img/tt/1107tt.jpg","",""
"null","../img/gs/1107gs.jpg","null","reveal","image-keyboard-response","416","1378543","0.0-6.0-4.58","2803133","co38176","norming","","","","","","",""
"null","../img/tt/1107tt.jpg","null","mooney2","image-keyboard-response","417","1380545","0.0-6.0-5.58","2803133","co38176","norming","","","","","","",""
"2243.480000004638","","","post_reveal_questions","survey-likert","418","1382790","0.0-6.0-6.58","2803133","co38176","norming","","","{""aha"":1}","[0]","../img/tt/1107tt.jpg","",""
"null","<div style=""font-size:60px;""> </div>","null","fixation","html-keyboard-response","419","1382999","0.0-6.0-0.59","2803133","co38176","norming","","","","","","",""
"null","../img/tt/1262tt.jpg","null","mooney1","image-keyboard-response","420","1386005","0.0-6.0-1.59","2803133","co38176","norming","","","","","","",""
"3295.54999999539","","","post_mooney1_questions","survey-likert","421","1389303","0.0-6.0-2.59","2803133","co38176","norming","","","{""curiosity"":5,""confidence"":2}","[0,1]","../img/tt/1262tt.jpg","",""
"1445.8250000025146","","","recognition","survey-text","422","1390750","0.0-6.0-3.59","2803133","co38176","norming","","","{""guess"":""owl""}","","../img/tt/1262tt.jpg","",""
"null","../img/gs/1262gs.jpg","null","reveal","image-keyboard-response","423","1392755","0.0-6.0-4.59","2803133","co38176","norming","","","","","","",""
"null","../img/tt/1262tt.jpg","null","mooney2","image-keyboard-response","424","1394759","0.0-6.0-5.59","2803133","co38176","norming","","","","","","",""
"4366.375000012573","","","post_reveal_questions","survey-likert","425","1399126","0.0-6.0-6.59","2803133","co38176","norming","","","{""aha"":5}","[0]","../img/tt/1262tt.jpg","",""
"null","<div style=""font-size:60px;""> </div>","null","fixation","html-keyboard-response","426","1399333","0.0-6.0-0.60","2803133","co38176","norming","","","","","","",""
"null","../img/tt/1080tt.jpg","null","mooney1","image-keyboard-response","427","1402335","0.0-6.0-1.60","2803133","co38176","norming","","","","","","",""
"4493.600000001723","","","post_mooney1_questions","survey-likert","428","1406830","0.0-6.0-2.60","2803133","co38176","norming","","","{""curiosity"":6,""confidence"":0}","[0,1]","../img/tt/1080tt.jpg","",""
"1246.0799999970477","","","recognition","survey-text","429","1408078","0.0-6.0-3.60","2803133","co38176","norming","","","{""guess"":""""}","","../img/tt/1080tt.jpg","",""
"null","../img/gs/1080gs.jpg","null","reveal","image-keyboard-response","430","1410081","0.0-6.0-4.60","2803133","co38176","norming","","","","","","",""
"null","../img/tt/1080tt.jpg","null","mooney2","image-keyboard-response","431","1412086","0.0-6.0-5.60","2803133","co38176","norming","","","","","","",""
"3800.3949999986216","","","post_reveal_questions","survey-likert","432","1415888","0.0-6.0-6.60","2803133","co38176","norming","","","{""aha"":4}","[0]","../img/tt/1080tt.jpg","",""
"null","<div style=""font-size:60px;""> </div>","null","fixation","html-keyboard-response","433","1416099","0.0-6.0-0.61","2803133","co38176","norming","","","","","","",""
"null","../img/tt/279tt.jpg","null","mooney1","image-keyboard-response","434","1419101","0.0-6.0-1.61","2803133","co38176","norming","","","","","","",""
"5104.724999997532","","","post_mooney1_questions","survey-likert","435","1424208","0.0-6.0-2.61","2803133","co38176","norming","","","{""curiosity"":5,""confidence"":0}","[0,1]","../img/tt/279tt.jpg","",""
"574.0400000067893","","","recognition","survey-text","436","1424784","0.0-6.0-3.61","2803133","co38176","norming","","","{""guess"":""""}","","../img/tt/279tt.jpg","",""
"null","../img/gs/279gs.jpg","null","reveal","image-keyboard-response","437","1426788","0.0-6.0-4.61","2803133","co38176","norming","","","","","","",""
"null","../img/tt/279tt.jpg","null","mooney2","image-keyboard-response","438","1428794","0.0-6.0-5.61","2803133","co38176","norming","","","","","","",""
"3067.8599999956787","","","post_reveal_questions","survey-likert","439","1431864","0.0-6.0-6.61","2803133","co38176","norming","","","{""aha"":6}","[0]","../img/tt/279tt.jpg","",""
"null","<div style=""font-size:60px;""> </div>","null","fixation","html-keyboard-response","440","1432073","0.0-6.0-0.62","2803133","co38176","norming","","","","","","",""
"null","../img/tt/085tt.jpg","null","mooney1","image-keyboard-response","441","1435075","0.0-6.0-1.62","2803133","co38176","norming","","","","","","",""
"4002.1600000038743","","","post_mooney1_questions","survey-likert","442","1439080","0.0-6.0-2.62","2803133","co38176","norming","","","{""curiosity"":6,""confidence"":0}","[0,1]","../img/tt/085tt.jpg","",""
"670.1100000063889","","","recognition","survey-text","443","1439752","0.0-6.0-3.62","2803133","co38176","norming","","","{""guess"":""""}","","../img/tt/085tt.jpg","",""
"null","../img/gs/085gs.jpg","null","reveal","image-keyboard-response","444","1441755","0.0-6.0-4.62","2803133","co38176","norming","","","","","","",""
"null","../img/tt/085tt.jpg","null","mooney2","image-keyboard-response","445","1443756","0.0-6.0-5.62","2803133","co38176","norming","","","","","","",""
"2065.549999999348","","","post_reveal_questions","survey-likert","446","1445824","0.0-6.0-6.62","2803133","co38176","norming","","","{""aha"":5}","[0]","../img/tt/085tt.jpg","",""
"null","<div style=""font-size:60px;""> </div>","null","fixation","html-keyboard-response","447","1446027","0.0-6.0-0.63","2803133","co38176","norming","","","","","","",""
"null","../img/tt/300tt.jpg","null","mooney1","image-keyboard-response","448","1449037","0.0-6.0-1.63","2803133","co38176","norming","","","","","","",""
"4720.239999995101","","","post_mooney1_questions","survey-likert","449","1453760","0.0-6.0-2.63","2803133","co38176","norming","","","{""curiosity"":4,""confidence"":4}","[0,1]","../img/tt/300tt.jpg","",""
"2174.0649999994785","","","recognition","survey-text","450","1455936","0.0-6.0-3.63","2803133","co38176","norming","","","{""guess"":""monkey""}","","../img/tt/300tt.jpg","",""
"null","../img/gs/300gs.jpg","null","reveal","image-keyboard-response","451","1457942","0.0-6.0-4.63","2803133","co38176","norming","","","","","","",""
"null","../img/tt/300tt.jpg","null","mooney2","image-keyboard-response","452","1459950","0.0-6.0-5.63","2803133","co38176","norming","","","","","","",""
"2903.5650000006426","","","post_reveal_questions","survey-likert","453","1462856","0.0-6.0-6.63","2803133","co38176","norming","","","{""aha"":3}","[0]","../img/tt/300tt.jpg","",""
"null","<div style=""font-size:60px;""> </div>","null","fixation","html-keyboard-response","454","1463059","0.0-6.0-0.64","2803133","co38176","norming","","","","","","",""
"null","../img/tt/1205tt.jpg","null","mooney1","image-keyboard-response","455","1466068","0.0-6.0-1.64","2803133","co38176","norming","","","","","","",""
"4361.794999989914","","","post_mooney1_questions","survey-likert","456","1470433","0.0-6.0-2.64","2803133","co38176","norming","","","{""curiosity"":6,""confidence"":0}","[0,1]","../img/tt/1205tt.jpg","",""
"645.7950000038836","","","recognition","survey-text","457","1471080","0.0-6.0-3.64","2803133","co38176","norming","","","{""guess"":""""}","","../img/tt/1205tt.jpg","",""
"null","../img/gs/1205gs.jpg","null","reveal","image-keyboard-response","458","1473085","0.0-6.0-4.64","2803133","co38176","norming","","","","","","",""
"null","../img/tt/1205tt.jpg","null","mooney2","image-keyboard-response","459","1475086","0.0-6.0-5.64","2803133","co38176","norming","","","","","","",""
"1807.535000000149","","","post_reveal_questions","survey-likert","460","1476896","0.0-6.0-6.64","2803133","co38176","norming","","","{""aha"":0}","[0]","../img/tt/1205tt.jpg","",""
"null","<div style=""font-size:60px;""> </div>","null","fixation","html-keyboard-response","461","1477107","0.0-6.0-0.65","2803133","co38176","norming","","","","","","",""
"null","../img/tt/524tt.jpg","null","mooney1","image-keyboard-response","462","1480114","0.0-6.0-1.65","2803133","co38176","norming","","","","","","",""
"4379.419999997597","","","post_mooney1_questions","survey-likert","463","1484497","0.0-6.0-2.65","2803133","co38176","norming","","","{""curiosity"":5,""confidence"":3}","[0,1]","../img/tt/524tt.jpg","",""
"1902.3449999950826","","","recognition","survey-text","464","1486401","0.0-6.0-3.65","2803133","co38176","norming","","","{""guess"":""buffel""}","","../img/tt/524tt.jpg","",""
"null","../img/gs/524gs.jpg","null","reveal","image-keyboard-response","465","1488402","0.0-6.0-4.65","2803133","co38176","norming","","","","","","",""
"null","../img/tt/524tt.jpg","null","mooney2","image-keyboard-response","466","1490406","0.0-6.0-5.65","2803133","co38176","norming","","","","","","",""
"3504.499999995576","","","post_reveal_questions","survey-likert","467","1493912","0.0-6.0-6.65","2803133","co38176","norming","","","{""aha"":2}","[0]","../img/tt/524tt.jpg","",""
"null","<div style=""font-size:60px;""> </div>","null","fixation","html-keyboard-response","468","1494113","0.0-6.0-0.66","2803133","co38176","norming","","","","","","",""
"null","../img/tt/1181tt.jpg","null","mooney1","image-keyboard-response","469","1497122","0.0-6.0-1.66","2803133","co38176","norming","","","","","","",""
"4540.455000009388","","","post_mooney1_questions","survey-likert","470","1501665","0.0-6.0-2.66","2803133","co38176","norming","","","{""curiosity"":5,""confidence"":3}","[0,1]","../img/tt/1181tt.jpg","",""
"3581.9400000036694","","","recognition","survey-text","471","1505248","0.0-6.0-3.66","2803133","co38176","norming","","","{""guess"":""verkoper""}","","../img/tt/1181tt.jpg","",""
"null","../img/gs/1181gs.jpg","null","reveal","image-keyboard-response","472","1507256","0.0-6.0-4.66","2803133","co38176","norming","","","","","","",""
"null","../img/tt/1181tt.jpg","null","mooney2","image-keyboard-response","473","1509261","0.0-6.0-5.66","2803133","co38176","norming","","","","","","",""
"3017.2250000033528","","","post_reveal_questions","survey-likert","474","1512280","0.0-6.0-6.66","2803133","co38176","norming","","","{""aha"":4}","[0]","../img/tt/1181tt.jpg","",""
"null","<div style=""font-size:60px;""> </div>","null","fixation","html-keyboard-response","475","1512491","0.0-6.0-0.67","2803133","co38176","norming","","","","","","",""
"null","../img/tt/082tt.jpg","null","mooney1","image-keyboard-response","476","1515502","0.0-6.0-1.67","2803133","co38176","norming","","","","","","",""
"3135.6599999996834","","","post_mooney1_questions","survey-likert","477","1518641","0.0-6.0-2.67","2803133","co38176","norming","","","{""curiosity"":5,""confidence"":1}","[0,1]","../img/tt/082tt.jpg","",""
"2638.129999991972","","","recognition","survey-text","478","1521280","0.0-6.0-3.67","2803133","co38176","norming","","","{""guess"":""cowboy""}","","../img/tt/082tt.jpg","",""
"null","../img/gs/082gs.jpg","null","reveal","image-keyboard-response","479","1523290","0.0-6.0-4.67","2803133","co38176","norming","","","","","","",""
"null","../img/tt/082tt.jpg","null","mooney2","image-keyboard-response","480","1525295","0.0-6.0-5.67","2803133","co38176","norming","","","","","","",""
"1903.5600000061095","","","post_reveal_questions","survey-likert","481","1527200","0.0-6.0-6.67","2803133","co38176","norming","","","{""aha"":3}","[0]","../img/tt/082tt.jpg","",""
"null","<div style=""font-size:60px;""> </div>","null","fixation","html-keyboard-response","482","1527411","0.0-6.0-0.68","2803133","co38176","norming","","","","","","",""
"null","../img/tt/301tt.jpg","null","mooney1","image-keyboard-response","483","1530421","0.0-6.0-1.68","2803133","co38176","norming","","","","","","",""
"2376.66999999783","","","post_mooney1_questions","survey-likert","484","1532801","0.0-6.0-2.68","2803133","co38176","norming","","","{""curiosity"":5,""confidence"":2}","[0,1]","../img/tt/301tt.jpg","",""
"1422.1400000096764","","","recognition","survey-text","485","1534225","0.0-6.0-3.68","2803133","co38176","norming","","","{""guess"":""bus""}","","../img/tt/301tt.jpg","",""
"null","../img/gs/301gs.jpg","null","reveal","image-keyboard-response","486","1536236","0.0-6.0-4.68","2803133","co38176","norming","","","","","","",""
"null","../img/tt/301tt.jpg","null","mooney2","image-keyboard-response","487","1538238","0.0-6.0-5.68","2803133","co38176","norming","","","","","","",""
"1839.7699999916367","","","post_reveal_questions","survey-likert","488","1540081","0.0-6.0-6.68","2803133","co38176","norming","","","{""aha"":0}","[0]","../img/tt/301tt.jpg","",""
"null","<div style=""font-size:60px;""> </div>","null","fixation","html-keyboard-response","489","1540284","0.0-6.0-0.69","2803133","co38176","norming","","","","","","",""
"null","../img/tt/315tt.jpg","null","mooney1","image-keyboard-response","490","1543295","0.0-6.0-1.69","2803133","co38176","norming","","","","","","",""
"4023.0900000021793","","","post_mooney1_questions","survey-likert","491","1547321","0.0-6.0-2.69","2803133","co38176","norming","","","{""curiosity"":6,""confidence"":0}","[0,1]","../img/tt/315tt.jpg","",""
"1141.8950000079349","","","recognition","survey-text","492","1548465","0.0-6.0-3.69","2803133","co38176","norming","","","{""guess"":""""}","","../img/tt/315tt.jpg","",""
"null","../img/gs/315gs.jpg","null","reveal","image-keyboard-response","493","1550467","0.0-6.0-4.69","2803133","co38176","norming","","","","","","",""
"null","../img/tt/315tt.jpg","null","mooney2","image-keyboard-response","494","1552470","0.0-6.0-5.69","2803133","co38176","norming","","","","","","",""
"3296.675000004936","","","post_reveal_questions","survey-likert","495","1555769","0.0-6.0-6.69","2803133","co38176","norming","","","{""aha"":1}","[0]","../img/tt/315tt.jpg","",""
"null","<div style=""font-size:60px;""> </div>","null","fixation","html-keyboard-response","496","1555973","0.0-6.0-0.70","2803133","co38176","norming","","","","","","",""
"null","../img/tt/1123tt.jpg","null","mooney1","image-keyboard-response","497","1558979","0.0-6.0-1.70","2803133","co38176","norming","","","","","","",""
"3283.5849999974016","","","post_mooney1_questions","survey-likert","498","1562265","0.0-6.0-2.70","2803133","co38176","norming","","","{""curiosity"":6,""confidence"":1}","[0,1]","../img/tt/1123tt.jpg","",""
"1734.215000004042","","","recognition","survey-text","499","1564001","0.0-6.0-3.70","2803133","co38176","norming","","","{""guess"":""bal""}","","../img/tt/1123tt.jpg","",""
"null","../img/gs/1123gs.jpg","null","reveal","image-keyboard-response","500","1566002","0.0-6.0-4.70","2803133","co38176","norming","","","","","","",""
"null","../img/tt/1123tt.jpg","null","mooney2","image-keyboard-response","501","1568011","0.0-6.0-5.70","2803133","co38176","norming","","","","","","",""
"2659.604999993462","","","post_reveal_questions","survey-likert","502","1570673","0.0-6.0-6.70","2803133","co38176","norming","","","{""aha"":3}","[0]","../img/tt/1123tt.jpg","",""
"null","<div style=""font-size:60px;""> </div>","null","fixation","html-keyboard-response","503","1570881","0.0-6.0-0.71","2803133","co38176","norming","","","","","","",""
"null","../img/tt/194tt.jpg","null","mooney1","image-keyboard-response","504","1573891","0.0-6.0-1.71","2803133","co38176","norming","","","","","","",""
"4290.974999996368","","","post_mooney1_questions","survey-likert","505","1578185","0.0-6.0-2.71","2803133","co38176","norming","","","{""curiosity"":4,""confidence"":4}","[0,1]","../img/tt/194tt.jpg","",""
"1942.0300000058487","","","recognition","survey-text","506","1580129","0.0-6.0-3.71","2803133","co38176","norming","","","{""guess"":""harp""}","","../img/tt/194tt.jpg","",""
"null","../img/gs/194gs.jpg","null","reveal","image-keyboard-response","507","1582131","0.0-6.0-4.71","2803133","co38176","norming","","","","","","",""
"null","../img/tt/194tt.jpg","null","mooney2","image-keyboard-response","508","1584141","0.0-6.0-5.71","2803133","co38176","norming","","","","","","",""
"3001.0849999962375","","","post_reveal_questions","survey-likert","509","1587144","0.0-6.0-6.71","2803133","co38176","norming","","","{""aha"":0}","[0]","../img/tt/194tt.jpg","",""
"null","<div style=""font-size:60px;""> </div>","null","fixation","html-keyboard-response","510","1587349","0.0-6.0-0.72","2803133","co38176","norming","","","","","","",""
"null","../img/tt/044tt.jpg","null","mooney1","image-keyboard-response","511","1590352","0.0-6.0-1.72","2803133","co38176","norming","","","","","","",""
"6158.524999991758","","","post_mooney1_questions","survey-likert","512","1596509","0.0-6.0-2.72","2803133","co38176","norming","","","{""curiosity"":5,""confidence"":0}","[0,1]","../img/tt/044tt.jpg","",""
"1181.704999995418","","","recognition","survey-text","513","1597692","0.0-6.0-3.72","2803133","co38176","norming","","","{""guess"":""""}","","../img/tt/044tt.jpg","",""
"null","../img/gs/044gs.jpg","null","reveal","image-keyboard-response","514","1599701","0.0-6.0-4.72","2803133","co38176","norming","","","","","","",""
"null","../img/tt/044tt.jpg","null","mooney2","image-keyboard-response","515","1601711","0.0-6.0-5.72","2803133","co38176","norming","","","","","","",""
"3387.4099999957252","","","post_reveal_questions","survey-likert","516","1605101","0.0-6.0-6.72","2803133","co38176","norming","","","{""aha"":4}","[0]","../img/tt/044tt.jpg","",""
"null","<div style=""font-size:60px;""> </div>","null","fixation","html-keyboard-response","517","1605309","0.0-6.0-0.73","2803133","co38176","norming","","","","","","",""
"null","../img/tt/442tt.jpg","null","mooney1","image-keyboard-response","518","1608316","0.0-6.0-1.73","2803133","co38176","norming","","","","","","",""
"3053.4150000019","","","post_mooney1_questions","survey-likert","519","1611373","0.0-6.0-2.73","2803133","co38176","norming","","","{""curiosity"":5,""confidence"":3}","[0,1]","../img/tt/442tt.jpg","",""
"1566.1750000000466","","","recognition","survey-text","520","1612941","0.0-6.0-3.73","2803133","co38176","norming","","","{""guess"":""egel""}","","../img/tt/442tt.jpg","",""
"null","../img/gs/442gs.jpg","null","reveal","image-keyboard-response","521","1614945","0.0-6.0-4.73","2803133","co38176","norming","","","","","","",""
"null","../img/tt/442tt.jpg","null","mooney2","image-keyboard-response","522","1616954","0.0-6.0-5.73","2803133","co38176","norming","","","","","","",""
"2992.0550000099465","","","post_reveal_questions","survey-likert","523","1619949","0.0-6.0-6.73","2803133","co38176","norming","","","{""aha"":5}","[0]","../img/tt/442tt.jpg","",""
"null","<div style=""font-size:60px;""> </div>","null","fixation","html-keyboard-response","524","1620153","0.0-6.0-0.74","2803133","co38176","norming","","","","","","",""
"null","../img/tt/1275tt.jpg","null","mooney1","image-keyboard-response","525","1623155","0.0-6.0-1.74","2803133","co38176","norming","","","","","","",""
"3734.830000001006","","","post_mooney1_questions","survey-likert","526","1626893","0.0-6.0-2.74","2803133","co38176","norming","","","{""curiosity"":6,""confidence"":0}","[0,1]","../img/tt/1275tt.jpg","",""
"206.06500000553206","","","recognition","survey-text","527","1627101","0.0-6.0-3.74","2803133","co38176","norming","","","{""guess"":""""}","","../img/tt/1275tt.jpg","",""
"null","../img/gs/1275gs.jpg","null","reveal","image-keyboard-response","528","1629109","0.0-6.0-4.74","2803133","co38176","norming","","","","","","",""
"null","../img/tt/1275tt.jpg","null","mooney2","image-keyboard-response","529","1631117","0.0-6.0-5.74","2803133","co38176","norming","","","","","","",""
"3318.0299999951385","","","post_reveal_questions","survey-likert","530","1634437","0.0-6.0-6.74","2803133","co38176","norming","","","{""aha"":6}","[0]","../img/tt/1275tt.jpg","",""
"null","<div style=""font-size:60px;""> </div>","null","fixation","html-keyboard-response","531","1634647","0.0-6.0-0.75","2803133","co38176","norming","","","","","","",""
"null","../img/tt/184tt.jpg","null","mooney1","image-keyboard-response","532","1637650","0.0-6.0-1.75","2803133","co38176","norming","","","","","","",""
"3984.8800000036135","","","post_mooney1_questions","survey-likert","533","1641637","0.0-6.0-2.75","2803133","co38176","norming","","","{""curiosity"":6,""confidence"":1}","[0,1]","../img/tt/184tt.jpg","",""
"486.18999999621883","","","recognition","survey-text","534","1642125","0.0-6.0-3.75","2803133","co38176","norming","","","{""guess"":""""}","","../img/tt/184tt.jpg","",""
"null","../img/gs/184gs.jpg","null","reveal","image-keyboard-response","535","1644127","0.0-6.0-4.75","2803133","co38176","norming","","","","","","",""
"null","../img/tt/184tt.jpg","null","mooney2","image-keyboard-response","536","1646131","0.0-6.0-5.75","2803133","co38176","norming","","","","","","",""
"2927.2700000002515","","","post_reveal_questions","survey-likert","537","1649061","0.0-6.0-6.75","2803133","co38176","norming","","","{""aha"":4}","[0]","../img/tt/184tt.jpg","",""
"null","<div style=""font-size:60px;""> </div>","null","fixation","html-keyboard-response","538","1649268","0.0-6.0-0.76","2803133","co38176","norming","","","","","","",""
"null","../img/tt/1173tt.jpg","null","mooney1","image-keyboard-response","539","1652276","0.0-6.0-1.76","2803133","co38176","norming","","","","","","",""
"3197.9699999936856","","","post_mooney1_questions","survey-likert","540","1655477","0.0-6.0-2.76","2803133","co38176","norming","","","{""curiosity"":5,""confidence"":3}","[0,1]","../img/tt/1173tt.jpg","",""
"2934.414999996079","","","recognition","survey-text","541","1658413","0.0-6.0-3.76","2803133","co38176","norming","","","{""guess"":""hockey""}","","../img/tt/1173tt.jpg","",""
"null","../img/gs/1173gs.jpg","null","reveal","image-keyboard-response","542","1660417","0.0-6.0-4.76","2803133","co38176","norming","","","","","","",""
"null","../img/tt/1173tt.jpg","null","mooney2","image-keyboard-response","543","1662419","0.0-6.0-5.76","2803133","co38176","norming","","","","","","",""
"2679.2350000031292","","","post_reveal_questions","survey-likert","544","1665101","0.0-6.0-6.76","2803133","co38176","norming","","","{""aha"":5}","[0]","../img/tt/1173tt.jpg","",""
"null","<div style=""font-size:60px;""> </div>","null","fixation","html-keyboard-response","545","1665306","0.0-6.0-0.77","2803133","co38176","norming","","","","","","",""
"null","../img/tt/559tt.jpg","null","mooney1","image-keyboard-response","546","1668309","0.0-6.0-1.77","2803133","co38176","norming","","","","","","",""
"2980.9900000109337","","","post_mooney1_questions","survey-likert","547","1671293","0.0-6.0-2.77","2803133","co38176","norming","","","{""curiosity"":5,""confidence"":4}","[0,1]","../img/tt/559tt.jpg","",""
"4094.224999993341","","","recognition","survey-text","548","1675389","0.0-6.0-3.77","2803133","co38176","norming","","","{""guess"":""naaimachine""}","","../img/tt/559tt.jpg","",""
"null","../img/gs/559gs.jpg","null","reveal","image-keyboard-response","549","1677396","0.0-6.0-4.77","2803133","co38176","norming","","","","","","",""
"null","../img/tt/559tt.jpg","null","mooney2","image-keyboard-response","550","1679406","0.0-6.0-5.77","2803133","co38176","norming","","","","","","",""
"1876.8150000106543","","","post_reveal_questions","survey-likert","551","1681285","0.0-6.0-6.77","2803133","co38176","norming","","","{""aha"":0}","[0]","../img/tt/559tt.jpg","",""
"null","<div style=""font-size:60px;""> </div>","null","fixation","html-keyboard-response","552","1681489","0.0-6.0-0.78","2803133","co38176","norming","","","","","","",""
