"rt","stimulus","key_press","test_part","trial_type","trial_index","time_elapsed","internal_node_id","totalTime","subject","experiment_name","button_pressed","success","responses","question_order","currentStim","old","correct"
"24269.510000000082","Welcome to the experiment. This is an online experiment so please don't close the tab/window until we say goodbye.  Press any key to begin.","32","instructions","html-keyboard-response","0","24269","0.0-0.0","2897349","co38737","norming","","","","","","",""
"8230.24499999974","<div style='word-wrap: break-word; width: 900px'><h3>Please consider this information carefully before deciding whether to participate in this research</h3><ul style='text-align: left; font-size: .8em;'><li><b>Purpose of the research</b>: To examine how people process images.</li><li><b>What you will do in this research</b>:  Stimuli (images) will be presented on the computer and you will be asked different questions about them.</li><li><b>Time required</b>: Participation will take between 45 and 60 minutes to complete.</li><li><b>Risks</b>:  There are no anticipated risks associated with participating in this study. The effects of participating should be comparable to those you would experience from viewing a computer monitor for 30 minutes and using a mouse or keyboard.</li><li><b>Benefits</b>:  This study provides no benefits to you individually except for the credit. The study provides important information about the nature of perception and learning.</li><li><b>Confidentiality</b>:  Your participation in this study will remain confidential. No personally identifiable information will be associated with your data. Your de-identified data may be shared with other researchers and used in future projects.</li><li><b>Participation and withdrawal</b>:  Your participation in this study is completely voluntary and you may refuse to participate or you may choose to withdraw at any time without penalty.</li><li><b>How to contact the researchers</b>: If you have questions or concerns about your participation or payment, or want to request a summary of research findings, please contact Sander Van de Cruys (KU Leuven), at sander.vandecruys@kuleuven.be.</li></ul><p>The nature and purpose of this research have been sufficiently explained and I agree to participate in this study.  I understand that I am free to withdraw at any time without incurring any penalty.</p><p>Please consent by clicking the button below to continue. Otherwise, please exit the study at this time.</p></div>","","instructions","html-button-response","1","32501","0.0-1.0","2897349","co38737","norming","0","","","","","",""
"","","","instructions","fullscreen","2","35695","0.0-2.0","2897349","co38737","norming","","true","","","","",""
"37914.54500000054","","","sona","survey-html-form","3","73613","0.0-3.0","2897349","co38737","norming","","","[{""name"":""sonaid"",""value"":""38737""},{""name"":""debrief"",""value"":""no""},{""name"":""datajoin"",""value"":""yes""}]","","","",""
"97055.6400000005","<div style='word-wrap: break-word; width: 900px'><h3>Instructions</h3><p>This experiment will have 3 parts. In the first part you will see a series of distorted images like the one below on the left. As you can see in the righthand image, the distorted images are derived from actual photographs. In what follows, you will <strong>briefly</strong> be presented with <strong>only</strong> the distorted image.</p> <div style='float: left; margin-right: 20px;'><img src='../img/018tt.jpg' height='250' width='250'></img></div><div style='float: right; margin-left: 20px;'><img src='../img/018gs.jpg' height='250' width='250'></img></div><p>Subsequently you will be asked a few questions about the image: One question on how <strong>curious</strong> you are about the solution and one on how <strong>confident</strong> you are that you know the solution.</p>Next, we ask you to make a guess on what is in the image. Note that it is OK to name just the <strong>basic level category</strong>. For example when you see a parrot in the image, 'parrot' will obviously be a correct answer but also correct is 'bird'. However, 'animal' will <strong>not</strong> be counted as a correct response. For the example above, 'rose' would be correct or 'flower', but not 'plant'. When soccer players are depicted, 'soccer', 'football', 'soccer players' will be correct, but not 'humans', 'outdoors', or 'sports'. You do not need to describe the image in full, just name the main object in it <strong>in one or two words</strong>. All images depict objects from one of the following broad level categories: animals, inanimate objects, plants, sports, vehicles, and food. Recognizing means knowing <strong>more</strong> than these broad labels for a given image. But we always encourage you to <strong>make a guess</strong> if you can. Note that you are allowed to use <strong>Dutch and English</strong> in your answers, whatever comes easiest for you.</p><p>Press any key to continue.</p></div>","32","instructions","html-keyboard-response","4","170672","0.0-4.0","2897349","co38737","norming","","","","","","",""
"16268.904999999882","<div style='word-wrap: break-word; width: 900px'><h3>Instructions</h3> <p>Next, the solution image will be revealed to you and you'll be asked to indicate how strong your <strong>aha-experience</strong> was after seeing the solution. This describes the positive feeling of the 'click' you sometimes experience, when the pieces of the 'puzzle' fall together and you suddenly have 'insight' in the image.</p><img src='aha.jpg' height='188' width='250'></img><p>Note that there are no right or wrong answers. We are interested in what <strong>you</strong> see in the image and how <strong>you</strong> feel about it.</p><p>Press any key to start the experiment.</p></div>","32","instructions","html-keyboard-response","5","186943","0.0-5.0","2897349","co38737","norming","","","","","","",""
"null","<div style=""font-size:60px;""> </div>","null","fixation","html-keyboard-response","6","187147","0.0-6.0-0.0","2897349","co38737","norming","","","","","","",""
"null","../img/tt/590tt.jpg","null","mooney1","image-keyboard-response","7","190155","0.0-6.0-1.0","2897349","co38737","norming","","","","","","",""
"9464.509999999776","","","post_mooney1_questions","survey-likert","8","199623","0.0-6.0-2.0","2897349","co38737","norming","","","{""curiosity"":5,""confidence"":0}","[0,1]","../img/tt/590tt.jpg","",""
"10469.364999999932","","","recognition","survey-text","9","210095","0.0-6.0-3.0","2897349","co38737","norming","","","{""guess"":""theater""}","","../img/tt/590tt.jpg","",""
"null","../img/gs/590gs.jpg","null","reveal","image-keyboard-response","10","212105","0.0-6.0-4.0","2897349","co38737","norming","","","","","","",""
"null","../img/tt/590tt.jpg","null","mooney2","image-keyboard-response","11","214113","0.0-6.0-5.0","2897349","co38737","norming","","","","","","",""
"7538.274999999878","","","post_reveal_questions","survey-likert","12","221654","0.0-6.0-6.0","2897349","co38737","norming","","","{""aha"":6}","[0]","../img/tt/590tt.jpg","",""
"null","<div style=""font-size:60px;""> </div>","null","fixation","html-keyboard-response","13","221865","0.0-6.0-0.1","2897349","co38737","norming","","","","","","",""
"null","../img/tt/184tt.jpg","null","mooney1","image-keyboard-response","14","224869","0.0-6.0-1.1","2897349","co38737","norming","","","","","","",""
"7655.214999999793","","","post_mooney1_questions","survey-likert","15","232527","0.0-6.0-2.1","2897349","co38737","norming","","","{""curiosity"":5,""confidence"":0}","[0,1]","../img/tt/184tt.jpg","",""
"2893.989999999554","","","recognition","survey-text","16","235423","0.0-6.0-3.1","2897349","co38737","norming","","","{""guess"":""fruit""}","","../img/tt/184tt.jpg","",""
"null","../img/gs/184gs.jpg","null","reveal","image-keyboard-response","17","237426","0.0-6.0-4.1","2897349","co38737","norming","","","","","","",""
"null","../img/tt/184tt.jpg","null","mooney2","image-keyboard-response","18","239436","0.0-6.0-5.1","2897349","co38737","norming","","","","","","",""
"4296.900000000256","","","post_reveal_questions","survey-likert","19","243735","0.0-6.0-6.1","2897349","co38737","norming","","","{""aha"":4}","[0]","../img/tt/184tt.jpg","",""
"null","<div style=""font-size:60px;""> </div>","null","fixation","html-keyboard-response","20","243944","0.0-6.0-0.2","2897349","co38737","norming","","","","","","",""
"null","../img/tt/1362tt.jpg","null","mooney1","image-keyboard-response","21","246952","0.0-6.0-1.2","2897349","co38737","norming","","","","","","",""
"5542.190000000119","","","post_mooney1_questions","survey-likert","22","252495","0.0-6.0-2.2","2897349","co38737","norming","","","{""curiosity"":5,""confidence"":1}","[0,1]","../img/tt/1362tt.jpg","",""
"2846.0199999999604","","","recognition","survey-text","23","255343","0.0-6.0-3.2","2897349","co38737","norming","","","{""guess"":""bread""}","","../img/tt/1362tt.jpg","",""
"null","../img/gs/1362gs.jpg","null","reveal","image-keyboard-response","24","257346","0.0-6.0-4.2","2897349","co38737","norming","","","","","","",""
"null","../img/tt/1362tt.jpg","null","mooney2","image-keyboard-response","25","259348","0.0-6.0-5.2","2897349","co38737","norming","","","","","","",""
"3337.3199999996286","","","post_reveal_questions","survey-likert","26","262687","0.0-6.0-6.2","2897349","co38737","norming","","","{""aha"":5}","[0]","../img/tt/1362tt.jpg","",""
"null","<div style=""font-size:60px;""> </div>","null","fixation","html-keyboard-response","27","262889","0.0-6.0-0.3","2897349","co38737","norming","","","","","","",""
"null","../img/tt/1070tt.jpg","null","mooney1","image-keyboard-response","28","265894","0.0-6.0-1.3","2897349","co38737","norming","","","","","","",""
"7926.289999999455","","","post_mooney1_questions","survey-likert","29","273823","0.0-6.0-2.3","2897349","co38737","norming","","","{""curiosity"":1,""confidence"":5}","[0,1]","../img/tt/1070tt.jpg","",""
"2798.0450000004494","","","recognition","survey-text","30","276623","0.0-6.0-3.3","2897349","co38737","norming","","","{""guess"":""cake""}","","../img/tt/1070tt.jpg","",""
"null","../img/gs/1070gs.jpg","null","reveal","image-keyboard-response","31","278629","0.0-6.0-4.3","2897349","co38737","norming","","","","","","",""
"null","../img/tt/1070tt.jpg","null","mooney2","image-keyboard-response","32","280639","0.0-6.0-5.3","2897349","co38737","norming","","","","","","",""
"3510.144999999262","","","post_reveal_questions","survey-likert","33","284151","0.0-6.0-6.3","2897349","co38737","norming","","","{""aha"":1}","[0]","../img/tt/1070tt.jpg","",""
"null","<div style=""font-size:60px;""> </div>","null","fixation","html-keyboard-response","34","284360","0.0-6.0-0.4","2897349","co38737","norming","","","","","","",""
"null","../img/tt/353tt.jpg","null","mooney1","image-keyboard-response","35","287365","0.0-6.0-1.4","2897349","co38737","norming","","","","","","",""
"5559.970000000263","","","post_mooney1_questions","survey-likert","36","292936","0.0-6.0-2.4","2897349","co38737","norming","","","{""curiosity"":1,""confidence"":4}","[0,1]","../img/tt/353tt.jpg","",""
"2590.250000000233","","","recognition","survey-text","37","295528","0.0-6.0-3.4","2897349","co38737","norming","","","{""guess"":""pinguin""}","","../img/tt/353tt.jpg","",""
"null","../img/gs/353gs.jpg","null","reveal","image-keyboard-response","38","297536","0.0-6.0-4.4","2897349","co38737","norming","","","","","","",""
"null","../img/tt/353tt.jpg","null","mooney2","image-keyboard-response","39","299554","0.0-6.0-5.4","2897349","co38737","norming","","","","","","",""
"3620.3299999997253","","","post_reveal_questions","survey-likert","40","303176","0.0-6.0-6.4","2897349","co38737","norming","","","{""aha"":1}","[0]","../img/tt/353tt.jpg","",""
"null","<div style=""font-size:60px;""> </div>","null","fixation","html-keyboard-response","41","303377","0.0-6.0-0.5","2897349","co38737","norming","","","","","","",""
"null","../img/tt/378tt.jpg","null","mooney1","image-keyboard-response","42","306380","0.0-6.0-1.5","2897349","co38737","norming","","","","","","",""
"4666.205000000482","","","post_mooney1_questions","survey-likert","43","311048","0.0-6.0-2.5","2897349","co38737","norming","","","{""curiosity"":3,""confidence"":3}","[0,1]","../img/tt/378tt.jpg","",""
"2158.335000000079","","","recognition","survey-text","44","313208","0.0-6.0-3.5","2897349","co38737","norming","","","{""guess"":""dog""}","","../img/tt/378tt.jpg","",""
"null","../img/gs/378gs.jpg","null","reveal","image-keyboard-response","45","315212","0.0-6.0-4.5","2897349","co38737","norming","","","","","","",""
"null","../img/tt/378tt.jpg","null","mooney2","image-keyboard-response","46","317213","0.0-6.0-5.5","2897349","co38737","norming","","","","","","",""
"4577.185000000056","","","post_reveal_questions","survey-likert","47","321791","0.0-6.0-6.5","2897349","co38737","norming","","","{""aha"":3}","[0]","../img/tt/378tt.jpg","",""
"null","<div style=""font-size:60px;""> </div>","null","fixation","html-keyboard-response","48","321994","0.0-6.0-0.6","2897349","co38737","norming","","","","","","",""
"null","../img/tt/477tt.jpg","null","mooney1","image-keyboard-response","49","325003","0.0-6.0-1.6","2897349","co38737","norming","","","","","","",""
"5186.1949999993085","","","post_mooney1_questions","survey-likert","50","330192","0.0-6.0-2.6","2897349","co38737","norming","","","{""curiosity"":5,""confidence"":0}","[0,1]","../img/tt/477tt.jpg","",""
"6694.084999999206","","","recognition","survey-text","51","336887","0.0-6.0-3.6","2897349","co38737","norming","","","{""guess"":""plant""}","","../img/tt/477tt.jpg","",""
"null","../img/gs/477gs.jpg","null","reveal","image-keyboard-response","52","338893","0.0-6.0-4.6","2897349","co38737","norming","","","","","","",""
"null","../img/tt/477tt.jpg","null","mooney2","image-keyboard-response","53","340896","0.0-6.0-5.6","2897349","co38737","norming","","","","","","",""
"3669.630000000354","","","post_reveal_questions","survey-likert","54","344567","0.0-6.0-6.6","2897349","co38737","norming","","","{""aha"":6}","[0]","../img/tt/477tt.jpg","",""
"null","<div style=""font-size:60px;""> </div>","null","fixation","html-keyboard-response","55","344775","0.0-6.0-0.7","2897349","co38737","norming","","","","","","",""
"null","../img/tt/584tt.jpg","null","mooney1","image-keyboard-response","56","347779","0.0-6.0-1.7","2897349","co38737","norming","","","","","","",""
"5881.954999999842","","","post_mooney1_questions","survey-likert","57","353665","0.0-6.0-2.7","2897349","co38737","norming","","","{""curiosity"":1,""confidence"":5}","[0,1]","../img/tt/584tt.jpg","",""
"3270.1750000005704","","","recognition","survey-text","58","356937","0.0-6.0-3.7","2897349","co38737","norming","","","{""guess"":""gereedschap""}","","../img/tt/584tt.jpg","",""
"null","../img/gs/584gs.jpg","null","reveal","image-keyboard-response","59","358947","0.0-6.0-4.7","2897349","co38737","norming","","","","","","",""
"null","../img/tt/584tt.jpg","null","mooney2","image-keyboard-response","60","360957","0.0-6.0-5.7","2897349","co38737","norming","","","","","","",""
"3105.929999999702","","","post_reveal_questions","survey-likert","61","364065","0.0-6.0-6.7","2897349","co38737","norming","","","{""aha"":0}","[0]","../img/tt/584tt.jpg","",""
"null","<div style=""font-size:60px;""> </div>","null","fixation","html-keyboard-response","62","364271","0.0-6.0-0.8","2897349","co38737","norming","","","","","","",""
"null","../img/tt/279tt.jpg","null","mooney1","image-keyboard-response","63","367283","0.0-6.0-1.8","2897349","co38737","norming","","","","","","",""
"5619.579999999551","","","post_mooney1_questions","survey-likert","64","372905","0.0-6.0-2.8","2897349","co38737","norming","","","{""curiosity"":5,""confidence"":0}","[0,1]","../img/tt/279tt.jpg","",""
"4846.324999999546","","","recognition","survey-text","65","377753","0.0-6.0-3.8","2897349","co38737","norming","","","{""guess"":""cat""}","","../img/tt/279tt.jpg","",""
"null","../img/gs/279gs.jpg","null","reveal","image-keyboard-response","66","379757","0.0-6.0-4.8","2897349","co38737","norming","","","","","","",""
"null","../img/tt/279tt.jpg","null","mooney2","image-keyboard-response","67","381760","0.0-6.0-5.8","2897349","co38737","norming","","","","","","",""
"3422.4650000005495","","","post_reveal_questions","survey-likert","68","385184","0.0-6.0-6.8","2897349","co38737","norming","","","{""aha"":6}","[0]","../img/tt/279tt.jpg","",""
"null","<div style=""font-size:60px;""> </div>","null","fixation","html-keyboard-response","69","385393","0.0-6.0-0.9","2897349","co38737","norming","","","","","","",""
"null","../img/tt/1118tt.jpg","null","mooney1","image-keyboard-response","70","388395","0.0-6.0-1.9","2897349","co38737","norming","","","","","","",""
"11892.704999999318","","","post_mooney1_questions","survey-likert","71","400289","0.0-6.0-2.9","2897349","co38737","norming","","","{""curiosity"":5,""confidence"":0}","[0,1]","../img/tt/1118tt.jpg","",""
"7525.885000000009","","","recognition","survey-text","72","407817","0.0-6.0-3.9","2897349","co38737","norming","","","{""guess"":""hert""}","","../img/tt/1118tt.jpg","",""
"null","../img/gs/1118gs.jpg","null","reveal","image-keyboard-response","73","409825","0.0-6.0-4.9","2897349","co38737","norming","","","","","","",""
"null","../img/tt/1118tt.jpg","null","mooney2","image-keyboard-response","74","411829","0.0-6.0-5.9","2897349","co38737","norming","","","","","","",""
"3296.764999999141","","","post_reveal_questions","survey-likert","75","415130","0.0-6.0-6.9","2897349","co38737","norming","","","{""aha"":6}","[0]","../img/tt/1118tt.jpg","",""
"null","<div style=""font-size:60px;""> </div>","null","fixation","html-keyboard-response","76","415339","0.0-6.0-0.10","2897349","co38737","norming","","","","","","",""
"null","../img/tt/1175tt.jpg","null","mooney1","image-keyboard-response","77","418349","0.0-6.0-1.10","2897349","co38737","norming","","","","","","",""
"7146.350000000035","","","post_mooney1_questions","survey-likert","78","425498","0.0-6.0-2.10","2897349","co38737","norming","","","{""curiosity"":4,""confidence"":2}","[0,1]","../img/tt/1175tt.jpg","",""
"1853.3299999998999","","","recognition","survey-text","79","427354","0.0-6.0-3.10","2897349","co38737","norming","","","{""guess"":""beeld""}","","../img/tt/1175tt.jpg","",""
"null","../img/gs/1175gs.jpg","null","reveal","image-keyboard-response","80","429360","0.0-6.0-4.10","2897349","co38737","norming","","","","","","",""
"null","../img/tt/1175tt.jpg","null","mooney2","image-keyboard-response","81","431369","0.0-6.0-5.10","2897349","co38737","norming","","","","","","",""
"2686.134999999951","","","post_reveal_questions","survey-likert","82","434058","0.0-6.0-6.10","2897349","co38737","norming","","","{""aha"":5}","[0]","../img/tt/1175tt.jpg","",""
"null","<div style=""font-size:60px;""> </div>","null","fixation","html-keyboard-response","83","434262","0.0-6.0-0.11","2897349","co38737","norming","","","","","","",""
"null","../img/tt/1125tt.jpg","null","mooney1","image-keyboard-response","84","437265","0.0-6.0-1.11","2897349","co38737","norming","","","","","","",""
"5094.359999999171","","","post_mooney1_questions","survey-likert","85","442362","0.0-6.0-2.11","2897349","co38737","norming","","","{""curiosity"":4,""confidence"":2}","[0,1]","../img/tt/1125tt.jpg","",""
"4494.154999999388","","","recognition","survey-text","86","446858","0.0-6.0-3.11","2897349","co38737","norming","","","{""guess"":""girl""}","","../img/tt/1125tt.jpg","",""
"null","../img/gs/1125gs.jpg","null","reveal","image-keyboard-response","87","448861","0.0-6.0-4.11","2897349","co38737","norming","","","","","","",""
"null","../img/tt/1125tt.jpg","null","mooney2","image-keyboard-response","88","450863","0.0-6.0-5.11","2897349","co38737","norming","","","","","","",""
"3952.814999999653","","","post_reveal_questions","survey-likert","89","454818","0.0-6.0-6.11","2897349","co38737","norming","","","{""aha"":2}","[0]","../img/tt/1125tt.jpg","",""
"null","<div style=""font-size:60px;""> </div>","null","fixation","html-keyboard-response","90","455019","0.0-6.0-0.12","2897349","co38737","norming","","","","","","",""
"null","../img/tt/380tt.jpg","null","mooney1","image-keyboard-response","91","458027","0.0-6.0-1.12","2897349","co38737","norming","","","","","","",""
"4092.7300000002724","","","post_mooney1_questions","survey-likert","92","462122","0.0-6.0-2.12","2897349","co38737","norming","","","{""curiosity"":2,""confidence"":4}","[0,1]","../img/tt/380tt.jpg","",""
"2093.9650000000256","","","recognition","survey-text","93","464218","0.0-6.0-3.12","2897349","co38737","norming","","","{""guess"":""wasbeer""}","","../img/tt/380tt.jpg","",""
"null","../img/gs/380gs.jpg","null","reveal","image-keyboard-response","94","466220","0.0-6.0-4.12","2897349","co38737","norming","","","","","","",""
"null","../img/tt/380tt.jpg","null","mooney2","image-keyboard-response","95","468226","0.0-6.0-5.12","2897349","co38737","norming","","","","","","",""
"2917.375","","","post_reveal_questions","survey-likert","96","471146","0.0-6.0-6.12","2897349","co38737","norming","","","{""aha"":6}","[0]","../img/tt/380tt.jpg","",""
"null","<div style=""font-size:60px;""> </div>","null","fixation","html-keyboard-response","97","471349","0.0-6.0-0.13","2897349","co38737","norming","","","","","","",""
"null","../img/tt/091tt.jpg","null","mooney1","image-keyboard-response","98","474358","0.0-6.0-1.13","2897349","co38737","norming","","","","","","",""
"5099.905000000086","","","post_mooney1_questions","survey-likert","99","479459","0.0-6.0-2.13","2897349","co38737","norming","","","{""curiosity"":6,""confidence"":1}","[0,1]","../img/tt/091tt.jpg","",""
"4998.085000000137","","","recognition","survey-text","100","484458","0.0-6.0-3.13","2897349","co38737","norming","","","{""guess"":""guy""}","","../img/tt/091tt.jpg","",""
"null","../img/gs/091gs.jpg","null","reveal","image-keyboard-response","101","486464","0.0-6.0-4.13","2897349","co38737","norming","","","","","","",""
"null","../img/tt/091tt.jpg","null","mooney2","image-keyboard-response","102","488470","0.0-6.0-5.13","2897349","co38737","norming","","","","","","",""
"3203.994999999879","","","post_reveal_questions","survey-likert","103","491675","0.0-6.0-6.13","2897349","co38737","norming","","","{""aha"":5}","[0]","../img/tt/091tt.jpg","",""
"null","<div style=""font-size:60px;""> </div>","null","fixation","html-keyboard-response","104","491881","0.0-6.0-0.14","2897349","co38737","norming","","","","","","",""
"null","../img/tt/105tt.jpg","null","mooney1","image-keyboard-response","105","494884","0.0-6.0-1.14","2897349","co38737","norming","","","","","","",""
"4908.124999999942","","","post_mooney1_questions","survey-likert","106","499795","0.0-6.0-2.14","2897349","co38737","norming","","","{""curiosity"":5,""confidence"":1}","[0,1]","../img/tt/105tt.jpg","",""
"7701.979999999807","","","recognition","survey-text","107","507498","0.0-6.0-3.14","2897349","co38737","norming","","","{""guess"":""panter""}","","../img/tt/105tt.jpg","",""
"null","../img/gs/105gs.jpg","null","reveal","image-keyboard-response","108","509504","0.0-6.0-4.14","2897349","co38737","norming","","","","","","",""
"null","../img/tt/105tt.jpg","null","mooney2","image-keyboard-response","109","511505","0.0-6.0-5.14","2897349","co38737","norming","","","","","","",""
"4086.5549999998766","","","post_reveal_questions","survey-likert","110","515594","0.0-6.0-6.14","2897349","co38737","norming","","","{""aha"":6}","[0]","../img/tt/105tt.jpg","",""
"null","<div style=""font-size:60px;""> </div>","null","fixation","html-keyboard-response","111","515805","0.0-6.0-0.15","2897349","co38737","norming","","","","","","",""
"null","../img/tt/358tt.jpg","null","mooney1","image-keyboard-response","112","518817","0.0-6.0-1.15","2897349","co38737","norming","","","","","","",""
"9335.694999999716","","","post_mooney1_questions","survey-likert","113","528155","0.0-6.0-2.15","2897349","co38737","norming","","","{""curiosity"":5,""confidence"":1}","[0,1]","../img/tt/358tt.jpg","",""
"6997.835000000079","","","recognition","survey-text","114","535155","0.0-6.0-3.15","2897349","co38737","norming","","","{""guess"":""""}","","../img/tt/358tt.jpg","",""
"null","../img/gs/358gs.jpg","null","reveal","image-keyboard-response","115","537163","0.0-6.0-4.15","2897349","co38737","norming","","","","","","",""
"null","../img/tt/358tt.jpg","null","mooney2","image-keyboard-response","116","539165","0.0-6.0-5.15","2897349","co38737","norming","","","","","","",""
"2963.7150000007823","","","post_reveal_questions","survey-likert","117","542131","0.0-6.0-6.15","2897349","co38737","norming","","","{""aha"":6}","[0]","../img/tt/358tt.jpg","",""
"null","<div style=""font-size:60px;""> </div>","null","fixation","html-keyboard-response","118","542338","0.0-6.0-0.16","2897349","co38737","norming","","","","","","",""
"null","../img/tt/416tt.jpg","null","mooney1","image-keyboard-response","119","545342","0.0-6.0-1.16","2897349","co38737","norming","","","","","","",""
"6177.289999999572","","","post_mooney1_questions","survey-likert","120","551523","0.0-6.0-2.16","2897349","co38737","norming","","","{""curiosity"":3,""confidence"":3}","[0,1]","../img/tt/416tt.jpg","",""
"3046.4050000001444","","","recognition","survey-text","121","554571","0.0-6.0-3.16","2897349","co38737","norming","","","{""guess"":""struisvogel""}","","../img/tt/416tt.jpg","",""
"null","../img/gs/416gs.jpg","null","reveal","image-keyboard-response","122","556578","0.0-6.0-4.16","2897349","co38737","norming","","","","","","",""
"null","../img/tt/416tt.jpg","null","mooney2","image-keyboard-response","123","558581","0.0-6.0-5.16","2897349","co38737","norming","","","","","","",""
"2868.0050000002375","","","post_reveal_questions","survey-likert","124","561451","0.0-6.0-6.16","2897349","co38737","norming","","","{""aha"":1}","[0]","../img/tt/416tt.jpg","",""
"null","<div style=""font-size:60px;""> </div>","null","fixation","html-keyboard-response","125","561657","0.0-6.0-0.17","2897349","co38737","norming","","","","","","",""
"null","../img/tt/1097tt.jpg","null","mooney1","image-keyboard-response","126","564665","0.0-6.0-1.17","2897349","co38737","norming","","","","","","",""
"3663.5699999995995","","","post_mooney1_questions","survey-likert","127","568331","0.0-6.0-2.17","2897349","co38737","norming","","","{""curiosity"":1,""confidence"":5}","[0,1]","../img/tt/1097tt.jpg","",""
"1822.2400000004563","","","recognition","survey-text","128","570155","0.0-6.0-3.17","2897349","co38737","norming","","","{""guess"":""kano""}","","../img/tt/1097tt.jpg","",""
"null","../img/gs/1097gs.jpg","null","reveal","image-keyboard-response","129","572165","0.0-6.0-4.17","2897349","co38737","norming","","","","","","",""
"null","../img/tt/1097tt.jpg","null","mooney2","image-keyboard-response","130","574167","0.0-6.0-5.17","2897349","co38737","norming","","","","","","",""
"2785.9499999994878","","","post_reveal_questions","survey-likert","131","576955","0.0-6.0-6.17","2897349","co38737","norming","","","{""aha"":3}","[0]","../img/tt/1097tt.jpg","",""
"null","<div style=""font-size:60px;""> </div>","null","fixation","html-keyboard-response","132","577156","0.0-6.0-0.18","2897349","co38737","norming","","","","","","",""
"null","../img/tt/507tt.jpg","null","mooney1","image-keyboard-response","133","580167","0.0-6.0-1.18","2897349","co38737","norming","","","","","","",""
"5090.040000000037","","","post_mooney1_questions","survey-likert","134","585260","0.0-6.0-2.18","2897349","co38737","norming","","","{""curiosity"":5,""confidence"":0}","[0,1]","../img/tt/507tt.jpg","",""
"733.9850000008009","","","recognition","survey-text","135","585995","0.0-6.0-3.18","2897349","co38737","norming","","","{""guess"":""""}","","../img/tt/507tt.jpg","",""
"null","../img/gs/507gs.jpg","null","reveal","image-keyboard-response","136","587996","0.0-6.0-4.18","2897349","co38737","norming","","","","","","",""
"null","../img/tt/507tt.jpg","null","mooney2","image-keyboard-response","137","590006","0.0-6.0-5.18","2897349","co38737","norming","","","","","","",""
"3051.5800000003073","","","post_reveal_questions","survey-likert","138","593059","0.0-6.0-6.18","2897349","co38737","norming","","","{""aha"":4}","[0]","../img/tt/507tt.jpg","",""
"null","<div style=""font-size:60px;""> </div>","null","fixation","html-keyboard-response","139","593261","0.0-6.0-0.19","2897349","co38737","norming","","","","","","",""
"null","../img/tt/1084tt.jpg","null","mooney1","image-keyboard-response","140","596265","0.0-6.0-1.19","2897349","co38737","norming","","","","","","",""
"5728.7200000000885","","","post_mooney1_questions","survey-likert","141","601996","0.0-6.0-2.19","2897349","co38737","norming","","","{""curiosity"":1,""confidence"":5}","[0,1]","../img/tt/1084tt.jpg","",""
"1949.9500000001863","","","recognition","survey-text","142","603948","0.0-6.0-3.19","2897349","co38737","norming","","","{""guess"":""taart""}","","../img/tt/1084tt.jpg","",""
"null","../img/gs/1084gs.jpg","null","reveal","image-keyboard-response","143","605949","0.0-6.0-4.19","2897349","co38737","norming","","","","","","",""
"null","../img/tt/1084tt.jpg","null","mooney2","image-keyboard-response","144","607952","0.0-6.0-5.19","2897349","co38737","norming","","","","","","",""
"3625.3450000003213","","","post_reveal_questions","survey-likert","145","611580","0.0-6.0-6.19","2897349","co38737","norming","","","{""aha"":0}","[0]","../img/tt/1084tt.jpg","",""
"null","<div style=""font-size:60px;""> </div>","null","fixation","html-keyboard-response","146","611783","0.0-6.0-0.20","2897349","co38737","norming","","","","","","",""
"null","../img/tt/032tt.jpg","null","mooney1","image-keyboard-response","147","614791","0.0-6.0-1.20","2897349","co38737","norming","","","","","","",""
"7017.799999999581","","","post_mooney1_questions","survey-likert","148","621812","0.0-6.0-2.20","2897349","co38737","norming","","","{""curiosity"":4,""confidence"":2}","[0,1]","../img/tt/032tt.jpg","",""
"1510.4399999999441","","","recognition","survey-text","149","623324","0.0-6.0-3.20","2897349","co38737","norming","","","{""guess"":""koala""}","","../img/tt/032tt.jpg","",""
"null","../img/gs/032gs.jpg","null","reveal","image-keyboard-response","150","625326","0.0-6.0-4.20","2897349","co38737","norming","","","","","","",""
"null","../img/tt/032tt.jpg","null","mooney2","image-keyboard-response","151","627337","0.0-6.0-5.20","2897349","co38737","norming","","","","","","",""
"2521.3450000000885","","","post_reveal_questions","survey-likert","152","629860","0.0-6.0-6.20","2897349","co38737","norming","","","{""aha"":6}","[0]","../img/tt/032tt.jpg","",""
"null","<div style=""font-size:60px;""> </div>","null","fixation","html-keyboard-response","153","630062","0.0-6.0-0.21","2897349","co38737","norming","","","","","","",""
"null","../img/tt/1188tt.jpg","null","mooney1","image-keyboard-response","154","633069","0.0-6.0-1.21","2897349","co38737","norming","","","","","","",""
"4315.825000000652","","","post_mooney1_questions","survey-likert","155","637388","0.0-6.0-2.21","2897349","co38737","norming","","","{""curiosity"":4,""confidence"":1}","[0,1]","../img/tt/1188tt.jpg","",""
"1566.1900000004098","","","recognition","survey-text","156","638956","0.0-6.0-3.21","2897349","co38737","norming","","","{""guess"":""man""}","","../img/tt/1188tt.jpg","",""
"null","../img/gs/1188gs.jpg","null","reveal","image-keyboard-response","157","640960","0.0-6.0-4.21","2897349","co38737","norming","","","","","","",""
"null","../img/tt/1188tt.jpg","null","mooney2","image-keyboard-response","158","642969","0.0-6.0-5.21","2897349","co38737","norming","","","","","","",""
"2816.3750000003492","","","post_reveal_questions","survey-likert","159","645788","0.0-6.0-6.21","2897349","co38737","norming","","","{""aha"":4}","[0]","../img/tt/1188tt.jpg","",""
"null","<div style=""font-size:60px;""> </div>","null","fixation","html-keyboard-response","160","645993","0.0-6.0-0.22","2897349","co38737","norming","","","","","","",""
"null","../img/tt/1270tt.jpg","null","mooney1","image-keyboard-response","161","649003","0.0-6.0-1.22","2897349","co38737","norming","","","","","","",""
"3374.299999999581","","","post_mooney1_questions","survey-likert","162","652380","0.0-6.0-2.22","2897349","co38737","norming","","","{""curiosity"":6,""confidence"":0}","[0,1]","../img/tt/1270tt.jpg","",""
"2782.614999999176","","","recognition","survey-text","163","655164","0.0-6.0-3.22","2897349","co38737","norming","","","{""guess"":""""}","","../img/tt/1270tt.jpg","",""
"null","../img/gs/1270gs.jpg","null","reveal","image-keyboard-response","164","657166","0.0-6.0-4.22","2897349","co38737","norming","","","","","","",""
"null","../img/tt/1270tt.jpg","null","mooney2","image-keyboard-response","165","659168","0.0-6.0-5.22","2897349","co38737","norming","","","","","","",""
"2186.0799999994924","","","post_reveal_questions","survey-likert","166","661356","0.0-6.0-6.22","2897349","co38737","norming","","","{""aha"":6}","[0]","../img/tt/1270tt.jpg","",""
"null","<div style=""font-size:60px;""> </div>","null","fixation","html-keyboard-response","167","661564","0.0-6.0-0.23","2897349","co38737","norming","","","","","","",""
"null","../img/tt/307tt.jpg","null","mooney1","image-keyboard-response","168","664568","0.0-6.0-1.23","2897349","co38737","norming","","","","","","",""
"8881.849999999744","","","post_mooney1_questions","survey-likert","169","673452","0.0-6.0-2.23","2897349","co38737","norming","","","{""curiosity"":6,""confidence"":0}","[0,1]","../img/tt/307tt.jpg","",""
"1118.1699999996927","","","recognition","survey-text","170","674572","0.0-6.0-3.23","2897349","co38737","norming","","","{""guess"":""""}","","../img/tt/307tt.jpg","",""
"null","../img/gs/307gs.jpg","null","reveal","image-keyboard-response","171","676581","0.0-6.0-4.23","2897349","co38737","norming","","","","","","",""
"null","../img/tt/307tt.jpg","null","mooney2","image-keyboard-response","172","678592","0.0-6.0-5.23","2897349","co38737","norming","","","","","","",""
"2666.050000000745","","","post_reveal_questions","survey-likert","173","681260","0.0-6.0-6.23","2897349","co38737","norming","","","{""aha"":6}","[0]","../img/tt/307tt.jpg","",""
"null","<div style=""font-size:60px;""> </div>","null","fixation","html-keyboard-response","174","681468","0.0-6.0-0.24","2897349","co38737","norming","","","","","","",""
"null","../img/tt/1217tt.jpg","null","mooney1","image-keyboard-response","175","684472","0.0-6.0-1.24","2897349","co38737","norming","","","","","","",""
"6603.495000000345","","","post_mooney1_questions","survey-likert","176","691076","0.0-6.0-2.24","2897349","co38737","norming","","","{""curiosity"":1,""confidence"":5}","[0,1]","../img/tt/1217tt.jpg","",""
"3413.985000000219","","","recognition","survey-text","177","694492","0.0-6.0-3.24","2897349","co38737","norming","","","{""guess"":""voetballers""}","","../img/tt/1217tt.jpg","",""
"null","../img/gs/1217gs.jpg","null","reveal","image-keyboard-response","178","696493","0.0-6.0-4.24","2897349","co38737","norming","","","","","","",""
"null","../img/tt/1217tt.jpg","null","mooney2","image-keyboard-response","179","698498","0.0-6.0-5.24","2897349","co38737","norming","","","","","","",""
"2928.6650000003865","","","post_reveal_questions","survey-likert","180","701428","0.0-6.0-6.24","2897349","co38737","norming","","","{""aha"":5}","[0]","../img/tt/1217tt.jpg","",""
"null","<div style=""font-size:60px;""> </div>","null","fixation","html-keyboard-response","181","701638","0.0-6.0-0.25","2897349","co38737","norming","","","","","","",""
"null","../img/tt/112tt.jpg","null","mooney1","image-keyboard-response","182","704646","0.0-6.0-1.25","2897349","co38737","norming","","","","","","",""
"9299.960000000312","","","post_mooney1_questions","survey-likert","183","713948","0.0-6.0-2.25","2897349","co38737","norming","","","{""curiosity"":6,""confidence"":0}","[0,1]","../img/tt/112tt.jpg","",""
"1286.0850000006612","","","recognition","survey-text","184","715236","0.0-6.0-3.25","2897349","co38737","norming","","","{""guess"":""""}","","../img/tt/112tt.jpg","",""
"null","../img/gs/112gs.jpg","null","reveal","image-keyboard-response","185","717238","0.0-6.0-4.25","2897349","co38737","norming","","","","","","",""
"null","../img/tt/112tt.jpg","null","mooney2","image-keyboard-response","186","719241","0.0-6.0-5.25","2897349","co38737","norming","","","","","","",""
"2456.6999999997206","","","post_reveal_questions","survey-likert","187","721700","0.0-6.0-6.25","2897349","co38737","norming","","","{""aha"":6}","[0]","../img/tt/112tt.jpg","",""
"null","<div style=""font-size:60px;""> </div>","null","fixation","html-keyboard-response","188","721905","0.0-6.0-0.26","2897349","co38737","norming","","","","","","",""
"null","../img/tt/1228tt.jpg","null","mooney1","image-keyboard-response","189","724908","0.0-6.0-1.26","2897349","co38737","norming","","","","","","",""
"4677.8150000000605","","","post_mooney1_questions","survey-likert","190","729589","0.0-6.0-2.26","2897349","co38737","norming","","","{""curiosity"":3,""confidence"":3}","[0,1]","../img/tt/1228tt.jpg","",""
"2821.99000000034","","","recognition","survey-text","191","732412","0.0-6.0-3.26","2897349","co38737","norming","","","{""guess"":""vis""}","","../img/tt/1228tt.jpg","",""
"null","../img/gs/1228gs.jpg","null","reveal","image-keyboard-response","192","734418","0.0-6.0-4.26","2897349","co38737","norming","","","","","","",""
"null","../img/tt/1228tt.jpg","null","mooney2","image-keyboard-response","193","736420","0.0-6.0-5.26","2897349","co38737","norming","","","","","","",""
"3975.2000000007683","","","post_reveal_questions","survey-likert","194","740396","0.0-6.0-6.26","2897349","co38737","norming","","","{""aha"":6}","[0]","../img/tt/1228tt.jpg","",""
"null","<div style=""font-size:60px;""> </div>","null","fixation","html-keyboard-response","195","740600","0.0-6.0-0.27","2897349","co38737","norming","","","","","","",""
"null","../img/tt/064tt.jpg","null","mooney1","image-keyboard-response","196","743606","0.0-6.0-1.27","2897349","co38737","norming","","","","","","",""
"8212.210000000545","","","post_mooney1_questions","survey-likert","197","751821","0.0-6.0-2.27","2897349","co38737","norming","","","{""curiosity"":4,""confidence"":1}","[0,1]","../img/tt/064tt.jpg","",""
"1646.2449999999953","","","recognition","survey-text","198","753468","0.0-6.0-3.27","2897349","co38737","norming","","","{""guess"":""""}","","../img/tt/064tt.jpg","",""
"null","../img/gs/064gs.jpg","null","reveal","image-keyboard-response","199","755470","0.0-6.0-4.27","2897349","co38737","norming","","","","","","",""
"null","../img/tt/064tt.jpg","null","mooney2","image-keyboard-response","200","757474","0.0-6.0-5.27","2897349","co38737","norming","","","","","","",""
"5984.8199999995995","","","post_reveal_questions","survey-likert","201","763461","0.0-6.0-6.27","2897349","co38737","norming","","","{""aha"":5}","[0]","../img/tt/064tt.jpg","",""
"null","<div style=""font-size:60px;""> </div>","null","fixation","html-keyboard-response","202","763662","0.0-6.0-0.28","2897349","co38737","norming","","","","","","",""
"null","../img/tt/534tt.jpg","null","mooney1","image-keyboard-response","203","766667","0.0-6.0-1.28","2897349","co38737","norming","","","","","","",""
"6910.1300000002375","","","post_mooney1_questions","survey-likert","204","773580","0.0-6.0-2.28","2897349","co38737","norming","","","{""curiosity"":5,""confidence"":1}","[0,1]","../img/tt/534tt.jpg","",""
"1982.4149999995716","","","recognition","survey-text","205","775565","0.0-6.0-3.28","2897349","co38737","norming","","","{""guess"":""animal""}","","../img/tt/534tt.jpg","",""
"null","../img/gs/534gs.jpg","null","reveal","image-keyboard-response","206","777567","0.0-6.0-4.28","2897349","co38737","norming","","","","","","",""
"null","../img/tt/534tt.jpg","null","mooney2","image-keyboard-response","207","779570","0.0-6.0-5.28","2897349","co38737","norming","","","","","","",""
"2912.1949999998324","","","post_reveal_questions","survey-likert","208","782484","0.0-6.0-6.28","2897349","co38737","norming","","","{""aha"":6}","[0]","../img/tt/534tt.jpg","",""
"null","<div style=""font-size:60px;""> </div>","null","fixation","html-keyboard-response","209","782691","0.0-6.0-0.29","2897349","co38737","norming","","","","","","",""
"null","../img/tt/580tt.jpg","null","mooney1","image-keyboard-response","210","785697","0.0-6.0-1.29","2897349","co38737","norming","","","","","","",""
"6384.975000000792","","","post_mooney1_questions","survey-likert","211","792085","0.0-6.0-2.29","2897349","co38737","norming","","","{""curiosity"":6,""confidence"":0}","[0,1]","../img/tt/580tt.jpg","",""
"1270.1350000007078","","","recognition","survey-text","212","793356","0.0-6.0-3.29","2897349","co38737","norming","","","{""guess"":""""}","","../img/tt/580tt.jpg","",""
"null","../img/gs/580gs.jpg","null","reveal","image-keyboard-response","213","795360","0.0-6.0-4.29","2897349","co38737","norming","","","","","","",""
"null","../img/tt/580tt.jpg","null","mooney2","image-keyboard-response","214","797362","0.0-6.0-5.29","2897349","co38737","norming","","","","","","",""
"2440.529999999795","","","post_reveal_questions","survey-likert","215","799804","0.0-6.0-6.29","2897349","co38737","norming","","","{""aha"":6}","[0]","../img/tt/580tt.jpg","",""
"null","<div style=""font-size:60px;""> </div>","null","fixation","html-keyboard-response","216","800009","0.0-6.0-0.30","2897349","co38737","norming","","","","","","",""
"null","../img/tt/1066tt.jpg","null","mooney1","image-keyboard-response","217","803014","0.0-6.0-1.30","2897349","co38737","norming","","","","","","",""
"5699.305000000168","","","post_mooney1_questions","survey-likert","218","808716","0.0-6.0-2.30","2897349","co38737","norming","","","{""curiosity"":0,""confidence"":6}","[0,1]","../img/tt/1066tt.jpg","",""
"1838.014999999432","","","recognition","survey-text","219","810556","0.0-6.0-3.30","2897349","co38737","norming","","","{""guess"":""bus""}","","../img/tt/1066tt.jpg","",""
"null","../img/gs/1066gs.jpg","null","reveal","image-keyboard-response","220","812562","0.0-6.0-4.30","2897349","co38737","norming","","","","","","",""
"null","../img/tt/1066tt.jpg","null","mooney2","image-keyboard-response","221","814569","0.0-6.0-5.30","2897349","co38737","norming","","","","","","",""
"2897.885000000242","","","post_reveal_questions","survey-likert","222","817468","0.0-6.0-6.30","2897349","co38737","norming","","","{""aha"":0}","[0]","../img/tt/1066tt.jpg","",""
"null","<div style=""font-size:60px;""> </div>","null","fixation","html-keyboard-response","223","817674","0.0-6.0-0.31","2897349","co38737","norming","","","","","","",""
"null","../img/tt/055tt.jpg","null","mooney1","image-keyboard-response","224","820676","0.0-6.0-1.31","2897349","co38737","norming","","","","","","",""
"3684.959999999497","","","post_mooney1_questions","survey-likert","225","824364","0.0-6.0-2.31","2897349","co38737","norming","","","{""curiosity"":6,""confidence"":1}","[0,1]","../img/tt/055tt.jpg","",""
"1885.8799999997718","","","recognition","survey-text","226","826252","0.0-6.0-3.31","2897349","co38737","norming","","","{""guess"":""book""}","","../img/tt/055tt.jpg","",""
"null","../img/gs/055gs.jpg","null","reveal","image-keyboard-response","227","828254","0.0-6.0-4.31","2897349","co38737","norming","","","","","","",""
"null","../img/tt/055tt.jpg","null","mooney2","image-keyboard-response","228","830262","0.0-6.0-5.31","2897349","co38737","norming","","","","","","",""
"3341.7650000001304","","","post_reveal_questions","survey-likert","229","833604","0.0-6.0-6.31","2897349","co38737","norming","","","{""aha"":6}","[0]","../img/tt/055tt.jpg","",""
"null","<div style=""font-size:60px;""> </div>","null","fixation","html-keyboard-response","230","833810","0.0-6.0-0.32","2897349","co38737","norming","","","","","","",""
"null","../img/tt/1278tt.jpg","null","mooney1","image-keyboard-response","231","836812","0.0-6.0-1.32","2897349","co38737","norming","","","","","","",""
"5174.355000000098","","","post_mooney1_questions","survey-likert","232","841988","0.0-6.0-2.32","2897349","co38737","norming","","","{""curiosity"":6,""confidence"":1}","[0,1]","../img/tt/1278tt.jpg","",""
"2821.855000000098","","","recognition","survey-text","233","844812","0.0-6.0-3.32","2897349","co38737","norming","","","{""guess"":""person""}","","../img/tt/1278tt.jpg","",""
"null","../img/gs/1278gs.jpg","null","reveal","image-keyboard-response","234","846816","0.0-6.0-4.32","2897349","co38737","norming","","","","","","",""
"null","../img/tt/1278tt.jpg","null","mooney2","image-keyboard-response","235","848820","0.0-6.0-5.32","2897349","co38737","norming","","","","","","",""
"5293.070000000531","","","post_reveal_questions","survey-likert","236","854116","0.0-6.0-6.32","2897349","co38737","norming","","","{""aha"":5}","[0]","../img/tt/1278tt.jpg","",""
"null","<div style=""font-size:60px;""> </div>","null","fixation","html-keyboard-response","237","854320","0.0-6.0-0.33","2897349","co38737","norming","","","","","","",""
"null","../img/tt/1037tt.jpg","null","mooney1","image-keyboard-response","238","857330","0.0-6.0-1.33","2897349","co38737","norming","","","","","","",""
"9031.169999999343","","","post_mooney1_questions","survey-likert","239","866364","0.0-6.0-2.33","2897349","co38737","norming","","","{""curiosity"":6,""confidence"":0}","[0,1]","../img/tt/1037tt.jpg","",""
"1621.7999999999302","","","recognition","survey-text","240","867988","0.0-6.0-3.33","2897349","co38737","norming","","","{""guess"":""""}","","../img/tt/1037tt.jpg","",""
"null","../img/gs/1037gs.jpg","null","reveal","image-keyboard-response","241","869998","0.0-6.0-4.33","2897349","co38737","norming","","","","","","",""
"null","../img/tt/1037tt.jpg","null","mooney2","image-keyboard-response","242","872001","0.0-6.0-5.33","2897349","co38737","norming","","","","","","",""
"2721.0850000001956","","","post_reveal_questions","survey-likert","243","874724","0.0-6.0-6.33","2897349","co38737","norming","","","{""aha"":6}","[0]","../img/tt/1037tt.jpg","",""
"null","<div style=""font-size:60px;""> </div>","null","fixation","html-keyboard-response","244","874934","0.0-6.0-0.34","2897349","co38737","norming","","","","","","",""
"null","../img/tt/1146tt.jpg","null","mooney1","image-keyboard-response","245","877939","0.0-6.0-1.34","2897349","co38737","norming","","","","","","",""
"12781.710000000196","","","post_mooney1_questions","survey-likert","246","890724","0.0-6.0-2.34","2897349","co38737","norming","","","{""curiosity"":1,""confidence"":4}","[0,1]","../img/tt/1146tt.jpg","",""
"8694.159999999916","","","recognition","survey-text","247","899420","0.0-6.0-3.34","2897349","co38737","norming","","","{""guess"":""car""}","","../img/tt/1146tt.jpg","",""
"null","../img/gs/1146gs.jpg","null","reveal","image-keyboard-response","248","901423","0.0-6.0-4.34","2897349","co38737","norming","","","","","","",""
"null","../img/tt/1146tt.jpg","null","mooney2","image-keyboard-response","249","903425","0.0-6.0-5.34","2897349","co38737","norming","","","","","","",""
"4945.714999999851","","","post_reveal_questions","survey-likert","250","908373","0.0-6.0-6.34","2897349","co38737","norming","","","{""aha"":6}","[0]","../img/tt/1146tt.jpg","",""
"null","<div style=""font-size:60px;""> </div>","null","fixation","html-keyboard-response","251","908581","0.0-6.0-0.35","2897349","co38737","norming","","","","","","",""
"null","../img/tt/315tt.jpg","null","mooney1","image-keyboard-response","252","911591","0.0-6.0-1.35","2897349","co38737","norming","","","","","","",""
"3371.9300000001676","","","post_mooney1_questions","survey-likert","253","914966","0.0-6.0-2.35","2897349","co38737","norming","","","{""curiosity"":6,""confidence"":0}","[0,1]","../img/tt/315tt.jpg","",""
"893.3749999996508","","","recognition","survey-text","254","915861","0.0-6.0-3.35","2897349","co38737","norming","","","{""guess"":""""}","","../img/tt/315tt.jpg","",""
"null","../img/gs/315gs.jpg","null","reveal","image-keyboard-response","255","917866","0.0-6.0-4.35","2897349","co38737","norming","","","","","","",""
"null","../img/tt/315tt.jpg","null","mooney2","image-keyboard-response","256","919873","0.0-6.0-5.35","2897349","co38737","norming","","","","","","",""
"2818.1999999997206","","","post_reveal_questions","survey-likert","257","922693","0.0-6.0-6.35","2897349","co38737","norming","","","{""aha"":6}","[0]","../img/tt/315tt.jpg","",""
"null","<div style=""font-size:60px;""> </div>","null","fixation","html-keyboard-response","258","922898","0.0-6.0-0.36","2897349","co38737","norming","","","","","","",""
"null","../img/tt/1128tt.jpg","null","mooney1","image-keyboard-response","259","925911","0.0-6.0-1.36","2897349","co38737","norming","","","","","","",""
"5187.514999999548","","","post_mooney1_questions","survey-likert","260","931101","0.0-6.0-2.36","2897349","co38737","norming","","","{""curiosity"":1,""confidence"":5}","[0,1]","../img/tt/1128tt.jpg","",""
"1902.1499999999069","","","recognition","survey-text","261","933005","0.0-6.0-3.36","2897349","co38737","norming","","","{""guess"":""girl""}","","../img/tt/1128tt.jpg","",""
"null","../img/gs/1128gs.jpg","null","reveal","image-keyboard-response","262","935015","0.0-6.0-4.36","2897349","co38737","norming","","","","","","",""
"null","../img/tt/1128tt.jpg","null","mooney2","image-keyboard-response","263","937021","0.0-6.0-5.36","2897349","co38737","norming","","","","","","",""
"4613.784999999567","","","post_reveal_questions","survey-likert","264","941637","0.0-6.0-6.36","2897349","co38737","norming","","","{""aha"":1}","[0]","../img/tt/1128tt.jpg","",""
"null","<div style=""font-size:60px;""> </div>","null","fixation","html-keyboard-response","265","941845","0.0-6.0-0.37","2897349","co38737","norming","","","","","","",""
"null","../img/tt/1199tt.jpg","null","mooney1","image-keyboard-response","266","944855","0.0-6.0-1.37","2897349","co38737","norming","","","","","","",""
"3755.9899999996414","","","post_mooney1_questions","survey-likert","267","948613","0.0-6.0-2.37","2897349","co38737","norming","","","{""curiosity"":4,""confidence"":2}","[0,1]","../img/tt/1199tt.jpg","",""
"1638.0799999997253","","","recognition","survey-text","268","950253","0.0-6.0-3.37","2897349","co38737","norming","","","{""guess"":""bed""}","","../img/tt/1199tt.jpg","",""
"null","../img/gs/1199gs.jpg","null","reveal","image-keyboard-response","269","952256","0.0-6.0-4.37","2897349","co38737","norming","","","","","","",""
"null","../img/tt/1199tt.jpg","null","mooney2","image-keyboard-response","270","954267","0.0-6.0-5.37","2897349","co38737","norming","","","","","","",""
"4143.7200000000885","","","post_reveal_questions","survey-likert","271","958413","0.0-6.0-6.37","2897349","co38737","norming","","","{""aha"":6}","[0]","../img/tt/1199tt.jpg","",""
"null","<div style=""font-size:60px;""> </div>","null","fixation","html-keyboard-response","272","958620","0.0-6.0-0.38","2897349","co38737","norming","","","","","","",""
"null","../img/tt/049tt.jpg","null","mooney1","image-keyboard-response","273","961628","0.0-6.0-1.38","2897349","co38737","norming","","","","","","",""
"12054.635000000359","","","post_mooney1_questions","survey-likert","274","973686","0.0-6.0-2.38","2897349","co38737","norming","","","{""curiosity"":5,""confidence"":1}","[0,1]","../img/tt/049tt.jpg","",""
"3045.8799999996554","","","recognition","survey-text","275","976733","0.0-6.0-3.38","2897349","co38737","norming","","","{""guess"":""mouse""}","","../img/tt/049tt.jpg","",""
"null","../img/gs/049gs.jpg","null","reveal","image-keyboard-response","276","978741","0.0-6.0-4.38","2897349","co38737","norming","","","","","","",""
"null","../img/tt/049tt.jpg","null","mooney2","image-keyboard-response","277","980745","0.0-6.0-5.38","2897349","co38737","norming","","","","","","",""
"3234.249999999418","","","post_reveal_questions","survey-likert","278","983981","0.0-6.0-6.38","2897349","co38737","norming","","","{""aha"":6}","[0]","../img/tt/049tt.jpg","",""
"null","<div style=""font-size:60px;""> </div>","null","fixation","html-keyboard-response","279","984189","0.0-6.0-0.39","2897349","co38737","norming","","","","","","",""
"null","../img/tt/036tt.jpg","null","mooney1","image-keyboard-response","280","987194","0.0-6.0-1.39","2897349","co38737","norming","","","","","","",""
"5648.519999999786","","","post_mooney1_questions","survey-likert","281","992846","0.0-6.0-2.39","2897349","co38737","norming","","","{""curiosity"":2,""confidence"":4}","[0,1]","../img/tt/036tt.jpg","",""
"1613.7599999993108","","","recognition","survey-text","282","994461","0.0-6.0-3.39","2897349","co38737","norming","","","{""guess"":""snow""}","","../img/tt/036tt.jpg","",""
"null","../img/gs/036gs.jpg","null","reveal","image-keyboard-response","283","996466","0.0-6.0-4.39","2897349","co38737","norming","","","","","","",""
"null","../img/tt/036tt.jpg","null","mooney2","image-keyboard-response","284","998468","0.0-6.0-5.39","2897349","co38737","norming","","","","","","",""
"4208.489999999991","","","post_reveal_questions","survey-likert","285","1002677","0.0-6.0-6.39","2897349","co38737","norming","","","{""aha"":2}","[0]","../img/tt/036tt.jpg","",""
"null","<div style=""font-size:60px;""> </div>","null","fixation","html-keyboard-response","286","1002881","0.0-6.0-0.40","2897349","co38737","norming","","","","","","",""
"null","../img/tt/1250tt.jpg","null","mooney1","image-keyboard-response","287","1005885","0.0-6.0-1.40","2897349","co38737","norming","","","","","","",""
"8389.814999999595","","","post_mooney1_questions","survey-likert","288","1014277","0.0-6.0-2.40","2897349","co38737","norming","","","{""curiosity"":4,""confidence"":1}","[0,1]","../img/tt/1250tt.jpg","",""
"2806.1750000006286","","","recognition","survey-text","289","1017085","0.0-6.0-3.40","2897349","co38737","norming","","","{""guess"":""kalkoen""}","","../img/tt/1250tt.jpg","",""
"null","../img/gs/1250gs.jpg","null","reveal","image-keyboard-response","290","1019087","0.0-6.0-4.40","2897349","co38737","norming","","","","","","",""
"null","../img/tt/1250tt.jpg","null","mooney2","image-keyboard-response","291","1021090","0.0-6.0-5.40","2897349","co38737","norming","","","","","","",""
"2888.8200000001816","","","post_reveal_questions","survey-likert","292","1023974","0.0-6.0-6.40","2897349","co38737","norming","","","{""aha"":6}","[0]","../img/tt/1250tt.jpg","",""
"null","<div style=""font-size:60px;""> </div>","null","fixation","html-keyboard-response","293","1024177","0.0-6.0-0.41","2897349","co38737","norming","","","","","","",""
"null","../img/tt/1254tt.jpg","null","mooney1","image-keyboard-response","294","1027182","0.0-6.0-1.41","2897349","co38737","norming","","","","","","",""
"4005.399999999907","","","post_mooney1_questions","survey-likert","295","1031190","0.0-6.0-2.41","2897349","co38737","norming","","","{""curiosity"":6,""confidence"":0}","[0,1]","../img/tt/1254tt.jpg","",""
"709.9649999999674","","","recognition","survey-text","296","1031901","0.0-6.0-3.41","2897349","co38737","norming","","","{""guess"":""""}","","../img/tt/1254tt.jpg","",""
"null","../img/gs/1254gs.jpg","null","reveal","image-keyboard-response","297","1033904","0.0-6.0-4.41","2897349","co38737","norming","","","","","","",""
"null","../img/tt/1254tt.jpg","null","mooney2","image-keyboard-response","298","1035906","0.0-6.0-5.41","2897349","co38737","norming","","","","","","",""
"2241.564999999362","","","post_reveal_questions","survey-likert","299","1038150","0.0-6.0-6.41","2897349","co38737","norming","","","{""aha"":6}","[0]","../img/tt/1254tt.jpg","",""
"null","<div style=""font-size:60px;""> </div>","null","fixation","html-keyboard-response","300","1038351","0.0-6.0-0.42","2897349","co38737","norming","","","","","","",""
"null","../img/tt/081tt.jpg","null","mooney1","image-keyboard-response","301","1041356","0.0-6.0-1.42","2897349","co38737","norming","","","","","","",""
"5318.405000000028","","","post_mooney1_questions","survey-likert","302","1046678","0.0-6.0-2.42","2897349","co38737","norming","","","{""curiosity"":5,""confidence"":1}","[0,1]","../img/tt/081tt.jpg","",""
"3310.04999999993","","","recognition","survey-text","303","1049990","0.0-6.0-3.42","2897349","co38737","norming","","","{""guess"":""pad""}","","../img/tt/081tt.jpg","",""
"null","../img/gs/081gs.jpg","null","reveal","image-keyboard-response","304","1051996","0.0-6.0-4.42","2897349","co38737","norming","","","","","","",""
"null","../img/tt/081tt.jpg","null","mooney2","image-keyboard-response","305","1053999","0.0-6.0-5.42","2897349","co38737","norming","","","","","","",""
"5650.9099999994505","","","post_reveal_questions","survey-likert","306","1059654","0.0-6.0-6.42","2897349","co38737","norming","","","{""aha"":0}","[0]","../img/tt/081tt.jpg","",""
"null","<div style=""font-size:60px;""> </div>","null","fixation","html-keyboard-response","307","1059855","0.0-6.0-0.43","2897349","co38737","norming","","","","","","",""
"null","../img/tt/1046tt.jpg","null","mooney1","image-keyboard-response","308","1062866","0.0-6.0-1.43","2897349","co38737","norming","","","","","","",""
"3664.929999999935","","","post_mooney1_questions","survey-likert","309","1066534","0.0-6.0-2.43","2897349","co38737","norming","","","{""curiosity"":5,""confidence"":1}","[0,1]","../img/tt/1046tt.jpg","",""
"1550.019999999553","","","recognition","survey-text","310","1068086","0.0-6.0-3.43","2897349","co38737","norming","","","{""guess"":""spin""}","","../img/tt/1046tt.jpg","",""
"null","../img/gs/1046gs.jpg","null","reveal","image-keyboard-response","311","1070095","0.0-6.0-4.43","2897349","co38737","norming","","","","","","",""
"null","../img/tt/1046tt.jpg","null","mooney2","image-keyboard-response","312","1072099","0.0-6.0-5.43","2897349","co38737","norming","","","","","","",""
"3128.2450000008103","","","post_reveal_questions","survey-likert","313","1075229","0.0-6.0-6.43","2897349","co38737","norming","","","{""aha"":6}","[0]","../img/tt/1046tt.jpg","",""
"null","<div style=""font-size:60px;""> </div>","null","fixation","html-keyboard-response","314","1075437","0.0-6.0-0.44","2897349","co38737","norming","","","","","","",""
"null","../img/tt/1033tt.jpg","null","mooney1","image-keyboard-response","315","1078444","0.0-6.0-1.44","2897349","co38737","norming","","","","","","",""
"4304.75499999919","","","post_mooney1_questions","survey-likert","316","1082750","0.0-6.0-2.44","2897349","co38737","norming","","","{""curiosity"":6,""confidence"":0}","[0,1]","../img/tt/1033tt.jpg","",""
"709.9950000001118","","","recognition","survey-text","317","1083468","0.0-6.0-3.44","2897349","co38737","norming","","","{""guess"":""""}","","../img/tt/1033tt.jpg","",""
"null","../img/gs/1033gs.jpg","null","reveal","image-keyboard-response","318","1085472","0.0-6.0-4.44","2897349","co38737","norming","","","","","","",""
"null","../img/tt/1033tt.jpg","null","mooney2","image-keyboard-response","319","1087473","0.0-6.0-5.44","2897349","co38737","norming","","","","","","",""
"2369.144999999786","","","post_reveal_questions","survey-likert","320","1089845","0.0-6.0-6.44","2897349","co38737","norming","","","{""aha"":6}","[0]","../img/tt/1033tt.jpg","",""
"null","<div style=""font-size:60px;""> </div>","null","fixation","html-keyboard-response","321","1090049","0.0-6.0-0.45","2897349","co38737","norming","","","","","","",""
"null","../img/tt/140tt.jpg","null","mooney1","image-keyboard-response","322","1093054","0.0-6.0-1.45","2897349","co38737","norming","","","","","","",""
"2946.8249999999534","","","post_mooney1_questions","survey-likert","323","1096005","0.0-6.0-2.45","2897349","co38737","norming","","","{""curiosity"":0,""confidence"":6}","[0,1]","../img/tt/140tt.jpg","",""
"1846.5050000005867","","","recognition","survey-text","324","1097853","0.0-6.0-3.45","2897349","co38737","norming","","","{""guess"":""vork""}","","../img/tt/140tt.jpg","",""
"null","../img/gs/140gs.jpg","null","reveal","image-keyboard-response","325","1099859","0.0-6.0-4.45","2897349","co38737","norming","","","","","","",""
"null","../img/tt/140tt.jpg","null","mooney2","image-keyboard-response","326","1101869","0.0-6.0-5.45","2897349","co38737","norming","","","","","","",""
"6133.754999999888","","","post_reveal_questions","survey-likert","327","1108005","0.0-6.0-6.45","2897349","co38737","norming","","","{""aha"":0}","[0]","../img/tt/140tt.jpg","",""
"null","<div style=""font-size:60px;""> </div>","null","fixation","html-keyboard-response","328","1108209","0.0-6.0-0.46","2897349","co38737","norming","","","","","","",""
"null","../img/tt/060tt.jpg","null","mooney1","image-keyboard-response","329","1111219","0.0-6.0-1.46","2897349","co38737","norming","","","","","","",""
"4687.2050000000745","","","post_mooney1_questions","survey-likert","330","1115909","0.0-6.0-2.46","2897349","co38737","norming","","","{""curiosity"":6,""confidence"":0}","[0,1]","../img/tt/060tt.jpg","",""
"1102.040000000503","","","recognition","survey-text","331","1117013","0.0-6.0-3.46","2897349","co38737","norming","","","{""guess"":""""}","","../img/tt/060tt.jpg","",""
"null","../img/gs/060gs.jpg","null","reveal","image-keyboard-response","332","1119020","0.0-6.0-4.46","2897349","co38737","norming","","","","","","",""
"null","../img/tt/060tt.jpg","null","mooney2","image-keyboard-response","333","1121024","0.0-6.0-5.46","2897349","co38737","norming","","","","","","",""
"3225.9499999999534","","","post_reveal_questions","survey-likert","334","1124252","0.0-6.0-6.46","2897349","co38737","norming","","","{""aha"":6}","[0]","../img/tt/060tt.jpg","",""
"null","<div style=""font-size:60px;""> </div>","null","fixation","html-keyboard-response","335","1124454","0.0-6.0-0.47","2897349","co38737","norming","","","","","","",""
"null","../img/tt/082tt.jpg","null","mooney1","image-keyboard-response","336","1127460","0.0-6.0-1.47","2897349","co38737","norming","","","","","","",""
"6917.405000000261","","","post_mooney1_questions","survey-likert","337","1134381","0.0-6.0-2.47","2897349","co38737","norming","","","{""curiosity"":5,""confidence"":1}","[0,1]","../img/tt/082tt.jpg","",""
"3661.4799999997485","","","recognition","survey-text","338","1138045","0.0-6.0-3.47","2897349","co38737","norming","","","{""guess"":""stairs""}","","../img/tt/082tt.jpg","",""
"null","../img/gs/082gs.jpg","null","reveal","image-keyboard-response","339","1140047","0.0-6.0-4.47","2897349","co38737","norming","","","","","","",""
"null","../img/tt/082tt.jpg","null","mooney2","image-keyboard-response","340","1142056","0.0-6.0-5.47","2897349","co38737","norming","","","","","","",""
"4410.294999999693","","","post_reveal_questions","survey-likert","341","1146473","0.0-6.0-6.47","2897349","co38737","norming","","","{""aha"":6}","[0]","../img/tt/082tt.jpg","",""
"null","<div style=""font-size:60px;""> </div>","null","fixation","html-keyboard-response","342","1146682","0.0-6.0-0.48","2897349","co38737","norming","","","","","","",""
"null","../img/tt/1043tt.jpg","null","mooney1","image-keyboard-response","343","1149685","0.0-6.0-1.48","2897349","co38737","norming","","","","","","",""
"3208.480000000214","","","post_mooney1_questions","survey-likert","344","1152897","0.0-6.0-2.48","2897349","co38737","norming","","","{""curiosity"":5,""confidence"":1}","[0,1]","../img/tt/1043tt.jpg","",""
"1277.8950000000186","","","recognition","survey-text","345","1154177","0.0-6.0-3.48","2897349","co38737","norming","","","{""guess"":""food""}","","../img/tt/1043tt.jpg","",""
"null","../img/gs/1043gs.jpg","null","reveal","image-keyboard-response","346","1156186","0.0-6.0-4.48","2897349","co38737","norming","","","","","","",""
"null","../img/tt/1043tt.jpg","null","mooney2","image-keyboard-response","347","1158189","0.0-6.0-5.48","2897349","co38737","norming","","","","","","",""
"3441.1049999999814","","","post_reveal_questions","survey-likert","348","1161633","0.0-6.0-6.48","2897349","co38737","norming","","","{""aha"":3}","[0]","../img/tt/1043tt.jpg","",""
"null","<div style=""font-size:60px;""> </div>","null","fixation","html-keyboard-response","349","1161841","0.0-6.0-0.49","2897349","co38737","norming","","","","","","",""
"null","../img/tt/1027tt.jpg","null","mooney1","image-keyboard-response","350","1164847","0.0-6.0-1.49","2897349","co38737","norming","","","","","","",""
"3175.5800000000745","","","post_mooney1_questions","survey-likert","351","1168025","0.0-6.0-2.49","2897349","co38737","norming","","","{""curiosity"":5,""confidence"":1}","[0,1]","../img/tt/1027tt.jpg","",""
"1798.0900000003166","","","recognition","survey-text","352","1169825","0.0-6.0-3.49","2897349","co38737","norming","","","{""guess"":""koeien""}","","../img/tt/1027tt.jpg","",""
"null","../img/gs/1027gs.jpg","null","reveal","image-keyboard-response","353","1171835","0.0-6.0-4.49","2897349","co38737","norming","","","","","","",""
"null","../img/tt/1027tt.jpg","null","mooney2","image-keyboard-response","354","1173844","0.0-6.0-5.49","2897349","co38737","norming","","","","","","",""
"2642.2599999995437","","","post_reveal_questions","survey-likert","355","1176489","0.0-6.0-6.49","2897349","co38737","norming","","","{""aha"":2}","[0]","../img/tt/1027tt.jpg","",""
"null","<div style=""font-size:60px;""> </div>","null","fixation","html-keyboard-response","356","1176698","0.0-6.0-0.50","2897349","co38737","norming","","","","","","",""
"null","../img/tt/598tt.jpg","null","mooney1","image-keyboard-response","357","1179706","0.0-6.0-1.50","2897349","co38737","norming","","","","","","",""
"3215.589999999851","","","post_mooney1_questions","survey-likert","358","1182929","0.0-6.0-2.50","2897349","co38737","norming","","","{""curiosity"":6,""confidence"":0}","[0,1]","../img/tt/598tt.jpg","",""
"982.0250000001397","","","recognition","survey-text","359","1183913","0.0-6.0-3.50","2897349","co38737","norming","","","{""guess"":""""}","","../img/tt/598tt.jpg","",""
"null","../img/gs/598gs.jpg","null","reveal","image-keyboard-response","360","1185917","0.0-6.0-4.50","2897349","co38737","norming","","","","","","",""
"null","../img/tt/598tt.jpg","null","mooney2","image-keyboard-response","361","1187919","0.0-6.0-5.50","2897349","co38737","norming","","","","","","",""
"1945.0300000007264","","","post_reveal_questions","survey-likert","362","1189865","0.0-6.0-6.50","2897349","co38737","norming","","","{""aha"":5}","[0]","../img/tt/598tt.jpg","",""
"null","<div style=""font-size:60px;""> </div>","null","fixation","html-keyboard-response","363","1190074","0.0-6.0-0.51","2897349","co38737","norming","","","","","","",""
"null","../img/tt/1241tt.jpg","null","mooney1","image-keyboard-response","364","1193077","0.0-6.0-1.51","2897349","co38737","norming","","","","","","",""
"5873.33000000054","","","post_mooney1_questions","survey-likert","365","1198953","0.0-6.0-2.51","2897349","co38737","norming","","","{""curiosity"":4,""confidence"":3}","[0,1]","../img/tt/1241tt.jpg","",""
"2853.750000000233","","","recognition","survey-text","366","1201809","0.0-6.0-3.51","2897349","co38737","norming","","","{""guess"":""varken""}","","../img/tt/1241tt.jpg","",""
"null","../img/gs/1241gs.jpg","null","reveal","image-keyboard-response","367","1203816","0.0-6.0-4.51","2897349","co38737","norming","","","","","","",""
"null","../img/tt/1241tt.jpg","null","mooney2","image-keyboard-response","368","1205824","0.0-6.0-5.51","2897349","co38737","norming","","","","","","",""
"3566.19000000041","","","post_reveal_questions","survey-likert","369","1209391","0.0-6.0-6.51","2897349","co38737","norming","","","{""aha"":3}","[0]","../img/tt/1241tt.jpg","",""
"null","<div style=""font-size:60px;""> </div>","null","fixation","html-keyboard-response","370","1209595","0.0-6.0-0.52","2897349","co38737","norming","","","","","","",""
"null","../img/tt/1040tt.jpg","null","mooney1","image-keyboard-response","371","1212597","0.0-6.0-1.52","2897349","co38737","norming","","","","","","",""
"3447.3249999999534","","","post_mooney1_questions","survey-likert","372","1216047","0.0-6.0-2.52","2897349","co38737","norming","","","{""curiosity"":6,""confidence"":0}","[0,1]","../img/tt/1040tt.jpg","",""
"853.9699999999721","","","recognition","survey-text","373","1216903","0.0-6.0-3.52","2897349","co38737","norming","","","{""guess"":""""}","","../img/tt/1040tt.jpg","",""
"null","../img/gs/1040gs.jpg","null","reveal","image-keyboard-response","374","1218914","0.0-6.0-4.52","2897349","co38737","norming","","","","","","",""
"null","../img/tt/1040tt.jpg","null","mooney2","image-keyboard-response","375","1220918","0.0-6.0-5.52","2897349","co38737","norming","","","","","","",""
"2191.1099999998696","","","post_reveal_questions","survey-likert","376","1223111","0.0-6.0-6.52","2897349","co38737","norming","","","{""aha"":6}","[0]","../img/tt/1040tt.jpg","",""
"null","<div style=""font-size:60px;""> </div>","null","fixation","html-keyboard-response","377","1223313","0.0-6.0-0.53","2897349","co38737","norming","","","","","","",""
"null","../img/tt/517tt.jpg","null","mooney1","image-keyboard-response","378","1226318","0.0-6.0-1.53","2897349","co38737","norming","","","","","","",""
"4877.754999999655","","","post_mooney1_questions","survey-likert","379","1231199","0.0-6.0-2.53","2897349","co38737","norming","","","{""curiosity"":5,""confidence"":3}","[0,1]","../img/tt/517tt.jpg","",""
"1518.019999999553","","","recognition","survey-text","380","1232719","0.0-6.0-3.53","2897349","co38737","norming","","","{""guess"":""panda""}","","../img/tt/517tt.jpg","",""
"null","../img/gs/517gs.jpg","null","reveal","image-keyboard-response","381","1234730","0.0-6.0-4.53","2897349","co38737","norming","","","","","","",""
"null","../img/tt/517tt.jpg","null","mooney2","image-keyboard-response","382","1236738","0.0-6.0-5.53","2897349","co38737","norming","","","","","","",""
"4274.425000000512","","","post_reveal_questions","survey-likert","383","1241015","0.0-6.0-6.53","2897349","co38737","norming","","","{""aha"":2}","[0]","../img/tt/517tt.jpg","",""
"null","<div style=""font-size:60px;""> </div>","null","fixation","html-keyboard-response","384","1241225","0.0-6.0-0.54","2897349","co38737","norming","","","","","","",""
"null","../img/tt/1053tt.jpg","null","mooney1","image-keyboard-response","385","1244228","0.0-6.0-1.54","2897349","co38737","norming","","","","","","",""
"5431.715000000782","","","post_mooney1_questions","survey-likert","386","1249663","0.0-6.0-2.54","2897349","co38737","norming","","","{""curiosity"":3,""confidence"":5}","[0,1]","../img/tt/1053tt.jpg","",""
"1422.3049999999348","","","recognition","survey-text","387","1251087","0.0-6.0-3.54","2897349","co38737","norming","","","{""guess"":""koe""}","","../img/tt/1053tt.jpg","",""
"null","../img/gs/1053gs.jpg","null","reveal","image-keyboard-response","388","1253096","0.0-6.0-4.54","2897349","co38737","norming","","","","","","",""
"null","../img/tt/1053tt.jpg","null","mooney2","image-keyboard-response","389","1255098","0.0-6.0-5.54","2897349","co38737","norming","","","","","","",""
"2994.2249999996275","","","post_reveal_questions","survey-likert","390","1258095","0.0-6.0-6.54","2897349","co38737","norming","","","{""aha"":0}","[0]","../img/tt/1053tt.jpg","",""
"null","<div style=""font-size:60px;""> </div>","null","fixation","html-keyboard-response","391","1258297","0.0-6.0-0.55","2897349","co38737","norming","","","","","","",""
"null","../img/tt/1276tt.jpg","null","mooney1","image-keyboard-response","392","1261308","0.0-6.0-1.55","2897349","co38737","norming","","","","","","",""
"3487.450000000652","","","post_mooney1_questions","survey-likert","393","1264799","0.0-6.0-2.55","2897349","co38737","norming","","","{""curiosity"":6,""confidence"":0}","[0,1]","../img/tt/1276tt.jpg","",""
"638.1399999998976","","","recognition","survey-text","394","1265439","0.0-6.0-3.55","2897349","co38737","norming","","","{""guess"":""""}","","../img/tt/1276tt.jpg","",""
"null","../img/gs/1276gs.jpg","null","reveal","image-keyboard-response","395","1267441","0.0-6.0-4.55","2897349","co38737","norming","","","","","","",""
"null","../img/tt/1276tt.jpg","null","mooney2","image-keyboard-response","396","1269450","0.0-6.0-5.55","2897349","co38737","norming","","","","","","",""
"4057.6600000006147","","","post_reveal_questions","survey-likert","397","1273510","0.0-6.0-6.55","2897349","co38737","norming","","","{""aha"":5}","[0]","../img/tt/1276tt.jpg","",""
"null","<div style=""font-size:60px;""> </div>","null","fixation","html-keyboard-response","398","1273717","0.0-6.0-0.56","2897349","co38737","norming","","","","","","",""
"null","../img/tt/076tt.jpg","null","mooney1","image-keyboard-response","399","1276722","0.0-6.0-1.56","2897349","co38737","norming","","","","","","",""
"5960.399999999907","","","post_mooney1_questions","survey-likert","400","1282686","0.0-6.0-2.56","2897349","co38737","norming","","","{""curiosity"":1,""confidence"":5}","[0,1]","../img/tt/076tt.jpg","",""
"3813.9450000007637","","","recognition","survey-text","401","1286502","0.0-6.0-3.56","2897349","co38737","norming","","","{""guess"":""skates""}","","../img/tt/076tt.jpg","",""
"null","../img/gs/076gs.jpg","null","reveal","image-keyboard-response","402","1288504","0.0-6.0-4.56","2897349","co38737","norming","","","","","","",""
"null","../img/tt/076tt.jpg","null","mooney2","image-keyboard-response","403","1290505","0.0-6.0-5.56","2897349","co38737","norming","","","","","","",""
"3507.6350000000093","","","post_reveal_questions","survey-likert","404","1294014","0.0-6.0-6.56","2897349","co38737","norming","","","{""aha"":0}","[0]","../img/tt/076tt.jpg","",""
"null","<div style=""font-size:60px;""> </div>","null","fixation","html-keyboard-response","405","1294215","0.0-6.0-0.57","2897349","co38737","norming","","","","","","",""
"null","../img/tt/056tt.jpg","null","mooney1","image-keyboard-response","406","1297222","0.0-6.0-1.57","2897349","co38737","norming","","","","","","",""
"4388.2050000000745","","","post_mooney1_questions","survey-likert","407","1301614","0.0-6.0-2.57","2897349","co38737","norming","","","{""curiosity"":5,""confidence"":1}","[0,1]","../img/tt/056tt.jpg","",""
"2021.9200000001583","","","recognition","survey-text","408","1303637","0.0-6.0-3.57","2897349","co38737","norming","","","{""guess"":""animal""}","","../img/tt/056tt.jpg","",""
"null","../img/gs/056gs.jpg","null","reveal","image-keyboard-response","409","1305646","0.0-6.0-4.57","2897349","co38737","norming","","","","","","",""
"null","../img/tt/056tt.jpg","null","mooney2","image-keyboard-response","410","1307656","0.0-6.0-5.57","2897349","co38737","norming","","","","","","",""
"7531.074999999953","","","post_reveal_questions","survey-likert","411","1315190","0.0-6.0-6.57","2897349","co38737","norming","","","{""aha"":4}","[0]","../img/tt/056tt.jpg","",""
"null","<div style=""font-size:60px;""> </div>","null","fixation","html-keyboard-response","412","1315391","0.0-6.0-0.58","2897349","co38737","norming","","","","","","",""
"null","../img/tt/1196tt.jpg","null","mooney1","image-keyboard-response","413","1318403","0.0-6.0-1.58","2897349","co38737","norming","","","","","","",""
"4023.170000000391","","","post_mooney1_questions","survey-likert","414","1322430","0.0-6.0-2.58","2897349","co38737","norming","","","{""curiosity"":6,""confidence"":0}","[0,1]","../img/tt/1196tt.jpg","",""
"750.3699999996461","","","recognition","survey-text","415","1323182","0.0-6.0-3.58","2897349","co38737","norming","","","{""guess"":""""}","","../img/tt/1196tt.jpg","",""
"null","../img/gs/1196gs.jpg","null","reveal","image-keyboard-response","416","1325183","0.0-6.0-4.58","2897349","co38737","norming","","","","","","",""
"null","../img/tt/1196tt.jpg","null","mooney2","image-keyboard-response","417","1327185","0.0-6.0-5.58","2897349","co38737","norming","","","","","","",""
"2146.3700000003446","","","post_reveal_questions","survey-likert","418","1329334","0.0-6.0-6.58","2897349","co38737","norming","","","{""aha"":5}","[0]","../img/tt/1196tt.jpg","",""
"null","<div style=""font-size:60px;""> </div>","null","fixation","html-keyboard-response","419","1329538","0.0-6.0-0.59","2897349","co38737","norming","","","","","","",""
"null","../img/tt/418tt.jpg","null","mooney1","image-keyboard-response","420","1332544","0.0-6.0-1.59","2897349","co38737","norming","","","","","","",""
"3164.2549999996554","","","post_mooney1_questions","survey-likert","421","1335712","0.0-6.0-2.59","2897349","co38737","norming","","","{""curiosity"":6,""confidence"":0}","[0,1]","../img/tt/418tt.jpg","",""
"862.2149999993853","","","recognition","survey-text","422","1336575","0.0-6.0-3.59","2897349","co38737","norming","","","{""guess"":""""}","","../img/tt/418tt.jpg","",""
"null","../img/gs/418gs.jpg","null","reveal","image-keyboard-response","423","1338583","0.0-6.0-4.59","2897349","co38737","norming","","","","","","",""
"null","../img/tt/418tt.jpg","null","mooney2","image-keyboard-response","424","1340587","0.0-6.0-5.59","2897349","co38737","norming","","","","","","",""
"2346.005000000354","","","post_reveal_questions","survey-likert","425","1342935","0.0-6.0-6.59","2897349","co38737","norming","","","{""aha"":6}","[0]","../img/tt/418tt.jpg","",""
"null","<div style=""font-size:60px;""> </div>","null","fixation","html-keyboard-response","426","1343137","0.0-6.0-0.60","2897349","co38737","norming","","","","","","",""
"null","../img/tt/1048tt.jpg","null","mooney1","image-keyboard-response","427","1346148","0.0-6.0-1.60","2897349","co38737","norming","","","","","","",""
"5384.219999999972","","","post_mooney1_questions","survey-likert","428","1351536","0.0-6.0-2.60","2897349","co38737","norming","","","{""curiosity"":5,""confidence"":1}","[0,1]","../img/tt/1048tt.jpg","",""
"2581.9149999998044","","","recognition","survey-text","429","1354120","0.0-6.0-3.60","2897349","co38737","norming","","","{""guess"":""luipaard""}","","../img/tt/1048tt.jpg","",""
"null","../img/gs/1048gs.jpg","null","reveal","image-keyboard-response","430","1356128","0.0-6.0-4.60","2897349","co38737","norming","","","","","","",""
"null","../img/tt/1048tt.jpg","null","mooney2","image-keyboard-response","431","1358131","0.0-6.0-5.60","2897349","co38737","norming","","","","","","",""
"2402.0649999992456","","","post_reveal_questions","survey-likert","432","1360535","0.0-6.0-6.60","2897349","co38737","norming","","","{""aha"":6}","[0]","../img/tt/1048tt.jpg","",""
"null","<div style=""font-size:60px;""> </div>","null","fixation","html-keyboard-response","433","1360745","0.0-6.0-0.61","2897349","co38737","norming","","","","","","",""
"null","../img/tt/436tt.jpg","null","mooney1","image-keyboard-response","434","1363753","0.0-6.0-1.61","2897349","co38737","norming","","","","","","",""
"3666.6750000002794","","","post_mooney1_questions","survey-likert","435","1367424","0.0-6.0-2.61","2897349","co38737","norming","","","{""curiosity"":5,""confidence"":1}","[0,1]","../img/tt/436tt.jpg","",""
"1686.2900000007357","","","recognition","survey-text","436","1369111","0.0-6.0-3.61","2897349","co38737","norming","","","{""guess"":""food""}","","../img/tt/436tt.jpg","",""
"null","../img/gs/436gs.jpg","null","reveal","image-keyboard-response","437","1371113","0.0-6.0-4.61","2897349","co38737","norming","","","","","","",""
"null","../img/tt/436tt.jpg","null","mooney2","image-keyboard-response","438","1373115","0.0-6.0-5.61","2897349","co38737","norming","","","","","","",""
"5201.715000000084","","","post_reveal_questions","survey-likert","439","1378319","0.0-6.0-6.61","2897349","co38737","norming","","","{""aha"":5}","[0]","../img/tt/436tt.jpg","",""
"null","<div style=""font-size:60px;""> </div>","null","fixation","html-keyboard-response","440","1378520","0.0-6.0-0.62","2897349","co38737","norming","","","","","","",""
"null","../img/tt/1091tt.jpg","null","mooney1","image-keyboard-response","441","1381530","0.0-6.0-1.62","2897349","co38737","norming","","","","","","",""
"4194.310000000056","","","post_mooney1_questions","survey-likert","442","1385728","0.0-6.0-2.62","2897349","co38737","norming","","","{""curiosity"":5,""confidence"":1}","[0,1]","../img/tt/1091tt.jpg","",""
"4341.929999999702","","","recognition","survey-text","443","1390068","0.0-6.0-3.62","2897349","co38737","norming","","","{""guess"":""neushoorn""}","","../img/tt/1091tt.jpg","",""
"null","../img/gs/1091gs.jpg","null","reveal","image-keyboard-response","444","1392075","0.0-6.0-4.62","2897349","co38737","norming","","","","","","",""
"null","../img/tt/1091tt.jpg","null","mooney2","image-keyboard-response","445","1394086","0.0-6.0-5.62","2897349","co38737","norming","","","","","","",""
"2875.195000000531","","","post_reveal_questions","survey-likert","446","1396964","0.0-6.0-6.62","2897349","co38737","norming","","","{""aha"":4}","[0]","../img/tt/1091tt.jpg","",""
"null","<div style=""font-size:60px;""> </div>","null","fixation","html-keyboard-response","447","1397172","0.0-6.0-0.63","2897349","co38737","norming","","","","","","",""
"null","../img/tt/085tt.jpg","null","mooney1","image-keyboard-response","448","1400182","0.0-6.0-1.63","2897349","co38737","norming","","","","","","",""
"3346.5850000001956","","","post_mooney1_questions","survey-likert","449","1403532","0.0-6.0-2.63","2897349","co38737","norming","","","{""curiosity"":6,""confidence"":0}","[0,1]","../img/tt/085tt.jpg","",""
"798.195000000298","","","recognition","survey-text","450","1404332","0.0-6.0-3.63","2897349","co38737","norming","","","{""guess"":""""}","","../img/tt/085tt.jpg","",""
"null","../img/gs/085gs.jpg","null","reveal","image-keyboard-response","451","1406343","0.0-6.0-4.63","2897349","co38737","norming","","","","","","",""
"null","../img/tt/085tt.jpg","null","mooney2","image-keyboard-response","452","1408350","0.0-6.0-5.63","2897349","co38737","norming","","","","","","",""
"2667.1800000004005","","","post_reveal_questions","survey-likert","453","1411020","0.0-6.0-6.63","2897349","co38737","norming","","","{""aha"":5}","[0]","../img/tt/085tt.jpg","",""
"null","<div style=""font-size:60px;""> </div>","null","fixation","html-keyboard-response","454","1411222","0.0-6.0-0.64","2897349","co38737","norming","","","","","","",""
"null","../img/tt/1307tt.jpg","null","mooney1","image-keyboard-response","455","1414226","0.0-6.0-1.64","2897349","co38737","norming","","","","","","",""
"5718.995000000112","","","post_mooney1_questions","survey-likert","456","1419948","0.0-6.0-2.64","2897349","co38737","norming","","","{""curiosity"":5,""confidence"":1}","[0,1]","../img/tt/1307tt.jpg","",""
"2501.635000000475","","","recognition","survey-text","457","1422452","0.0-6.0-3.64","2897349","co38737","norming","","","{""guess"":""pompoen""}","","../img/tt/1307tt.jpg","",""
"null","../img/gs/1307gs.jpg","null","reveal","image-keyboard-response","458","1424457","0.0-6.0-4.64","2897349","co38737","norming","","","","","","",""
"null","../img/tt/1307tt.jpg","null","mooney2","image-keyboard-response","459","1426463","0.0-6.0-5.64","2897349","co38737","norming","","","","","","",""
"3996.045000000857","","","post_reveal_questions","survey-likert","460","1430460","0.0-6.0-6.64","2897349","co38737","norming","","","{""aha"":6}","[0]","../img/tt/1307tt.jpg","",""
"null","<div style=""font-size:60px;""> </div>","null","fixation","html-keyboard-response","461","1430667","0.0-6.0-0.65","2897349","co38737","norming","","","","","","",""
"null","../img/tt/1156tt.jpg","null","mooney1","image-keyboard-response","462","1433676","0.0-6.0-1.65","2897349","co38737","norming","","","","","","",""
"8811.935000000754","","","post_mooney1_questions","survey-likert","463","1442492","0.0-6.0-2.65","2897349","co38737","norming","","","{""curiosity"":5,""confidence"":1}","[0,1]","../img/tt/1156tt.jpg","",""
"1829.744999999879","","","recognition","survey-text","464","1444324","0.0-6.0-3.65","2897349","co38737","norming","","","{""guess"":""""}","","../img/tt/1156tt.jpg","",""
"null","../img/gs/1156gs.jpg","null","reveal","image-keyboard-response","465","1446334","0.0-6.0-4.65","2897349","co38737","norming","","","","","","",""
"null","../img/tt/1156tt.jpg","null","mooney2","image-keyboard-response","466","1448342","0.0-6.0-5.65","2897349","co38737","norming","","","","","","",""
"8314.764999999199","","","post_reveal_questions","survey-likert","467","1456664","0.0-6.0-6.65","2897349","co38737","norming","","","{""aha"":6}","[0]","../img/tt/1156tt.jpg","",""
"null","<div style=""font-size:60px;""> </div>","null","fixation","html-keyboard-response","468","1456869","0.0-6.0-0.66","2897349","co38737","norming","","","","","","",""
"null","../img/tt/008tt.jpg","null","mooney1","image-keyboard-response","469","1459873","0.0-6.0-1.66","2897349","co38737","norming","","","","","","",""
"3396.1650000000373","","","post_mooney1_questions","survey-likert","470","1463272","0.0-6.0-2.66","2897349","co38737","norming","","","{""curiosity"":5,""confidence"":1}","[0,1]","../img/tt/008tt.jpg","",""
"1678.0799999996088","","","recognition","survey-text","471","1464952","0.0-6.0-3.66","2897349","co38737","norming","","","{""guess"":""bread""}","","../img/tt/008tt.jpg","",""
"null","../img/gs/008gs.jpg","null","reveal","image-keyboard-response","472","1466954","0.0-6.0-4.66","2897349","co38737","norming","","","","","","",""
"null","../img/tt/008tt.jpg","null","mooney2","image-keyboard-response","473","1468956","0.0-6.0-5.66","2897349","co38737","norming","","","","","","",""
"3009.720000000205","","","post_reveal_questions","survey-likert","474","1471968","0.0-6.0-6.66","2897349","co38737","norming","","","{""aha"":6}","[0]","../img/tt/008tt.jpg","",""
"null","<div style=""font-size:60px;""> </div>","null","fixation","html-keyboard-response","475","1472169","0.0-6.0-0.67","2897349","co38737","norming","","","","","","",""
"null","../img/tt/1211tt.jpg","null","mooney1","image-keyboard-response","476","1475181","0.0-6.0-1.67","2897349","co38737","norming","","","","","","",""
"3423.570000000065","","","post_mooney1_questions","survey-likert","477","1478608","0.0-6.0-2.67","2897349","co38737","norming","","","{""curiosity"":5,""confidence"":1}","[0,1]","../img/tt/1211tt.jpg","",""
"1382.2049999998417","","","recognition","survey-text","478","1479992","0.0-6.0-3.67","2897349","co38737","norming","","","{""guess"":""sea""}","","../img/tt/1211tt.jpg","",""
"null","../img/gs/1211gs.jpg","null","reveal","image-keyboard-response","479","1481999","0.0-6.0-4.67","2897349","co38737","norming","","","","","","",""
"null","../img/tt/1211tt.jpg","null","mooney2","image-keyboard-response","480","1484004","0.0-6.0-5.67","2897349","co38737","norming","","","","","","",""
"4242.014999999898","","","post_reveal_questions","survey-likert","481","1488248","0.0-6.0-6.67","2897349","co38737","norming","","","{""aha"":5}","[0]","../img/tt/1211tt.jpg","",""
"null","<div style=""font-size:60px;""> </div>","null","fixation","html-keyboard-response","482","1488449","0.0-6.0-0.68","2897349","co38737","norming","","","","","","",""
"null","../img/tt/1116tt.jpg","null","mooney1","image-keyboard-response","483","1491455","0.0-6.0-1.68","2897349","co38737","norming","","","","","","",""
"4733.405000000028","","","post_mooney1_questions","survey-likert","484","1496192","0.0-6.0-2.68","2897349","co38737","norming","","","{""curiosity"":5,""confidence"":1}","[0,1]","../img/tt/1116tt.jpg","",""
"2006.320000000298","","","recognition","survey-text","485","1498200","0.0-6.0-3.68","2897349","co38737","norming","","","{""guess"":""car""}","","../img/tt/1116tt.jpg","",""
"null","../img/gs/1116gs.jpg","null","reveal","image-keyboard-response","486","1500208","0.0-6.0-4.68","2897349","co38737","norming","","","","","","",""
"null","../img/tt/1116tt.jpg","null","mooney2","image-keyboard-response","487","1502211","0.0-6.0-5.68","2897349","co38737","norming","","","","","","",""
"4842.139999999665","","","post_reveal_questions","survey-likert","488","1507056","0.0-6.0-6.68","2897349","co38737","norming","","","{""aha"":5}","[0]","../img/tt/1116tt.jpg","",""
"null","<div style=""font-size:60px;""> </div>","null","fixation","html-keyboard-response","489","1507258","0.0-6.0-0.69","2897349","co38737","norming","","","","","","",""
"null","../img/tt/094tt.jpg","null","mooney1","image-keyboard-response","490","1510265","0.0-6.0-1.69","2897349","co38737","norming","","","","","","",""
"3812.1099999998696","","","post_mooney1_questions","survey-likert","491","1514080","0.0-6.0-2.69","2897349","co38737","norming","","","{""curiosity"":0,""confidence"":6}","[0,1]","../img/tt/094tt.jpg","",""
"3173.8499999993946","","","recognition","survey-text","492","1517249","0.0-6.0-3.69","2897349","co38737","norming","","","{""guess"":""wolf""}","","../img/tt/094tt.jpg","",""
"null","../img/gs/094gs.jpg","null","reveal","image-keyboard-response","493","1519252","0.0-6.0-4.69","2897349","co38737","norming","","","","","","",""
"null","../img/tt/094tt.jpg","null","mooney2","image-keyboard-response","494","1521256","0.0-6.0-5.69","2897349","co38737","norming","","","","","","",""
"2910.3899999998976","","","post_reveal_questions","survey-likert","495","1524170","0.0-6.0-6.69","2897349","co38737","norming","","","{""aha"":0}","[0]","../img/tt/094tt.jpg","",""
"null","<div style=""font-size:60px;""> </div>","null","fixation","html-keyboard-response","496","1524379","0.0-6.0-0.70","2897349","co38737","norming","","","","","","",""
"null","../img/tt/1309tt.jpg","null","mooney1","image-keyboard-response","497","1527386","0.0-6.0-1.70","2897349","co38737","norming","","","","","","",""
"4470.124999999767","","","post_mooney1_questions","survey-likert","498","1531857","0.0-6.0-2.70","2897349","co38737","norming","","","{""curiosity"":5,""confidence"":1}","[0,1]","../img/tt/1309tt.jpg","",""
"1358.105000000447","","","recognition","survey-text","499","1533217","0.0-6.0-3.70","2897349","co38737","norming","","","{""guess"":""bos""}","","../img/tt/1309tt.jpg","",""
"null","../img/gs/1309gs.jpg","null","reveal","image-keyboard-response","500","1535224","0.0-6.0-4.70","2897349","co38737","norming","","","","","","",""
"null","../img/tt/1309tt.jpg","null","mooney2","image-keyboard-response","501","1537235","0.0-6.0-5.70","2897349","co38737","norming","","","","","","",""
"3426.8399999993853","","","post_reveal_questions","survey-likert","502","1540665","0.0-6.0-6.70","2897349","co38737","norming","","","{""aha"":1}","[0]","../img/tt/1309tt.jpg","",""
"null","<div style=""font-size:60px;""> </div>","null","fixation","html-keyboard-response","503","1540867","0.0-6.0-0.71","2897349","co38737","norming","","","","","","",""
"null","../img/tt/1232tt.jpg","null","mooney1","image-keyboard-response","504","1543879","0.0-6.0-1.71","2897349","co38737","norming","","","","","","",""
"4006.4350000002887","","","post_mooney1_questions","survey-likert","505","1547890","0.0-6.0-2.71","2897349","co38737","norming","","","{""curiosity"":6,""confidence"":0}","[0,1]","../img/tt/1232tt.jpg","",""
"1629.8599999998696","","","recognition","survey-text","506","1549521","0.0-6.0-3.71","2897349","co38737","norming","","","{""guess"":""""}","","../img/tt/1232tt.jpg","",""
"null","../img/gs/1232gs.jpg","null","reveal","image-keyboard-response","507","1551524","0.0-6.0-4.71","2897349","co38737","norming","","","","","","",""
"null","../img/tt/1232tt.jpg","null","mooney2","image-keyboard-response","508","1553527","0.0-6.0-5.71","2897349","co38737","norming","","","","","","",""
"2839.6600000006147","","","post_reveal_questions","survey-likert","509","1556369","0.0-6.0-6.71","2897349","co38737","norming","","","{""aha"":6}","[0]","../img/tt/1232tt.jpg","",""
"null","<div style=""font-size:60px;""> </div>","null","fixation","html-keyboard-response","510","1556579","0.0-6.0-0.72","2897349","co38737","norming","","","","","","",""
"null","../img/tt/497tt.jpg","null","mooney1","image-keyboard-response","511","1559582","0.0-6.0-1.72","2897349","co38737","norming","","","","","","",""
"3322.4550000003073","","","post_mooney1_questions","survey-likert","512","1562905","0.0-6.0-2.72","2897349","co38737","norming","","","{""curiosity"":6,""confidence"":1}","[0,1]","../img/tt/497tt.jpg","",""
"2486.114999999525","","","recognition","survey-text","513","1565393","0.0-6.0-3.72","2897349","co38737","norming","","","{""guess"":""kaas""}","","../img/tt/497tt.jpg","",""
"null","../img/gs/497gs.jpg","null","reveal","image-keyboard-response","514","1567404","0.0-6.0-4.72","2897349","co38737","norming","","","","","","",""
"null","../img/tt/497tt.jpg","null","mooney2","image-keyboard-response","515","1569412","0.0-6.0-5.72","2897349","co38737","norming","","","","","","",""
"2338.2849999996834","","","post_reveal_questions","survey-likert","516","1571753","0.0-6.0-6.72","2897349","co38737","norming","","","{""aha"":6}","[0]","../img/tt/497tt.jpg","",""
"null","<div style=""font-size:60px;""> </div>","null","fixation","html-keyboard-response","517","1571957","0.0-6.0-0.73","2897349","co38737","norming","","","","","","",""
"null","../img/tt/442tt.jpg","null","mooney1","image-keyboard-response","518","1574967","0.0-6.0-1.73","2897349","co38737","norming","","","","","","",""
"9127.125","","","post_mooney1_questions","survey-likert","519","1584107","0.0-6.0-2.73","2897349","co38737","norming","","","{""curiosity"":6,""confidence"":0}","[0,1]","../img/tt/442tt.jpg","",""
"1142.1150000006892","","","recognition","survey-text","520","1585251","0.0-6.0-3.73","2897349","co38737","norming","","","{""guess"":""""}","","../img/tt/442tt.jpg","",""
"null","../img/gs/442gs.jpg","null","reveal","image-keyboard-response","521","1587257","0.0-6.0-4.73","2897349","co38737","norming","","","","","","",""
"null","../img/tt/442tt.jpg","null","mooney2","image-keyboard-response","522","1589263","0.0-6.0-5.73","2897349","co38737","norming","","","","","","",""
"5584.459999999963","","","post_reveal_questions","survey-likert","523","1594850","0.0-6.0-6.73","2897349","co38737","norming","","","{""aha"":6}","[0]","../img/tt/442tt.jpg","",""
"null","<div style=""font-size:60px;""> </div>","null","fixation","html-keyboard-response","524","1595053","0.0-6.0-0.74","2897349","co38737","norming","","","","","","",""
"null","../img/tt/405tt.jpg","null","mooney1","image-keyboard-response","525","1598056","0.0-6.0-1.74","2897349","co38737","norming","","","","","","",""
"3631.445000000065","","","post_mooney1_questions","survey-likert","526","1601691","0.0-6.0-2.74","2897349","co38737","norming","","","{""curiosity"":0,""confidence"":6}","[0,1]","../img/tt/405tt.jpg","",""
"1821.9300000001676","","","recognition","survey-text","527","1603515","0.0-6.0-3.74","2897349","co38737","norming","","","{""guess"":""koala""}","","../img/tt/405tt.jpg","",""
"null","../img/gs/405gs.jpg","null","reveal","image-keyboard-response","528","1605518","0.0-6.0-4.74","2897349","co38737","norming","","","","","","",""
"null","../img/tt/405tt.jpg","null","mooney2","image-keyboard-response","529","1607529","0.0-6.0-5.74","2897349","co38737","norming","","","","","","",""
"4573.810000000056","","","post_reveal_questions","survey-likert","530","1612107","0.0-6.0-6.74","2897349","co38737","norming","","","{""aha"":0}","[0]","../img/tt/405tt.jpg","",""
"null","<div style=""font-size:60px;""> </div>","null","fixation","html-keyboard-response","531","1612309","0.0-6.0-0.75","2897349","co38737","norming","","","","","","",""
"null","../img/tt/1283tt.jpg","null","mooney1","image-keyboard-response","532","1615318","0.0-6.0-1.75","2897349","co38737","norming","","","","","","",""
"4185.030000000494","","","post_mooney1_questions","survey-likert","533","1619507","0.0-6.0-2.75","2897349","co38737","norming","","","{""curiosity"":5,""confidence"":1}","[0,1]","../img/tt/1283tt.jpg","",""
"2646.244999999879","","","recognition","survey-text","534","1622155","0.0-6.0-3.75","2897349","co38737","norming","","","{""guess"":""animal""}","","../img/tt/1283tt.jpg","",""
"null","../img/gs/1283gs.jpg","null","reveal","image-keyboard-response","535","1624162","0.0-6.0-4.75","2897349","co38737","norming","","","","","","",""
"null","../img/tt/1283tt.jpg","null","mooney2","image-keyboard-response","536","1626171","0.0-6.0-5.75","2897349","co38737","norming","","","","","","",""
"3620.769999999553","","","post_reveal_questions","survey-likert","537","1629795","0.0-6.0-6.75","2897349","co38737","norming","","","{""aha"":5}","[0]","../img/tt/1283tt.jpg","",""
"null","<div style=""font-size:60px;""> </div>","null","fixation","html-keyboard-response","538","1630000","0.0-6.0-0.76","2897349","co38737","norming","","","","","","",""
"null","../img/tt/1275tt.jpg","null","mooney1","image-keyboard-response","539","1633012","0.0-6.0-1.76","2897349","co38737","norming","","","","","","",""
"4931.195000000298","","","post_mooney1_questions","survey-likert","540","1637947","0.0-6.0-2.76","2897349","co38737","norming","","","{""curiosity"":5,""confidence"":1}","[0,1]","../img/tt/1275tt.jpg","",""
"2766.199999999022","","","recognition","survey-text","541","1640715","0.0-6.0-3.76","2897349","co38737","norming","","","{""guess"":""woestijnvos""}","","../img/tt/1275tt.jpg","",""
"null","../img/gs/1275gs.jpg","null","reveal","image-keyboard-response","542","1642722","0.0-6.0-4.76","2897349","co38737","norming","","","","","","",""
"null","../img/tt/1275tt.jpg","null","mooney2","image-keyboard-response","543","1644731","0.0-6.0-5.76","2897349","co38737","norming","","","","","","",""
"4901.385000000242","","","post_reveal_questions","survey-likert","544","1649636","0.0-6.0-6.76","2897349","co38737","norming","","","{""aha"":5}","[0]","../img/tt/1275tt.jpg","",""
"null","<div style=""font-size:60px;""> </div>","null","fixation","html-keyboard-response","545","1649840","0.0-6.0-0.77","2897349","co38737","norming","","","","","","",""
"null","../img/tt/552tt.jpg","null","mooney1","image-keyboard-response","546","1652852","0.0-6.0-1.77","2897349","co38737","norming","","","","","","",""
"4811.4550000000745","","","post_mooney1_questions","survey-likert","547","1657667","0.0-6.0-2.77","2897349","co38737","norming","","","{""curiosity"":5,""confidence"":3}","[0,1]","../img/tt/552tt.jpg","",""
"2150.1049999997485","","","recognition","survey-text","548","1659819","0.0-6.0-3.77","2897349","co38737","norming","","","{""guess"":""stinkdier""}","","../img/tt/552tt.jpg","",""
"null","../img/gs/552gs.jpg","null","reveal","image-keyboard-response","549","1661824","0.0-6.0-4.77","2897349","co38737","norming","","","","","","",""
"null","../img/tt/552tt.jpg","null","mooney2","image-keyboard-response","550","1663833","0.0-6.0-5.77","2897349","co38737","norming","","","","","","",""
"3479.4199999996927","","","post_reveal_questions","survey-likert","551","1667315","0.0-6.0-6.77","2897349","co38737","norming","","","{""aha"":1}","[0]","../img/tt/552tt.jpg","",""
"null","<div style=""font-size:60px;""> </div>","null","fixation","html-keyboard-response","552","1667516","0.0-6.0-0.78","2897349","co38737","norming","","","","","","",""
