"rt","stimulus","key_press","test_part","trial_type","trial_index","time_elapsed","internal_node_id","totalTime","subject","experiment_name","button_pressed","success","responses","question_order","currentStim","old","correct"
"94401.55000000005","Welcome to the experiment. This is an online experiment so please don't close the tab/window until we say goodbye.  Press any key to begin.","32","instructions","html-keyboard-response","0","94468","0.0-0.0","3013967","co38749","norming","","","","","","",""
"51903.73499999997","<div style='word-wrap: break-word; width: 900px'><h3>Please consider this information carefully before deciding whether to participate in this research</h3><ul style='text-align: left; font-size: .8em;'><li><b>Purpose of the research</b>: To examine how people process images.</li><li><b>What you will do in this research</b>:  Stimuli (images) will be presented on the computer and you will be asked different questions about them.</li><li><b>Time required</b>: Participation will take between 45 and 60 minutes to complete.</li><li><b>Risks</b>:  There are no anticipated risks associated with participating in this study. The effects of participating should be comparable to those you would experience from viewing a computer monitor for 30 minutes and using a mouse or keyboard.</li><li><b>Benefits</b>:  This study provides no benefits to you individually except for the credit. The study provides important information about the nature of perception and learning.</li><li><b>Confidentiality</b>:  Your participation in this study will remain confidential. No personally identifiable information will be associated with your data. Your de-identified data may be shared with other researchers and used in future projects.</li><li><b>Participation and withdrawal</b>:  Your participation in this study is completely voluntary and you may refuse to participate or you may choose to withdraw at any time without penalty.</li><li><b>How to contact the researchers</b>: If you have questions or concerns about your participation or payment, or want to request a summary of research findings, please contact Sander Van de Cruys (KU Leuven), at sander.vandecruys@kuleuven.be.</li></ul><p>The nature and purpose of this research have been sufficiently explained and I agree to participate in this study.  I understand that I am free to withdraw at any time without incurring any penalty.</p><p>Please consent by clicking the button below to continue. Otherwise, please exit the study at this time.</p></div>","","instructions","html-button-response","1","146375","0.0-1.0","3013967","co38749","norming","0","","","","","",""
"","","","instructions","fullscreen","2","153025","0.0-2.0","3013967","co38749","norming","","true","","","","",""
"36835.07999999996","","","sona","survey-html-form","3","189864","0.0-3.0","3013967","co38749","norming","","","[{""name"":""sonaid"",""value"":""38749""},{""name"":""debrief"",""value"":""yes""},{""name"":""datajoin"",""value"":""yes""}]","","","",""
"119283.96500000005","<div style='word-wrap: break-word; width: 900px'><h3>Instructions</h3><p>This experiment will have 3 parts. In the first part you will see a series of distorted images like the one below on the left. As you can see in the righthand image, the distorted images are derived from actual photographs. In what follows, you will <strong>briefly</strong> be presented with <strong>only</strong> the distorted image.</p> <div style='float: left; margin-right: 20px;'><img src='../img/018tt.jpg' height='250' width='250'></img></div><div style='float: right; margin-left: 20px;'><img src='../img/018gs.jpg' height='250' width='250'></img></div><p>Subsequently you will be asked a few questions about the image: One question on how <strong>curious</strong> you are about the solution and one on how <strong>confident</strong> you are that you know the solution.</p>Next, we ask you to make a guess on what is in the image. Note that it is OK to name just the <strong>basic level category</strong>. For example when you see a parrot in the image, 'parrot' will obviously be a correct answer but also correct is 'bird'. However, 'animal' will <strong>not</strong> be counted as a correct response. For the example above, 'rose' would be correct or 'flower', but not 'plant'. When soccer players are depicted, 'soccer', 'football', 'soccer players' will be correct, but not 'humans', 'outdoors', or 'sports'. You do not need to describe the image in full, just name the main object in it <strong>in one or two words</strong>. All images depict objects from one of the following broad level categories: animals, inanimate objects, plants, sports, vehicles, and food. Recognizing means knowing <strong>more</strong> than these broad labels for a given image. But we always encourage you to <strong>make a guess</strong> if you can. Note that you are allowed to use <strong>Dutch and English</strong> in your answers, whatever comes easiest for you.</p><p>Press any key to continue.</p></div>","32","instructions","html-keyboard-response","4","309157","0.0-4.0","3013967","co38749","norming","","","","","","",""
"326924.41","<div style='word-wrap: break-word; width: 900px'><h3>Instructions</h3> <p>Next, the solution image will be revealed to you and you'll be asked to indicate how strong your <strong>aha-experience</strong> was after seeing the solution. This describes the positive feeling of the 'click' you sometimes experience, when the pieces of the 'puzzle' fall together and you suddenly have 'insight' in the image.</p><img src='aha.jpg' height='188' width='250'></img><p>Note that there are no right or wrong answers. We are interested in what <strong>you</strong> see in the image and how <strong>you</strong> feel about it.</p><p>Press any key to start the experiment.</p></div>","32","instructions","html-keyboard-response","5","636086","0.0-5.0","3013967","co38749","norming","","","","","","",""
"null","<div style=""font-size:60px;""> </div>","null","fixation","html-keyboard-response","6","636294","0.0-6.0-0.0","3013967","co38749","norming","","","","","","",""
"null","../img/tt/1004tt.jpg","null","mooney1","image-keyboard-response","7","639300","0.0-6.0-1.0","3013967","co38749","norming","","","","","","",""
"17824.02000000002","","","post_mooney1_questions","survey-likert","8","657126","0.0-6.0-2.0","3013967","co38749","norming","","","{""curiosity"":4,""confidence"":0}","[0,1]","../img/tt/1004tt.jpg","",""
"3796.5999999998603","","","recognition","survey-text","9","660925","0.0-6.0-3.0","3013967","co38749","norming","","","{""guess"":""""}","","../img/tt/1004tt.jpg","",""
"null","../img/gs/1004gs.jpg","null","reveal","image-keyboard-response","10","662936","0.0-6.0-4.0","3013967","co38749","norming","","","","","","",""
"null","../img/tt/1004tt.jpg","null","mooney2","image-keyboard-response","11","664941","0.0-6.0-5.0","3013967","co38749","norming","","","","","","",""
"6575.105000000214","","","post_reveal_questions","survey-likert","12","671517","0.0-6.0-6.0","3013967","co38749","norming","","","{""aha"":2}","[0]","../img/tt/1004tt.jpg","",""
"null","<div style=""font-size:60px;""> </div>","null","fixation","html-keyboard-response","13","671726","0.0-6.0-0.1","3013967","co38749","norming","","","","","","",""
"null","../img/tt/123tt.jpg","null","mooney1","image-keyboard-response","14","674736","0.0-6.0-1.1","3013967","co38749","norming","","","","","","",""
"7492.720000000205","","","post_mooney1_questions","survey-likert","15","682230","0.0-6.0-2.1","3013967","co38749","norming","","","{""curiosity"":2,""confidence"":3}","[0,1]","../img/tt/123tt.jpg","",""
"2981.7450000001118","","","recognition","survey-text","16","685213","0.0-6.0-3.1","3013967","co38749","norming","","","{""guess"":""koffer""}","","../img/tt/123tt.jpg","",""
"null","../img/gs/123gs.jpg","null","reveal","image-keyboard-response","17","687215","0.0-6.0-4.1","3013967","co38749","norming","","","","","","",""
"null","../img/tt/123tt.jpg","null","mooney2","image-keyboard-response","18","689224","0.0-6.0-5.1","3013967","co38749","norming","","","","","","",""
"3045.1350000001257","","","post_reveal_questions","survey-likert","19","692270","0.0-6.0-6.1","3013967","co38749","norming","","","{""aha"":0}","[0]","../img/tt/123tt.jpg","",""
"null","<div style=""font-size:60px;""> </div>","null","fixation","html-keyboard-response","20","692476","0.0-6.0-0.2","3013967","co38749","norming","","","","","","",""
"null","../img/tt/1118tt.jpg","null","mooney1","image-keyboard-response","21","695480","0.0-6.0-1.2","3013967","co38749","norming","","","","","","",""
"5147.54999999993","","","post_mooney1_questions","survey-likert","22","700637","0.0-6.0-2.2","3013967","co38749","norming","","","{""curiosity"":4,""confidence"":1}","[0,1]","../img/tt/1118tt.jpg","",""
"3254.2800000001444","","","recognition","survey-text","23","703893","0.0-6.0-3.2","3013967","co38749","norming","","","{""guess"":""geweer""}","","../img/tt/1118tt.jpg","",""
"null","../img/gs/1118gs.jpg","null","reveal","image-keyboard-response","24","705903","0.0-6.0-4.2","3013967","co38749","norming","","","","","","",""
"null","../img/tt/1118tt.jpg","null","mooney2","image-keyboard-response","25","707906","0.0-6.0-5.2","3013967","co38749","norming","","","","","","",""
"3464.6849999999395","","","post_reveal_questions","survey-likert","26","711372","0.0-6.0-6.2","3013967","co38749","norming","","","{""aha"":1}","[0]","../img/tt/1118tt.jpg","",""
"null","<div style=""font-size:60px;""> </div>","null","fixation","html-keyboard-response","27","711581","0.0-6.0-0.3","3013967","co38749","norming","","","","","","",""
"null","../img/tt/091tt.jpg","null","mooney1","image-keyboard-response","28","714591","0.0-6.0-1.3","3013967","co38749","norming","","","","","","",""
"3637.2200000000885","","","post_mooney1_questions","survey-likert","29","718229","0.0-6.0-2.3","3013967","co38749","norming","","","{""curiosity"":4,""confidence"":0}","[0,1]","../img/tt/091tt.jpg","",""
"5157.890000000014","","","recognition","survey-text","30","723388","0.0-6.0-3.3","3013967","co38749","norming","","","{""guess"":""krokodil""}","","../img/tt/091tt.jpg","",""
"null","../img/gs/091gs.jpg","null","reveal","image-keyboard-response","31","725393","0.0-6.0-4.3","3013967","co38749","norming","","","","","","",""
"null","../img/tt/091tt.jpg","null","mooney2","image-keyboard-response","32","727395","0.0-6.0-5.3","3013967","co38749","norming","","","","","","",""
"2031.4800000000978","","","post_reveal_questions","survey-likert","33","729429","0.0-6.0-6.3","3013967","co38749","norming","","","{""aha"":4}","[0]","../img/tt/091tt.jpg","",""
"null","<div style=""font-size:60px;""> </div>","null","fixation","html-keyboard-response","34","729638","0.0-6.0-0.4","3013967","co38749","norming","","","","","","",""
"null","../img/tt/1190tt.jpg","null","mooney1","image-keyboard-response","35","732648","0.0-6.0-1.4","3013967","co38749","norming","","","","","","",""
"7027.969999999856","","","post_mooney1_questions","survey-likert","36","739677","0.0-6.0-2.4","3013967","co38749","norming","","","{""curiosity"":4,""confidence"":4}","[0,1]","../img/tt/1190tt.jpg","",""
"2158.4250000000466","","","recognition","survey-text","37","741837","0.0-6.0-3.4","3013967","co38749","norming","","","{""guess"":""paard""}","","../img/tt/1190tt.jpg","",""
"null","../img/gs/1190gs.jpg","null","reveal","image-keyboard-response","38","743847","0.0-6.0-4.4","3013967","co38749","norming","","","","","","",""
"null","../img/tt/1190tt.jpg","null","mooney2","image-keyboard-response","39","745853","0.0-6.0-5.4","3013967","co38749","norming","","","","","","",""
"3862.2499999998836","","","post_reveal_questions","survey-likert","40","749717","0.0-6.0-6.4","3013967","co38749","norming","","","{""aha"":4}","[0]","../img/tt/1190tt.jpg","",""
"null","<div style=""font-size:60px;""> </div>","null","fixation","html-keyboard-response","41","749925","0.0-6.0-0.5","3013967","co38749","norming","","","","","","",""
"null","../img/tt/1227tt.jpg","null","mooney1","image-keyboard-response","42","752935","0.0-6.0-1.5","3013967","co38749","norming","","","","","","",""
"6523.430000000051","","","post_mooney1_questions","survey-likert","43","759460","0.0-6.0-2.5","3013967","co38749","norming","","","{""curiosity"":4,""confidence"":0}","[0,1]","../img/tt/1227tt.jpg","",""
"1413.9500000001863","","","recognition","survey-text","44","760875","0.0-6.0-3.5","3013967","co38749","norming","","","{""guess"":""""}","","../img/tt/1227tt.jpg","",""
"null","../img/gs/1227gs.jpg","null","reveal","image-keyboard-response","45","762881","0.0-6.0-4.5","3013967","co38749","norming","","","","","","",""
"null","../img/tt/1227tt.jpg","null","mooney2","image-keyboard-response","46","764892","0.0-6.0-5.5","3013967","co38749","norming","","","","","","",""
"1677.2450000001118","","","post_reveal_questions","survey-likert","47","766571","0.0-6.0-6.5","3013967","co38749","norming","","","{""aha"":4}","[0]","../img/tt/1227tt.jpg","",""
"null","<div style=""font-size:60px;""> </div>","null","fixation","html-keyboard-response","48","766773","0.0-6.0-0.6","3013967","co38749","norming","","","","","","",""
"null","../img/tt/1205tt.jpg","null","mooney1","image-keyboard-response","49","769784","0.0-6.0-1.6","3013967","co38749","norming","","","","","","",""
"4913.005000000121","","","post_mooney1_questions","survey-likert","50","774700","0.0-6.0-2.6","3013967","co38749","norming","","","{""curiosity"":4,""confidence"":0}","[0,1]","../img/tt/1205tt.jpg","",""
"966.199999999837","","","recognition","survey-text","51","775668","0.0-6.0-3.6","3013967","co38749","norming","","","{""guess"":""""}","","../img/tt/1205tt.jpg","",""
"null","../img/gs/1205gs.jpg","null","reveal","image-keyboard-response","52","777670","0.0-6.0-4.6","3013967","co38749","norming","","","","","","",""
"null","../img/tt/1205tt.jpg","null","mooney2","image-keyboard-response","53","779674","0.0-6.0-5.6","3013967","co38749","norming","","","","","","",""
"2495.1249999998836","","","post_reveal_questions","survey-likert","54","782172","0.0-6.0-6.6","3013967","co38749","norming","","","{""aha"":4}","[0]","../img/tt/1205tt.jpg","",""
"null","<div style=""font-size:60px;""> </div>","null","fixation","html-keyboard-response","55","782381","0.0-6.0-0.7","3013967","co38749","norming","","","","","","",""
"null","../img/tt/1173tt.jpg","null","mooney1","image-keyboard-response","56","785389","0.0-6.0-1.7","3013967","co38749","norming","","","","","","",""
"5732.569999999832","","","post_mooney1_questions","survey-likert","57","791124","0.0-6.0-2.7","3013967","co38749","norming","","","{""curiosity"":4,""confidence"":2}","[0,1]","../img/tt/1173tt.jpg","",""
"2646.125000000233","","","recognition","survey-text","58","793772","0.0-6.0-3.7","3013967","co38749","norming","","","{""guess"":""danseressen""}","","../img/tt/1173tt.jpg","",""
"null","../img/gs/1173gs.jpg","null","reveal","image-keyboard-response","59","795776","0.0-6.0-4.7","3013967","co38749","norming","","","","","","",""
"null","../img/tt/1173tt.jpg","null","mooney2","image-keyboard-response","60","797778","0.0-6.0-5.7","3013967","co38749","norming","","","","","","",""
"1544.0400000000373","","","post_reveal_questions","survey-likert","61","799324","0.0-6.0-6.7","3013967","co38749","norming","","","{""aha"":4}","[0]","../img/tt/1173tt.jpg","",""
"null","<div style=""font-size:60px;""> </div>","null","fixation","html-keyboard-response","62","799525","0.0-6.0-0.8","3013967","co38749","norming","","","","","","",""
"null","../img/tt/052tt.jpg","null","mooney1","image-keyboard-response","63","802531","0.0-6.0-1.8","3013967","co38749","norming","","","","","","",""
"5358.345000000205","","","post_mooney1_questions","survey-likert","64","807892","0.0-6.0-2.8","3013967","co38749","norming","","","{""curiosity"":4,""confidence"":1}","[0,1]","../img/tt/052tt.jpg","",""
"1542.1000000000931","","","recognition","survey-text","65","809436","0.0-6.0-3.8","3013967","co38749","norming","","","{""guess"":""riem""}","","../img/tt/052tt.jpg","",""
"null","../img/gs/052gs.jpg","null","reveal","image-keyboard-response","66","811441","0.0-6.0-4.8","3013967","co38749","norming","","","","","","",""
"null","../img/tt/052tt.jpg","null","mooney2","image-keyboard-response","67","813450","0.0-6.0-5.8","3013967","co38749","norming","","","","","","",""
"4023.8800000000047","","","post_reveal_questions","survey-likert","68","817476","0.0-6.0-6.8","3013967","co38749","norming","","","{""aha"":4}","[0]","../img/tt/052tt.jpg","",""
"null","<div style=""font-size:60px;""> </div>","null","fixation","html-keyboard-response","69","817685","0.0-6.0-0.9","3013967","co38749","norming","","","","","","",""
"null","../img/tt/1251tt.jpg","null","mooney1","image-keyboard-response","70","820693","0.0-6.0-1.9","3013967","co38749","norming","","","","","","",""
"2929.3349999999627","","","post_mooney1_questions","survey-likert","71","823624","0.0-6.0-2.9","3013967","co38749","norming","","","{""curiosity"":4,""confidence"":2}","[0,1]","../img/tt/1251tt.jpg","",""
"2678.355000000098","","","recognition","survey-text","72","826304","0.0-6.0-3.9","3013967","co38749","norming","","","{""guess"":""danseres""}","","../img/tt/1251tt.jpg","",""
"null","../img/gs/1251gs.jpg","null","reveal","image-keyboard-response","73","828306","0.0-6.0-4.9","3013967","co38749","norming","","","","","","",""
"null","../img/tt/1251tt.jpg","null","mooney2","image-keyboard-response","74","830308","0.0-6.0-5.9","3013967","co38749","norming","","","","","","",""
"2210.694999999949","","","post_reveal_questions","survey-likert","75","832520","0.0-6.0-6.9","3013967","co38749","norming","","","{""aha"":3}","[0]","../img/tt/1251tt.jpg","",""
"null","<div style=""font-size:60px;""> </div>","null","fixation","html-keyboard-response","76","832726","0.0-6.0-0.10","3013967","co38749","norming","","","","","","",""
"null","../img/tt/163tt.jpg","null","mooney1","image-keyboard-response","77","835735","0.0-6.0-1.10","3013967","co38749","norming","","","","","","",""
"3646.765000000014","","","post_mooney1_questions","survey-likert","78","839385","0.0-6.0-2.10","3013967","co38749","norming","","","{""curiosity"":5,""confidence"":0}","[0,1]","../img/tt/163tt.jpg","",""
"1638.0449999999255","","","recognition","survey-text","79","841024","0.0-6.0-3.10","3013967","co38749","norming","","","{""guess"":""klimmer""}","","../img/tt/163tt.jpg","",""
"null","../img/gs/163gs.jpg","null","reveal","image-keyboard-response","80","843026","0.0-6.0-4.10","3013967","co38749","norming","","","","","","",""
"null","../img/tt/163tt.jpg","null","mooney2","image-keyboard-response","81","845035","0.0-6.0-5.10","3013967","co38749","norming","","","","","","",""
"3051.685000000056","","","post_reveal_questions","survey-likert","82","848088","0.0-6.0-6.10","3013967","co38749","norming","","","{""aha"":4}","[0]","../img/tt/163tt.jpg","",""
"null","<div style=""font-size:60px;""> </div>","null","fixation","html-keyboard-response","83","848289","0.0-6.0-0.11","3013967","co38749","norming","","","","","","",""
"null","../img/tt/1006tt.jpg","null","mooney1","image-keyboard-response","84","851294","0.0-6.0-1.11","3013967","co38749","norming","","","","","","",""
"4959.820000000065","","","post_mooney1_questions","survey-likert","85","856256","0.0-6.0-2.11","3013967","co38749","norming","","","{""curiosity"":5,""confidence"":0}","[0,1]","../img/tt/1006tt.jpg","",""
"990.4400000000605","","","recognition","survey-text","86","857248","0.0-6.0-3.11","3013967","co38749","norming","","","{""guess"":""koe""}","","../img/tt/1006tt.jpg","",""
"null","../img/gs/1006gs.jpg","null","reveal","image-keyboard-response","87","859258","0.0-6.0-4.11","3013967","co38749","norming","","","","","","",""
"null","../img/tt/1006tt.jpg","null","mooney2","image-keyboard-response","88","861267","0.0-6.0-5.11","3013967","co38749","norming","","","","","","",""
"2867.4700000000885","","","post_reveal_questions","survey-likert","89","864136","0.0-6.0-6.11","3013967","co38749","norming","","","{""aha"":5}","[0]","../img/tt/1006tt.jpg","",""
"null","<div style=""font-size:60px;""> </div>","null","fixation","html-keyboard-response","90","864345","0.0-6.0-0.12","3013967","co38749","norming","","","","","","",""
"null","../img/tt/1156tt.jpg","null","mooney1","image-keyboard-response","91","867348","0.0-6.0-1.12","3013967","co38749","norming","","","","","","",""
"3905.7350000001024","","","post_mooney1_questions","survey-likert","92","871256","0.0-6.0-2.12","3013967","co38749","norming","","","{""curiosity"":5,""confidence"":1}","[0,1]","../img/tt/1156tt.jpg","",""
"2502.25","","","recognition","survey-text","93","873760","0.0-6.0-3.12","3013967","co38749","norming","","","{""guess"":""zwemmer""}","","../img/tt/1156tt.jpg","",""
"null","../img/gs/1156gs.jpg","null","reveal","image-keyboard-response","94","875764","0.0-6.0-4.12","3013967","co38749","norming","","","","","","",""
"null","../img/tt/1156tt.jpg","null","mooney2","image-keyboard-response","95","877766","0.0-6.0-5.12","3013967","co38749","norming","","","","","","",""
"3664.2700000000186","","","post_reveal_questions","survey-likert","96","881431","0.0-6.0-6.12","3013967","co38749","norming","","","{""aha"":2}","[0]","../img/tt/1156tt.jpg","",""
"null","<div style=""font-size:60px;""> </div>","null","fixation","html-keyboard-response","97","881632","0.0-6.0-0.13","3013967","co38749","norming","","","","","","",""
"null","../img/tt/076tt.jpg","null","mooney1","image-keyboard-response","98","884635","0.0-6.0-1.13","3013967","co38749","norming","","","","","","",""
"7529.710000000079","","","post_mooney1_questions","survey-likert","99","892166","0.0-6.0-2.13","3013967","co38749","norming","","","{""curiosity"":5,""confidence"":3}","[0,1]","../img/tt/076tt.jpg","",""
"2117.9349999999395","","","recognition","survey-text","100","894286","0.0-6.0-3.13","3013967","co38749","norming","","","{""guess"":""rollerskate""}","","../img/tt/076tt.jpg","",""
"null","../img/gs/076gs.jpg","null","reveal","image-keyboard-response","101","896291","0.0-6.0-4.13","3013967","co38749","norming","","","","","","",""
"null","../img/tt/076tt.jpg","null","mooney2","image-keyboard-response","102","898293","0.0-6.0-5.13","3013967","co38749","norming","","","","","","",""
"4318.7949999999255","","","post_reveal_questions","survey-likert","103","902614","0.0-6.0-6.13","3013967","co38749","norming","","","{""aha"":1}","[0]","../img/tt/076tt.jpg","",""
"null","<div style=""font-size:60px;""> </div>","null","fixation","html-keyboard-response","104","902817","0.0-6.0-0.14","3013967","co38749","norming","","","","","","",""
"null","../img/tt/1123tt.jpg","null","mooney1","image-keyboard-response","105","905822","0.0-6.0-1.14","3013967","co38749","norming","","","","","","",""
"3743.649999999907","","","post_mooney1_questions","survey-likert","106","909567","0.0-6.0-2.14","3013967","co38749","norming","","","{""curiosity"":5,""confidence"":1}","[0,1]","../img/tt/1123tt.jpg","",""
"3598.1200000001118","","","recognition","survey-text","107","913166","0.0-6.0-3.14","3013967","co38749","norming","","","{""guess"":""basketbalspeler""}","","../img/tt/1123tt.jpg","",""
"null","../img/gs/1123gs.jpg","null","reveal","image-keyboard-response","108","915172","0.0-6.0-4.14","3013967","co38749","norming","","","","","","",""
"null","../img/tt/1123tt.jpg","null","mooney2","image-keyboard-response","109","917174","0.0-6.0-5.14","3013967","co38749","norming","","","","","","",""
"3038.125","","","post_reveal_questions","survey-likert","110","920214","0.0-6.0-6.14","3013967","co38749","norming","","","{""aha"":2}","[0]","../img/tt/1123tt.jpg","",""
"null","<div style=""font-size:60px;""> </div>","null","fixation","html-keyboard-response","111","920417","0.0-6.0-0.15","3013967","co38749","norming","","","","","","",""
"null","../img/tt/279tt.jpg","null","mooney1","image-keyboard-response","112","923421","0.0-6.0-1.15","3013967","co38749","norming","","","","","","",""
"4872.104999999981","","","post_mooney1_questions","survey-likert","113","928295","0.0-6.0-2.15","3013967","co38749","norming","","","{""curiosity"":5,""confidence"":5}","[0,1]","../img/tt/279tt.jpg","",""
"2102.1300000000047","","","recognition","survey-text","114","930399","0.0-6.0-3.15","3013967","co38749","norming","","","{""guess"":""panda""}","","../img/tt/279tt.jpg","",""
"null","../img/gs/279gs.jpg","null","reveal","image-keyboard-response","115","932407","0.0-6.0-4.15","3013967","co38749","norming","","","","","","",""
"null","../img/tt/279tt.jpg","null","mooney2","image-keyboard-response","116","934410","0.0-6.0-5.15","3013967","co38749","norming","","","","","","",""
"4338.790000000037","","","post_reveal_questions","survey-likert","117","938751","0.0-6.0-6.15","3013967","co38749","norming","","","{""aha"":5}","[0]","../img/tt/279tt.jpg","",""
"null","<div style=""font-size:60px;""> </div>","null","fixation","html-keyboard-response","118","938952","0.0-6.0-0.16","3013967","co38749","norming","","","","","","",""
"null","../img/tt/522tt.jpg","null","mooney1","image-keyboard-response","119","941962","0.0-6.0-1.16","3013967","co38749","norming","","","","","","",""
"4370.515000000014","","","post_mooney1_questions","survey-likert","120","946337","0.0-6.0-2.16","3013967","co38749","norming","","","{""curiosity"":5,""confidence"":0}","[0,1]","../img/tt/522tt.jpg","",""
"1677.9099999997998","","","recognition","survey-text","121","948016","0.0-6.0-3.16","3013967","co38749","norming","","","{""guess"":""""}","","../img/tt/522tt.jpg","",""
"null","../img/gs/522gs.jpg","null","reveal","image-keyboard-response","122","950022","0.0-6.0-4.16","3013967","co38749","norming","","","","","","",""
"null","../img/tt/522tt.jpg","null","mooney2","image-keyboard-response","123","952024","0.0-6.0-5.16","3013967","co38749","norming","","","","","","",""
"3518.399999999907","","","post_reveal_questions","survey-likert","124","955544","0.0-6.0-6.16","3013967","co38749","norming","","","{""aha"":0}","[0]","../img/tt/522tt.jpg","",""
"null","<div style=""font-size:60px;""> </div>","null","fixation","html-keyboard-response","125","955753","0.0-6.0-0.17","3013967","co38749","norming","","","","","","",""
"null","../img/tt/1200tt.jpg","null","mooney1","image-keyboard-response","126","958760","0.0-6.0-1.17","3013967","co38749","norming","","","","","","",""
"4806.090000000084","","","post_mooney1_questions","survey-likert","127","963568","0.0-6.0-2.17","3013967","co38749","norming","","","{""curiosity"":4,""confidence"":5}","[0,1]","../img/tt/1200tt.jpg","",""
"11262.380000000121","","","recognition","survey-text","128","974832","0.0-6.0-3.17","3013967","co38749","norming","","","{""guess"":""kajakken""}","","../img/tt/1200tt.jpg","",""
"null","../img/gs/1200gs.jpg","null","reveal","image-keyboard-response","129","976834","0.0-6.0-4.17","3013967","co38749","norming","","","","","","",""
"null","../img/tt/1200tt.jpg","null","mooney2","image-keyboard-response","130","978836","0.0-6.0-5.17","3013967","co38749","norming","","","","","","",""
"2210.1750000000466","","","post_reveal_questions","survey-likert","131","981048","0.0-6.0-6.17","3013967","co38749","norming","","","{""aha"":0}","[0]","../img/tt/1200tt.jpg","",""
"null","<div style=""font-size:60px;""> </div>","null","fixation","html-keyboard-response","132","981251","0.0-6.0-0.18","3013967","co38749","norming","","","","","","",""
"null","../img/tt/098tt.jpg","null","mooney1","image-keyboard-response","133","984262","0.0-6.0-1.18","3013967","co38749","norming","","","","","","",""
"4576.060000000056","","","post_mooney1_questions","survey-likert","134","988841","0.0-6.0-2.18","3013967","co38749","norming","","","{""curiosity"":5,""confidence"":1}","[0,1]","../img/tt/098tt.jpg","",""
"1381.8050000000512","","","recognition","survey-text","135","990224","0.0-6.0-3.18","3013967","co38749","norming","","","{""guess"":""kat""}","","../img/tt/098tt.jpg","",""
"null","../img/gs/098gs.jpg","null","reveal","image-keyboard-response","136","992226","0.0-6.0-4.18","3013967","co38749","norming","","","","","","",""
"null","../img/tt/098tt.jpg","null","mooney2","image-keyboard-response","137","994229","0.0-6.0-5.18","3013967","co38749","norming","","","","","","",""
"3377.42499999993","","","post_reveal_questions","survey-likert","138","997608","0.0-6.0-6.18","3013967","co38749","norming","","","{""aha"":2}","[0]","../img/tt/098tt.jpg","",""
"null","<div style=""font-size:60px;""> </div>","null","fixation","html-keyboard-response","139","997810","0.0-6.0-0.19","3013967","co38749","norming","","","","","","",""
"null","../img/tt/1196tt.jpg","null","mooney1","image-keyboard-response","140","1000814","0.0-6.0-1.19","3013967","co38749","norming","","","","","","",""
"4848.0299999999115","","","post_mooney1_questions","survey-likert","141","1005662","0.0-6.0-2.19","3013967","co38749","norming","","","{""curiosity"":5,""confidence"":0}","[0,1]","../img/tt/1196tt.jpg","",""
"1438.3649999999907","","","recognition","survey-text","142","1007102","0.0-6.0-3.19","3013967","co38749","norming","","","{""guess"":""non""}","","../img/tt/1196tt.jpg","",""
"null","../img/gs/1196gs.jpg","null","reveal","image-keyboard-response","143","1009111","0.0-6.0-4.19","3013967","co38749","norming","","","","","","",""
"null","../img/tt/1196tt.jpg","null","mooney2","image-keyboard-response","144","1011120","0.0-6.0-5.19","3013967","co38749","norming","","","","","","",""
"2315.8450000000885","","","post_reveal_questions","survey-likert","145","1013438","0.0-6.0-6.19","3013967","co38749","norming","","","{""aha"":5}","[0]","../img/tt/1196tt.jpg","",""
"null","<div style=""font-size:60px;""> </div>","null","fixation","html-keyboard-response","146","1013640","0.0-6.0-0.20","3013967","co38749","norming","","","","","","",""
"null","../img/tt/135tt.jpg","null","mooney1","image-keyboard-response","147","1016647","0.0-6.0-1.20","3013967","co38749","norming","","","","","","",""
"5214.325000000186","","","post_mooney1_questions","survey-likert","148","1021862","0.0-6.0-2.20","3013967","co38749","norming","","","{""curiosity"":5,""confidence"":4}","[0,1]","../img/tt/135tt.jpg","",""
"5078.075000000186","","","recognition","survey-text","149","1026942","0.0-6.0-3.20","3013967","co38749","norming","","","{""guess"":""wc-bril""}","","../img/tt/135tt.jpg","",""
"null","../img/gs/135gs.jpg","null","reveal","image-keyboard-response","150","1028953","0.0-6.0-4.20","3013967","co38749","norming","","","","","","",""
"null","../img/tt/135tt.jpg","null","mooney2","image-keyboard-response","151","1030954","0.0-6.0-5.20","3013967","co38749","norming","","","","","","",""
"1737.4950000001118","","","post_reveal_questions","survey-likert","152","1032694","0.0-6.0-6.20","3013967","co38749","norming","","","{""aha"":0}","[0]","../img/tt/135tt.jpg","",""
"null","<div style=""font-size:60px;""> </div>","null","fixation","html-keyboard-response","153","1032898","0.0-6.0-0.21","3013967","co38749","norming","","","","","","",""
"null","../img/tt/524tt.jpg","null","mooney1","image-keyboard-response","154","1035900","0.0-6.0-1.21","3013967","co38749","norming","","","","","","",""
"4271.280000000261","","","post_mooney1_questions","survey-likert","155","1040174","0.0-6.0-2.21","3013967","co38749","norming","","","{""curiosity"":4,""confidence"":4}","[0,1]","../img/tt/524tt.jpg","",""
"2382.3549999999814","","","recognition","survey-text","156","1042558","0.0-6.0-3.21","3013967","co38749","norming","","","{""guess"":""paard""}","","../img/tt/524tt.jpg","",""
"null","../img/gs/524gs.jpg","null","reveal","image-keyboard-response","157","1044565","0.0-6.0-4.21","3013967","co38749","norming","","","","","","",""
"null","../img/tt/524tt.jpg","null","mooney2","image-keyboard-response","158","1046566","0.0-6.0-5.21","3013967","co38749","norming","","","","","","",""
"2223.4850000001024","","","post_reveal_questions","survey-likert","159","1048790","0.0-6.0-6.21","3013967","co38749","norming","","","{""aha"":5}","[0]","../img/tt/524tt.jpg","",""
"null","<div style=""font-size:60px;""> </div>","null","fixation","html-keyboard-response","160","1048997","0.0-6.0-0.22","3013967","co38749","norming","","","","","","",""
"null","../img/tt/1276tt.jpg","null","mooney1","image-keyboard-response","161","1051999","0.0-6.0-1.22","3013967","co38749","norming","","","","","","",""
"3812.274999999907","","","post_mooney1_questions","survey-likert","162","1055814","0.0-6.0-2.22","3013967","co38749","norming","","","{""curiosity"":5,""confidence"":4}","[0,1]","../img/tt/1276tt.jpg","",""
"2550.125","","","recognition","survey-text","163","1058366","0.0-6.0-3.22","3013967","co38749","norming","","","{""guess"":""hond""}","","../img/tt/1276tt.jpg","",""
"null","../img/gs/1276gs.jpg","null","reveal","image-keyboard-response","164","1060371","0.0-6.0-4.22","3013967","co38749","norming","","","","","","",""
"null","../img/tt/1276tt.jpg","null","mooney2","image-keyboard-response","165","1062376","0.0-6.0-5.22","3013967","co38749","norming","","","","","","",""
"1893.8400000000838","","","post_reveal_questions","survey-likert","166","1064272","0.0-6.0-6.22","3013967","co38749","norming","","","{""aha"":1}","[0]","../img/tt/1276tt.jpg","",""
"null","<div style=""font-size:60px;""> </div>","null","fixation","html-keyboard-response","167","1064474","0.0-6.0-0.23","3013967","co38749","norming","","","","","","",""
"null","../img/tt/1063tt.jpg","null","mooney1","image-keyboard-response","168","1067480","0.0-6.0-1.23","3013967","co38749","norming","","","","","","",""
"3141.7600000000093","","","post_mooney1_questions","survey-likert","169","1070624","0.0-6.0-2.23","3013967","co38749","norming","","","{""curiosity"":5,""confidence"":4}","[0,1]","../img/tt/1063tt.jpg","",""
"846.375","","","recognition","survey-text","170","1071472","0.0-6.0-3.23","3013967","co38749","norming","","","{""guess"":""koe""}","","../img/tt/1063tt.jpg","",""
"null","../img/gs/1063gs.jpg","null","reveal","image-keyboard-response","171","1073477","0.0-6.0-4.23","3013967","co38749","norming","","","","","","",""
"null","../img/tt/1063tt.jpg","null","mooney2","image-keyboard-response","172","1075480","0.0-6.0-5.23","3013967","co38749","norming","","","","","","",""
"4174.219999999739","","","post_reveal_questions","survey-likert","173","1079656","0.0-6.0-6.23","3013967","co38749","norming","","","{""aha"":1}","[0]","../img/tt/1063tt.jpg","",""
"null","<div style=""font-size:60px;""> </div>","null","fixation","html-keyboard-response","174","1079857","0.0-6.0-0.24","3013967","co38749","norming","","","","","","",""
"null","../img/tt/1224tt.jpg","null","mooney1","image-keyboard-response","175","1082860","0.0-6.0-1.24","3013967","co38749","norming","","","","","","",""
"4457.780000000028","","","post_mooney1_questions","survey-likert","176","1087321","0.0-6.0-2.24","3013967","co38749","norming","","","{""curiosity"":4,""confidence"":1}","[0,1]","../img/tt/1224tt.jpg","",""
"1941.9299999999348","","","recognition","survey-text","177","1089264","0.0-6.0-3.24","3013967","co38749","norming","","","{""guess"":""vrouw""}","","../img/tt/1224tt.jpg","",""
"null","../img/gs/1224gs.jpg","null","reveal","image-keyboard-response","178","1091266","0.0-6.0-4.24","3013967","co38749","norming","","","","","","",""
"null","../img/tt/1224tt.jpg","null","mooney2","image-keyboard-response","179","1093275","0.0-6.0-5.24","3013967","co38749","norming","","","","","","",""
"2833.9599999999627","","","post_reveal_questions","survey-likert","180","1096112","0.0-6.0-6.24","3013967","co38749","norming","","","{""aha"":5}","[0]","../img/tt/1224tt.jpg","",""
"null","<div style=""font-size:60px;""> </div>","null","fixation","html-keyboard-response","181","1096322","0.0-6.0-0.25","3013967","co38749","norming","","","","","","",""
"null","../img/tt/1066tt.jpg","null","mooney1","image-keyboard-response","182","1099330","0.0-6.0-1.25","3013967","co38749","norming","","","","","","",""
"4323.470000000205","","","post_mooney1_questions","survey-likert","183","1103657","0.0-6.0-2.25","3013967","co38749","norming","","","{""curiosity"":1,""confidence"":5}","[0,1]","../img/tt/1066tt.jpg","",""
"3109.9799999999814","","","recognition","survey-text","184","1106768","0.0-6.0-3.25","3013967","co38749","norming","","","{""guess"":""bus""}","","../img/tt/1066tt.jpg","",""
"null","../img/gs/1066gs.jpg","null","reveal","image-keyboard-response","185","1108773","0.0-6.0-4.25","3013967","co38749","norming","","","","","","",""
"null","../img/tt/1066tt.jpg","null","mooney2","image-keyboard-response","186","1110775","0.0-6.0-5.25","3013967","co38749","norming","","","","","","",""
"1726.9099999999162","","","post_reveal_questions","survey-likert","187","1112504","0.0-6.0-6.25","3013967","co38749","norming","","","{""aha"":0}","[0]","../img/tt/1066tt.jpg","",""
"null","<div style=""font-size:60px;""> </div>","null","fixation","html-keyboard-response","188","1112711","0.0-6.0-0.26","3013967","co38749","norming","","","","","","",""
"null","../img/tt/1272tt.jpg","null","mooney1","image-keyboard-response","189","1115718","0.0-6.0-1.26","3013967","co38749","norming","","","","","","",""
"5159.935000000289","","","post_mooney1_questions","survey-likert","190","1120881","0.0-6.0-2.26","3013967","co38749","norming","","","{""curiosity"":5,""confidence"":2}","[0,1]","../img/tt/1272tt.jpg","",""
"1886","","","recognition","survey-text","191","1122761","0.0-6.0-3.26","3013967","co38749","norming","","","{""guess"":""hond""}","","../img/tt/1272tt.jpg","",""
"null","../img/gs/1272gs.jpg","null","reveal","image-keyboard-response","192","1124763","0.0-6.0-4.26","3013967","co38749","norming","","","","","","",""
"null","../img/tt/1272tt.jpg","null","mooney2","image-keyboard-response","193","1126765","0.0-6.0-5.26","3013967","co38749","norming","","","","","","",""
"2641.9549999998417","","","post_reveal_questions","survey-likert","194","1129409","0.0-6.0-6.26","3013967","co38749","norming","","","{""aha"":4}","[0]","../img/tt/1272tt.jpg","",""
"null","<div style=""font-size:60px;""> </div>","null","fixation","html-keyboard-response","195","1129610","0.0-6.0-0.27","3013967","co38749","norming","","","","","","",""
"null","../img/tt/085tt.jpg","null","mooney1","image-keyboard-response","196","1132615","0.0-6.0-1.27","3013967","co38749","norming","","","","","","",""
"5089.519999999786","","","post_mooney1_questions","survey-likert","197","1137705","0.0-6.0-2.27","3013967","co38749","norming","","","{""curiosity"":5,""confidence"":1}","[0,1]","../img/tt/085tt.jpg","",""
"2446.114999999758","","","recognition","survey-text","198","1140153","0.0-6.0-3.27","3013967","co38749","norming","","","{""guess"":""politieman""}","","../img/tt/085tt.jpg","",""
"null","../img/gs/085gs.jpg","null","reveal","image-keyboard-response","199","1142157","0.0-6.0-4.27","3013967","co38749","norming","","","","","","",""
"null","../img/tt/085tt.jpg","null","mooney2","image-keyboard-response","200","1144168","0.0-6.0-5.27","3013967","co38749","norming","","","","","","",""
"1966.214999999851","","","post_reveal_questions","survey-likert","201","1146137","0.0-6.0-6.27","3013967","co38749","norming","","","{""aha"":6}","[0]","../img/tt/085tt.jpg","",""
"null","<div style=""font-size:60px;""> </div>","null","fixation","html-keyboard-response","202","1146347","0.0-6.0-0.28","3013967","co38749","norming","","","","","","",""
"null","../img/tt/438tt.jpg","null","mooney1","image-keyboard-response","203","1149350","0.0-6.0-1.28","3013967","co38749","norming","","","","","","",""
"3504.589999999851","","","post_mooney1_questions","survey-likert","204","1152857","0.0-6.0-2.28","3013967","co38749","norming","","","{""curiosity"":2,""confidence"":5}","[0,1]","../img/tt/438tt.jpg","",""
"1901.7750000001397","","","recognition","survey-text","205","1154761","0.0-6.0-3.28","3013967","co38749","norming","","","{""guess"":""slang""}","","../img/tt/438tt.jpg","",""
"null","../img/gs/438gs.jpg","null","reveal","image-keyboard-response","206","1156771","0.0-6.0-4.28","3013967","co38749","norming","","","","","","",""
"null","../img/tt/438tt.jpg","null","mooney2","image-keyboard-response","207","1158782","0.0-6.0-5.28","3013967","co38749","norming","","","","","","",""
"2296.8899999998976","","","post_reveal_questions","survey-likert","208","1161081","0.0-6.0-6.28","3013967","co38749","norming","","","{""aha"":0}","[0]","../img/tt/438tt.jpg","",""
"null","<div style=""font-size:60px;""> </div>","null","fixation","html-keyboard-response","209","1161283","0.0-6.0-0.29","3013967","co38749","norming","","","","","","",""
"null","../img/tt/598tt.jpg","null","mooney1","image-keyboard-response","210","1164291","0.0-6.0-1.29","3013967","co38749","norming","","","","","","",""
"3971.625000000233","","","post_mooney1_questions","survey-likert","211","1168265","0.0-6.0-2.29","3013967","co38749","norming","","","{""curiosity"":5,""confidence"":0}","[0,1]","../img/tt/598tt.jpg","",""
"1118.154999999795","","","recognition","survey-text","212","1169385","0.0-6.0-3.29","3013967","co38749","norming","","","{""guess"":""mens""}","","../img/tt/598tt.jpg","",""
"null","../img/gs/598gs.jpg","null","reveal","image-keyboard-response","213","1171394","0.0-6.0-4.29","3013967","co38749","norming","","","","","","",""
"null","../img/tt/598tt.jpg","null","mooney2","image-keyboard-response","214","1173396","0.0-6.0-5.29","3013967","co38749","norming","","","","","","",""
"2466.2099999999627","","","post_reveal_questions","survey-likert","215","1175865","0.0-6.0-6.29","3013967","co38749","norming","","","{""aha"":6}","[0]","../img/tt/598tt.jpg","",""
"null","<div style=""font-size:60px;""> </div>","null","fixation","html-keyboard-response","216","1176068","0.0-6.0-0.30","3013967","co38749","norming","","","","","","",""
"null","../img/tt/1181tt.jpg","null","mooney1","image-keyboard-response","217","1179078","0.0-6.0-1.30","3013967","co38749","norming","","","","","","",""
"3935.935000000056","","","post_mooney1_questions","survey-likert","218","1183020","0.0-6.0-2.30","3013967","co38749","norming","","","{""curiosity"":5,""confidence"":1}","[0,1]","../img/tt/1181tt.jpg","",""
"2750.155000000028","","","recognition","survey-text","219","1185772","0.0-6.0-3.30","3013967","co38749","norming","","","{""guess"":""muzikanten""}","","../img/tt/1181tt.jpg","",""
"null","../img/gs/1181gs.jpg","null","reveal","image-keyboard-response","220","1187777","0.0-6.0-4.30","3013967","co38749","norming","","","","","","",""
"null","../img/tt/1181tt.jpg","null","mooney2","image-keyboard-response","221","1189778","0.0-6.0-5.30","3013967","co38749","norming","","","","","","",""
"2407.1949999998324","","","post_reveal_questions","survey-likert","222","1192188","0.0-6.0-6.30","3013967","co38749","norming","","","{""aha"":4}","[0]","../img/tt/1181tt.jpg","",""
"null","<div style=""font-size:60px;""> </div>","null","fixation","html-keyboard-response","223","1192393","0.0-6.0-0.31","3013967","co38749","norming","","","","","","",""
"null","../img/tt/1283tt.jpg","null","mooney1","image-keyboard-response","224","1195399","0.0-6.0-1.31","3013967","co38749","norming","","","","","","",""
"6601.649999999907","","","post_mooney1_questions","survey-likert","225","1202004","0.0-6.0-2.31","3013967","co38749","norming","","","{""curiosity"":5,""confidence"":0}","[0,1]","../img/tt/1283tt.jpg","",""
"2038.0349999999162","","","recognition","survey-text","226","1204044","0.0-6.0-3.31","3013967","co38749","norming","","","{""guess"":""schapen""}","","../img/tt/1283tt.jpg","",""
"null","../img/gs/1283gs.jpg","null","reveal","image-keyboard-response","227","1206046","0.0-6.0-4.31","3013967","co38749","norming","","","","","","",""
"null","../img/tt/1283tt.jpg","null","mooney2","image-keyboard-response","228","1208053","0.0-6.0-5.31","3013967","co38749","norming","","","","","","",""
"2011.6149999999907","","","post_reveal_questions","survey-likert","229","1210068","0.0-6.0-6.31","3013967","co38749","norming","","","{""aha"":0}","[0]","../img/tt/1283tt.jpg","",""
"null","<div style=""font-size:60px;""> </div>","null","fixation","html-keyboard-response","230","1210269","0.0-6.0-0.32","3013967","co38749","norming","","","","","","",""
"null","../img/tt/456tt.jpg","null","mooney1","image-keyboard-response","231","1213276","0.0-6.0-1.32","3013967","co38749","norming","","","","","","",""
"4356.170000000158","","","post_mooney1_questions","survey-likert","232","1217636","0.0-6.0-2.32","3013967","co38749","norming","","","{""curiosity"":5,""confidence"":0}","[0,1]","../img/tt/456tt.jpg","",""
"734.0150000001304","","","recognition","survey-text","233","1218372","0.0-6.0-3.32","3013967","co38749","norming","","","{""guess"":""""}","","../img/tt/456tt.jpg","",""
"null","../img/gs/456gs.jpg","null","reveal","image-keyboard-response","234","1220379","0.0-6.0-4.32","3013967","co38749","norming","","","","","","",""
"null","../img/tt/456tt.jpg","null","mooney2","image-keyboard-response","235","1222381","0.0-6.0-5.32","3013967","co38749","norming","","","","","","",""
"2868.1500000001397","","","post_reveal_questions","survey-likert","236","1225252","0.0-6.0-6.32","3013967","co38749","norming","","","{""aha"":6}","[0]","../img/tt/456tt.jpg","",""
"null","<div style=""font-size:60px;""> </div>","null","fixation","html-keyboard-response","237","1225455","0.0-6.0-0.33","3013967","co38749","norming","","","","","","",""
"null","../img/tt/1061tt.jpg","null","mooney1","image-keyboard-response","238","1228459","0.0-6.0-1.33","3013967","co38749","norming","","","","","","",""
"3661.9799999999814","","","post_mooney1_questions","survey-likert","239","1232124","0.0-6.0-2.33","3013967","co38749","norming","","","{""curiosity"":4,""confidence"":0}","[0,1]","../img/tt/1061tt.jpg","",""
"2430.1800000001676","","","recognition","survey-text","240","1234556","0.0-6.0-3.33","3013967","co38749","norming","","","{""guess"":""oorlog""}","","../img/tt/1061tt.jpg","",""
"null","../img/gs/1061gs.jpg","null","reveal","image-keyboard-response","241","1236557","0.0-6.0-4.33","3013967","co38749","norming","","","","","","",""
"null","../img/tt/1061tt.jpg","null","mooney2","image-keyboard-response","242","1238559","0.0-6.0-5.33","3013967","co38749","norming","","","","","","",""
"4866.379999999888","","","post_reveal_questions","survey-likert","243","1243425","0.0-6.0-6.33","3013967","co38749","norming","","","{""aha"":0}","[0]","../img/tt/1061tt.jpg","",""
"null","<div style=""font-size:60px;""> </div>","null","fixation","html-keyboard-response","244","1243633","0.0-6.0-0.34","3013967","co38749","norming","","","","","","",""
"null","../img/tt/315tt.jpg","null","mooney1","image-keyboard-response","245","1246636","0.0-6.0-1.34","3013967","co38749","norming","","","","","","",""
"4427.715000000084","","","post_mooney1_questions","survey-likert","246","1251065","0.0-6.0-2.34","3013967","co38749","norming","","","{""curiosity"":5,""confidence"":1}","[0,1]","../img/tt/315tt.jpg","",""
"1198.2750000001397","","","recognition","survey-text","247","1252265","0.0-6.0-3.34","3013967","co38749","norming","","","{""guess"":""vogel""}","","../img/tt/315tt.jpg","",""
"null","../img/gs/315gs.jpg","null","reveal","image-keyboard-response","248","1254271","0.0-6.0-4.34","3013967","co38749","norming","","","","","","",""
"null","../img/tt/315tt.jpg","null","mooney2","image-keyboard-response","249","1256273","0.0-6.0-5.34","3013967","co38749","norming","","","","","","",""
"2300.975000000093","","","post_reveal_questions","survey-likert","250","1258576","0.0-6.0-6.34","3013967","co38749","norming","","","{""aha"":5}","[0]","../img/tt/315tt.jpg","",""
"null","<div style=""font-size:60px;""> </div>","null","fixation","html-keyboard-response","251","1258786","0.0-6.0-0.35","3013967","co38749","norming","","","","","","",""
"null","../img/tt/1366tt.jpg","null","mooney1","image-keyboard-response","252","1261795","0.0-6.0-1.35","3013967","co38749","norming","","","","","","",""
"2746.7050000000745","","","post_mooney1_questions","survey-likert","253","1264545","0.0-6.0-2.35","3013967","co38749","norming","","","{""curiosity"":5,""confidence"":4}","[0,1]","../img/tt/1366tt.jpg","",""
"2182.159999999916","","","recognition","survey-text","254","1266729","0.0-6.0-3.35","3013967","co38749","norming","","","{""guess"":""hert""}","","../img/tt/1366tt.jpg","",""
"null","../img/gs/1366gs.jpg","null","reveal","image-keyboard-response","255","1268730","0.0-6.0-4.35","3013967","co38749","norming","","","","","","",""
"null","../img/tt/1366tt.jpg","null","mooney2","image-keyboard-response","256","1270732","0.0-6.0-5.35","3013967","co38749","norming","","","","","","",""
"1522.695000000298","","","post_reveal_questions","survey-likert","257","1272257","0.0-6.0-6.35","3013967","co38749","norming","","","{""aha"":6}","[0]","../img/tt/1366tt.jpg","",""
"null","<div style=""font-size:60px;""> </div>","null","fixation","html-keyboard-response","258","1272458","0.0-6.0-0.36","3013967","co38749","norming","","","","","","",""
"null","../img/tt/1148tt.jpg","null","mooney1","image-keyboard-response","259","1275467","0.0-6.0-1.36","3013967","co38749","norming","","","","","","",""
"3171.2099999999627","","","post_mooney1_questions","survey-likert","260","1278641","0.0-6.0-2.36","3013967","co38749","norming","","","{""curiosity"":2,""confidence"":0}","[0,1]","../img/tt/1148tt.jpg","",""
"1174.2300000002142","","","recognition","survey-text","261","1279817","0.0-6.0-3.36","3013967","co38749","norming","","","{""guess"":""""}","","../img/tt/1148tt.jpg","",""
"null","../img/gs/1148gs.jpg","null","reveal","image-keyboard-response","262","1281825","0.0-6.0-4.36","3013967","co38749","norming","","","","","","",""
"null","../img/tt/1148tt.jpg","null","mooney2","image-keyboard-response","263","1283833","0.0-6.0-5.36","3013967","co38749","norming","","","","","","",""
"2348.8950000000186","","","post_reveal_questions","survey-likert","264","1286184","0.0-6.0-6.36","3013967","co38749","norming","","","{""aha"":5}","[0]","../img/tt/1148tt.jpg","",""
"null","<div style=""font-size:60px;""> </div>","null","fixation","html-keyboard-response","265","1286394","0.0-6.0-0.37","3013967","co38749","norming","","","","","","",""
"null","../img/tt/121tt.jpg","null","mooney1","image-keyboard-response","266","1289401","0.0-6.0-1.37","3013967","co38749","norming","","","","","","",""
"3340.965000000084","","","post_mooney1_questions","survey-likert","267","1292745","0.0-6.0-2.37","3013967","co38749","norming","","","{""curiosity"":4,""confidence"":0}","[0,1]","../img/tt/121tt.jpg","",""
"2622.320000000065","","","recognition","survey-text","268","1295369","0.0-6.0-3.37","3013967","co38749","norming","","","{""guess"":""olifant""}","","../img/tt/121tt.jpg","",""
"null","../img/gs/121gs.jpg","null","reveal","image-keyboard-response","269","1297372","0.0-6.0-4.37","3013967","co38749","norming","","","","","","",""
"null","../img/tt/121tt.jpg","null","mooney2","image-keyboard-response","270","1299384","0.0-6.0-5.37","3013967","co38749","norming","","","","","","",""
"2198.4500000001863","","","post_reveal_questions","survey-likert","271","1301585","0.0-6.0-6.37","3013967","co38749","norming","","","{""aha"":2}","[0]","../img/tt/121tt.jpg","",""
"null","<div style=""font-size:60px;""> </div>","null","fixation","html-keyboard-response","272","1301793","0.0-6.0-0.38","3013967","co38749","norming","","","","","","",""
"null","../img/tt/007tt.jpg","null","mooney1","image-keyboard-response","273","1304809","0.0-6.0-1.38","3013967","co38749","norming","","","","","","",""
"5756.290000000037","","","post_mooney1_questions","survey-likert","274","1310568","0.0-6.0-2.38","3013967","co38749","norming","","","{""curiosity"":1,""confidence"":5}","[0,1]","../img/tt/007tt.jpg","",""
"1478.1100000001024","","","recognition","survey-text","275","1312048","0.0-6.0-3.38","3013967","co38749","norming","","","{""guess"":""kikker""}","","../img/tt/007tt.jpg","",""
"null","../img/gs/007gs.jpg","null","reveal","image-keyboard-response","276","1314050","0.0-6.0-4.38","3013967","co38749","norming","","","","","","",""
"null","../img/tt/007tt.jpg","null","mooney2","image-keyboard-response","277","1316057","0.0-6.0-5.38","3013967","co38749","norming","","","","","","",""
"2358.0200000000186","","","post_reveal_questions","survey-likert","278","1318424","0.0-6.0-6.38","3013967","co38749","norming","","","{""aha"":0}","[0]","../img/tt/007tt.jpg","",""
"null","<div style=""font-size:60px;""> </div>","null","fixation","html-keyboard-response","279","1318632","0.0-6.0-0.39","3013967","co38749","norming","","","","","","",""
"null","../img/tt/1053tt.jpg","null","mooney1","image-keyboard-response","280","1321636","0.0-6.0-1.39","3013967","co38749","norming","","","","","","",""
"3921.564999999944","","","post_mooney1_questions","survey-likert","281","1325560","0.0-6.0-2.39","3013967","co38749","norming","","","{""curiosity"":5,""confidence"":4}","[0,1]","../img/tt/1053tt.jpg","",""
"838.2050000000745","","","recognition","survey-text","282","1326400","0.0-6.0-3.39","3013967","co38749","norming","","","{""guess"":""koe""}","","../img/tt/1053tt.jpg","",""
"null","../img/gs/1053gs.jpg","null","reveal","image-keyboard-response","283","1328409","0.0-6.0-4.39","3013967","co38749","norming","","","","","","",""
"null","../img/tt/1053tt.jpg","null","mooney2","image-keyboard-response","284","1330411","0.0-6.0-5.39","3013967","co38749","norming","","","","","","",""
"1394.9399999999441","","","post_reveal_questions","survey-likert","285","1331808","0.0-6.0-6.39","3013967","co38749","norming","","","{""aha"":1}","[0]","../img/tt/1053tt.jpg","",""
"null","<div style=""font-size:60px;""> </div>","null","fixation","html-keyboard-response","286","1332013","0.0-6.0-0.40","3013967","co38749","norming","","","","","","",""
"null","../img/tt/329tt.jpg","null","mooney1","image-keyboard-response","287","1335022","0.0-6.0-1.40","3013967","co38749","norming","","","","","","",""
"7487.360000000102","","","post_mooney1_questions","survey-likert","288","1342513","0.0-6.0-2.40","3013967","co38749","norming","","","{""curiosity"":5,""confidence"":0}","[0,1]","../img/tt/329tt.jpg","",""
"4702.055000000168","","","recognition","survey-text","289","1347216","0.0-6.0-3.40","3013967","co38749","norming","","","{""guess"":""no clue""}","","../img/tt/329tt.jpg","",""
"null","../img/gs/329gs.jpg","null","reveal","image-keyboard-response","290","1349219","0.0-6.0-4.40","3013967","co38749","norming","","","","","","",""
"null","../img/tt/329tt.jpg","null","mooney2","image-keyboard-response","291","1351222","0.0-6.0-5.40","3013967","co38749","norming","","","","","","",""
"2063.9200000001583","","","post_reveal_questions","survey-likert","292","1353288","0.0-6.0-6.40","3013967","co38749","norming","","","{""aha"":6}","[0]","../img/tt/329tt.jpg","",""
"null","<div style=""font-size:60px;""> </div>","null","fixation","html-keyboard-response","293","1353493","0.0-6.0-0.41","3013967","co38749","norming","","","","","","",""
"null","../img/tt/053tt.jpg","null","mooney1","image-keyboard-response","294","1356499","0.0-6.0-1.41","3013967","co38749","norming","","","","","","",""
"6586.179999999935","","","post_mooney1_questions","survey-likert","295","1363089","0.0-6.0-2.41","3013967","co38749","norming","","","{""curiosity"":5,""confidence"":0}","[0,1]","../img/tt/053tt.jpg","",""
"2926.094999999972","","","recognition","survey-text","296","1366014","0.0-6.0-3.41","3013967","co38749","norming","","","{""guess"":""pad""}","","../img/tt/053tt.jpg","",""
"null","../img/gs/053gs.jpg","null","reveal","image-keyboard-response","297","1368021","0.0-6.0-4.41","3013967","co38749","norming","","","","","","",""
"null","../img/tt/053tt.jpg","null","mooney2","image-keyboard-response","298","1370023","0.0-6.0-5.41","3013967","co38749","norming","","","","","","",""
"1668.7299999997485","","","post_reveal_questions","survey-likert","299","1371694","0.0-6.0-6.41","3013967","co38749","norming","","","{""aha"":0}","[0]","../img/tt/053tt.jpg","",""
"null","<div style=""font-size:60px;""> </div>","null","fixation","html-keyboard-response","300","1371902","0.0-6.0-0.42","3013967","co38749","norming","","","","","","",""
"null","../img/tt/318tt.jpg","null","mooney1","image-keyboard-response","301","1374908","0.0-6.0-1.42","3013967","co38749","norming","","","","","","",""
"3847.095000000205","","","post_mooney1_questions","survey-likert","302","1378758","0.0-6.0-2.42","3013967","co38749","norming","","","{""curiosity"":4,""confidence"":1}","[0,1]","../img/tt/318tt.jpg","",""
"1110.0400000000373","","","recognition","survey-text","303","1379870","0.0-6.0-3.42","3013967","co38749","norming","","","{""guess"":""geit""}","","../img/tt/318tt.jpg","",""
"null","../img/gs/318gs.jpg","null","reveal","image-keyboard-response","304","1381871","0.0-6.0-4.42","3013967","co38749","norming","","","","","","",""
"null","../img/tt/318tt.jpg","null","mooney2","image-keyboard-response","305","1383872","0.0-6.0-5.42","3013967","co38749","norming","","","","","","",""
"2937.100000000093","","","post_reveal_questions","survey-likert","306","1386814","0.0-6.0-6.42","3013967","co38749","norming","","","{""aha"":0}","[0]","../img/tt/318tt.jpg","",""
"null","<div style=""font-size:60px;""> </div>","null","fixation","html-keyboard-response","307","1387016","0.0-6.0-0.43","3013967","co38749","norming","","","","","","",""
"null","../img/tt/124tt.jpg","null","mooney1","image-keyboard-response","308","1390018","0.0-6.0-1.43","3013967","co38749","norming","","","","","","",""
"5080.979999999981","","","post_mooney1_questions","survey-likert","309","1395102","0.0-6.0-2.43","3013967","co38749","norming","","","{""curiosity"":5,""confidence"":2}","[0,1]","../img/tt/124tt.jpg","",""
"1822.190000000177","","","recognition","survey-text","310","1396926","0.0-6.0-3.43","3013967","co38749","norming","","","{""guess"":""koala""}","","../img/tt/124tt.jpg","",""
"null","../img/gs/124gs.jpg","null","reveal","image-keyboard-response","311","1398927","0.0-6.0-4.43","3013967","co38749","norming","","","","","","",""
"null","../img/tt/124tt.jpg","null","mooney2","image-keyboard-response","312","1400930","0.0-6.0-5.43","3013967","co38749","norming","","","","","","",""
"3010.0799999998417","","","post_reveal_questions","survey-likert","313","1403942","0.0-6.0-6.43","3013967","co38749","norming","","","{""aha"":3}","[0]","../img/tt/124tt.jpg","",""
"null","<div style=""font-size:60px;""> </div>","null","fixation","html-keyboard-response","314","1404149","0.0-6.0-0.44","3013967","co38749","norming","","","","","","",""
"null","../img/tt/1191tt.jpg","null","mooney1","image-keyboard-response","315","1407160","0.0-6.0-1.44","3013967","co38749","norming","","","","","","",""
"3291.4200000001583","","","post_mooney1_questions","survey-likert","316","1410454","0.0-6.0-2.44","3013967","co38749","norming","","","{""curiosity"":5,""confidence"":1}","[0,1]","../img/tt/1191tt.jpg","",""
"2118.0100000000093","","","recognition","survey-text","317","1412574","0.0-6.0-3.44","3013967","co38749","norming","","","{""guess"":""paarden""}","","../img/tt/1191tt.jpg","",""
"null","../img/gs/1191gs.jpg","null","reveal","image-keyboard-response","318","1414582","0.0-6.0-4.44","3013967","co38749","norming","","","","","","",""
"null","../img/tt/1191tt.jpg","null","mooney2","image-keyboard-response","319","1416585","0.0-6.0-5.44","3013967","co38749","norming","","","","","","",""
"1787.845000000205","","","post_reveal_questions","survey-likert","320","1418374","0.0-6.0-6.44","3013967","co38749","norming","","","{""aha"":0}","[0]","../img/tt/1191tt.jpg","",""
"null","<div style=""font-size:60px;""> </div>","null","fixation","html-keyboard-response","321","1418579","0.0-6.0-0.45","3013967","co38749","norming","","","","","","",""
"null","../img/tt/405tt.jpg","null","mooney1","image-keyboard-response","322","1421586","0.0-6.0-1.45","3013967","co38749","norming","","","","","","",""
"4969.304999999935","","","post_mooney1_questions","survey-likert","323","1426557","0.0-6.0-2.45","3013967","co38749","norming","","","{""curiosity"":5,""confidence"":0}","[0,1]","../img/tt/405tt.jpg","",""
"2061.494999999879","","","recognition","survey-text","324","1428621","0.0-6.0-3.45","3013967","co38749","norming","","","{""guess"":""eten""}","","../img/tt/405tt.jpg","",""
"null","../img/gs/405gs.jpg","null","reveal","image-keyboard-response","325","1430628","0.0-6.0-4.45","3013967","co38749","norming","","","","","","",""
"null","../img/tt/405tt.jpg","null","mooney2","image-keyboard-response","326","1432629","0.0-6.0-5.45","3013967","co38749","norming","","","","","","",""
"2207.154999999795","","","post_reveal_questions","survey-likert","327","1434837","0.0-6.0-6.45","3013967","co38749","norming","","","{""aha"":6}","[0]","../img/tt/405tt.jpg","",""
"null","<div style=""font-size:60px;""> </div>","null","fixation","html-keyboard-response","328","1435044","0.0-6.0-0.46","3013967","co38749","norming","","","","","","",""
"null","../img/tt/1268tt.jpg","null","mooney1","image-keyboard-response","329","1438052","0.0-6.0-1.46","3013967","co38749","norming","","","","","","",""
"5917.8849999997765","","","post_mooney1_questions","survey-likert","330","1443973","0.0-6.0-2.46","3013967","co38749","norming","","","{""curiosity"":5,""confidence"":1}","[0,1]","../img/tt/1268tt.jpg","",""
"3317.8299999998417","","","recognition","survey-text","331","1447293","0.0-6.0-3.46","3013967","co38749","norming","","","{""guess"":""krokodil""}","","../img/tt/1268tt.jpg","",""
"null","../img/gs/1268gs.jpg","null","reveal","image-keyboard-response","332","1449295","0.0-6.0-4.46","3013967","co38749","norming","","","","","","",""
"null","../img/tt/1268tt.jpg","null","mooney2","image-keyboard-response","333","1451297","0.0-6.0-5.46","3013967","co38749","norming","","","","","","",""
"1785.494999999879","","","post_reveal_questions","survey-likert","334","1453085","0.0-6.0-6.46","3013967","co38749","norming","","","{""aha"":6}","[0]","../img/tt/1268tt.jpg","",""
"null","<div style=""font-size:60px;""> </div>","null","fixation","html-keyboard-response","335","1453296","0.0-6.0-0.47","3013967","co38749","norming","","","","","","",""
"null","../img/tt/300tt.jpg","null","mooney1","image-keyboard-response","336","1456303","0.0-6.0-1.47","3013967","co38749","norming","","","","","","",""
"3114.905000000028","","","post_mooney1_questions","survey-likert","337","1459421","0.0-6.0-2.47","3013967","co38749","norming","","","{""curiosity"":5,""confidence"":1}","[0,1]","../img/tt/300tt.jpg","",""
"4589.699999999953","","","recognition","survey-text","338","1464013","0.0-6.0-3.47","3013967","co38749","norming","","","{""guess"":""dakloze""}","","../img/tt/300tt.jpg","",""
"null","../img/gs/300gs.jpg","null","reveal","image-keyboard-response","339","1466014","0.0-6.0-4.47","3013967","co38749","norming","","","","","","",""
"null","../img/tt/300tt.jpg","null","mooney2","image-keyboard-response","340","1468016","0.0-6.0-5.47","3013967","co38749","norming","","","","","","",""
"2090.909999999916","","","post_reveal_questions","survey-likert","341","1470109","0.0-6.0-6.47","3013967","co38749","norming","","","{""aha"":6}","[0]","../img/tt/300tt.jpg","",""
"null","<div style=""font-size:60px;""> </div>","null","fixation","html-keyboard-response","342","1470319","0.0-6.0-0.48","3013967","co38749","norming","","","","","","",""
"null","../img/tt/1241tt.jpg","null","mooney1","image-keyboard-response","343","1473324","0.0-6.0-1.48","3013967","co38749","norming","","","","","","",""
"4134.229999999981","","","post_mooney1_questions","survey-likert","344","1477461","0.0-6.0-2.48","3013967","co38749","norming","","","{""curiosity"":5,""confidence"":2}","[0,1]","../img/tt/1241tt.jpg","",""
"1045.9699999997392","","","recognition","survey-text","345","1478509","0.0-6.0-3.48","3013967","co38749","norming","","","{""guess"":""beer""}","","../img/tt/1241tt.jpg","",""
"null","../img/gs/1241gs.jpg","null","reveal","image-keyboard-response","346","1480520","0.0-6.0-4.48","3013967","co38749","norming","","","","","","",""
"null","../img/tt/1241tt.jpg","null","mooney2","image-keyboard-response","347","1482526","0.0-6.0-5.48","3013967","co38749","norming","","","","","","",""
"1868.3799999998882","","","post_reveal_questions","survey-likert","348","1484397","0.0-6.0-6.48","3013967","co38749","norming","","","{""aha"":5}","[0]","../img/tt/1241tt.jpg","",""
"null","<div style=""font-size:60px;""> </div>","null","fixation","html-keyboard-response","349","1484598","0.0-6.0-0.49","3013967","co38749","norming","","","","","","",""
"null","../img/tt/497tt.jpg","null","mooney1","image-keyboard-response","350","1487604","0.0-6.0-1.49","3013967","co38749","norming","","","","","","",""
"4562.129999999655","","","post_mooney1_questions","survey-likert","351","1492169","0.0-6.0-2.49","3013967","co38749","norming","","","{""curiosity"":5,""confidence"":1}","[0,1]","../img/tt/497tt.jpg","",""
"1285.9900000004563","","","recognition","survey-text","352","1493456","0.0-6.0-3.49","3013967","co38749","norming","","","{""guess"":""wiel""}","","../img/tt/497tt.jpg","",""
"null","../img/gs/497gs.jpg","null","reveal","image-keyboard-response","353","1495458","0.0-6.0-4.49","3013967","co38749","norming","","","","","","",""
"null","../img/tt/497tt.jpg","null","mooney2","image-keyboard-response","354","1497461","0.0-6.0-5.49","3013967","co38749","norming","","","","","","",""
"1633.094999999972","","","post_reveal_questions","survey-likert","355","1499096","0.0-6.0-6.49","3013967","co38749","norming","","","{""aha"":0}","[0]","../img/tt/497tt.jpg","",""
"null","<div style=""font-size:60px;""> </div>","null","fixation","html-keyboard-response","356","1499305","0.0-6.0-0.50","3013967","co38749","norming","","","","","","",""
"null","../img/tt/094tt.jpg","null","mooney1","image-keyboard-response","357","1502314","0.0-6.0-1.50","3013967","co38749","norming","","","","","","",""
"4011.590000000084","","","post_mooney1_questions","survey-likert","358","1506329","0.0-6.0-2.50","3013967","co38749","norming","","","{""curiosity"":5,""confidence"":5}","[0,1]","../img/tt/094tt.jpg","",""
"1350.0349999999162","","","recognition","survey-text","359","1507680","0.0-6.0-3.50","3013967","co38749","norming","","","{""guess"":""wolf""}","","../img/tt/094tt.jpg","",""
"null","../img/gs/094gs.jpg","null","reveal","image-keyboard-response","360","1509682","0.0-6.0-4.50","3013967","co38749","norming","","","","","","",""
"null","../img/tt/094tt.jpg","null","mooney2","image-keyboard-response","361","1511684","0.0-6.0-5.50","3013967","co38749","norming","","","","","","",""
"1521.8249999999534","","","post_reveal_questions","survey-likert","362","1513208","0.0-6.0-6.50","3013967","co38749","norming","","","{""aha"":0}","[0]","../img/tt/094tt.jpg","",""
"null","<div style=""font-size:60px;""> </div>","null","fixation","html-keyboard-response","363","1513417","0.0-6.0-0.51","3013967","co38749","norming","","","","","","",""
"null","../img/tt/1078tt.jpg","null","mooney1","image-keyboard-response","364","1516422","0.0-6.0-1.51","3013967","co38749","norming","","","","","","",""
"2847.3799999996554","","","post_mooney1_questions","survey-likert","365","1519273","0.0-6.0-2.51","3013967","co38749","norming","","","{""curiosity"":5,""confidence"":1}","[0,1]","../img/tt/1078tt.jpg","",""
"2534.1450000002515","","","recognition","survey-text","366","1521808","0.0-6.0-3.51","3013967","co38749","norming","","","{""guess"":""schaatser""}","","../img/tt/1078tt.jpg","",""
"null","../img/gs/1078gs.jpg","null","reveal","image-keyboard-response","367","1523810","0.0-6.0-4.51","3013967","co38749","norming","","","","","","",""
"null","../img/tt/1078tt.jpg","null","mooney2","image-keyboard-response","368","1525821","0.0-6.0-5.51","3013967","co38749","norming","","","","","","",""
"2760.9699999997392","","","post_reveal_questions","survey-likert","369","1528584","0.0-6.0-6.51","3013967","co38749","norming","","","{""aha"":3}","[0]","../img/tt/1078tt.jpg","",""
"null","<div style=""font-size:60px;""> </div>","null","fixation","html-keyboard-response","370","1528795","0.0-6.0-0.52","3013967","co38749","norming","","","","","","",""
"null","../img/tt/1270tt.jpg","null","mooney1","image-keyboard-response","371","1531801","0.0-6.0-1.52","3013967","co38749","norming","","","","","","",""
"4749.875","","","post_mooney1_questions","survey-likert","372","1536553","0.0-6.0-2.52","3013967","co38749","norming","","","{""curiosity"":4,""confidence"":0}","[0,1]","../img/tt/1270tt.jpg","",""
"1317.8050000001676","","","recognition","survey-text","373","1537872","0.0-6.0-3.52","3013967","co38749","norming","","","{""guess"":""vis""}","","../img/tt/1270tt.jpg","",""
"null","../img/gs/1270gs.jpg","null","reveal","image-keyboard-response","374","1539874","0.0-6.0-4.52","3013967","co38749","norming","","","","","","",""
"null","../img/tt/1270tt.jpg","null","mooney2","image-keyboard-response","375","1541875","0.0-6.0-5.52","3013967","co38749","norming","","","","","","",""
"1442.6850000000559","","","post_reveal_questions","survey-likert","376","1543320","0.0-6.0-6.52","3013967","co38749","norming","","","{""aha"":5}","[0]","../img/tt/1270tt.jpg","",""
"null","<div style=""font-size:60px;""> </div>","null","fixation","html-keyboard-response","377","1543526","0.0-6.0-0.53","3013967","co38749","norming","","","","","","",""
"null","../img/tt/126tt.jpg","null","mooney1","image-keyboard-response","378","1546533","0.0-6.0-1.53","3013967","co38749","norming","","","","","","",""
"2688.480000000214","","","post_mooney1_questions","survey-likert","379","1549218","0.0-6.0-2.53","3013967","co38749","norming","","","{""curiosity"":5,""confidence"":5}","[0,1]","../img/tt/126tt.jpg","",""
"1078.0800000003073","","","recognition","survey-text","380","1550298","0.0-6.0-3.53","3013967","co38749","norming","","","{""guess"":""koe""}","","../img/tt/126tt.jpg","",""
"null","../img/gs/126gs.jpg","null","reveal","image-keyboard-response","381","1552308","0.0-6.0-4.53","3013967","co38749","norming","","","","","","",""
"null","../img/tt/126tt.jpg","null","mooney2","image-keyboard-response","382","1554312","0.0-6.0-5.53","3013967","co38749","norming","","","","","","",""
"1791.6299999996554","","","post_reveal_questions","survey-likert","383","1556106","0.0-6.0-6.53","3013967","co38749","norming","","","{""aha"":0}","[0]","../img/tt/126tt.jpg","",""
"null","<div style=""font-size:60px;""> </div>","null","fixation","html-keyboard-response","384","1556314","0.0-6.0-0.54","3013967","co38749","norming","","","","","","",""
"null","../img/tt/1159tt.jpg","null","mooney1","image-keyboard-response","385","1559325","0.0-6.0-1.54","3013967","co38749","norming","","","","","","",""
"3450.499999999767","","","post_mooney1_questions","survey-likert","386","1562778","0.0-6.0-2.54","3013967","co38749","norming","","","{""curiosity"":5,""confidence"":0}","[0,1]","../img/tt/1159tt.jpg","",""
"1646.2350000001024","","","recognition","survey-text","387","1564426","0.0-6.0-3.54","3013967","co38749","norming","","","{""guess"":""skater""}","","../img/tt/1159tt.jpg","",""
"null","../img/gs/1159gs.jpg","null","reveal","image-keyboard-response","388","1566433","0.0-6.0-4.54","3013967","co38749","norming","","","","","","",""
"null","../img/tt/1159tt.jpg","null","mooney2","image-keyboard-response","389","1568435","0.0-6.0-5.54","3013967","co38749","norming","","","","","","",""
"1780.2600000000093","","","post_reveal_questions","survey-likert","390","1570218","0.0-6.0-6.54","3013967","co38749","norming","","","{""aha"":2}","[0]","../img/tt/1159tt.jpg","",""
"null","<div style=""font-size:60px;""> </div>","null","fixation","html-keyboard-response","391","1570421","0.0-6.0-0.55","3013967","co38749","norming","","","","","","",""
"null","../img/tt/1146tt.jpg","null","mooney1","image-keyboard-response","392","1573424","0.0-6.0-1.55","3013967","co38749","norming","","","","","","",""
"3062.625","","","post_mooney1_questions","survey-likert","393","1576490","0.0-6.0-2.55","3013967","co38749","norming","","","{""curiosity"":5,""confidence"":1}","[0,1]","../img/tt/1146tt.jpg","",""
"2366.2400000002235","","","recognition","survey-text","394","1578858","0.0-6.0-3.55","3013967","co38749","norming","","","{""guess"":""auto""}","","../img/tt/1146tt.jpg","",""
"null","../img/gs/1146gs.jpg","null","reveal","image-keyboard-response","395","1580859","0.0-6.0-4.55","3013967","co38749","norming","","","","","","",""
"null","../img/tt/1146tt.jpg","null","mooney2","image-keyboard-response","396","1582862","0.0-6.0-5.55","3013967","co38749","norming","","","","","","",""
"2280.715000000084","","","post_reveal_questions","survey-likert","397","1585146","0.0-6.0-6.55","3013967","co38749","norming","","","{""aha"":6}","[0]","../img/tt/1146tt.jpg","",""
"null","<div style=""font-size:60px;""> </div>","null","fixation","html-keyboard-response","398","1585352","0.0-6.0-0.56","3013967","co38749","norming","","","","","","",""
"null","../img/tt/559tt.jpg","null","mooney1","image-keyboard-response","399","1588363","0.0-6.0-1.56","3013967","co38749","norming","","","","","","",""
"3404.2999999998137","","","post_mooney1_questions","survey-likert","400","1591770","0.0-6.0-2.56","3013967","co38749","norming","","","{""curiosity"":5,""confidence"":1}","[0,1]","../img/tt/559tt.jpg","",""
"2110.0149999996647","","","recognition","survey-text","401","1593882","0.0-6.0-3.56","3013967","co38749","norming","","","{""guess"":""machine""}","","../img/tt/559tt.jpg","",""
"null","../img/gs/559gs.jpg","null","reveal","image-keyboard-response","402","1595883","0.0-6.0-4.56","3013967","co38749","norming","","","","","","",""
"null","../img/tt/559tt.jpg","null","mooney2","image-keyboard-response","403","1597893","0.0-6.0-5.56","3013967","co38749","norming","","","","","","",""
"2002.0200000002515","","","post_reveal_questions","survey-likert","404","1599898","0.0-6.0-6.56","3013967","co38749","norming","","","{""aha"":1}","[0]","../img/tt/559tt.jpg","",""
"null","<div style=""font-size:60px;""> </div>","null","fixation","html-keyboard-response","405","1600100","0.0-6.0-0.57","3013967","co38749","norming","","","","","","",""
"null","../img/tt/1043tt.jpg","null","mooney1","image-keyboard-response","406","1603103","0.0-6.0-1.57","3013967","co38749","norming","","","","","","",""
"4031.8050000001676","","","post_mooney1_questions","survey-likert","407","1607138","0.0-6.0-2.57","3013967","co38749","norming","","","{""curiosity"":5,""confidence"":1}","[0,1]","../img/tt/1043tt.jpg","",""
"1334.1699999994598","","","recognition","survey-text","408","1608482","0.0-6.0-3.57","3013967","co38749","norming","","","{""guess"":""wiel""}","","../img/tt/1043tt.jpg","",""
"null","../img/gs/1043gs.jpg","null","reveal","image-keyboard-response","409","1610492","0.0-6.0-4.57","3013967","co38749","norming","","","","","","",""
"null","../img/tt/1043tt.jpg","null","mooney2","image-keyboard-response","410","1612495","0.0-6.0-5.57","3013967","co38749","norming","","","","","","",""
"1976.2700000000186","","","post_reveal_questions","survey-likert","411","1614474","0.0-6.0-6.57","3013967","co38749","norming","","","{""aha"":0}","[0]","../img/tt/1043tt.jpg","",""
"null","<div style=""font-size:60px;""> </div>","null","fixation","html-keyboard-response","412","1614679","0.0-6.0-0.58","3013967","co38749","norming","","","","","","",""
"null","../img/tt/1080tt.jpg","null","mooney1","image-keyboard-response","413","1617686","0.0-6.0-1.58","3013967","co38749","norming","","","","","","",""
"3536.6100000001024","","","post_mooney1_questions","survey-likert","414","1621226","0.0-6.0-2.58","3013967","co38749","norming","","","{""curiosity"":5,""confidence"":0}","[0,1]","../img/tt/1080tt.jpg","",""
"774.065000000177","","","recognition","survey-text","415","1622002","0.0-6.0-3.58","3013967","co38749","norming","","","{""guess"":""""}","","../img/tt/1080tt.jpg","",""
"null","../img/gs/1080gs.jpg","null","reveal","image-keyboard-response","416","1624004","0.0-6.0-4.58","3013967","co38749","norming","","","","","","",""
"null","../img/tt/1080tt.jpg","null","mooney2","image-keyboard-response","417","1626013","0.0-6.0-5.58","3013967","co38749","norming","","","","","","",""
"1699.1049999999814","","","post_reveal_questions","survey-likert","418","1627714","0.0-6.0-6.58","3013967","co38749","norming","","","{""aha"":0}","[0]","../img/tt/1080tt.jpg","",""
"null","<div style=""font-size:60px;""> </div>","null","fixation","html-keyboard-response","419","1627918","0.0-6.0-0.59","3013967","co38749","norming","","","","","","",""
"null","../img/tt/1161tt.jpg","null","mooney1","image-keyboard-response","420","1630925","0.0-6.0-1.59","3013967","co38749","norming","","","","","","",""
"3026.244999999879","","","post_mooney1_questions","survey-likert","421","1633954","0.0-6.0-2.59","3013967","co38749","norming","","","{""curiosity"":5,""confidence"":1}","[0,1]","../img/tt/1161tt.jpg","",""
"1598.0349999999162","","","recognition","survey-text","422","1635554","0.0-6.0-3.59","3013967","co38749","norming","","","{""guess"":""klimmer""}","","../img/tt/1161tt.jpg","",""
"null","../img/gs/1161gs.jpg","null","reveal","image-keyboard-response","423","1637560","0.0-6.0-4.59","3013967","co38749","norming","","","","","","",""
"null","../img/tt/1161tt.jpg","null","mooney2","image-keyboard-response","424","1639563","0.0-6.0-5.59","3013967","co38749","norming","","","","","","",""
"2308.814999999944","","","post_reveal_questions","survey-likert","425","1641874","0.0-6.0-6.59","3013967","co38749","norming","","","{""aha"":1}","[0]","../img/tt/1161tt.jpg","",""
"null","<div style=""font-size:60px;""> </div>","null","fixation","html-keyboard-response","426","1642081","0.0-6.0-0.60","3013967","co38749","norming","","","","","","",""
"null","../img/tt/222tt.jpg","null","mooney1","image-keyboard-response","427","1645084","0.0-6.0-1.60","3013967","co38749","norming","","","","","","",""
"3988.7249999996275","","","post_mooney1_questions","survey-likert","428","1649074","0.0-6.0-2.60","3013967","co38749","norming","","","{""curiosity"":5,""confidence"":3}","[0,1]","../img/tt/222tt.jpg","",""
"2158.25","","","recognition","survey-text","429","1651234","0.0-6.0-3.60","3013967","co38749","norming","","","{""guess"":""duikboot""}","","../img/tt/222tt.jpg","",""
"null","../img/gs/222gs.jpg","null","reveal","image-keyboard-response","430","1653236","0.0-6.0-4.60","3013967","co38749","norming","","","","","","",""
"null","../img/tt/222tt.jpg","null","mooney2","image-keyboard-response","431","1655239","0.0-6.0-5.60","3013967","co38749","norming","","","","","","",""
"2039.8949999997858","","","post_reveal_questions","survey-likert","432","1657282","0.0-6.0-6.60","3013967","co38749","norming","","","{""aha"":5}","[0]","../img/tt/222tt.jpg","",""
"null","<div style=""font-size:60px;""> </div>","null","fixation","html-keyboard-response","433","1657487","0.0-6.0-0.61","3013967","co38749","norming","","","","","","",""
"null","../img/tt/436tt.jpg","null","mooney1","image-keyboard-response","434","1660490","0.0-6.0-1.61","3013967","co38749","norming","","","","","","",""
"4980.825000000186","","","post_mooney1_questions","survey-likert","435","1665474","0.0-6.0-2.61","3013967","co38749","norming","","","{""curiosity"":2,""confidence"":0}","[0,1]","../img/tt/436tt.jpg","",""
"926.0349999999162","","","recognition","survey-text","436","1666402","0.0-6.0-3.61","3013967","co38749","norming","","","{""guess"":""""}","","../img/tt/436tt.jpg","",""
"null","../img/gs/436gs.jpg","null","reveal","image-keyboard-response","437","1668408","0.0-6.0-4.61","3013967","co38749","norming","","","","","","",""
"null","../img/tt/436tt.jpg","null","mooney2","image-keyboard-response","438","1670418","0.0-6.0-5.61","3013967","co38749","norming","","","","","","",""
"2584.409999999916","","","post_reveal_questions","survey-likert","439","1673005","0.0-6.0-6.61","3013967","co38749","norming","","","{""aha"":0}","[0]","../img/tt/436tt.jpg","",""
"null","<div style=""font-size:60px;""> </div>","null","fixation","html-keyboard-response","440","1673215","0.0-6.0-0.62","3013967","co38749","norming","","","","","","",""
"null","../img/tt/060tt.jpg","null","mooney1","image-keyboard-response","441","1676218","0.0-6.0-1.62","3013967","co38749","norming","","","","","","",""
"2167.590000000084","","","post_mooney1_questions","survey-likert","442","1678389","0.0-6.0-2.62","3013967","co38749","norming","","","{""curiosity"":4,""confidence"":1}","[0,1]","../img/tt/060tt.jpg","",""
"1470.2849999999162","","","recognition","survey-text","443","1679861","0.0-6.0-3.62","3013967","co38749","norming","","","{""guess"":""eten""}","","../img/tt/060tt.jpg","",""
"null","../img/gs/060gs.jpg","null","reveal","image-keyboard-response","444","1681863","0.0-6.0-4.62","3013967","co38749","norming","","","","","","",""
"null","../img/tt/060tt.jpg","null","mooney2","image-keyboard-response","445","1683867","0.0-6.0-5.62","3013967","co38749","norming","","","","","","",""
"2047.0300000002608","","","post_reveal_questions","survey-likert","446","1685917","0.0-6.0-6.62","3013967","co38749","norming","","","{""aha"":2}","[0]","../img/tt/060tt.jpg","",""
"null","<div style=""font-size:60px;""> </div>","null","fixation","html-keyboard-response","447","1686127","0.0-6.0-0.63","3013967","co38749","norming","","","","","","",""
"null","../img/tt/079tt.jpg","null","mooney1","image-keyboard-response","448","1689130","0.0-6.0-1.63","3013967","co38749","norming","","","","","","",""
"3623.489999999758","","","post_mooney1_questions","survey-likert","449","1692757","0.0-6.0-2.63","3013967","co38749","norming","","","{""curiosity"":1,""confidence"":0}","[0,1]","../img/tt/079tt.jpg","",""
"1861.8499999996275","","","recognition","survey-text","450","1694620","0.0-6.0-3.63","3013967","co38749","norming","","","{""guess"":""""}","","../img/tt/079tt.jpg","",""
"null","../img/gs/079gs.jpg","null","reveal","image-keyboard-response","451","1696626","0.0-6.0-4.63","3013967","co38749","norming","","","","","","",""
"null","../img/tt/079tt.jpg","null","mooney2","image-keyboard-response","452","1698632","0.0-6.0-5.63","3013967","co38749","norming","","","","","","",""
"2492.095000000205","","","post_reveal_questions","survey-likert","453","1701125","0.0-6.0-6.63","3013967","co38749","norming","","","{""aha"":0}","[0]","../img/tt/079tt.jpg","",""
"null","<div style=""font-size:60px;""> </div>","null","fixation","html-keyboard-response","454","1701332","0.0-6.0-0.64","3013967","co38749","norming","","","","","","",""
"null","../img/tt/096tt.jpg","null","mooney1","image-keyboard-response","455","1704342","0.0-6.0-1.64","3013967","co38749","norming","","","","","","",""
"2659.3649999999907","","","post_mooney1_questions","survey-likert","456","1707005","0.0-6.0-2.64","3013967","co38749","norming","","","{""curiosity"":5,""confidence"":2}","[0,1]","../img/tt/096tt.jpg","",""
"1909.660000000149","","","recognition","survey-text","457","1708917","0.0-6.0-3.64","3013967","co38749","norming","","","{""guess"":""zaag""}","","../img/tt/096tt.jpg","",""
"null","../img/gs/096gs.jpg","null","reveal","image-keyboard-response","458","1710918","0.0-6.0-4.64","3013967","co38749","norming","","","","","","",""
"null","../img/tt/096tt.jpg","null","mooney2","image-keyboard-response","459","1712920","0.0-6.0-5.64","3013967","co38749","norming","","","","","","",""
"2178.0399999995716","","","post_reveal_questions","survey-likert","460","1715101","0.0-6.0-6.64","3013967","co38749","norming","","","{""aha"":5}","[0]","../img/tt/096tt.jpg","",""
"null","<div style=""font-size:60px;""> </div>","null","fixation","html-keyboard-response","461","1715304","0.0-6.0-0.65","3013967","co38749","norming","","","","","","",""
"null","../img/tt/1189tt.jpg","null","mooney1","image-keyboard-response","462","1718312","0.0-6.0-1.65","3013967","co38749","norming","","","","","","",""
"3874.989999999758","","","post_mooney1_questions","survey-likert","463","1722189","0.0-6.0-2.65","3013967","co38749","norming","","","{""curiosity"":2,""confidence"":0}","[0,1]","../img/tt/1189tt.jpg","",""
"3142.144999999786","","","recognition","survey-text","464","1725333","0.0-6.0-3.65","3013967","co38749","norming","","","{""guess"":""no clue ""}","","../img/tt/1189tt.jpg","",""
"null","../img/gs/1189gs.jpg","null","reveal","image-keyboard-response","465","1727339","0.0-6.0-4.65","3013967","co38749","norming","","","","","","",""
"null","../img/tt/1189tt.jpg","null","mooney2","image-keyboard-response","466","1729344","0.0-6.0-5.65","3013967","co38749","norming","","","","","","",""
"1980.3299999998417","","","post_reveal_questions","survey-likert","467","1731327","0.0-6.0-6.65","3013967","co38749","norming","","","{""aha"":0}","[0]","../img/tt/1189tt.jpg","",""
"null","<div style=""font-size:60px;""> </div>","null","fixation","html-keyboard-response","468","1731529","0.0-6.0-0.66","3013967","co38749","norming","","","","","","",""
"null","../img/tt/1171tt.jpg","null","mooney1","image-keyboard-response","469","1734541","0.0-6.0-1.66","3013967","co38749","norming","","","","","","",""
"4542.495000000112","","","post_mooney1_questions","survey-likert","470","1739087","0.0-6.0-2.66","3013967","co38749","norming","","","{""curiosity"":5,""confidence"":1}","[0,1]","../img/tt/1171tt.jpg","",""
"2165.774999999907","","","recognition","survey-text","471","1741254","0.0-6.0-3.66","3013967","co38749","norming","","","{""guess"":""doodshoofd""}","","../img/tt/1171tt.jpg","",""
"null","../img/gs/1171gs.jpg","null","reveal","image-keyboard-response","472","1743256","0.0-6.0-4.66","3013967","co38749","norming","","","","","","",""
"null","../img/tt/1171tt.jpg","null","mooney2","image-keyboard-response","473","1745261","0.0-6.0-5.66","3013967","co38749","norming","","","","","","",""
"2590.3349999999627","","","post_reveal_questions","survey-likert","474","1747855","0.0-6.0-6.66","3013967","co38749","norming","","","{""aha"":2}","[0]","../img/tt/1171tt.jpg","",""
"null","<div style=""font-size:60px;""> </div>","null","fixation","html-keyboard-response","475","1748066","0.0-6.0-0.67","3013967","co38749","norming","","","","","","",""
"null","../img/tt/1033tt.jpg","null","mooney1","image-keyboard-response","476","1751071","0.0-6.0-1.67","3013967","co38749","norming","","","","","","",""
"2884.4499999999534","","","post_mooney1_questions","survey-likert","477","1753959","0.0-6.0-2.67","3013967","co38749","norming","","","{""curiosity"":5,""confidence"":2}","[0,1]","../img/tt/1033tt.jpg","",""
"3390.1700000001583","","","recognition","survey-text","478","1757350","0.0-6.0-3.67","3013967","co38749","norming","","","{""guess"":""hockey speler""}","","../img/tt/1033tt.jpg","",""
"null","../img/gs/1033gs.jpg","null","reveal","image-keyboard-response","479","1759354","0.0-6.0-4.67","3013967","co38749","norming","","","","","","",""
"null","../img/tt/1033tt.jpg","null","mooney2","image-keyboard-response","480","1761359","0.0-6.0-5.67","3013967","co38749","norming","","","","","","",""
"1964.4799999999814","","","post_reveal_questions","survey-likert","481","1763326","0.0-6.0-6.67","3013967","co38749","norming","","","{""aha"":3}","[0]","../img/tt/1033tt.jpg","",""
"null","<div style=""font-size:60px;""> </div>","null","fixation","html-keyboard-response","482","1763537","0.0-6.0-0.68","3013967","co38749","norming","","","","","","",""
"null","../img/tt/1154tt.jpg","null","mooney1","image-keyboard-response","483","1766547","0.0-6.0-1.68","3013967","co38749","norming","","","","","","",""
"6247.595000000205","","","post_mooney1_questions","survey-likert","484","1772799","0.0-6.0-2.68","3013967","co38749","norming","","","{""curiosity"":4,""confidence"":2}","[0,1]","../img/tt/1154tt.jpg","",""
"1749.9850000003353","","","recognition","survey-text","485","1774550","0.0-6.0-3.68","3013967","co38749","norming","","","{""guess"":""kajakken""}","","../img/tt/1154tt.jpg","",""
"null","../img/gs/1154gs.jpg","null","reveal","image-keyboard-response","486","1776554","0.0-6.0-4.68","3013967","co38749","norming","","","","","","",""
"null","../img/tt/1154tt.jpg","null","mooney2","image-keyboard-response","487","1778557","0.0-6.0-5.68","3013967","co38749","norming","","","","","","",""
"2846.339999999618","","","post_reveal_questions","survey-likert","488","1781406","0.0-6.0-6.68","3013967","co38749","norming","","","{""aha"":3}","[0]","../img/tt/1154tt.jpg","",""
"null","<div style=""font-size:60px;""> </div>","null","fixation","html-keyboard-response","489","1781611","0.0-6.0-0.69","3013967","co38749","norming","","","","","","",""
"null","../img/tt/1002tt.jpg","null","mooney1","image-keyboard-response","490","1784622","0.0-6.0-1.69","3013967","co38749","norming","","","","","","",""
"3207.3599999998696","","","post_mooney1_questions","survey-likert","491","1787831","0.0-6.0-2.69","3013967","co38749","norming","","","{""curiosity"":5,""confidence"":1}","[0,1]","../img/tt/1002tt.jpg","",""
"2205.8700000001118","","","recognition","survey-text","492","1790037","0.0-6.0-3.69","3013967","co38749","norming","","","{""guess"":""olifant""}","","../img/tt/1002tt.jpg","",""
"null","../img/gs/1002gs.jpg","null","reveal","image-keyboard-response","493","1792048","0.0-6.0-4.69","3013967","co38749","norming","","","","","","",""
"null","../img/tt/1002tt.jpg","null","mooney2","image-keyboard-response","494","1794051","0.0-6.0-5.69","3013967","co38749","norming","","","","","","",""
"2007.2600000002421","","","post_reveal_questions","survey-likert","495","1796062","0.0-6.0-6.69","3013967","co38749","norming","","","{""aha"":5}","[0]","../img/tt/1002tt.jpg","",""
"null","<div style=""font-size:60px;""> </div>","null","fixation","html-keyboard-response","496","1796267","0.0-6.0-0.70","3013967","co38749","norming","","","","","","",""
"null","../img/tt/468tt.jpg","null","mooney1","image-keyboard-response","497","1799274","0.0-6.0-1.70","3013967","co38749","norming","","","","","","",""
"3560.1750000000466","","","post_mooney1_questions","survey-likert","498","1802838","0.0-6.0-2.70","3013967","co38749","norming","","","{""curiosity"":5,""confidence"":1}","[0,1]","../img/tt/468tt.jpg","",""
"1182.070000000298","","","recognition","survey-text","499","1804021","0.0-6.0-3.70","3013967","co38749","norming","","","{""guess"":""lama""}","","../img/tt/468tt.jpg","",""
"null","../img/gs/468gs.jpg","null","reveal","image-keyboard-response","500","1806027","0.0-6.0-4.70","3013967","co38749","norming","","","","","","",""
"null","../img/tt/468tt.jpg","null","mooney2","image-keyboard-response","501","1808030","0.0-6.0-5.70","3013967","co38749","norming","","","","","","",""
"1053.3199999998324","","","post_reveal_questions","survey-likert","502","1809086","0.0-6.0-6.70","3013967","co38749","norming","","","{""aha"":2}","[0]","../img/tt/468tt.jpg","",""
"null","<div style=""font-size:60px;""> </div>","null","fixation","html-keyboard-response","503","1809293","0.0-6.0-0.71","3013967","co38749","norming","","","","","","",""
"null","../img/tt/378tt.jpg","null","mooney1","image-keyboard-response","504","1812300","0.0-6.0-1.71","3013967","co38749","norming","","","","","","",""
"3118.215000000084","","","post_mooney1_questions","survey-likert","505","1815422","0.0-6.0-2.71","3013967","co38749","norming","","","{""curiosity"":5,""confidence"":0}","[0,1]","../img/tt/378tt.jpg","",""
"1062.2150000003166","","","recognition","survey-text","506","1816486","0.0-6.0-3.71","3013967","co38749","norming","","","{""guess"":""geit""}","","../img/tt/378tt.jpg","",""
"null","../img/gs/378gs.jpg","null","reveal","image-keyboard-response","507","1818487","0.0-6.0-4.71","3013967","co38749","norming","","","","","","",""
"null","../img/tt/378tt.jpg","null","mooney2","image-keyboard-response","508","1820490","0.0-6.0-5.71","3013967","co38749","norming","","","","","","",""
"3897.355000000214","","","post_reveal_questions","survey-likert","509","1824389","0.0-6.0-6.71","3013967","co38749","norming","","","{""aha"":6}","[0]","../img/tt/378tt.jpg","",""
"null","<div style=""font-size:60px;""> </div>","null","fixation","html-keyboard-response","510","1824592","0.0-6.0-0.72","3013967","co38749","norming","","","","","","",""
"null","../img/tt/1202tt.jpg","null","mooney1","image-keyboard-response","511","1827605","0.0-6.0-1.72","3013967","co38749","norming","","","","","","",""
"3365.8149999994785","","","post_mooney1_questions","survey-likert","512","1830974","0.0-6.0-2.72","3013967","co38749","norming","","","{""curiosity"":5,""confidence"":0}","[0,1]","../img/tt/1202tt.jpg","",""
"1013.5900000000838","","","recognition","survey-text","513","1831989","0.0-6.0-3.72","3013967","co38749","norming","","","{""guess"":""""}","","../img/tt/1202tt.jpg","",""
"null","../img/gs/1202gs.jpg","null","reveal","image-keyboard-response","514","1833991","0.0-6.0-4.72","3013967","co38749","norming","","","","","","",""
"null","../img/tt/1202tt.jpg","null","mooney2","image-keyboard-response","515","1835993","0.0-6.0-5.72","3013967","co38749","norming","","","","","","",""
"1440.9550000000745","","","post_reveal_questions","survey-likert","516","1837438","0.0-6.0-6.72","3013967","co38749","norming","","","{""aha"":0}","[0]","../img/tt/1202tt.jpg","",""
"null","<div style=""font-size:60px;""> </div>","null","fixation","html-keyboard-response","517","1837641","0.0-6.0-0.73","3013967","co38749","norming","","","","","","",""
"null","../img/tt/1261tt.jpg","null","mooney1","image-keyboard-response","518","1840645","0.0-6.0-1.73","3013967","co38749","norming","","","","","","",""
"2359.8050000001676","","","post_mooney1_questions","survey-likert","519","1843006","0.0-6.0-2.73","3013967","co38749","norming","","","{""curiosity"":5,""confidence"":0}","[0,1]","../img/tt/1261tt.jpg","",""
"565.9799999997485","","","recognition","survey-text","520","1843573","0.0-6.0-3.73","3013967","co38749","norming","","","{""guess"":""""}","","../img/tt/1261tt.jpg","",""
"null","../img/gs/1261gs.jpg","null","reveal","image-keyboard-response","521","1845583","0.0-6.0-4.73","3013967","co38749","norming","","","","","","",""
"null","../img/tt/1261tt.jpg","null","mooney2","image-keyboard-response","522","1847585","0.0-6.0-5.73","3013967","co38749","norming","","","","","","",""
"2321.840000000084","","","post_reveal_questions","survey-likert","523","1849905","0.0-6.0-6.73","3013967","co38749","norming","","","{""aha"":2}","[0]","../img/tt/1261tt.jpg","",""
"null","<div style=""font-size:60px;""> </div>","null","fixation","html-keyboard-response","524","1850115","0.0-6.0-0.74","3013967","co38749","norming","","","","","","",""
"null","../img/tt/1122tt.jpg","null","mooney1","image-keyboard-response","525","1853122","0.0-6.0-1.74","3013967","co38749","norming","","","","","","",""
"3092.7600000000093","","","post_mooney1_questions","survey-likert","526","1856218","0.0-6.0-2.74","3013967","co38749","norming","","","{""curiosity"":4,""confidence"":0}","[0,1]","../img/tt/1122tt.jpg","",""
"2182.130000000121","","","recognition","survey-text","527","1858401","0.0-6.0-3.74","3013967","co38749","norming","","","{""guess"":""auto's""}","","../img/tt/1122tt.jpg","",""
"null","../img/gs/1122gs.jpg","null","reveal","image-keyboard-response","528","1860404","0.0-6.0-4.74","3013967","co38749","norming","","","","","","",""
"null","../img/tt/1122tt.jpg","null","mooney2","image-keyboard-response","529","1862407","0.0-6.0-5.74","3013967","co38749","norming","","","","","","",""
"1880.2349999996368","","","post_reveal_questions","survey-likert","530","1864290","0.0-6.0-6.74","3013967","co38749","norming","","","{""aha"":5}","[0]","../img/tt/1122tt.jpg","",""
"null","<div style=""font-size:60px;""> </div>","null","fixation","html-keyboard-response","531","1864491","0.0-6.0-0.75","3013967","co38749","norming","","","","","","",""
"null","../img/tt/078tt.jpg","null","mooney1","image-keyboard-response","532","1867504","0.0-6.0-1.75","3013967","co38749","norming","","","","","","",""
"2862.380000000121","","","post_mooney1_questions","survey-likert","533","1870369","0.0-6.0-2.75","3013967","co38749","norming","","","{""curiosity"":4,""confidence"":1}","[0,1]","../img/tt/078tt.jpg","",""
"1182.4499999999534","","","recognition","survey-text","534","1871553","0.0-6.0-3.75","3013967","co38749","norming","","","{""guess"":""kat""}","","../img/tt/078tt.jpg","",""
"null","../img/gs/078gs.jpg","null","reveal","image-keyboard-response","535","1873561","0.0-6.0-4.75","3013967","co38749","norming","","","","","","",""
"null","../img/tt/078tt.jpg","null","mooney2","image-keyboard-response","536","1875563","0.0-6.0-5.75","3013967","co38749","norming","","","","","","",""
"1579.655000000028","","","post_reveal_questions","survey-likert","537","1877145","0.0-6.0-6.75","3013967","co38749","norming","","","{""aha"":0}","[0]","../img/tt/078tt.jpg","",""
"null","<div style=""font-size:60px;""> </div>","null","fixation","html-keyboard-response","538","1877347","0.0-6.0-0.76","3013967","co38749","norming","","","","","","",""
"null","../img/tt/105tt.jpg","null","mooney1","image-keyboard-response","539","1880356","0.0-6.0-1.76","3013967","co38749","norming","","","","","","",""
"3122.9799999997485","","","post_mooney1_questions","survey-likert","540","1883482","0.0-6.0-2.76","3013967","co38749","norming","","","{""curiosity"":5,""confidence"":0}","[0,1]","../img/tt/105tt.jpg","",""
"3990.130000000354","","","recognition","survey-text","541","1887473","0.0-6.0-3.76","3013967","co38749","norming","","","{""guess"":""fruit""}","","../img/tt/105tt.jpg","",""
"null","../img/gs/105gs.jpg","null","reveal","image-keyboard-response","542","1889479","0.0-6.0-4.76","3013967","co38749","norming","","","","","","",""
"null","../img/tt/105tt.jpg","null","mooney2","image-keyboard-response","543","1891482","0.0-6.0-5.76","3013967","co38749","norming","","","","","","",""
"2493.5450000001583","","","post_reveal_questions","survey-likert","544","1893978","0.0-6.0-6.76","3013967","co38749","norming","","","{""aha"":0}","[0]","../img/tt/105tt.jpg","",""
"null","<div style=""font-size:60px;""> </div>","null","fixation","html-keyboard-response","545","1894181","0.0-6.0-0.77","3013967","co38749","norming","","","","","","",""
"null","../img/tt/1275tt.jpg","null","mooney1","image-keyboard-response","546","1897186","0.0-6.0-1.77","3013967","co38749","norming","","","","","","",""
"3195.9600000001956","","","post_mooney1_questions","survey-likert","547","1900386","0.0-6.0-2.77","3013967","co38749","norming","","","{""curiosity"":5,""confidence"":1}","[0,1]","../img/tt/1275tt.jpg","",""
"1453.7249999998603","","","recognition","survey-text","548","1901841","0.0-6.0-3.77","3013967","co38749","norming","","","{""guess"":""panter""}","","../img/tt/1275tt.jpg","",""
"null","../img/gs/1275gs.jpg","null","reveal","image-keyboard-response","549","1903843","0.0-6.0-4.77","3013967","co38749","norming","","","","","","",""
"null","../img/tt/1275tt.jpg","null","mooney2","image-keyboard-response","550","1905845","0.0-6.0-5.77","3013967","co38749","norming","","","","","","",""
"1689.8999999999069","","","post_reveal_questions","survey-likert","551","1907538","0.0-6.0-6.77","3013967","co38749","norming","","","{""aha"":0}","[0]","../img/tt/1275tt.jpg","",""
