"rt","stimulus","key_press","test_part","trial_type","trial_index","time_elapsed","internal_node_id","totalTime","subject","experiment_name","button_pressed","success","responses","question_order","currentStim","old","correct"
"6069","Welcome to the experiment. This is an online experiment so please don't close the tab/window until we say goodbye.  Press any key to begin.","32","instructions","html-keyboard-response","0","6075","0.0-0.0","2510106","co38407","norming","","","","","","",""
"28952","<div style='word-wrap: break-word; width: 900px'><h3>Please consider this information carefully before deciding whether to participate in this research</h3><ul style='text-align: left; font-size: .8em;'><li><b>Purpose of the research</b>: To examine how people process images.</li><li><b>What you will do in this research</b>:  Stimuli (images) will be presented on the computer and you will be asked different questions about them.</li><li><b>Time required</b>: Participation will take between 45 and 60 minutes to complete.</li><li><b>Risks</b>:  There are no anticipated risks associated with participating in this study. The effects of participating should be comparable to those you would experience from viewing a computer monitor for 30 minutes and using a mouse or keyboard.</li><li><b>Benefits</b>:  This study provides no benefits to you individually except for the credit. The study provides important information about the nature of perception and learning.</li><li><b>Confidentiality</b>:  Your participation in this study will remain confidential. No personally identifiable information will be associated with your data. Your de-identified data may be shared with other researchers and used in future projects.</li><li><b>Participation and withdrawal</b>:  Your participation in this study is completely voluntary and you may refuse to participate or you may choose to withdraw at any time without penalty.</li><li><b>How to contact the researchers</b>: If you have questions or concerns about your participation or payment, or want to request a summary of research findings, please contact Sander Van de Cruys (KU Leuven), at sander.vandecruys@kuleuven.be.</li></ul><p>The nature and purpose of this research have been sufficiently explained and I agree to participate in this study.  I understand that I am free to withdraw at any time without incurring any penalty.</p><p>Please consent by clicking the button below to continue. Otherwise, please exit the study at this time.</p></div>","","instructions","html-button-response","1","35033","0.0-1.0","2510106","co38407","norming","0","","","","","",""
"","","","instructions","fullscreen","2","37728","0.0-2.0","2510106","co38407","norming","","true","","","","",""
"59148","","","sona","survey-html-form","3","96880","0.0-3.0","2510106","co38407","norming","","","[{""name"":""sonaid"",""value"":""38407""},{""name"":""debrief"",""value"":""no""},{""name"":""datajoin"",""value"":""yes""}]","","","",""
"66024","<div style='word-wrap: break-word; width: 900px'><h3>Instructions</h3><p>This experiment will have 3 parts. In the first part you will see a series of distorted images like the one below on the left. As you can see in the righthand image, the distorted images are derived from actual photographs. In what follows, you will <strong>briefly</strong> be presented with <strong>only</strong> the distorted image.</p> <div style='float: left; margin-right: 20px;'><img src='../img/018tt.jpg' height='250' width='250'></img></div><div style='float: right; margin-left: 20px;'><img src='../img/018gs.jpg' height='250' width='250'></img></div><p>Subsequently you will be asked a few questions about the image: One question on how <strong>curious</strong> you are about the solution and one on how <strong>confident</strong> you are that you know the solution.</p>Next, we ask you to make a guess on what is in the image. Note that it is OK to name just the <strong>basic level category</strong>. For example when you see a parrot in the image, 'parrot' will obviously be a correct answer but also correct is 'bird'. However, 'animal' will <strong>not</strong> be counted as a correct response. For the example above, 'rose' would be correct or 'flower', but not 'plant'. When soccer players are depicted, 'soccer', 'football', 'soccer players' will be correct, but not 'humans', 'outdoors', or 'sports'. You do not need to describe the image in full, just name the main object in it <strong>in one or two words</strong>. All images depict objects from one of the following broad level categories: animals, inanimate objects, plants, sports, vehicles, and food. Recognizing means knowing <strong>more</strong> than these broad labels for a given image. But we always encourage you to <strong>make a guess</strong> if you can. Note that you are allowed to use <strong>Dutch and English</strong> in your answers, whatever comes easiest for you.</p><p>Press any key to continue.</p></div>","32","instructions","html-keyboard-response","4","162908","0.0-4.0","2510106","co38407","norming","","","","","","",""
"15777","<div style='word-wrap: break-word; width: 900px'><h3>Instructions</h3> <p>Next, the solution image will be revealed to you and you'll be asked to indicate how strong your <strong>aha-experience</strong> was after seeing the solution. This describes the positive feeling of the 'click' you sometimes experience, when the pieces of the 'puzzle' fall together and you suddenly have 'insight' in the image.</p><img src='aha.jpg' height='188' width='250'></img><p>Note that there are no right or wrong answers. We are interested in what <strong>you</strong> see in the image and how <strong>you</strong> feel about it.</p><p>Press any key to start the experiment.</p></div>","32","instructions","html-keyboard-response","5","178687","0.0-5.0","2510106","co38407","norming","","","","","","",""
"null","<div style=""font-size:60px;""> </div>","null","fixation","html-keyboard-response","6","178889","0.0-6.0-0.0","2510106","co38407","norming","","","","","","",""
"null","../img/tt/552tt.jpg","null","mooney1","image-keyboard-response","7","181893","0.0-6.0-1.0","2510106","co38407","norming","","","","","","",""
"12257","","","post_mooney1_questions","survey-likert","8","194155","0.0-6.0-2.0","2510106","co38407","norming","","","{""curiosity"":3,""confidence"":0}","[0,1]","../img/tt/552tt.jpg","",""
"14902","","","recognition","survey-text","9","209066","0.0-6.0-3.0","2510106","co38407","norming","","","{""guess"":""bird""}","","../img/tt/552tt.jpg","",""
"null","../img/gs/552gs.jpg","null","reveal","image-keyboard-response","10","211068","0.0-6.0-4.0","2510106","co38407","norming","","","","","","",""
"null","../img/tt/552tt.jpg","null","mooney2","image-keyboard-response","11","213070","0.0-6.0-5.0","2510106","co38407","norming","","","","","","",""
"6611","","","post_reveal_questions","survey-likert","12","219684","0.0-6.0-6.0","2510106","co38407","norming","","","{""aha"":4}","[0]","../img/tt/552tt.jpg","",""
"null","<div style=""font-size:60px;""> </div>","null","fixation","html-keyboard-response","13","219888","0.0-6.0-0.1","2510106","co38407","norming","","","","","","",""
"null","../img/tt/1091tt.jpg","null","mooney1","image-keyboard-response","14","222891","0.0-6.0-1.1","2510106","co38407","norming","","","","","","",""
"5566","","","post_mooney1_questions","survey-likert","15","228459","0.0-6.0-2.1","2510106","co38407","norming","","","{""curiosity"":2,""confidence"":1}","[0,1]","../img/tt/1091tt.jpg","",""
"5758","","","recognition","survey-text","16","234226","0.0-6.0-3.1","2510106","co38407","norming","","","{""guess"":""a horse""}","","../img/tt/1091tt.jpg","",""
"null","../img/gs/1091gs.jpg","null","reveal","image-keyboard-response","17","236229","0.0-6.0-4.1","2510106","co38407","norming","","","","","","",""
"null","../img/tt/1091tt.jpg","null","mooney2","image-keyboard-response","18","238231","0.0-6.0-5.1","2510106","co38407","norming","","","","","","",""
"4051","","","post_reveal_questions","survey-likert","19","242284","0.0-6.0-6.1","2510106","co38407","norming","","","{""aha"":3}","[0]","../img/tt/1091tt.jpg","",""
"null","<div style=""font-size:60px;""> </div>","null","fixation","html-keyboard-response","20","242489","0.0-6.0-0.2","2510106","co38407","norming","","","","","","",""
"null","../img/tt/007tt.jpg","null","mooney1","image-keyboard-response","21","245493","0.0-6.0-1.2","2510106","co38407","norming","","","","","","",""
"6557.000000000029","","","post_mooney1_questions","survey-likert","22","252053","0.0-6.0-2.2","2510106","co38407","norming","","","{""curiosity"":2,""confidence"":4}","[0,1]","../img/tt/007tt.jpg","",""
"1400","","","recognition","survey-text","23","253461","0.0-6.0-3.2","2510106","co38407","norming","","","{""guess"":""a frog""}","","../img/tt/007tt.jpg","",""
"null","../img/gs/007gs.jpg","null","reveal","image-keyboard-response","24","255463","0.0-6.0-4.2","2510106","co38407","norming","","","","","","",""
"null","../img/tt/007tt.jpg","null","mooney2","image-keyboard-response","25","257466","0.0-6.0-5.2","2510106","co38407","norming","","","","","","",""
"3322","","","post_reveal_questions","survey-likert","26","260790","0.0-6.0-6.2","2510106","co38407","norming","","","{""aha"":1}","[0]","../img/tt/007tt.jpg","",""
"null","<div style=""font-size:60px;""> </div>","null","fixation","html-keyboard-response","27","260993","0.0-6.0-0.3","2510106","co38407","norming","","","","","","",""
"null","../img/tt/1235tt.jpg","null","mooney1","image-keyboard-response","28","263995","0.0-6.0-1.3","2510106","co38407","norming","","","","","","",""
"6360","","","post_mooney1_questions","survey-likert","29","270357","0.0-6.0-2.3","2510106","co38407","norming","","","{""curiosity"":2,""confidence"":1}","[0,1]","../img/tt/1235tt.jpg","",""
"7632","","","recognition","survey-text","30","277998","0.0-6.0-3.3","2510106","co38407","norming","","","{""guess"":""a cat""}","","../img/tt/1235tt.jpg","",""
"null","../img/gs/1235gs.jpg","null","reveal","image-keyboard-response","31","280000","0.0-6.0-4.3","2510106","co38407","norming","","","","","","",""
"null","../img/tt/1235tt.jpg","null","mooney2","image-keyboard-response","32","282003","0.0-6.0-5.3","2510106","co38407","norming","","","","","","",""
"4204","","","post_reveal_questions","survey-likert","33","286210","0.0-6.0-6.3","2510106","co38407","norming","","","{""aha"":2}","[0]","../img/tt/1235tt.jpg","",""
"null","<div style=""font-size:60px;""> </div>","null","fixation","html-keyboard-response","34","286413","0.0-6.0-0.4","2510106","co38407","norming","","","","","","",""
"null","../img/tt/1262tt.jpg","null","mooney1","image-keyboard-response","35","289415","0.0-6.0-1.4","2510106","co38407","norming","","","","","","",""
"4149","","","post_mooney1_questions","survey-likert","36","293567","0.0-6.0-2.4","2510106","co38407","norming","","","{""curiosity"":4,""confidence"":1}","[0,1]","../img/tt/1262tt.jpg","",""
"2845","","","recognition","survey-text","37","296419","0.0-6.0-3.4","2510106","co38407","norming","","","{""guess"":""""}","","../img/tt/1262tt.jpg","",""
"null","../img/gs/1262gs.jpg","null","reveal","image-keyboard-response","38","298422","0.0-6.0-4.4","2510106","co38407","norming","","","","","","",""
"null","../img/tt/1262tt.jpg","null","mooney2","image-keyboard-response","39","300424","0.0-6.0-5.4","2510106","co38407","norming","","","","","","",""
"2895","","","post_reveal_questions","survey-likert","40","303321","0.0-6.0-6.4","2510106","co38407","norming","","","{""aha"":3}","[0]","../img/tt/1262tt.jpg","",""
"null","<div style=""font-size:60px;""> </div>","null","fixation","html-keyboard-response","41","303524","0.0-6.0-0.5","2510106","co38407","norming","","","","","","",""
"null","../img/tt/1156tt.jpg","null","mooney1","image-keyboard-response","42","306527","0.0-6.0-1.5","2510106","co38407","norming","","","","","","",""
"6376","","","post_mooney1_questions","survey-likert","43","312906","0.0-6.0-2.5","2510106","co38407","norming","","","{""curiosity"":1,""confidence"":4}","[0,1]","../img/tt/1156tt.jpg","",""
"7071","","","recognition","survey-text","44","319986","0.0-6.0-3.5","2510106","co38407","norming","","","{""guess"":""a woman sunbathing""}","","../img/tt/1156tt.jpg","",""
"null","../img/gs/1156gs.jpg","null","reveal","image-keyboard-response","45","321988","0.0-6.0-4.5","2510106","co38407","norming","","","","","","",""
"null","../img/tt/1156tt.jpg","null","mooney2","image-keyboard-response","46","323990","0.0-6.0-5.5","2510106","co38407","norming","","","","","","",""
"3864","","","post_reveal_questions","survey-likert","47","327857","0.0-6.0-6.5","2510106","co38407","norming","","","{""aha"":2}","[0]","../img/tt/1156tt.jpg","",""
"null","<div style=""font-size:60px;""> </div>","null","fixation","html-keyboard-response","48","328061","0.0-6.0-0.6","2510106","co38407","norming","","","","","","",""
"null","../img/tt/599tt.jpg","null","mooney1","image-keyboard-response","49","331063","0.0-6.0-1.6","2510106","co38407","norming","","","","","","",""
"6280","","","post_mooney1_questions","survey-likert","50","337346","0.0-6.0-2.6","2510106","co38407","norming","","","{""curiosity"":4,""confidence"":1}","[0,1]","../img/tt/599tt.jpg","",""
"839","","","recognition","survey-text","51","338193","0.0-6.0-3.6","2510106","co38407","norming","","","{""guess"":""""}","","../img/tt/599tt.jpg","",""
"null","../img/gs/599gs.jpg","null","reveal","image-keyboard-response","52","340195","0.0-6.0-4.6","2510106","co38407","norming","","","","","","",""
"null","../img/tt/599tt.jpg","null","mooney2","image-keyboard-response","53","342198","0.0-6.0-5.6","2510106","co38407","norming","","","","","","",""
"3435","","","post_reveal_questions","survey-likert","54","345634","0.0-6.0-6.6","2510106","co38407","norming","","","{""aha"":4}","[0]","../img/tt/599tt.jpg","",""
"null","<div style=""font-size:60px;""> </div>","null","fixation","html-keyboard-response","55","345838","0.0-6.0-0.7","2510106","co38407","norming","","","","","","",""
"null","../img/tt/412tt.jpg","null","mooney1","image-keyboard-response","56","348840","0.0-6.0-1.7","2510106","co38407","norming","","","","","","",""
"5937.999999999942","","","post_mooney1_questions","survey-likert","57","354781","0.0-6.0-2.7","2510106","co38407","norming","","","{""curiosity"":2,""confidence"":3}","[0,1]","../img/tt/412tt.jpg","",""
"2199.999999999942","","","recognition","survey-text","58","356989","0.0-6.0-3.7","2510106","co38407","norming","","","{""guess"":""a bottle""}","","../img/tt/412tt.jpg","",""
"null","../img/gs/412gs.jpg","null","reveal","image-keyboard-response","59","358992","0.0-6.0-4.7","2510106","co38407","norming","","","","","","",""
"null","../img/tt/412tt.jpg","null","mooney2","image-keyboard-response","60","360994","0.0-6.0-5.7","2510106","co38407","norming","","","","","","",""
"2287.999999999942","","","post_reveal_questions","survey-likert","61","363284","0.0-6.0-6.7","2510106","co38407","norming","","","{""aha"":2}","[0]","../img/tt/412tt.jpg","",""
"null","<div style=""font-size:60px;""> </div>","null","fixation","html-keyboard-response","62","363487","0.0-6.0-0.8","2510106","co38407","norming","","","","","","",""
"null","../img/tt/060tt.jpg","null","mooney1","image-keyboard-response","63","366490","0.0-6.0-1.8","2510106","co38407","norming","","","","","","",""
"6597.999999999942","","","post_mooney1_questions","survey-likert","64","373090","0.0-6.0-2.8","2510106","co38407","norming","","","{""curiosity"":2,""confidence"":2}","[0,1]","../img/tt/060tt.jpg","",""
"9341","","","recognition","survey-text","65","382440","0.0-6.0-3.8","2510106","co38407","norming","","","{""guess"":""a car""}","","../img/tt/060tt.jpg","",""
"null","../img/gs/060gs.jpg","null","reveal","image-keyboard-response","66","384443","0.0-6.0-4.8","2510106","co38407","norming","","","","","","",""
"null","../img/tt/060tt.jpg","null","mooney2","image-keyboard-response","67","386445","0.0-6.0-5.8","2510106","co38407","norming","","","","","","",""
"3418","","","post_reveal_questions","survey-likert","68","389864","0.0-6.0-6.8","2510106","co38407","norming","","","{""aha"":2}","[0]","../img/tt/060tt.jpg","",""
"null","<div style=""font-size:60px;""> </div>","null","fixation","html-keyboard-response","69","390067","0.0-6.0-0.9","2510106","co38407","norming","","","","","","",""
"null","../img/tt/1154tt.jpg","null","mooney1","image-keyboard-response","70","393069","0.0-6.0-1.9","2510106","co38407","norming","","","","","","",""
"5377","","","post_mooney1_questions","survey-likert","71","398448","0.0-6.0-2.9","2510106","co38407","norming","","","{""curiosity"":2,""confidence"":1}","[0,1]","../img/tt/1154tt.jpg","",""
"806.9999999999418","","","recognition","survey-text","72","399264","0.0-6.0-3.9","2510106","co38407","norming","","","{""guess"":""""}","","../img/tt/1154tt.jpg","",""
"null","../img/gs/1154gs.jpg","null","reveal","image-keyboard-response","73","401267","0.0-6.0-4.9","2510106","co38407","norming","","","","","","",""
"null","../img/tt/1154tt.jpg","null","mooney2","image-keyboard-response","74","403269","0.0-6.0-5.9","2510106","co38407","norming","","","","","","",""
"2163","","","post_reveal_questions","survey-likert","75","405434","0.0-6.0-6.9","2510106","co38407","norming","","","{""aha"":4}","[0]","../img/tt/1154tt.jpg","",""
"null","<div style=""font-size:60px;""> </div>","null","fixation","html-keyboard-response","76","405637","0.0-6.0-0.10","2510106","co38407","norming","","","","","","",""
"null","../img/tt/1161tt.jpg","null","mooney1","image-keyboard-response","77","408640","0.0-6.0-1.10","2510106","co38407","norming","","","","","","",""
"4860.999999999942","","","post_mooney1_questions","survey-likert","78","413503","0.0-6.0-2.10","2510106","co38407","norming","","","{""curiosity"":4,""confidence"":2}","[0,1]","../img/tt/1161tt.jpg","",""
"5691","","","recognition","survey-text","79","419203","0.0-6.0-3.10","2510106","co38407","norming","","","{""guess"":""a person hiking""}","","../img/tt/1161tt.jpg","",""
"null","../img/gs/1161gs.jpg","null","reveal","image-keyboard-response","80","421205","0.0-6.0-4.10","2510106","co38407","norming","","","","","","",""
"null","../img/tt/1161tt.jpg","null","mooney2","image-keyboard-response","81","423215","0.0-6.0-5.10","2510106","co38407","norming","","","","","","",""
"2832","","","post_reveal_questions","survey-likert","82","426049","0.0-6.0-6.10","2510106","co38407","norming","","","{""aha"":3}","[0]","../img/tt/1161tt.jpg","",""
"null","<div style=""font-size:60px;""> </div>","null","fixation","html-keyboard-response","83","426253","0.0-6.0-0.11","2510106","co38407","norming","","","","","","",""
"null","../img/tt/1040tt.jpg","null","mooney1","image-keyboard-response","84","429256","0.0-6.0-1.11","2510106","co38407","norming","","","","","","",""
"3728","","","post_mooney1_questions","survey-likert","85","432985","0.0-6.0-2.11","2510106","co38407","norming","","","{""curiosity"":4,""confidence"":1}","[0,1]","../img/tt/1040tt.jpg","",""
"1202","","","recognition","survey-text","86","434197","0.0-6.0-3.11","2510106","co38407","norming","","","{""guess"":""""}","","../img/tt/1040tt.jpg","",""
"null","../img/gs/1040gs.jpg","null","reveal","image-keyboard-response","87","436199","0.0-6.0-4.11","2510106","co38407","norming","","","","","","",""
"null","../img/tt/1040tt.jpg","null","mooney2","image-keyboard-response","88","438201","0.0-6.0-5.11","2510106","co38407","norming","","","","","","",""
"3005","","","post_reveal_questions","survey-likert","89","441208","0.0-6.0-6.11","2510106","co38407","norming","","","{""aha"":3}","[0]","../img/tt/1040tt.jpg","",""
"null","<div style=""font-size:60px;""> </div>","null","fixation","html-keyboard-response","90","441411","0.0-6.0-0.12","2510106","co38407","norming","","","","","","",""
"null","../img/tt/456tt.jpg","null","mooney1","image-keyboard-response","91","444413","0.0-6.0-1.12","2510106","co38407","norming","","","","","","",""
"5116","","","post_mooney1_questions","survey-likert","92","449531","0.0-6.0-2.12","2510106","co38407","norming","","","{""curiosity"":4,""confidence"":2}","[0,1]","../img/tt/456tt.jpg","",""
"17614","","","recognition","survey-text","93","467154","0.0-6.0-3.12","2510106","co38407","norming","","","{""guess"":""a rabbit""}","","../img/tt/456tt.jpg","",""
"null","../img/gs/456gs.jpg","null","reveal","image-keyboard-response","94","469156","0.0-6.0-4.12","2510106","co38407","norming","","","","","","",""
"null","../img/tt/456tt.jpg","null","mooney2","image-keyboard-response","95","471159","0.0-6.0-5.12","2510106","co38407","norming","","","","","","",""
"3419.999999999942","","","post_reveal_questions","survey-likert","96","474581","0.0-6.0-6.12","2510106","co38407","norming","","","{""aha"":3}","[0]","../img/tt/456tt.jpg","",""
"null","<div style=""font-size:60px;""> </div>","null","fixation","html-keyboard-response","97","474784","0.0-6.0-0.13","2510106","co38407","norming","","","","","","",""
"null","../img/tt/080tt.jpg","null","mooney1","image-keyboard-response","98","477786","0.0-6.0-1.13","2510106","co38407","norming","","","","","","",""
"4340","","","post_mooney1_questions","survey-likert","99","482128","0.0-6.0-2.13","2510106","co38407","norming","","","{""curiosity"":2,""confidence"":2}","[0,1]","../img/tt/080tt.jpg","",""
"1699","","","recognition","survey-text","100","483835","0.0-6.0-3.13","2510106","co38407","norming","","","{""guess"":""an egg""}","","../img/tt/080tt.jpg","",""
"null","../img/gs/080gs.jpg","null","reveal","image-keyboard-response","101","485838","0.0-6.0-4.13","2510106","co38407","norming","","","","","","",""
"null","../img/tt/080tt.jpg","null","mooney2","image-keyboard-response","102","487840","0.0-6.0-5.13","2510106","co38407","norming","","","","","","",""
"6761.000000000058","","","post_reveal_questions","survey-likert","103","494605","0.0-6.0-6.13","2510106","co38407","norming","","","{""aha"":2}","[0]","../img/tt/080tt.jpg","",""
"null","<div style=""font-size:60px;""> </div>","null","fixation","html-keyboard-response","104","494813","0.0-6.0-0.14","2510106","co38407","norming","","","","","","",""
"null","../img/tt/307tt.jpg","null","mooney1","image-keyboard-response","105","497816","0.0-6.0-1.14","2510106","co38407","norming","","","","","","",""
"3402.999999999942","","","post_mooney1_questions","survey-likert","106","501220","0.0-6.0-2.14","2510106","co38407","norming","","","{""curiosity"":1,""confidence"":0}","[0,1]","../img/tt/307tt.jpg","",""
"3564.999999999942","","","recognition","survey-text","107","504794","0.0-6.0-3.14","2510106","co38407","norming","","","{""guess"":""""}","","../img/tt/307tt.jpg","",""
"null","../img/gs/307gs.jpg","null","reveal","image-keyboard-response","108","506796","0.0-6.0-4.14","2510106","co38407","norming","","","","","","",""
"null","../img/tt/307tt.jpg","null","mooney2","image-keyboard-response","109","508798","0.0-6.0-5.14","2510106","co38407","norming","","","","","","",""
"2029","","","post_reveal_questions","survey-likert","110","510829","0.0-6.0-6.14","2510106","co38407","norming","","","{""aha"":4}","[0]","../img/tt/307tt.jpg","",""
"null","<div style=""font-size:60px;""> </div>","null","fixation","html-keyboard-response","111","511032","0.0-6.0-0.15","2510106","co38407","norming","","","","","","",""
"null","../img/tt/358tt.jpg","null","mooney1","image-keyboard-response","112","514035","0.0-6.0-1.15","2510106","co38407","norming","","","","","","",""
"5368","","","post_mooney1_questions","survey-likert","113","519405","0.0-6.0-2.15","2510106","co38407","norming","","","{""curiosity"":3,""confidence"":2}","[0,1]","../img/tt/358tt.jpg","",""
"1746","","","recognition","survey-text","114","521159","0.0-6.0-3.15","2510106","co38407","norming","","","{""guess"":""a horse""}","","../img/tt/358tt.jpg","",""
"null","../img/gs/358gs.jpg","null","reveal","image-keyboard-response","115","523161","0.0-6.0-4.15","2510106","co38407","norming","","","","","","",""
"null","../img/tt/358tt.jpg","null","mooney2","image-keyboard-response","116","525163","0.0-6.0-5.15","2510106","co38407","norming","","","","","","",""
"2062","","","post_reveal_questions","survey-likert","117","527226","0.0-6.0-6.15","2510106","co38407","norming","","","{""aha"":4}","[0]","../img/tt/358tt.jpg","",""
"null","<div style=""font-size:60px;""> </div>","null","fixation","html-keyboard-response","118","527429","0.0-6.0-0.16","2510106","co38407","norming","","","","","","",""
"null","../img/tt/1173tt.jpg","null","mooney1","image-keyboard-response","119","530431","0.0-6.0-1.16","2510106","co38407","norming","","","","","","",""
"5136","","","post_mooney1_questions","survey-likert","120","535569","0.0-6.0-2.16","2510106","co38407","norming","","","{""curiosity"":2,""confidence"":3}","[0,1]","../img/tt/1173tt.jpg","",""
"8829","","","recognition","survey-text","121","544406","0.0-6.0-3.16","2510106","co38407","norming","","","{""guess"":""boys playing soccer""}","","../img/tt/1173tt.jpg","",""
"null","../img/gs/1173gs.jpg","null","reveal","image-keyboard-response","122","546408","0.0-6.0-4.16","2510106","co38407","norming","","","","","","",""
"null","../img/tt/1173tt.jpg","null","mooney2","image-keyboard-response","123","548411","0.0-6.0-5.16","2510106","co38407","norming","","","","","","",""
"2984","","","post_reveal_questions","survey-likert","124","551396","0.0-6.0-6.16","2510106","co38407","norming","","","{""aha"":3}","[0]","../img/tt/1173tt.jpg","",""
"null","<div style=""font-size:60px;""> </div>","null","fixation","html-keyboard-response","125","551600","0.0-6.0-0.17","2510106","co38407","norming","","","","","","",""
"null","../img/tt/055tt.jpg","null","mooney1","image-keyboard-response","126","554602","0.0-6.0-1.17","2510106","co38407","norming","","","","","","",""
"5709.999999999884","","","post_mooney1_questions","survey-likert","127","560315","0.0-6.0-2.17","2510106","co38407","norming","","","{""curiosity"":4,""confidence"":1}","[0,1]","../img/tt/055tt.jpg","",""
"1926","","","recognition","survey-text","128","562249","0.0-6.0-3.17","2510106","co38407","norming","","","{""guess"":""a bag""}","","../img/tt/055tt.jpg","",""
"null","../img/gs/055gs.jpg","null","reveal","image-keyboard-response","129","564252","0.0-6.0-4.17","2510106","co38407","norming","","","","","","",""
"null","../img/tt/055tt.jpg","null","mooney2","image-keyboard-response","130","566254","0.0-6.0-5.17","2510106","co38407","norming","","","","","","",""
"4785","","","post_reveal_questions","survey-likert","131","571041","0.0-6.0-6.17","2510106","co38407","norming","","","{""aha"":0}","[0]","../img/tt/055tt.jpg","",""
"null","<div style=""font-size:60px;""> </div>","null","fixation","html-keyboard-response","132","571245","0.0-6.0-0.18","2510106","co38407","norming","","","","","","",""
"null","../img/tt/405tt.jpg","null","mooney1","image-keyboard-response","133","574247","0.0-6.0-1.18","2510106","co38407","norming","","","","","","",""
"3751.9999999998836","","","post_mooney1_questions","survey-likert","134","578001","0.0-6.0-2.18","2510106","co38407","norming","","","{""curiosity"":3,""confidence"":6}","[0,1]","../img/tt/405tt.jpg","",""
"1377","","","recognition","survey-text","135","579387","0.0-6.0-3.18","2510106","co38407","norming","","","{""guess"":""a koala""}","","../img/tt/405tt.jpg","",""
"null","../img/gs/405gs.jpg","null","reveal","image-keyboard-response","136","581390","0.0-6.0-4.18","2510106","co38407","norming","","","","","","",""
"null","../img/tt/405tt.jpg","null","mooney2","image-keyboard-response","137","583392","0.0-6.0-5.18","2510106","co38407","norming","","","","","","",""
"2423","","","post_reveal_questions","survey-likert","138","585824","0.0-6.0-6.18","2510106","co38407","norming","","","{""aha"":0}","[0]","../img/tt/405tt.jpg","",""
"null","<div style=""font-size:60px;""> </div>","null","fixation","html-keyboard-response","139","586027","0.0-6.0-0.19","2510106","co38407","norming","","","","","","",""
"null","../img/tt/1268tt.jpg","null","mooney1","image-keyboard-response","140","589029","0.0-6.0-1.19","2510106","co38407","norming","","","","","","",""
"4998","","","post_mooney1_questions","survey-likert","141","594031","0.0-6.0-2.19","2510106","co38407","norming","","","{""curiosity"":3,""confidence"":4}","[0,1]","../img/tt/1268tt.jpg","",""
"4553","","","recognition","survey-text","142","598590","0.0-6.0-3.19","2510106","co38407","norming","","","{""guess"":""a turtle""}","","../img/tt/1268tt.jpg","",""
"null","../img/gs/1268gs.jpg","null","reveal","image-keyboard-response","143","600593","0.0-6.0-4.19","2510106","co38407","norming","","","","","","",""
"null","../img/tt/1268tt.jpg","null","mooney2","image-keyboard-response","144","602596","0.0-6.0-5.19","2510106","co38407","norming","","","","","","",""
"3003.0000000001164","","","post_reveal_questions","survey-likert","145","605600","0.0-6.0-6.19","2510106","co38407","norming","","","{""aha"":3}","[0]","../img/tt/1268tt.jpg","",""
"null","<div style=""font-size:60px;""> </div>","null","fixation","html-keyboard-response","146","605803","0.0-6.0-0.20","2510106","co38407","norming","","","","","","",""
"null","../img/tt/1270tt.jpg","null","mooney1","image-keyboard-response","147","608807","0.0-6.0-1.20","2510106","co38407","norming","","","","","","",""
"4177","","","post_mooney1_questions","survey-likert","148","612985","0.0-6.0-2.20","2510106","co38407","norming","","","{""curiosity"":4,""confidence"":0}","[0,1]","../img/tt/1270tt.jpg","",""
"1316","","","recognition","survey-text","149","614309","0.0-6.0-3.20","2510106","co38407","norming","","","{""guess"":""""}","","../img/tt/1270tt.jpg","",""
"null","../img/gs/1270gs.jpg","null","reveal","image-keyboard-response","150","616312","0.0-6.0-4.20","2510106","co38407","norming","","","","","","",""
"null","../img/tt/1270tt.jpg","null","mooney2","image-keyboard-response","151","618314","0.0-6.0-5.20","2510106","co38407","norming","","","","","","",""
"3676","","","post_reveal_questions","survey-likert","152","621992","0.0-6.0-6.20","2510106","co38407","norming","","","{""aha"":2}","[0]","../img/tt/1270tt.jpg","",""
"null","<div style=""font-size:60px;""> </div>","null","fixation","html-keyboard-response","153","622195","0.0-6.0-0.21","2510106","co38407","norming","","","","","","",""
"null","../img/tt/1226tt.jpg","null","mooney1","image-keyboard-response","154","625198","0.0-6.0-1.21","2510106","co38407","norming","","","","","","",""
"4092","","","post_mooney1_questions","survey-likert","155","629293","0.0-6.0-2.21","2510106","co38407","norming","","","{""curiosity"":3,""confidence"":1}","[0,1]","../img/tt/1226tt.jpg","",""
"43546","","","recognition","survey-text","156","672848","0.0-6.0-3.21","2510106","co38407","norming","","","{""guess"":""a goose""}","","../img/tt/1226tt.jpg","",""
"null","../img/gs/1226gs.jpg","null","reveal","image-keyboard-response","157","674852","0.0-6.0-4.21","2510106","co38407","norming","","","","","","",""
"null","../img/tt/1226tt.jpg","null","mooney2","image-keyboard-response","158","676854","0.0-6.0-5.21","2510106","co38407","norming","","","","","","",""
"3632","","","post_reveal_questions","survey-likert","159","680487","0.0-6.0-6.21","2510106","co38407","norming","","","{""aha"":3}","[0]","../img/tt/1226tt.jpg","",""
"null","<div style=""font-size:60px;""> </div>","null","fixation","html-keyboard-response","160","680691","0.0-6.0-0.22","2510106","co38407","norming","","","","","","",""
"null","../img/tt/549tt.jpg","null","mooney1","image-keyboard-response","161","683694","0.0-6.0-1.22","2510106","co38407","norming","","","","","","",""
"6117","","","post_mooney1_questions","survey-likert","162","689813","0.0-6.0-2.22","2510106","co38407","norming","","","{""curiosity"":1,""confidence"":0}","[0,1]","../img/tt/549tt.jpg","",""
"4032.0000000001164","","","recognition","survey-text","163","693853","0.0-6.0-3.22","2510106","co38407","norming","","","{""guess"":""""}","","../img/tt/549tt.jpg","",""
"null","../img/gs/549gs.jpg","null","reveal","image-keyboard-response","164","695856","0.0-6.0-4.22","2510106","co38407","norming","","","","","","",""
"null","../img/tt/549tt.jpg","null","mooney2","image-keyboard-response","165","697858","0.0-6.0-5.22","2510106","co38407","norming","","","","","","",""
"5612","","","post_reveal_questions","survey-likert","166","703472","0.0-6.0-6.22","2510106","co38407","norming","","","{""aha"":4}","[0]","../img/tt/549tt.jpg","",""
"null","<div style=""font-size:60px;""> </div>","null","fixation","html-keyboard-response","167","703676","0.0-6.0-0.23","2510106","co38407","norming","","","","","","",""
"null","../img/tt/1146tt.jpg","null","mooney1","image-keyboard-response","168","706678","0.0-6.0-1.23","2510106","co38407","norming","","","","","","",""
"4287.999999999884","","","post_mooney1_questions","survey-likert","169","710969","0.0-6.0-2.23","2510106","co38407","norming","","","{""curiosity"":4,""confidence"":2}","[0,1]","../img/tt/1146tt.jpg","",""
"2384","","","recognition","survey-text","170","713361","0.0-6.0-3.23","2510106","co38407","norming","","","{""guess"":""a bridge""}","","../img/tt/1146tt.jpg","",""
"null","../img/gs/1146gs.jpg","null","reveal","image-keyboard-response","171","715364","0.0-6.0-4.23","2510106","co38407","norming","","","","","","",""
"null","../img/tt/1146tt.jpg","null","mooney2","image-keyboard-response","172","717367","0.0-6.0-5.23","2510106","co38407","norming","","","","","","",""
"3940","","","post_reveal_questions","survey-likert","173","721309","0.0-6.0-6.23","2510106","co38407","norming","","","{""aha"":2}","[0]","../img/tt/1146tt.jpg","",""
"null","<div style=""font-size:60px;""> </div>","null","fixation","html-keyboard-response","174","721513","0.0-6.0-0.24","2510106","co38407","norming","","","","","","",""
"null","../img/tt/1175tt.jpg","null","mooney1","image-keyboard-response","175","724516","0.0-6.0-1.24","2510106","co38407","norming","","","","","","",""
"5714","","","post_mooney1_questions","survey-likert","176","730232","0.0-6.0-2.24","2510106","co38407","norming","","","{""curiosity"":5,""confidence"":0}","[0,1]","../img/tt/1175tt.jpg","",""
"4047","","","recognition","survey-text","177","734288","0.0-6.0-3.24","2510106","co38407","norming","","","{""guess"":""""}","","../img/tt/1175tt.jpg","",""
"null","../img/gs/1175gs.jpg","null","reveal","image-keyboard-response","178","736291","0.0-6.0-4.24","2510106","co38407","norming","","","","","","",""
"null","../img/tt/1175tt.jpg","null","mooney2","image-keyboard-response","179","738293","0.0-6.0-5.24","2510106","co38407","norming","","","","","","",""
"4256","","","post_reveal_questions","survey-likert","180","742551","0.0-6.0-6.24","2510106","co38407","norming","","","{""aha"":4}","[0]","../img/tt/1175tt.jpg","",""
"null","<div style=""font-size:60px;""> </div>","null","fixation","html-keyboard-response","181","742755","0.0-6.0-0.25","2510106","co38407","norming","","","","","","",""
"null","../img/tt/273tt.jpg","null","mooney1","image-keyboard-response","182","745757","0.0-6.0-1.25","2510106","co38407","norming","","","","","","",""
"4501","","","post_mooney1_questions","survey-likert","183","750261","0.0-6.0-2.25","2510106","co38407","norming","","","{""curiosity"":4,""confidence"":4}","[0,1]","../img/tt/273tt.jpg","",""
"2486","","","recognition","survey-text","184","752755","0.0-6.0-3.25","2510106","co38407","norming","","","{""guess"":""a person eating""}","","../img/tt/273tt.jpg","",""
"null","../img/gs/273gs.jpg","null","reveal","image-keyboard-response","185","754757","0.0-6.0-4.25","2510106","co38407","norming","","","","","","",""
"null","../img/tt/273tt.jpg","null","mooney2","image-keyboard-response","186","756759","0.0-6.0-5.25","2510106","co38407","norming","","","","","","",""
"3077","","","post_reveal_questions","survey-likert","187","759838","0.0-6.0-6.25","2510106","co38407","norming","","","{""aha"":4}","[0]","../img/tt/273tt.jpg","",""
"null","<div style=""font-size:60px;""> </div>","null","fixation","html-keyboard-response","188","760041","0.0-6.0-0.26","2510106","co38407","norming","","","","","","",""
"null","../img/tt/1362tt.jpg","null","mooney1","image-keyboard-response","189","763043","0.0-6.0-1.26","2510106","co38407","norming","","","","","","",""
"4767.000000000116","","","post_mooney1_questions","survey-likert","190","767812","0.0-6.0-2.26","2510106","co38407","norming","","","{""curiosity"":5,""confidence"":2}","[0,1]","../img/tt/1362tt.jpg","",""
"10905","","","recognition","survey-text","191","778726","0.0-6.0-3.26","2510106","co38407","norming","","","{""guess"":""video tapes""}","","../img/tt/1362tt.jpg","",""
"null","../img/gs/1362gs.jpg","null","reveal","image-keyboard-response","192","780729","0.0-6.0-4.26","2510106","co38407","norming","","","","","","",""
"null","../img/tt/1362tt.jpg","null","mooney2","image-keyboard-response","193","782731","0.0-6.0-5.26","2510106","co38407","norming","","","","","","",""
"3119","","","post_reveal_questions","survey-likert","194","785852","0.0-6.0-6.26","2510106","co38407","norming","","","{""aha"":5}","[0]","../img/tt/1362tt.jpg","",""
"null","<div style=""font-size:60px;""> </div>","null","fixation","html-keyboard-response","195","786057","0.0-6.0-0.27","2510106","co38407","norming","","","","","","",""
"null","../img/tt/436tt.jpg","null","mooney1","image-keyboard-response","196","789060","0.0-6.0-1.27","2510106","co38407","norming","","","","","","",""
"4692","","","post_mooney1_questions","survey-likert","197","793754","0.0-6.0-2.27","2510106","co38407","norming","","","{""curiosity"":3,""confidence"":3}","[0,1]","../img/tt/436tt.jpg","",""
"2397","","","recognition","survey-text","198","796160","0.0-6.0-3.27","2510106","co38407","norming","","","{""guess"":""a crocodile ""}","","../img/tt/436tt.jpg","",""
"null","../img/gs/436gs.jpg","null","reveal","image-keyboard-response","199","798163","0.0-6.0-4.27","2510106","co38407","norming","","","","","","",""
"null","../img/tt/436tt.jpg","null","mooney2","image-keyboard-response","200","800166","0.0-6.0-5.27","2510106","co38407","norming","","","","","","",""
"3691","","","post_reveal_questions","survey-likert","201","803858","0.0-6.0-6.27","2510106","co38407","norming","","","{""aha"":4}","[0]","../img/tt/436tt.jpg","",""
"null","<div style=""font-size:60px;""> </div>","null","fixation","html-keyboard-response","202","804061","0.0-6.0-0.28","2510106","co38407","norming","","","","","","",""
"null","../img/tt/497tt.jpg","null","mooney1","image-keyboard-response","203","807063","0.0-6.0-1.28","2510106","co38407","norming","","","","","","",""
"5406","","","post_mooney1_questions","survey-likert","204","812471","0.0-6.0-2.28","2510106","co38407","norming","","","{""curiosity"":3,""confidence"":2}","[0,1]","../img/tt/497tt.jpg","",""
"1304","","","recognition","survey-text","205","813783","0.0-6.0-3.28","2510106","co38407","norming","","","{""guess"":""a firepit""}","","../img/tt/497tt.jpg","",""
"null","../img/gs/497gs.jpg","null","reveal","image-keyboard-response","206","815786","0.0-6.0-4.28","2510106","co38407","norming","","","","","","",""
"null","../img/tt/497tt.jpg","null","mooney2","image-keyboard-response","207","817788","0.0-6.0-5.28","2510106","co38407","norming","","","","","","",""
"3640.9999999998836","","","post_reveal_questions","survey-likert","208","821430","0.0-6.0-6.28","2510106","co38407","norming","","","{""aha"":2}","[0]","../img/tt/497tt.jpg","",""
"null","<div style=""font-size:60px;""> </div>","null","fixation","html-keyboard-response","209","821634","0.0-6.0-0.29","2510106","co38407","norming","","","","","","",""
"null","../img/tt/296tt.jpg","null","mooney1","image-keyboard-response","210","824636","0.0-6.0-1.29","2510106","co38407","norming","","","","","","",""
"6594","","","post_mooney1_questions","survey-likert","211","831233","0.0-6.0-2.29","2510106","co38407","norming","","","{""curiosity"":3,""confidence"":2}","[0,1]","../img/tt/296tt.jpg","",""
"2105","","","recognition","survey-text","212","833347","0.0-6.0-3.29","2510106","co38407","norming","","","{""guess"":""a bed""}","","../img/tt/296tt.jpg","",""
"null","../img/gs/296gs.jpg","null","reveal","image-keyboard-response","213","835350","0.0-6.0-4.29","2510106","co38407","norming","","","","","","",""
"null","../img/tt/296tt.jpg","null","mooney2","image-keyboard-response","214","837352","0.0-6.0-5.29","2510106","co38407","norming","","","","","","",""
"2881","","","post_reveal_questions","survey-likert","215","840235","0.0-6.0-6.29","2510106","co38407","norming","","","{""aha"":4}","[0]","../img/tt/296tt.jpg","",""
"null","<div style=""font-size:60px;""> </div>","null","fixation","html-keyboard-response","216","840438","0.0-6.0-0.30","2510106","co38407","norming","","","","","","",""
"null","../img/tt/567tt.jpg","null","mooney1","image-keyboard-response","217","843441","0.0-6.0-1.30","2510106","co38407","norming","","","","","","",""
"7326","","","post_mooney1_questions","survey-likert","218","850770","0.0-6.0-2.30","2510106","co38407","norming","","","{""curiosity"":0,""confidence"":4}","[0,1]","../img/tt/567tt.jpg","",""
"1683","","","recognition","survey-text","219","852461","0.0-6.0-3.30","2510106","co38407","norming","","","{""guess"":""a toaster""}","","../img/tt/567tt.jpg","",""
"null","../img/gs/567gs.jpg","null","reveal","image-keyboard-response","220","854464","0.0-6.0-4.30","2510106","co38407","norming","","","","","","",""
"null","../img/tt/567tt.jpg","null","mooney2","image-keyboard-response","221","856466","0.0-6.0-5.30","2510106","co38407","norming","","","","","","",""
"2568","","","post_reveal_questions","survey-likert","222","859036","0.0-6.0-6.30","2510106","co38407","norming","","","{""aha"":0}","[0]","../img/tt/567tt.jpg","",""
"null","<div style=""font-size:60px;""> </div>","null","fixation","html-keyboard-response","223","859239","0.0-6.0-0.31","2510106","co38407","norming","","","","","","",""
"null","../img/tt/094tt.jpg","null","mooney1","image-keyboard-response","224","862242","0.0-6.0-1.31","2510106","co38407","norming","","","","","","",""
"6394","","","post_mooney1_questions","survey-likert","225","868638","0.0-6.0-2.31","2510106","co38407","norming","","","{""curiosity"":3,""confidence"":2}","[0,1]","../img/tt/094tt.jpg","",""
"1866.0000000001164","","","recognition","survey-text","226","870512","0.0-6.0-3.31","2510106","co38407","norming","","","{""guess"":""a wolf""}","","../img/tt/094tt.jpg","",""
"null","../img/gs/094gs.jpg","null","reveal","image-keyboard-response","227","872515","0.0-6.0-4.31","2510106","co38407","norming","","","","","","",""
"null","../img/tt/094tt.jpg","null","mooney2","image-keyboard-response","228","874517","0.0-6.0-5.31","2510106","co38407","norming","","","","","","",""
"2622","","","post_reveal_questions","survey-likert","229","877141","0.0-6.0-6.31","2510106","co38407","norming","","","{""aha"":1}","[0]","../img/tt/094tt.jpg","",""
"null","<div style=""font-size:60px;""> </div>","null","fixation","html-keyboard-response","230","877344","0.0-6.0-0.32","2510106","co38407","norming","","","","","","",""
"null","../img/tt/053tt.jpg","null","mooney1","image-keyboard-response","231","880347","0.0-6.0-1.32","2510106","co38407","norming","","","","","","",""
"4118","","","post_mooney1_questions","survey-likert","232","884467","0.0-6.0-2.32","2510106","co38407","norming","","","{""curiosity"":4,""confidence"":0}","[0,1]","../img/tt/053tt.jpg","",""
"641","","","recognition","survey-text","233","885116","0.0-6.0-3.32","2510106","co38407","norming","","","{""guess"":""""}","","../img/tt/053tt.jpg","",""
"null","../img/gs/053gs.jpg","null","reveal","image-keyboard-response","234","887119","0.0-6.0-4.32","2510106","co38407","norming","","","","","","",""
"null","../img/tt/053tt.jpg","null","mooney2","image-keyboard-response","235","889121","0.0-6.0-5.32","2510106","co38407","norming","","","","","","",""
"4532","","","post_reveal_questions","survey-likert","236","893655","0.0-6.0-6.32","2510106","co38407","norming","","","{""aha"":4}","[0]","../img/tt/053tt.jpg","",""
"null","<div style=""font-size:60px;""> </div>","null","fixation","html-keyboard-response","237","893859","0.0-6.0-0.33","2510106","co38407","norming","","","","","","",""
"null","../img/tt/1002tt.jpg","null","mooney1","image-keyboard-response","238","896862","0.0-6.0-1.33","2510106","co38407","norming","","","","","","",""
"9301.999999999884","","","post_mooney1_questions","survey-likert","239","906166","0.0-6.0-2.33","2510106","co38407","norming","","","{""curiosity"":3,""confidence"":3}","[0,1]","../img/tt/1002tt.jpg","",""
"1141.0000000001164","","","recognition","survey-text","240","907316","0.0-6.0-3.33","2510106","co38407","norming","","","{""guess"":""a bear""}","","../img/tt/1002tt.jpg","",""
"null","../img/gs/1002gs.jpg","null","reveal","image-keyboard-response","241","909318","0.0-6.0-4.33","2510106","co38407","norming","","","","","","",""
"null","../img/tt/1002tt.jpg","null","mooney2","image-keyboard-response","242","911329","0.0-6.0-5.33","2510106","co38407","norming","","","","","","",""
"2816","","","post_reveal_questions","survey-likert","243","914147","0.0-6.0-6.33","2510106","co38407","norming","","","{""aha"":1}","[0]","../img/tt/1002tt.jpg","",""
"null","<div style=""font-size:60px;""> </div>","null","fixation","html-keyboard-response","244","914350","0.0-6.0-0.34","2510106","co38407","norming","","","","","","",""
"null","../img/tt/096tt.jpg","null","mooney1","image-keyboard-response","245","917352","0.0-6.0-1.34","2510106","co38407","norming","","","","","","",""
"3258.9999999998836","","","post_mooney1_questions","survey-likert","246","920614","0.0-6.0-2.34","2510106","co38407","norming","","","{""curiosity"":3,""confidence"":3}","[0,1]","../img/tt/096tt.jpg","",""
"1765","","","recognition","survey-text","247","922388","0.0-6.0-3.34","2510106","co38407","norming","","","{""guess"":""a piano""}","","../img/tt/096tt.jpg","",""
"null","../img/gs/096gs.jpg","null","reveal","image-keyboard-response","248","924390","0.0-6.0-4.34","2510106","co38407","norming","","","","","","",""
"null","../img/tt/096tt.jpg","null","mooney2","image-keyboard-response","249","926393","0.0-6.0-5.34","2510106","co38407","norming","","","","","","",""
"3648.0000000001164","","","post_reveal_questions","survey-likert","250","930042","0.0-6.0-6.34","2510106","co38407","norming","","","{""aha"":1}","[0]","../img/tt/096tt.jpg","",""
"null","<div style=""font-size:60px;""> </div>","null","fixation","html-keyboard-response","251","930246","0.0-6.0-0.35","2510106","co38407","norming","","","","","","",""
"null","../img/tt/031tt.jpg","null","mooney1","image-keyboard-response","252","933248","0.0-6.0-1.35","2510106","co38407","norming","","","","","","",""
"4534","","","post_mooney1_questions","survey-likert","253","937784","0.0-6.0-2.35","2510106","co38407","norming","","","{""curiosity"":0,""confidence"":4}","[0,1]","../img/tt/031tt.jpg","",""
"1205","","","recognition","survey-text","254","938997","0.0-6.0-3.35","2510106","co38407","norming","","","{""guess"":""a bear""}","","../img/tt/031tt.jpg","",""
"null","../img/gs/031gs.jpg","null","reveal","image-keyboard-response","255","940999","0.0-6.0-4.35","2510106","co38407","norming","","","","","","",""
"null","../img/tt/031tt.jpg","null","mooney2","image-keyboard-response","256","943002","0.0-6.0-5.35","2510106","co38407","norming","","","","","","",""
"3631.0000000001164","","","post_reveal_questions","survey-likert","257","946634","0.0-6.0-6.35","2510106","co38407","norming","","","{""aha"":1}","[0]","../img/tt/031tt.jpg","",""
"null","<div style=""font-size:60px;""> </div>","null","fixation","html-keyboard-response","258","946838","0.0-6.0-0.36","2510106","co38407","norming","","","","","","",""
"null","../img/tt/416tt.jpg","null","mooney1","image-keyboard-response","259","949840","0.0-6.0-1.36","2510106","co38407","norming","","","","","","",""
"5088","","","post_mooney1_questions","survey-likert","260","954931","0.0-6.0-2.36","2510106","co38407","norming","","","{""curiosity"":2,""confidence"":5}","[0,1]","../img/tt/416tt.jpg","",""
"1939","","","recognition","survey-text","261","956877","0.0-6.0-3.36","2510106","co38407","norming","","","{""guess"":""struisvogels""}","","../img/tt/416tt.jpg","",""
"null","../img/gs/416gs.jpg","null","reveal","image-keyboard-response","262","958880","0.0-6.0-4.36","2510106","co38407","norming","","","","","","",""
"null","../img/tt/416tt.jpg","null","mooney2","image-keyboard-response","263","960882","0.0-6.0-5.36","2510106","co38407","norming","","","","","","",""
"3716.9999999998836","","","post_reveal_questions","survey-likert","264","964601","0.0-6.0-6.36","2510106","co38407","norming","","","{""aha"":1}","[0]","../img/tt/416tt.jpg","",""
"null","<div style=""font-size:60px;""> </div>","null","fixation","html-keyboard-response","265","964805","0.0-6.0-0.37","2510106","co38407","norming","","","","","","",""
"null","../img/tt/008tt.jpg","null","mooney1","image-keyboard-response","266","967808","0.0-6.0-1.37","2510106","co38407","norming","","","","","","",""
"3058","","","post_mooney1_questions","survey-likert","267","970868","0.0-6.0-2.37","2510106","co38407","norming","","","{""curiosity"":4,""confidence"":1}","[0,1]","../img/tt/008tt.jpg","",""
"1012","","","recognition","survey-text","268","971889","0.0-6.0-3.37","2510106","co38407","norming","","","{""guess"":""""}","","../img/tt/008tt.jpg","",""
"null","../img/gs/008gs.jpg","null","reveal","image-keyboard-response","269","973891","0.0-6.0-4.37","2510106","co38407","norming","","","","","","",""
"null","../img/tt/008tt.jpg","null","mooney2","image-keyboard-response","270","975894","0.0-6.0-5.37","2510106","co38407","norming","","","","","","",""
"2578","","","post_reveal_questions","survey-likert","271","978473","0.0-6.0-6.37","2510106","co38407","norming","","","{""aha"":4}","[0]","../img/tt/008tt.jpg","",""
"null","<div style=""font-size:60px;""> </div>","null","fixation","html-keyboard-response","272","978676","0.0-6.0-0.38","2510106","co38407","norming","","","","","","",""
"null","../img/tt/126tt.jpg","null","mooney1","image-keyboard-response","273","981679","0.0-6.0-1.38","2510106","co38407","norming","","","","","","",""
"3526.0000000001164","","","post_mooney1_questions","survey-likert","274","985208","0.0-6.0-2.38","2510106","co38407","norming","","","{""curiosity"":0,""confidence"":5}","[0,1]","../img/tt/126tt.jpg","",""
"1344","","","recognition","survey-text","275","986560","0.0-6.0-3.38","2510106","co38407","norming","","","{""guess"":""a cow""}","","../img/tt/126tt.jpg","",""
"null","../img/gs/126gs.jpg","null","reveal","image-keyboard-response","276","988563","0.0-6.0-4.38","2510106","co38407","norming","","","","","","",""
"null","../img/tt/126tt.jpg","null","mooney2","image-keyboard-response","277","990565","0.0-6.0-5.38","2510106","co38407","norming","","","","","","",""
"2344","","","post_reveal_questions","survey-likert","278","992911","0.0-6.0-6.38","2510106","co38407","norming","","","{""aha"":0}","[0]","../img/tt/126tt.jpg","",""
"null","<div style=""font-size:60px;""> </div>","null","fixation","html-keyboard-response","279","993114","0.0-6.0-0.39","2510106","co38407","norming","","","","","","",""
"null","../img/tt/020tt.jpg","null","mooney1","image-keyboard-response","280","996117","0.0-6.0-1.39","2510106","co38407","norming","","","","","","",""
"3608.0000000001164","","","post_mooney1_questions","survey-likert","281","999727","0.0-6.0-2.39","2510106","co38407","norming","","","{""curiosity"":4,""confidence"":1}","[0,1]","../img/tt/020tt.jpg","",""
"506.0000000001164","","","recognition","survey-text","282","1000241","0.0-6.0-3.39","2510106","co38407","norming","","","{""guess"":""""}","","../img/tt/020tt.jpg","",""
"null","../img/gs/020gs.jpg","null","reveal","image-keyboard-response","283","1002243","0.0-6.0-4.39","2510106","co38407","norming","","","","","","",""
"null","../img/tt/020tt.jpg","null","mooney2","image-keyboard-response","284","1004246","0.0-6.0-5.39","2510106","co38407","norming","","","","","","",""
"5399","","","post_reveal_questions","survey-likert","285","1009647","0.0-6.0-6.39","2510106","co38407","norming","","","{""aha"":4}","[0]","../img/tt/020tt.jpg","",""
"null","<div style=""font-size:60px;""> </div>","null","fixation","html-keyboard-response","286","1009851","0.0-6.0-0.40","2510106","co38407","norming","","","","","","",""
"null","../img/tt/078tt.jpg","null","mooney1","image-keyboard-response","287","1012854","0.0-6.0-1.40","2510106","co38407","norming","","","","","","",""
"5347","","","post_mooney1_questions","survey-likert","288","1018203","0.0-6.0-2.40","2510106","co38407","norming","","","{""curiosity"":4,""confidence"":1}","[0,1]","../img/tt/078tt.jpg","",""
"2359.9999999998836","","","recognition","survey-text","289","1020571","0.0-6.0-3.40","2510106","co38407","norming","","","{""guess"":""""}","","../img/tt/078tt.jpg","",""
"null","../img/gs/078gs.jpg","null","reveal","image-keyboard-response","290","1022573","0.0-6.0-4.40","2510106","co38407","norming","","","","","","",""
"null","../img/tt/078tt.jpg","null","mooney2","image-keyboard-response","291","1024576","0.0-6.0-5.40","2510106","co38407","norming","","","","","","",""
"3644.9999999998836","","","post_reveal_questions","survey-likert","292","1028223","0.0-6.0-6.40","2510106","co38407","norming","","","{""aha"":4}","[0]","../img/tt/078tt.jpg","",""
"null","<div style=""font-size:60px;""> </div>","null","fixation","html-keyboard-response","293","1028426","0.0-6.0-0.41","2510106","co38407","norming","","","","","","",""
"null","../img/tt/1242tt.jpg","null","mooney1","image-keyboard-response","294","1031429","0.0-6.0-1.41","2510106","co38407","norming","","","","","","",""
"4615","","","post_mooney1_questions","survey-likert","295","1036047","0.0-6.0-2.41","2510106","co38407","norming","","","{""curiosity"":4,""confidence"":0}","[0,1]","../img/tt/1242tt.jpg","",""
"649.0000000001164","","","recognition","survey-text","296","1036704","0.0-6.0-3.41","2510106","co38407","norming","","","{""guess"":""""}","","../img/tt/1242tt.jpg","",""
"null","../img/gs/1242gs.jpg","null","reveal","image-keyboard-response","297","1038707","0.0-6.0-4.41","2510106","co38407","norming","","","","","","",""
"null","../img/tt/1242tt.jpg","null","mooney2","image-keyboard-response","298","1040709","0.0-6.0-5.41","2510106","co38407","norming","","","","","","",""
"2377","","","post_reveal_questions","survey-likert","299","1043088","0.0-6.0-6.41","2510106","co38407","norming","","","{""aha"":4}","[0]","../img/tt/1242tt.jpg","",""
"null","<div style=""font-size:60px;""> </div>","null","fixation","html-keyboard-response","300","1043291","0.0-6.0-0.42","2510106","co38407","norming","","","","","","",""
"null","../img/tt/1046tt.jpg","null","mooney1","image-keyboard-response","301","1046294","0.0-6.0-1.42","2510106","co38407","norming","","","","","","",""
"7173","","","post_mooney1_questions","survey-likert","302","1053469","0.0-6.0-2.42","2510106","co38407","norming","","","{""curiosity"":4,""confidence"":1}","[0,1]","../img/tt/1046tt.jpg","",""
"1324","","","recognition","survey-text","303","1054801","0.0-6.0-3.42","2510106","co38407","norming","","","{""guess"":""a table""}","","../img/tt/1046tt.jpg","",""
"null","../img/gs/1046gs.jpg","null","reveal","image-keyboard-response","304","1056804","0.0-6.0-4.42","2510106","co38407","norming","","","","","","",""
"null","../img/tt/1046tt.jpg","null","mooney2","image-keyboard-response","305","1058807","0.0-6.0-5.42","2510106","co38407","norming","","","","","","",""
"2665","","","post_reveal_questions","survey-likert","306","1061473","0.0-6.0-6.42","2510106","co38407","norming","","","{""aha"":4}","[0]","../img/tt/1046tt.jpg","",""
"null","<div style=""font-size:60px;""> </div>","null","fixation","html-keyboard-response","307","1061683","0.0-6.0-0.43","2510106","co38407","norming","","","","","","",""
"null","../img/tt/084tt.jpg","null","mooney1","image-keyboard-response","308","1064686","0.0-6.0-1.43","2510106","co38407","norming","","","","","","",""
"4732","","","post_mooney1_questions","survey-likert","309","1069419","0.0-6.0-2.43","2510106","co38407","norming","","","{""curiosity"":3,""confidence"":5}","[0,1]","../img/tt/084tt.jpg","",""
"1144","","","recognition","survey-text","310","1070572","0.0-6.0-3.43","2510106","co38407","norming","","","{""guess"":""a duck""}","","../img/tt/084tt.jpg","",""
"null","../img/gs/084gs.jpg","null","reveal","image-keyboard-response","311","1072574","0.0-6.0-4.43","2510106","co38407","norming","","","","","","",""
"null","../img/tt/084tt.jpg","null","mooney2","image-keyboard-response","312","1074577","0.0-6.0-5.43","2510106","co38407","norming","","","","","","",""
"3467","","","post_reveal_questions","survey-likert","313","1078046","0.0-6.0-6.43","2510106","co38407","norming","","","{""aha"":1}","[0]","../img/tt/084tt.jpg","",""
"null","<div style=""font-size:60px;""> </div>","null","fixation","html-keyboard-response","314","1078249","0.0-6.0-0.44","2510106","co38407","norming","","","","","","",""
"null","../img/tt/496tt.jpg","null","mooney1","image-keyboard-response","315","1081252","0.0-6.0-1.44","2510106","co38407","norming","","","","","","",""
"4143","","","post_mooney1_questions","survey-likert","316","1085397","0.0-6.0-2.44","2510106","co38407","norming","","","{""curiosity"":4,""confidence"":0}","[0,1]","../img/tt/496tt.jpg","",""
"593","","","recognition","survey-text","317","1085999","0.0-6.0-3.44","2510106","co38407","norming","","","{""guess"":""""}","","../img/tt/496tt.jpg","",""
"null","../img/gs/496gs.jpg","null","reveal","image-keyboard-response","318","1088001","0.0-6.0-4.44","2510106","co38407","norming","","","","","","",""
"null","../img/tt/496tt.jpg","null","mooney2","image-keyboard-response","319","1090010","0.0-6.0-5.44","2510106","co38407","norming","","","","","","",""
"2021","","","post_reveal_questions","survey-likert","320","1092033","0.0-6.0-6.44","2510106","co38407","norming","","","{""aha"":5}","[0]","../img/tt/496tt.jpg","",""
"null","<div style=""font-size:60px;""> </div>","null","fixation","html-keyboard-response","321","1092237","0.0-6.0-0.45","2510106","co38407","norming","","","","","","",""
"null","../img/tt/085tt.jpg","null","mooney1","image-keyboard-response","322","1095239","0.0-6.0-1.45","2510106","co38407","norming","","","","","","",""
"3939.999999999767","","","post_mooney1_questions","survey-likert","323","1099181","0.0-6.0-2.45","2510106","co38407","norming","","","{""curiosity"":3,""confidence"":4}","[0,1]","../img/tt/085tt.jpg","",""
"3544","","","recognition","survey-text","324","1102734","0.0-6.0-3.45","2510106","co38407","norming","","","{""guess"":""sprinkhaan""}","","../img/tt/085tt.jpg","",""
"null","../img/gs/085gs.jpg","null","reveal","image-keyboard-response","325","1104736","0.0-6.0-4.45","2510106","co38407","norming","","","","","","",""
"null","../img/tt/085tt.jpg","null","mooney2","image-keyboard-response","326","1106739","0.0-6.0-5.45","2510106","co38407","norming","","","","","","",""
"2051","","","post_reveal_questions","survey-likert","327","1108791","0.0-6.0-6.45","2510106","co38407","norming","","","{""aha"":3}","[0]","../img/tt/085tt.jpg","",""
"null","<div style=""font-size:60px;""> </div>","null","fixation","html-keyboard-response","328","1108994","0.0-6.0-0.46","2510106","co38407","norming","","","","","","",""
"null","../img/tt/1096tt.jpg","null","mooney1","image-keyboard-response","329","1111997","0.0-6.0-1.46","2510106","co38407","norming","","","","","","",""
"4424","","","post_mooney1_questions","survey-likert","330","1116423","0.0-6.0-2.46","2510106","co38407","norming","","","{""curiosity"":4,""confidence"":2}","[0,1]","../img/tt/1096tt.jpg","",""
"2703","","","recognition","survey-text","331","1119134","0.0-6.0-3.46","2510106","co38407","norming","","","{""guess"":""a cow""}","","../img/tt/1096tt.jpg","",""
"null","../img/gs/1096gs.jpg","null","reveal","image-keyboard-response","332","1121136","0.0-6.0-4.46","2510106","co38407","norming","","","","","","",""
"null","../img/tt/1096tt.jpg","null","mooney2","image-keyboard-response","333","1123139","0.0-6.0-5.46","2510106","co38407","norming","","","","","","",""
"2072.000000000233","","","post_reveal_questions","survey-likert","334","1125213","0.0-6.0-6.46","2510106","co38407","norming","","","{""aha"":4}","[0]","../img/tt/1096tt.jpg","",""
"null","<div style=""font-size:60px;""> </div>","null","fixation","html-keyboard-response","335","1125416","0.0-6.0-0.47","2510106","co38407","norming","","","","","","",""
"null","../img/tt/1053tt.jpg","null","mooney1","image-keyboard-response","336","1128419","0.0-6.0-1.47","2510106","co38407","norming","","","","","","",""
"6771","","","post_mooney1_questions","survey-likert","337","1135192","0.0-6.0-2.47","2510106","co38407","norming","","","{""curiosity"":3,""confidence"":2}","[0,1]","../img/tt/1053tt.jpg","",""
"1267","","","recognition","survey-text","338","1136464","0.0-6.0-3.47","2510106","co38407","norming","","","{""guess"":""cows""}","","../img/tt/1053tt.jpg","",""
"null","../img/gs/1053gs.jpg","null","reveal","image-keyboard-response","339","1138467","0.0-6.0-4.47","2510106","co38407","norming","","","","","","",""
"null","../img/tt/1053tt.jpg","null","mooney2","image-keyboard-response","340","1140470","0.0-6.0-5.47","2510106","co38407","norming","","","","","","",""
"1861","","","post_reveal_questions","survey-likert","341","1142333","0.0-6.0-6.47","2510106","co38407","norming","","","{""aha"":3}","[0]","../img/tt/1053tt.jpg","",""
"null","<div style=""font-size:60px;""> </div>","null","fixation","html-keyboard-response","342","1142536","0.0-6.0-0.48","2510106","co38407","norming","","","","","","",""
"null","../img/tt/1309tt.jpg","null","mooney1","image-keyboard-response","343","1145539","0.0-6.0-1.48","2510106","co38407","norming","","","","","","",""
"3944.999999999767","","","post_mooney1_questions","survey-likert","344","1149486","0.0-6.0-2.48","2510106","co38407","norming","","","{""curiosity"":4,""confidence"":3}","[0,1]","../img/tt/1309tt.jpg","",""
"2586","","","recognition","survey-text","345","1152081","0.0-6.0-3.48","2510106","co38407","norming","","","{""guess"":""a forest and a car""}","","../img/tt/1309tt.jpg","",""
"null","../img/gs/1309gs.jpg","null","reveal","image-keyboard-response","346","1154083","0.0-6.0-4.48","2510106","co38407","norming","","","","","","",""
"null","../img/tt/1309tt.jpg","null","mooney2","image-keyboard-response","347","1156084","0.0-6.0-5.48","2510106","co38407","norming","","","","","","",""
"2026","","","post_reveal_questions","survey-likert","348","1158112","0.0-6.0-6.48","2510106","co38407","norming","","","{""aha"":3}","[0]","../img/tt/1309tt.jpg","",""
"null","<div style=""font-size:60px;""> </div>","null","fixation","html-keyboard-response","349","1158315","0.0-6.0-0.49","2510106","co38407","norming","","","","","","",""
"null","../img/tt/1142tt.jpg","null","mooney1","image-keyboard-response","350","1161318","0.0-6.0-1.49","2510106","co38407","norming","","","","","","",""
"6408.999999999767","","","post_mooney1_questions","survey-likert","351","1167730","0.0-6.0-2.49","2510106","co38407","norming","","","{""curiosity"":4,""confidence"":2}","[0,1]","../img/tt/1142tt.jpg","",""
"5307","","","recognition","survey-text","352","1173045","0.0-6.0-3.49","2510106","co38407","norming","","","{""guess"":""someone jumping in the water""}","","../img/tt/1142tt.jpg","",""
"null","../img/gs/1142gs.jpg","null","reveal","image-keyboard-response","353","1175048","0.0-6.0-4.49","2510106","co38407","norming","","","","","","",""
"null","../img/tt/1142tt.jpg","null","mooney2","image-keyboard-response","354","1177050","0.0-6.0-5.49","2510106","co38407","norming","","","","","","",""
"2531.999999999767","","","post_reveal_questions","survey-likert","355","1179583","0.0-6.0-6.49","2510106","co38407","norming","","","{""aha"":4}","[0]","../img/tt/1142tt.jpg","",""
"null","<div style=""font-size:60px;""> </div>","null","fixation","html-keyboard-response","356","1179787","0.0-6.0-0.50","2510106","co38407","norming","","","","","","",""
"null","../img/tt/1191tt.jpg","null","mooney1","image-keyboard-response","357","1182789","0.0-6.0-1.50","2510106","co38407","norming","","","","","","",""
"5049.000000000233","","","post_mooney1_questions","survey-likert","358","1187840","0.0-6.0-2.50","2510106","co38407","norming","","","{""curiosity"":4,""confidence"":1}","[0,1]","../img/tt/1191tt.jpg","",""
"736","","","recognition","survey-text","359","1188584","0.0-6.0-3.50","2510106","co38407","norming","","","{""guess"":""""}","","../img/tt/1191tt.jpg","",""
"null","../img/gs/1191gs.jpg","null","reveal","image-keyboard-response","360","1190585","0.0-6.0-4.50","2510106","co38407","norming","","","","","","",""
"null","../img/tt/1191tt.jpg","null","mooney2","image-keyboard-response","361","1192587","0.0-6.0-5.50","2510106","co38407","norming","","","","","","",""
"2295","","","post_reveal_questions","survey-likert","362","1194883","0.0-6.0-6.50","2510106","co38407","norming","","","{""aha"":4}","[0]","../img/tt/1191tt.jpg","",""
"null","<div style=""font-size:60px;""> </div>","null","fixation","html-keyboard-response","363","1195086","0.0-6.0-0.51","2510106","co38407","norming","","","","","","",""
"null","../img/tt/1200tt.jpg","null","mooney1","image-keyboard-response","364","1198089","0.0-6.0-1.51","2510106","co38407","norming","","","","","","",""
"3574.999999999767","","","post_mooney1_questions","survey-likert","365","1201666","0.0-6.0-2.51","2510106","co38407","norming","","","{""curiosity"":3,""confidence"":3}","[0,1]","../img/tt/1200tt.jpg","",""
"7171","","","recognition","survey-text","366","1208845","0.0-6.0-3.51","2510106","co38407","norming","","","{""guess"":""people kayaking ""}","","../img/tt/1200tt.jpg","",""
"null","../img/gs/1200gs.jpg","null","reveal","image-keyboard-response","367","1210848","0.0-6.0-4.51","2510106","co38407","norming","","","","","","",""
"null","../img/tt/1200tt.jpg","null","mooney2","image-keyboard-response","368","1212852","0.0-6.0-5.51","2510106","co38407","norming","","","","","","",""
"2257","","","post_reveal_questions","survey-likert","369","1215112","0.0-6.0-6.51","2510106","co38407","norming","","","{""aha"":4}","[0]","../img/tt/1200tt.jpg","",""
"null","<div style=""font-size:60px;""> </div>","null","fixation","html-keyboard-response","370","1215316","0.0-6.0-0.52","2510106","co38407","norming","","","","","","",""
"null","../img/tt/1066tt.jpg","null","mooney1","image-keyboard-response","371","1218318","0.0-6.0-1.52","2510106","co38407","norming","","","","","","",""
"3527","","","post_mooney1_questions","survey-likert","372","1221848","0.0-6.0-2.52","2510106","co38407","norming","","","{""curiosity"":0,""confidence"":5}","[0,1]","../img/tt/1066tt.jpg","",""
"995.0000000002328","","","recognition","survey-text","373","1222851","0.0-6.0-3.52","2510106","co38407","norming","","","{""guess"":""a bus""}","","../img/tt/1066tt.jpg","",""
"null","../img/gs/1066gs.jpg","null","reveal","image-keyboard-response","374","1224854","0.0-6.0-4.52","2510106","co38407","norming","","","","","","",""
"null","../img/tt/1066tt.jpg","null","mooney2","image-keyboard-response","375","1226856","0.0-6.0-5.52","2510106","co38407","norming","","","","","","",""
"2477","","","post_reveal_questions","survey-likert","376","1229335","0.0-6.0-6.52","2510106","co38407","norming","","","{""aha"":0}","[0]","../img/tt/1066tt.jpg","",""
"null","<div style=""font-size:60px;""> </div>","null","fixation","html-keyboard-response","377","1229539","0.0-6.0-0.53","2510106","co38407","norming","","","","","","",""
"null","../img/tt/477tt.jpg","null","mooney1","image-keyboard-response","378","1232541","0.0-6.0-1.53","2510106","co38407","norming","","","","","","",""
"3393","","","post_mooney1_questions","survey-likert","379","1235936","0.0-6.0-2.53","2510106","co38407","norming","","","{""curiosity"":4,""confidence"":1}","[0,1]","../img/tt/477tt.jpg","",""
"1818","","","recognition","survey-text","380","1237762","0.0-6.0-3.53","2510106","co38407","norming","","","{""guess"":""a helicopter""}","","../img/tt/477tt.jpg","",""
"null","../img/gs/477gs.jpg","null","reveal","image-keyboard-response","381","1239765","0.0-6.0-4.53","2510106","co38407","norming","","","","","","",""
"null","../img/tt/477tt.jpg","null","mooney2","image-keyboard-response","382","1241767","0.0-6.0-5.53","2510106","co38407","norming","","","","","","",""
"2478","","","post_reveal_questions","survey-likert","383","1244248","0.0-6.0-6.53","2510106","co38407","norming","","","{""aha"":5}","[0]","../img/tt/477tt.jpg","",""
"null","<div style=""font-size:60px;""> </div>","null","fixation","html-keyboard-response","384","1244451","0.0-6.0-0.54","2510106","co38407","norming","","","","","","",""
"null","../img/tt/1217tt.jpg","null","mooney1","image-keyboard-response","385","1247453","0.0-6.0-1.54","2510106","co38407","norming","","","","","","",""
"5728","","","post_mooney1_questions","survey-likert","386","1253183","0.0-6.0-2.54","2510106","co38407","norming","","","{""curiosity"":4,""confidence"":1}","[0,1]","../img/tt/1217tt.jpg","",""
"3961","","","recognition","survey-text","387","1257152","0.0-6.0-3.54","2510106","co38407","norming","","","{""guess"":""a person in a sportsuniform""}","","../img/tt/1217tt.jpg","",""
"null","../img/gs/1217gs.jpg","null","reveal","image-keyboard-response","388","1259155","0.0-6.0-4.54","2510106","co38407","norming","","","","","","",""
"null","../img/tt/1217tt.jpg","null","mooney2","image-keyboard-response","389","1261158","0.0-6.0-5.54","2510106","co38407","norming","","","","","","",""
"3689.999999999767","","","post_reveal_questions","survey-likert","390","1264850","0.0-6.0-6.54","2510106","co38407","norming","","","{""aha"":4}","[0]","../img/tt/1217tt.jpg","",""
"null","<div style=""font-size:60px;""> </div>","null","fixation","html-keyboard-response","391","1265055","0.0-6.0-0.55","2510106","co38407","norming","","","","","","",""
"null","../img/tt/1261tt.jpg","null","mooney1","image-keyboard-response","392","1268057","0.0-6.0-1.55","2510106","co38407","norming","","","","","","",""
"3920","","","post_mooney1_questions","survey-likert","393","1271979","0.0-6.0-2.55","2510106","co38407","norming","","","{""curiosity"":4,""confidence"":2}","[0,1]","../img/tt/1261tt.jpg","",""
"2288","","","recognition","survey-text","394","1274276","0.0-6.0-3.55","2510106","co38407","norming","","","{""guess"":""a hamster""}","","../img/tt/1261tt.jpg","",""
"null","../img/gs/1261gs.jpg","null","reveal","image-keyboard-response","395","1276279","0.0-6.0-4.55","2510106","co38407","norming","","","","","","",""
"null","../img/tt/1261tt.jpg","null","mooney2","image-keyboard-response","396","1278281","0.0-6.0-5.55","2510106","co38407","norming","","","","","","",""
"2100","","","post_reveal_questions","survey-likert","397","1280383","0.0-6.0-6.55","2510106","co38407","norming","","","{""aha"":3}","[0]","../img/tt/1261tt.jpg","",""
"null","<div style=""font-size:60px;""> </div>","null","fixation","html-keyboard-response","398","1280586","0.0-6.0-0.56","2510106","co38407","norming","","","","","","",""
"null","../img/tt/1044tt.jpg","null","mooney1","image-keyboard-response","399","1283589","0.0-6.0-1.56","2510106","co38407","norming","","","","","","",""
"5105","","","post_mooney1_questions","survey-likert","400","1288695","0.0-6.0-2.56","2510106","co38407","norming","","","{""curiosity"":4,""confidence"":2}","[0,1]","../img/tt/1044tt.jpg","",""
"1084.0000000002328","","","recognition","survey-text","401","1289786","0.0-6.0-3.56","2510106","co38407","norming","","","{""guess"":""a horse""}","","../img/tt/1044tt.jpg","",""
"null","../img/gs/1044gs.jpg","null","reveal","image-keyboard-response","402","1291788","0.0-6.0-4.56","2510106","co38407","norming","","","","","","",""
"null","../img/tt/1044tt.jpg","null","mooney2","image-keyboard-response","403","1293791","0.0-6.0-5.56","2510106","co38407","norming","","","","","","",""
"1984","","","post_reveal_questions","survey-likert","404","1295778","0.0-6.0-6.56","2510106","co38407","norming","","","{""aha"":5}","[0]","../img/tt/1044tt.jpg","",""
"null","<div style=""font-size:60px;""> </div>","null","fixation","html-keyboard-response","405","1295982","0.0-6.0-0.57","2510106","co38407","norming","","","","","","",""
"null","../img/tt/270tt.jpg","null","mooney1","image-keyboard-response","406","1298984","0.0-6.0-1.57","2510106","co38407","norming","","","","","","",""
"4050","","","post_mooney1_questions","survey-likert","407","1303035","0.0-6.0-2.57","2510106","co38407","norming","","","{""curiosity"":3,""confidence"":0}","[0,1]","../img/tt/270tt.jpg","",""
"1282","","","recognition","survey-text","408","1304325","0.0-6.0-3.57","2510106","co38407","norming","","","{""guess"":""""}","","../img/tt/270tt.jpg","",""
"null","../img/gs/270gs.jpg","null","reveal","image-keyboard-response","409","1306328","0.0-6.0-4.57","2510106","co38407","norming","","","","","","",""
"null","../img/tt/270tt.jpg","null","mooney2","image-keyboard-response","410","1308330","0.0-6.0-5.57","2510106","co38407","norming","","","","","","",""
"2958","","","post_reveal_questions","survey-likert","411","1311291","0.0-6.0-6.57","2510106","co38407","norming","","","{""aha"":4}","[0]","../img/tt/270tt.jpg","",""
"null","<div style=""font-size:60px;""> </div>","null","fixation","html-keyboard-response","412","1311493","0.0-6.0-0.58","2510106","co38407","norming","","","","","","",""
"null","../img/tt/076tt.jpg","null","mooney1","image-keyboard-response","413","1314496","0.0-6.0-1.58","2510106","co38407","norming","","","","","","",""
"3345.000000000233","","","post_mooney1_questions","survey-likert","414","1317844","0.0-6.0-2.58","2510106","co38407","norming","","","{""curiosity"":4,""confidence"":3}","[0,1]","../img/tt/076tt.jpg","",""
"5261.000000000233","","","recognition","survey-text","415","1323113","0.0-6.0-3.58","2510106","co38407","norming","","","{""guess"":""skates (for ice skating)""}","","../img/tt/076tt.jpg","",""
"null","../img/gs/076gs.jpg","null","reveal","image-keyboard-response","416","1325116","0.0-6.0-4.58","2510106","co38407","norming","","","","","","",""
"null","../img/tt/076tt.jpg","null","mooney2","image-keyboard-response","417","1327119","0.0-6.0-5.58","2510106","co38407","norming","","","","","","",""
"2169","","","post_reveal_questions","survey-likert","418","1329290","0.0-6.0-6.58","2510106","co38407","norming","","","{""aha"":4}","[0]","../img/tt/076tt.jpg","",""
"null","<div style=""font-size:60px;""> </div>","null","fixation","html-keyboard-response","419","1329493","0.0-6.0-0.59","2510106","co38407","norming","","","","","","",""
"null","../img/tt/1224tt.jpg","null","mooney1","image-keyboard-response","420","1332496","0.0-6.0-1.59","2510106","co38407","norming","","","","","","",""
"5129.999999999767","","","post_mooney1_questions","survey-likert","421","1337628","0.0-6.0-2.59","2510106","co38407","norming","","","{""curiosity"":4,""confidence"":1}","[0,1]","../img/tt/1224tt.jpg","",""
"5790","","","recognition","survey-text","422","1343426","0.0-6.0-3.59","2510106","co38407","norming","","","{""guess"":""a person""}","","../img/tt/1224tt.jpg","",""
"null","../img/gs/1224gs.jpg","null","reveal","image-keyboard-response","423","1345429","0.0-6.0-4.59","2510106","co38407","norming","","","","","","",""
"null","../img/tt/1224tt.jpg","null","mooney2","image-keyboard-response","424","1347432","0.0-6.0-5.59","2510106","co38407","norming","","","","","","",""
"2158","","","post_reveal_questions","survey-likert","425","1349592","0.0-6.0-6.59","2510106","co38407","norming","","","{""aha"":4}","[0]","../img/tt/1224tt.jpg","",""
"null","<div style=""font-size:60px;""> </div>","null","fixation","html-keyboard-response","426","1349796","0.0-6.0-0.60","2510106","co38407","norming","","","","","","",""
"null","../img/tt/1363tt.jpg","null","mooney1","image-keyboard-response","427","1352798","0.0-6.0-1.60","2510106","co38407","norming","","","","","","",""
"4113","","","post_mooney1_questions","survey-likert","428","1356914","0.0-6.0-2.60","2510106","co38407","norming","","","{""curiosity"":3,""confidence"":0}","[0,1]","../img/tt/1363tt.jpg","",""
"901","","","recognition","survey-text","429","1357824","0.0-6.0-3.60","2510106","co38407","norming","","","{""guess"":""""}","","../img/tt/1363tt.jpg","",""
"null","../img/gs/1363gs.jpg","null","reveal","image-keyboard-response","430","1359826","0.0-6.0-4.60","2510106","co38407","norming","","","","","","",""
"null","../img/tt/1363tt.jpg","null","mooney2","image-keyboard-response","431","1361829","0.0-6.0-5.60","2510106","co38407","norming","","","","","","",""
"6477","","","post_reveal_questions","survey-likert","432","1368308","0.0-6.0-6.60","2510106","co38407","norming","","","{""aha"":3}","[0]","../img/tt/1363tt.jpg","",""
"null","<div style=""font-size:60px;""> </div>","null","fixation","html-keyboard-response","433","1368512","0.0-6.0-0.61","2510106","co38407","norming","","","","","","",""
"null","../img/tt/056tt.jpg","null","mooney1","image-keyboard-response","434","1371515","0.0-6.0-1.61","2510106","co38407","norming","","","","","","",""
"3578","","","post_mooney1_questions","survey-likert","435","1375094","0.0-6.0-2.61","2510106","co38407","norming","","","{""curiosity"":3,""confidence"":2}","[0,1]","../img/tt/056tt.jpg","",""
"1762.0000000002328","","","recognition","survey-text","436","1376864","0.0-6.0-3.61","2510106","co38407","norming","","","{""guess"":""a wolf""}","","../img/tt/056tt.jpg","",""
"null","../img/gs/056gs.jpg","null","reveal","image-keyboard-response","437","1378867","0.0-6.0-4.61","2510106","co38407","norming","","","","","","",""
"null","../img/tt/056tt.jpg","null","mooney2","image-keyboard-response","438","1380869","0.0-6.0-5.61","2510106","co38407","norming","","","","","","",""
"2148","","","post_reveal_questions","survey-likert","439","1383019","0.0-6.0-6.61","2510106","co38407","norming","","","{""aha"":4}","[0]","../img/tt/056tt.jpg","",""
"null","<div style=""font-size:60px;""> </div>","null","fixation","html-keyboard-response","440","1383223","0.0-6.0-0.62","2510106","co38407","norming","","","","","","",""
"null","../img/tt/1189tt.jpg","null","mooney1","image-keyboard-response","441","1386225","0.0-6.0-1.62","2510106","co38407","norming","","","","","","",""
"4017","","","post_mooney1_questions","survey-likert","442","1390245","0.0-6.0-2.62","2510106","co38407","norming","","","{""curiosity"":4,""confidence"":0}","[0,1]","../img/tt/1189tt.jpg","",""
"1210","","","recognition","survey-text","443","1391464","0.0-6.0-3.62","2510106","co38407","norming","","","{""guess"":""""}","","../img/tt/1189tt.jpg","",""
"null","../img/gs/1189gs.jpg","null","reveal","image-keyboard-response","444","1393467","0.0-6.0-4.62","2510106","co38407","norming","","","","","","",""
"null","../img/tt/1189tt.jpg","null","mooney2","image-keyboard-response","445","1395469","0.0-6.0-5.62","2510106","co38407","norming","","","","","","",""
"1923.9999999997672","","","post_reveal_questions","survey-likert","446","1397394","0.0-6.0-6.62","2510106","co38407","norming","","","{""aha"":4}","[0]","../img/tt/1189tt.jpg","",""
"null","<div style=""font-size:60px;""> </div>","null","fixation","html-keyboard-response","447","1397598","0.0-6.0-0.63","2510106","co38407","norming","","","","","","",""
"null","../img/tt/1275tt.jpg","null","mooney1","image-keyboard-response","448","1400600","0.0-6.0-1.63","2510106","co38407","norming","","","","","","",""
"5396","","","post_mooney1_questions","survey-likert","449","1405999","0.0-6.0-2.63","2510106","co38407","norming","","","{""curiosity"":1,""confidence"":4}","[0,1]","../img/tt/1275tt.jpg","",""
"1613","","","recognition","survey-text","450","1407620","0.0-6.0-3.63","2510106","co38407","norming","","","{""guess"":""zwijn""}","","../img/tt/1275tt.jpg","",""
"null","../img/gs/1275gs.jpg","null","reveal","image-keyboard-response","451","1409622","0.0-6.0-4.63","2510106","co38407","norming","","","","","","",""
"null","../img/tt/1275tt.jpg","null","mooney2","image-keyboard-response","452","1411624","0.0-6.0-5.63","2510106","co38407","norming","","","","","","",""
"1757","","","post_reveal_questions","survey-likert","453","1413383","0.0-6.0-6.63","2510106","co38407","norming","","","{""aha"":2}","[0]","../img/tt/1275tt.jpg","",""
"null","<div style=""font-size:60px;""> </div>","null","fixation","html-keyboard-response","454","1413586","0.0-6.0-0.64","2510106","co38407","norming","","","","","","",""
"null","../img/tt/1283tt.jpg","null","mooney1","image-keyboard-response","455","1416589","0.0-6.0-1.64","2510106","co38407","norming","","","","","","",""
"8855","","","post_mooney1_questions","survey-likert","456","1425446","0.0-6.0-2.64","2510106","co38407","norming","","","{""curiosity"":3,""confidence"":1}","[0,1]","../img/tt/1283tt.jpg","",""
"2071","","","recognition","survey-text","457","1427522","0.0-6.0-3.64","2510106","co38407","norming","","","{""guess"":""a monkey""}","","../img/tt/1283tt.jpg","",""
"null","../img/gs/1283gs.jpg","null","reveal","image-keyboard-response","458","1429524","0.0-6.0-4.64","2510106","co38407","norming","","","","","","",""
"null","../img/tt/1283tt.jpg","null","mooney2","image-keyboard-response","459","1431526","0.0-6.0-5.64","2510106","co38407","norming","","","","","","",""
"1835","","","post_reveal_questions","survey-likert","460","1433363","0.0-6.0-6.64","2510106","co38407","norming","","","{""aha"":3}","[0]","../img/tt/1283tt.jpg","",""
"null","<div style=""font-size:60px;""> </div>","null","fixation","html-keyboard-response","461","1433566","0.0-6.0-0.65","2510106","co38407","norming","","","","","","",""
"null","../img/tt/300tt.jpg","null","mooney1","image-keyboard-response","462","1436568","0.0-6.0-1.65","2510106","co38407","norming","","","","","","",""
"5620","","","post_mooney1_questions","survey-likert","463","1442190","0.0-6.0-2.65","2510106","co38407","norming","","","{""curiosity"":3,""confidence"":2}","[0,1]","../img/tt/300tt.jpg","",""
"4042","","","recognition","survey-text","464","1446240","0.0-6.0-3.65","2510106","co38407","norming","","","{""guess"":""tennisplayer""}","","../img/tt/300tt.jpg","",""
"null","../img/gs/300gs.jpg","null","reveal","image-keyboard-response","465","1448242","0.0-6.0-4.65","2510106","co38407","norming","","","","","","",""
"null","../img/tt/300tt.jpg","null","mooney2","image-keyboard-response","466","1450244","0.0-6.0-5.65","2510106","co38407","norming","","","","","","",""
"2889","","","post_reveal_questions","survey-likert","467","1453134","0.0-6.0-6.65","2510106","co38407","norming","","","{""aha"":4}","[0]","../img/tt/300tt.jpg","",""
"null","<div style=""font-size:60px;""> </div>","null","fixation","html-keyboard-response","468","1453336","0.0-6.0-0.66","2510106","co38407","norming","","","","","","",""
"null","../img/tt/440tt.jpg","null","mooney1","image-keyboard-response","469","1456338","0.0-6.0-1.66","2510106","co38407","norming","","","","","","",""
"4632","","","post_mooney1_questions","survey-likert","470","1460972","0.0-6.0-2.66","2510106","co38407","norming","","","{""curiosity"":3,""confidence"":1}","[0,1]","../img/tt/440tt.jpg","",""
"2942","","","recognition","survey-text","471","1463920","0.0-6.0-3.66","2510106","co38407","norming","","","{""guess"":""a cage""}","","../img/tt/440tt.jpg","",""
"null","../img/gs/440gs.jpg","null","reveal","image-keyboard-response","472","1465922","0.0-6.0-4.66","2510106","co38407","norming","","","","","","",""
"null","../img/tt/440tt.jpg","null","mooney2","image-keyboard-response","473","1467924","0.0-6.0-5.66","2510106","co38407","norming","","","","","","",""
"2153","","","post_reveal_questions","survey-likert","474","1470080","0.0-6.0-6.66","2510106","co38407","norming","","","{""aha"":5}","[0]","../img/tt/440tt.jpg","",""
"null","<div style=""font-size:60px;""> </div>","null","fixation","html-keyboard-response","475","1470283","0.0-6.0-0.67","2510106","co38407","norming","","","","","","",""
"null","../img/tt/1123tt.jpg","null","mooney1","image-keyboard-response","476","1473285","0.0-6.0-1.67","2510106","co38407","norming","","","","","","",""
"5342","","","post_mooney1_questions","survey-likert","477","1478629","0.0-6.0-2.67","2510106","co38407","norming","","","{""curiosity"":3,""confidence"":2}","[0,1]","../img/tt/1123tt.jpg","",""
"3033","","","recognition","survey-text","478","1481671","0.0-6.0-3.67","2510106","co38407","norming","","","{""guess"":""soccer""}","","../img/tt/1123tt.jpg","",""
"null","../img/gs/1123gs.jpg","null","reveal","image-keyboard-response","479","1483673","0.0-6.0-4.67","2510106","co38407","norming","","","","","","",""
"null","../img/tt/1123tt.jpg","null","mooney2","image-keyboard-response","480","1485676","0.0-6.0-5.67","2510106","co38407","norming","","","","","","",""
"2575","","","post_reveal_questions","survey-likert","481","1488254","0.0-6.0-6.67","2510106","co38407","norming","","","{""aha"":4}","[0]","../img/tt/1123tt.jpg","",""
"null","<div style=""font-size:60px;""> </div>","null","fixation","html-keyboard-response","482","1488457","0.0-6.0-0.68","2510106","co38407","norming","","","","","","",""
"null","../img/tt/418tt.jpg","null","mooney1","image-keyboard-response","483","1491460","0.0-6.0-1.68","2510106","co38407","norming","","","","","","",""
"3582","","","post_mooney1_questions","survey-likert","484","1495044","0.0-6.0-2.68","2510106","co38407","norming","","","{""curiosity"":3,""confidence"":1}","[0,1]","../img/tt/418tt.jpg","",""
"1316.0000000002328","","","recognition","survey-text","485","1496368","0.0-6.0-3.68","2510106","co38407","norming","","","{""guess"":""fruit""}","","../img/tt/418tt.jpg","",""
"null","../img/gs/418gs.jpg","null","reveal","image-keyboard-response","486","1498371","0.0-6.0-4.68","2510106","co38407","norming","","","","","","",""
"null","../img/tt/418tt.jpg","null","mooney2","image-keyboard-response","487","1500373","0.0-6.0-5.68","2510106","co38407","norming","","","","","","",""
"2418","","","post_reveal_questions","survey-likert","488","1502794","0.0-6.0-6.68","2510106","co38407","norming","","","{""aha"":3}","[0]","../img/tt/418tt.jpg","",""
"null","<div style=""font-size:60px;""> </div>","null","fixation","html-keyboard-response","489","1502997","0.0-6.0-0.69","2510106","co38407","norming","","","","","","",""
"null","../img/tt/1086tt.jpg","null","mooney1","image-keyboard-response","490","1505999","0.0-6.0-1.69","2510106","co38407","norming","","","","","","",""
"6782","","","post_mooney1_questions","survey-likert","491","1512784","0.0-6.0-2.69","2510106","co38407","norming","","","{""curiosity"":2,""confidence"":2}","[0,1]","../img/tt/1086tt.jpg","",""
"836","","","recognition","survey-text","492","1513625","0.0-6.0-3.69","2510106","co38407","norming","","","{""guess"":""dogs""}","","../img/tt/1086tt.jpg","",""
"null","../img/gs/1086gs.jpg","null","reveal","image-keyboard-response","493","1515626","0.0-6.0-4.69","2510106","co38407","norming","","","","","","",""
"null","../img/tt/1086tt.jpg","null","mooney2","image-keyboard-response","494","1517628","0.0-6.0-5.69","2510106","co38407","norming","","","","","","",""
"1916","","","post_reveal_questions","survey-likert","495","1519545","0.0-6.0-6.69","2510106","co38407","norming","","","{""aha"":3}","[0]","../img/tt/1086tt.jpg","",""
"null","<div style=""font-size:60px;""> </div>","null","fixation","html-keyboard-response","496","1519747","0.0-6.0-0.70","2510106","co38407","norming","","","","","","",""
"null","../img/tt/1251tt.jpg","null","mooney1","image-keyboard-response","497","1522750","0.0-6.0-1.70","2510106","co38407","norming","","","","","","",""
"2900","","","post_mooney1_questions","survey-likert","498","1525651","0.0-6.0-2.70","2510106","co38407","norming","","","{""curiosity"":1,""confidence"":4}","[0,1]","../img/tt/1251tt.jpg","",""
"994.9999999997672","","","recognition","survey-text","499","1526652","0.0-6.0-3.70","2510106","co38407","norming","","","{""guess"":""a bear""}","","../img/tt/1251tt.jpg","",""
"null","../img/gs/1251gs.jpg","null","reveal","image-keyboard-response","500","1528655","0.0-6.0-4.70","2510106","co38407","norming","","","","","","",""
"null","../img/tt/1251tt.jpg","null","mooney2","image-keyboard-response","501","1530657","0.0-6.0-5.70","2510106","co38407","norming","","","","","","",""
"2698","","","post_reveal_questions","survey-likert","502","1533356","0.0-6.0-6.70","2510106","co38407","norming","","","{""aha"":1}","[0]","../img/tt/1251tt.jpg","",""
"null","<div style=""font-size:60px;""> </div>","null","fixation","html-keyboard-response","503","1533559","0.0-6.0-0.71","2510106","co38407","norming","","","","","","",""
"null","../img/tt/378tt.jpg","null","mooney1","image-keyboard-response","504","1536562","0.0-6.0-1.71","2510106","co38407","norming","","","","","","",""
"3319","","","post_mooney1_questions","survey-likert","505","1539883","0.0-6.0-2.71","2510106","co38407","norming","","","{""curiosity"":4,""confidence"":2}","[0,1]","../img/tt/378tt.jpg","",""
"3152.000000000233","","","recognition","survey-text","506","1543042","0.0-6.0-3.71","2510106","co38407","norming","","","{""guess"":""an animal""}","","../img/tt/378tt.jpg","",""
"null","../img/gs/378gs.jpg","null","reveal","image-keyboard-response","507","1545044","0.0-6.0-4.71","2510106","co38407","norming","","","","","","",""
"null","../img/tt/378tt.jpg","null","mooney2","image-keyboard-response","508","1547045","0.0-6.0-5.71","2510106","co38407","norming","","","","","","",""
"3522","","","post_reveal_questions","survey-likert","509","1550568","0.0-6.0-6.71","2510106","co38407","norming","","","{""aha"":4}","[0]","../img/tt/378tt.jpg","",""
"null","<div style=""font-size:60px;""> </div>","null","fixation","html-keyboard-response","510","1550771","0.0-6.0-0.72","2510106","co38407","norming","","","","","","",""
"null","../img/tt/052tt.jpg","null","mooney1","image-keyboard-response","511","1553774","0.0-6.0-1.72","2510106","co38407","norming","","","","","","",""
"8360","","","post_mooney1_questions","survey-likert","512","1562136","0.0-6.0-2.72","2510106","co38407","norming","","","{""curiosity"":4,""confidence"":1}","[0,1]","../img/tt/052tt.jpg","",""
"4012","","","recognition","survey-text","513","1566157","0.0-6.0-3.72","2510106","co38407","norming","","","{""guess"":""a piano""}","","../img/tt/052tt.jpg","",""
"null","../img/gs/052gs.jpg","null","reveal","image-keyboard-response","514","1568159","0.0-6.0-4.72","2510106","co38407","norming","","","","","","",""
"null","../img/tt/052tt.jpg","null","mooney2","image-keyboard-response","515","1570162","0.0-6.0-5.72","2510106","co38407","norming","","","","","","",""
"6874","","","post_reveal_questions","survey-likert","516","1577038","0.0-6.0-6.72","2510106","co38407","norming","","","{""aha"":4}","[0]","../img/tt/052tt.jpg","",""
"null","<div style=""font-size:60px;""> </div>","null","fixation","html-keyboard-response","517","1577241","0.0-6.0-0.73","2510106","co38407","norming","","","","","","",""
"null","../img/tt/1033tt.jpg","null","mooney1","image-keyboard-response","518","1580244","0.0-6.0-1.73","2510106","co38407","norming","","","","","","",""
"4786.999999999767","","","post_mooney1_questions","survey-likert","519","1585033","0.0-6.0-2.73","2510106","co38407","norming","","","{""curiosity"":2,""confidence"":0}","[0,1]","../img/tt/1033tt.jpg","",""
"1084","","","recognition","survey-text","520","1586125","0.0-6.0-3.73","2510106","co38407","norming","","","{""guess"":""""}","","../img/tt/1033tt.jpg","",""
"null","../img/gs/1033gs.jpg","null","reveal","image-keyboard-response","521","1588128","0.0-6.0-4.73","2510106","co38407","norming","","","","","","",""
"null","../img/tt/1033tt.jpg","null","mooney2","image-keyboard-response","522","1590130","0.0-6.0-5.73","2510106","co38407","norming","","","","","","",""
"2215","","","post_reveal_questions","survey-likert","523","1592347","0.0-6.0-6.73","2510106","co38407","norming","","","{""aha"":4}","[0]","../img/tt/1033tt.jpg","",""
"null","<div style=""font-size:60px;""> </div>","null","fixation","html-keyboard-response","524","1592550","0.0-6.0-0.74","2510106","co38407","norming","","","","","","",""
"null","../img/tt/098tt.jpg","null","mooney1","image-keyboard-response","525","1595553","0.0-6.0-1.74","2510106","co38407","norming","","","","","","",""
"3344.000000000233","","","post_mooney1_questions","survey-likert","526","1598899","0.0-6.0-2.74","2510106","co38407","norming","","","{""curiosity"":1,""confidence"":0}","[0,1]","../img/tt/098tt.jpg","",""
"720","","","recognition","survey-text","527","1599627","0.0-6.0-3.74","2510106","co38407","norming","","","{""guess"":""""}","","../img/tt/098tt.jpg","",""
"null","../img/gs/098gs.jpg","null","reveal","image-keyboard-response","528","1601630","0.0-6.0-4.74","2510106","co38407","norming","","","","","","",""
"null","../img/tt/098tt.jpg","null","mooney2","image-keyboard-response","529","1603633","0.0-6.0-5.74","2510106","co38407","norming","","","","","","",""
"4748.000000000233","","","post_reveal_questions","survey-likert","530","1608391","0.0-6.0-6.74","2510106","co38407","norming","","","{""aha"":2}","[0]","../img/tt/098tt.jpg","",""
"null","<div style=""font-size:60px;""> </div>","null","fixation","html-keyboard-response","531","1608595","0.0-6.0-0.75","2510106","co38407","norming","","","","","","",""
"null","../img/tt/222tt.jpg","null","mooney1","image-keyboard-response","532","1611597","0.0-6.0-1.75","2510106","co38407","norming","","","","","","",""
"3020","","","post_mooney1_questions","survey-likert","533","1614618","0.0-6.0-2.75","2510106","co38407","norming","","","{""curiosity"":4,""confidence"":2}","[0,1]","../img/tt/222tt.jpg","",""
"752","","","recognition","survey-text","534","1615379","0.0-6.0-3.75","2510106","co38407","norming","","","{""guess"":""tea""}","","../img/tt/222tt.jpg","",""
"null","../img/gs/222gs.jpg","null","reveal","image-keyboard-response","535","1617381","0.0-6.0-4.75","2510106","co38407","norming","","","","","","",""
"null","../img/tt/222tt.jpg","null","mooney2","image-keyboard-response","536","1619382","0.0-6.0-5.75","2510106","co38407","norming","","","","","","",""
"2762","","","post_reveal_questions","survey-likert","537","1622146","0.0-6.0-6.75","2510106","co38407","norming","","","{""aha"":3}","[0]","../img/tt/222tt.jpg","",""
"null","<div style=""font-size:60px;""> </div>","null","fixation","html-keyboard-response","538","1622347","0.0-6.0-0.76","2510106","co38407","norming","","","","","","",""
"null","../img/tt/040tt.jpg","null","mooney1","image-keyboard-response","539","1625349","0.0-6.0-1.76","2510106","co38407","norming","","","","","","",""
"4821","","","post_mooney1_questions","survey-likert","540","1630172","0.0-6.0-2.76","2510106","co38407","norming","","","{""curiosity"":4,""confidence"":1}","[0,1]","../img/tt/040tt.jpg","",""
"4571","","","recognition","survey-text","541","1634748","0.0-6.0-3.76","2510106","co38407","norming","","","{""guess"":""chameleon ""}","","../img/tt/040tt.jpg","",""
"null","../img/gs/040gs.jpg","null","reveal","image-keyboard-response","542","1636749","0.0-6.0-4.76","2510106","co38407","norming","","","","","","",""
"null","../img/tt/040tt.jpg","null","mooney2","image-keyboard-response","543","1638751","0.0-6.0-5.76","2510106","co38407","norming","","","","","","",""
"2214","","","post_reveal_questions","survey-likert","544","1640966","0.0-6.0-6.76","2510106","co38407","norming","","","{""aha"":4}","[0]","../img/tt/040tt.jpg","",""
"null","<div style=""font-size:60px;""> </div>","null","fixation","html-keyboard-response","545","1641167","0.0-6.0-0.77","2510106","co38407","norming","","","","","","",""
"null","../img/tt/1237tt.jpg","null","mooney1","image-keyboard-response","546","1644169","0.0-6.0-1.77","2510106","co38407","norming","","","","","","",""
"2787.999999999767","","","post_mooney1_questions","survey-likert","547","1646957","0.0-6.0-2.77","2510106","co38407","norming","","","{""curiosity"":1,""confidence"":4}","[0,1]","../img/tt/1237tt.jpg","",""
"1424","","","recognition","survey-text","548","1648386","0.0-6.0-3.77","2510106","co38407","norming","","","{""guess"":""a duck""}","","../img/tt/1237tt.jpg","",""
"null","../img/gs/1237gs.jpg","null","reveal","image-keyboard-response","549","1650388","0.0-6.0-4.77","2510106","co38407","norming","","","","","","",""
"null","../img/tt/1237tt.jpg","null","mooney2","image-keyboard-response","550","1652389","0.0-6.0-5.77","2510106","co38407","norming","","","","","","",""
"3604.999999999767","","","post_reveal_questions","survey-likert","551","1655995","0.0-6.0-6.77","2510106","co38407","norming","","","{""aha"":1}","[0]","../img/tt/1237tt.jpg","",""
"null","<div style=""font-size:60px;""> </div>","null","fixation","html-keyboard-response","552","1656197","0.0-6.0-0.78","2510106","co38407","norming","","","","","","",""
"null","../img/tt/1254tt.jpg","null","mooney1","image-keyboard-response","553","1659198","0.0-6.0-1.78","2510106","co38407","norming","","","","","","",""
"3789","","","post_mooney1_questions","survey-likert","554","1662989","0.0-6.0-2.78","2510106","co38407","norming","","","{""curiosity"":4,""confidence"":2}","[0,1]","../img/tt/1254tt.jpg","",""
"3464","","","recognition","survey-text","555","1666458","0.0-6.0-3.78","2510106","co38407","norming","","","{""guess"":""a rabbit""}","","../img/tt/1254tt.jpg","",""
"null","../img/gs/1254gs.jpg","null","reveal","image-keyboard-response","556","1668459","0.0-6.0-4.78","2510106","co38407","norming","","","","","","",""
"null","../img/tt/1254tt.jpg","null","mooney2","image-keyboard-response","557","1670460","0.0-6.0-5.78","2510106","co38407","norming","","","","","","",""
"2331","","","post_reveal_questions","survey-likert","558","1672793","0.0-6.0-6.78","2510106","co38407","norming","","","{""aha"":0}","[0]","../img/tt/1254tt.jpg","",""
"null","<div style=""font-size:60px;""> </div>","null","fixation","html-keyboard-response","559","1672996","0.0-6.0-0.79","2510106","co38407","norming","","","","","","",""
"null","../img/tt/319tt.jpg","null","mooney1","image-keyboard-response","560","1675999","0.0-6.0-1.79","2510106","co38407","norming","","","","","","",""
"4105","","","post_mooney1_questions","survey-likert","561","1680107","0.0-6.0-2.79","2510106","co38407","norming","","","{""curiosity"":1,""confidence"":5}","[0,1]","../img/tt/319tt.jpg","",""
"1432","","","recognition","survey-text","562","1681548","0.0-6.0-3.79","2510106","co38407","norming","","","{""guess"":""donkeys""}","","../img/tt/319tt.jpg","",""
"null","../img/gs/319gs.jpg","null","reveal","image-keyboard-response","563","1683551","0.0-6.0-4.79","2510106","co38407","norming","","","","","","",""
"null","../img/tt/319tt.jpg","null","mooney2","image-keyboard-response","564","1685554","0.0-6.0-5.79","2510106","co38407","norming","","","","","","",""
"1949.9999999997672","","","post_reveal_questions","survey-likert","565","1687505","0.0-6.0-6.79","2510106","co38407","norming","","","{""aha"":0}","[0]","../img/tt/319tt.jpg","",""
