"rt","stimulus","key_press","test_part","trial_type","trial_index","time_elapsed","internal_node_id","totalTime","subject","experiment_name","button_pressed","success","responses","question_order","currentStim","old","correct"
"7143.975000013597","Welcome to the experiment. This is an online experiment so please don't close the tab/window until we say goodbye.  Press any key to begin.","13","instructions","html-keyboard-response","0","7194","0.0-0.0","3062013","co38587","norming","","","","","","",""
"10656.430000031833","<div style='word-wrap: break-word; width: 900px'><h3>Please consider this information carefully before deciding whether to participate in this research</h3><ul style='text-align: left; font-size: .8em;'><li><b>Purpose of the research</b>: To examine how people process images.</li><li><b>What you will do in this research</b>:  Stimuli (images) will be presented on the computer and you will be asked different questions about them.</li><li><b>Time required</b>: Participation will take between 45 and 60 minutes to complete.</li><li><b>Risks</b>:  There are no anticipated risks associated with participating in this study. The effects of participating should be comparable to those you would experience from viewing a computer monitor for 30 minutes and using a mouse or keyboard.</li><li><b>Benefits</b>:  This study provides no benefits to you individually except for the credit. The study provides important information about the nature of perception and learning.</li><li><b>Confidentiality</b>:  Your participation in this study will remain confidential. No personally identifiable information will be associated with your data. Your de-identified data may be shared with other researchers and used in future projects.</li><li><b>Participation and withdrawal</b>:  Your participation in this study is completely voluntary and you may refuse to participate or you may choose to withdraw at any time without penalty.</li><li><b>How to contact the researchers</b>: If you have questions or concerns about your participation or payment, or want to request a summary of research findings, please contact Sander Van de Cruys (KU Leuven), at sander.vandecruys@kuleuven.be.</li></ul><p>The nature and purpose of this research have been sufficiently explained and I agree to participate in this study.  I understand that I am free to withdraw at any time without incurring any penalty.</p><p>Please consent by clicking the button below to continue. Otherwise, please exit the study at this time.</p></div>","","instructions","html-button-response","1","17854","0.0-1.0","3062013","co38587","norming","0","","","","","",""
"","","","instructions","fullscreen","2","35119","0.0-2.0","3062013","co38587","norming","","true","","","","",""
"21053.90499997884","","","sona","survey-html-form","3","56177","0.0-3.0","3062013","co38587","norming","","","[{""name"":""sonaid"",""value"":""38587""},{""name"":""debrief"",""value"":""yes""},{""name"":""datajoin"",""value"":""yes""}]","","","",""
"72616.70499999309","<div style='word-wrap: break-word; width: 900px'><h3>Instructions</h3><p>This experiment will have 3 parts. In the first part you will see a series of distorted images like the one below on the left. As you can see in the righthand image, the distorted images are derived from actual photographs. In what follows, you will <strong>briefly</strong> be presented with <strong>only</strong> the distorted image.</p> <div style='float: left; margin-right: 20px;'><img src='../img/018tt.jpg' height='250' width='250'></img></div><div style='float: right; margin-left: 20px;'><img src='../img/018gs.jpg' height='250' width='250'></img></div><p>Subsequently you will be asked a few questions about the image: One question on how <strong>curious</strong> you are about the solution and one on how <strong>confident</strong> you are that you know the solution.</p>Next, we ask you to make a guess on what is in the image. Note that it is OK to name just the <strong>basic level category</strong>. For example when you see a parrot in the image, 'parrot' will obviously be a correct answer but also correct is 'bird'. However, 'animal' will <strong>not</strong> be counted as a correct response. For the example above, 'rose' would be correct or 'flower', but not 'plant'. When soccer players are depicted, 'soccer', 'football', 'soccer players' will be correct, but not 'humans', 'outdoors', or 'sports'. You do not need to describe the image in full, just name the main object in it <strong>in one or two words</strong>. All images depict objects from one of the following broad level categories: animals, inanimate objects, plants, sports, vehicles, and food. Recognizing means knowing <strong>more</strong> than these broad labels for a given image. But we always encourage you to <strong>make a guess</strong> if you can. Note that you are allowed to use <strong>Dutch and English</strong> in your answers, whatever comes easiest for you.</p><p>Press any key to continue.</p></div>","13","instructions","html-keyboard-response","4","128796","0.0-4.0","3062013","co38587","norming","","","","","","",""
"20625.520000001416","<div style='word-wrap: break-word; width: 900px'><h3>Instructions</h3> <p>Next, the solution image will be revealed to you and you'll be asked to indicate how strong your <strong>aha-experience</strong> was after seeing the solution. This describes the positive feeling of the 'click' you sometimes experience, when the pieces of the 'puzzle' fall together and you suddenly have 'insight' in the image.</p><img src='aha.jpg' height='188' width='250'></img><p>Note that there are no right or wrong answers. We are interested in what <strong>you</strong> see in the image and how <strong>you</strong> feel about it.</p><p>Press any key to start the experiment.</p></div>","13","instructions","html-keyboard-response","5","149423","0.0-5.0","3062013","co38587","norming","","","","","","",""
"null","<div style=""font-size:60px;""> </div>","null","fixation","html-keyboard-response","6","149635","0.0-6.0-0.0","3062013","co38587","norming","","","","","","",""
"null","../img/tt/279tt.jpg","null","mooney1","image-keyboard-response","7","152650","0.0-6.0-1.0","3062013","co38587","norming","","","","","","",""
"8793.200000014622","","","post_mooney1_questions","survey-likert","8","161446","0.0-6.0-2.0","3062013","co38587","norming","","","{""curiosity"":1,""confidence"":6}","[0,1]","../img/tt/279tt.jpg","",""
"11553.90499997884","","","recognition","survey-text","9","173005","0.0-6.0-3.0","3062013","co38587","norming","","","{""guess"":""Koala""}","","../img/tt/279tt.jpg","",""
"null","../img/gs/279gs.jpg","null","reveal","image-keyboard-response","10","175017","0.0-6.0-4.0","3062013","co38587","norming","","","","","","",""
"null","../img/tt/279tt.jpg","null","mooney2","image-keyboard-response","11","177033","0.0-6.0-5.0","3062013","co38587","norming","","","","","","",""
"3727.634999959264","","","post_reveal_questions","survey-likert","12","180762","0.0-6.0-6.0","3062013","co38587","norming","","","{""aha"":0}","[0]","../img/tt/279tt.jpg","",""
"null","<div style=""font-size:60px;""> </div>","null","fixation","html-keyboard-response","13","180972","0.0-6.0-0.1","3062013","co38587","norming","","","","","","",""
"null","../img/tt/412tt.jpg","null","mooney1","image-keyboard-response","14","183985","0.0-6.0-1.1","3062013","co38587","norming","","","","","","",""
"4754.98000002699","","","post_mooney1_questions","survey-likert","15","188742","0.0-6.0-2.1","3062013","co38587","norming","","","{""curiosity"":5,""confidence"":1}","[0,1]","../img/tt/412tt.jpg","",""
"3850.955000030808","","","recognition","survey-text","16","192596","0.0-6.0-3.1","3062013","co38587","norming","","","{""guess"":""Robot""}","","../img/tt/412tt.jpg","",""
"null","../img/gs/412gs.jpg","null","reveal","image-keyboard-response","17","194601","0.0-6.0-4.1","3062013","co38587","norming","","","","","","",""
"null","../img/tt/412tt.jpg","null","mooney2","image-keyboard-response","18","196612","0.0-6.0-5.1","3062013","co38587","norming","","","","","","",""
"2506.1449999921024","","","post_reveal_questions","survey-likert","19","199120","0.0-6.0-6.1","3062013","co38587","norming","","","{""aha"":4}","[0]","../img/tt/412tt.jpg","",""
"null","<div style=""font-size:60px;""> </div>","null","fixation","html-keyboard-response","20","199324","0.0-6.0-0.2","3062013","co38587","norming","","","","","","",""
"null","../img/tt/418tt.jpg","null","mooney1","image-keyboard-response","21","202335","0.0-6.0-1.2","3062013","co38587","norming","","","","","","",""
"11433.149999997113","","","post_mooney1_questions","survey-likert","22","213771","0.0-6.0-2.2","3062013","co38587","norming","","","{""curiosity"":5,""confidence"":0}","[0,1]","../img/tt/418tt.jpg","",""
"1143.6349999858066","","","recognition","survey-text","23","214918","0.0-6.0-3.2","3062013","co38587","norming","","","{""guess"":""""}","","../img/tt/418tt.jpg","",""
"null","../img/gs/418gs.jpg","null","reveal","image-keyboard-response","24","216928","0.0-6.0-4.2","3062013","co38587","norming","","","","","","",""
"null","../img/tt/418tt.jpg","null","mooney2","image-keyboard-response","25","218931","0.0-6.0-5.2","3062013","co38587","norming","","","","","","",""
"3060.3850000188686","","","post_reveal_questions","survey-likert","26","221994","0.0-6.0-6.2","3062013","co38587","norming","","","{""aha"":5}","[0]","../img/tt/418tt.jpg","",""
"null","<div style=""font-size:60px;""> </div>","null","fixation","html-keyboard-response","27","222196","0.0-6.0-0.3","3062013","co38587","norming","","","","","","",""
"null","../img/tt/194tt.jpg","null","mooney1","image-keyboard-response","28","225200","0.0-6.0-1.3","3062013","co38587","norming","","","","","","",""
"5341.9100000173785","","","post_mooney1_questions","survey-likert","29","230544","0.0-6.0-2.3","3062013","co38587","norming","","","{""curiosity"":4,""confidence"":2}","[0,1]","../img/tt/194tt.jpg","",""
"6766.804999962915","","","recognition","survey-text","30","237315","0.0-6.0-3.3","3062013","co38587","norming","","","{""guess"":""Woman reading""}","","../img/tt/194tt.jpg","",""
"null","../img/gs/194gs.jpg","null","reveal","image-keyboard-response","31","239327","0.0-6.0-4.3","3062013","co38587","norming","","","","","","",""
"null","../img/tt/194tt.jpg","null","mooney2","image-keyboard-response","32","241343","0.0-6.0-5.3","3062013","co38587","norming","","","","","","",""
"3453.799999959301","","","post_reveal_questions","survey-likert","33","244799","0.0-6.0-6.3","3062013","co38587","norming","","","{""aha"":2}","[0]","../img/tt/194tt.jpg","",""
"null","<div style=""font-size:60px;""> </div>","null","fixation","html-keyboard-response","34","245009","0.0-6.0-0.4","3062013","co38587","norming","","","","","","",""
"null","../img/tt/1243tt.jpg","null","mooney1","image-keyboard-response","35","248025","0.0-6.0-1.4","3062013","co38587","norming","","","","","","",""
"5307.209999999031","","","post_mooney1_questions","survey-likert","36","253335","0.0-6.0-2.4","3062013","co38587","norming","","","{""curiosity"":4,""confidence"":1}","[0,1]","../img/tt/1243tt.jpg","",""
"7039.134999969974","","","recognition","survey-text","37","260378","0.0-6.0-3.4","3062013","co38587","norming","","","{""guess"":""person in prison""}","","../img/tt/1243tt.jpg","",""
"null","../img/gs/1243gs.jpg","null","reveal","image-keyboard-response","38","262383","0.0-6.0-4.4","3062013","co38587","norming","","","","","","",""
"null","../img/tt/1243tt.jpg","null","mooney2","image-keyboard-response","39","264393","0.0-6.0-5.4","3062013","co38587","norming","","","","","","",""
"3444.935000035912","","","post_reveal_questions","survey-likert","40","267840","0.0-6.0-6.4","3062013","co38587","norming","","","{""aha"":6}","[0]","../img/tt/1243tt.jpg","",""
"null","<div style=""font-size:60px;""> </div>","null","fixation","html-keyboard-response","41","268052","0.0-6.0-0.5","3062013","co38587","norming","","","","","","",""
"null","../img/tt/357tt.jpg","null","mooney1","image-keyboard-response","42","271057","0.0-6.0-1.5","3062013","co38587","norming","","","","","","",""
"5318.784999952186","","","post_mooney1_questions","survey-likert","43","276378","0.0-6.0-2.5","3062013","co38587","norming","","","{""curiosity"":5,""confidence"":1}","[0,1]","../img/tt/357tt.jpg","",""
"1964.2650000168942","","","recognition","survey-text","44","278345","0.0-6.0-3.5","3062013","co38587","norming","","","{""guess"":""""}","","../img/tt/357tt.jpg","",""
"null","../img/gs/357gs.jpg","null","reveal","image-keyboard-response","45","280359","0.0-6.0-4.5","3062013","co38587","norming","","","","","","",""
"null","../img/tt/357tt.jpg","null","mooney2","image-keyboard-response","46","282366","0.0-6.0-5.5","3062013","co38587","norming","","","","","","",""
"2730.535000038799","","","post_reveal_questions","survey-likert","47","285099","0.0-6.0-6.5","3062013","co38587","norming","","","{""aha"":1}","[0]","../img/tt/357tt.jpg","",""
"null","<div style=""font-size:60px;""> </div>","null","fixation","html-keyboard-response","48","285308","0.0-6.0-0.6","3062013","co38587","norming","","","","","","",""
"null","../img/tt/046tt.jpg","null","mooney1","image-keyboard-response","49","288313","0.0-6.0-1.6","3062013","co38587","norming","","","","","","",""
"6028.409999969881","","","post_mooney1_questions","survey-likert","50","294344","0.0-6.0-2.6","3062013","co38587","norming","","","{""curiosity"":4,""confidence"":0}","[0,1]","../img/tt/046tt.jpg","",""
"1746.3250000146218","","","recognition","survey-text","51","296094","0.0-6.0-3.6","3062013","co38587","norming","","","{""guess"":""""}","","../img/tt/046tt.jpg","",""
"null","../img/gs/046gs.jpg","null","reveal","image-keyboard-response","52","298105","0.0-6.0-4.6","3062013","co38587","norming","","","","","","",""
"null","../img/tt/046tt.jpg","null","mooney2","image-keyboard-response","53","300110","0.0-6.0-5.6","3062013","co38587","norming","","","","","","",""
"2700.025000027381","","","post_reveal_questions","survey-likert","54","302811","0.0-6.0-6.6","3062013","co38587","norming","","","{""aha"":1}","[0]","../img/tt/046tt.jpg","",""
"null","<div style=""font-size:60px;""> </div>","null","fixation","html-keyboard-response","55","303022","0.0-6.0-0.7","3062013","co38587","norming","","","","","","",""
"null","../img/tt/416tt.jpg","null","mooney1","image-keyboard-response","56","306026","0.0-6.0-1.7","3062013","co38587","norming","","","","","","",""
"5324.424999998882","","","post_mooney1_questions","survey-likert","57","311353","0.0-6.0-2.7","3062013","co38587","norming","","","{""curiosity"":4,""confidence"":2}","[0,1]","../img/tt/416tt.jpg","",""
"2049.3850000202656","","","recognition","survey-text","58","313407","0.0-6.0-3.7","3062013","co38587","norming","","","{""guess"":""Park""}","","../img/tt/416tt.jpg","",""
"null","../img/gs/416gs.jpg","null","reveal","image-keyboard-response","59","315412","0.0-6.0-4.7","3062013","co38587","norming","","","","","","",""
"null","../img/tt/416tt.jpg","null","mooney2","image-keyboard-response","60","317415","0.0-6.0-5.7","3062013","co38587","norming","","","","","","",""
"4475.389999977779","","","post_reveal_questions","survey-likert","61","321892","0.0-6.0-6.7","3062013","co38587","norming","","","{""aha"":1}","[0]","../img/tt/416tt.jpg","",""
"null","<div style=""font-size:60px;""> </div>","null","fixation","html-keyboard-response","62","322095","0.0-6.0-0.8","3062013","co38587","norming","","","","","","",""
"null","../img/tt/517tt.jpg","null","mooney1","image-keyboard-response","63","325106","0.0-6.0-1.8","3062013","co38587","norming","","","","","","",""
"3960.17000003485","","","post_mooney1_questions","survey-likert","64","329069","0.0-6.0-2.8","3062013","co38587","norming","","","{""curiosity"":4,""confidence"":3}","[0,1]","../img/tt/517tt.jpg","",""
"2378.3950000070035","","","recognition","survey-text","65","331451","0.0-6.0-3.8","3062013","co38587","norming","","","{""guess"":""Pig""}","","../img/tt/517tt.jpg","",""
"null","../img/gs/517gs.jpg","null","reveal","image-keyboard-response","66","333463","0.0-6.0-4.8","3062013","co38587","norming","","","","","","",""
"null","../img/tt/517tt.jpg","null","mooney2","image-keyboard-response","67","335477","0.0-6.0-5.8","3062013","co38587","norming","","","","","","",""
"4997.499999997672","","","post_reveal_questions","survey-likert","68","340476","0.0-6.0-6.8","3062013","co38587","norming","","","{""aha"":1}","[0]","../img/tt/517tt.jpg","",""
"null","<div style=""font-size:60px;""> </div>","null","fixation","html-keyboard-response","69","340682","0.0-6.0-0.9","3062013","co38587","norming","","","","","","",""
"null","../img/tt/094tt.jpg","null","mooney1","image-keyboard-response","70","343700","0.0-6.0-1.9","3062013","co38587","norming","","","","","","",""
"5259.170000033919","","","post_mooney1_questions","survey-likert","71","348962","0.0-6.0-2.9","3062013","co38587","norming","","","{""curiosity"":5,""confidence"":0}","[0,1]","../img/tt/094tt.jpg","",""
"609.1899999883026","","","recognition","survey-text","72","349574","0.0-6.0-3.9","3062013","co38587","norming","","","{""guess"":""""}","","../img/tt/094tt.jpg","",""
"null","../img/gs/094gs.jpg","null","reveal","image-keyboard-response","73","351591","0.0-6.0-4.9","3062013","co38587","norming","","","","","","",""
"null","../img/tt/094tt.jpg","null","mooney2","image-keyboard-response","74","353595","0.0-6.0-5.9","3062013","co38587","norming","","","","","","",""
"3100.849999987986","","","post_reveal_questions","survey-likert","75","356698","0.0-6.0-6.9","3062013","co38587","norming","","","{""aha"":5}","[0]","../img/tt/094tt.jpg","",""
"null","<div style=""font-size:60px;""> </div>","null","fixation","html-keyboard-response","76","356905","0.0-6.0-0.10","3062013","co38587","norming","","","","","","",""
"null","../img/tt/1186tt.jpg","null","mooney1","image-keyboard-response","77","359907","0.0-6.0-1.10","3062013","co38587","norming","","","","","","",""
"4859.244999999646","","","post_mooney1_questions","survey-likert","78","364770","0.0-6.0-2.10","3062013","co38587","norming","","","{""curiosity"":5,""confidence"":1}","[0,1]","../img/tt/1186tt.jpg","",""
"4618.224999983795","","","recognition","survey-text","79","369392","0.0-6.0-3.10","3062013","co38587","norming","","","{""guess"":""Plane""}","","../img/tt/1186tt.jpg","",""
"null","../img/gs/1186gs.jpg","null","reveal","image-keyboard-response","80","371409","0.0-6.0-4.10","3062013","co38587","norming","","","","","","",""
"null","../img/tt/1186tt.jpg","null","mooney2","image-keyboard-response","81","373414","0.0-6.0-5.10","3062013","co38587","norming","","","","","","",""
"4061.4800000330433","","","post_reveal_questions","survey-likert","82","377478","0.0-6.0-6.10","3062013","co38587","norming","","","{""aha"":2}","[0]","../img/tt/1186tt.jpg","",""
"null","<div style=""font-size:60px;""> </div>","null","fixation","html-keyboard-response","83","377691","0.0-6.0-0.11","3062013","co38587","norming","","","","","","",""
"null","../img/tt/1290tt.jpg","null","mooney1","image-keyboard-response","84","380705","0.0-6.0-1.11","3062013","co38587","norming","","","","","","",""
"7940.469999972265","","","post_mooney1_questions","survey-likert","85","388648","0.0-6.0-2.11","3062013","co38587","norming","","","{""curiosity"":5,""confidence"":1}","[0,1]","../img/tt/1290tt.jpg","",""
"2398.219999973662","","","recognition","survey-text","86","391050","0.0-6.0-3.11","3062013","co38587","norming","","","{""guess"":""bomb""}","","../img/tt/1290tt.jpg","",""
"null","../img/gs/1290gs.jpg","null","reveal","image-keyboard-response","87","393064","0.0-6.0-4.11","3062013","co38587","norming","","","","","","",""
"null","../img/tt/1290tt.jpg","null","mooney2","image-keyboard-response","88","395071","0.0-6.0-5.11","3062013","co38587","norming","","","","","","",""
"4219.809999980498","","","post_reveal_questions","survey-likert","89","399292","0.0-6.0-6.11","3062013","co38587","norming","","","{""aha"":4}","[0]","../img/tt/1290tt.jpg","",""
"null","<div style=""font-size:60px;""> </div>","null","fixation","html-keyboard-response","90","399496","0.0-6.0-0.12","3062013","co38587","norming","","","","","","",""
"null","../img/tt/1363tt.jpg","null","mooney1","image-keyboard-response","91","402502","0.0-6.0-1.12","3062013","co38587","norming","","","","","","",""
"4374.290000007022","","","post_mooney1_questions","survey-likert","92","406879","0.0-6.0-2.12","3062013","co38587","norming","","","{""curiosity"":4,""confidence"":1}","[0,1]","../img/tt/1363tt.jpg","",""
"1482.4249999946915","","","recognition","survey-text","93","408365","0.0-6.0-3.12","3062013","co38587","norming","","","{""guess"":""lamp""}","","../img/tt/1363tt.jpg","",""
"null","../img/gs/1363gs.jpg","null","reveal","image-keyboard-response","94","410375","0.0-6.0-4.12","3062013","co38587","norming","","","","","","",""
"null","../img/tt/1363tt.jpg","null","mooney2","image-keyboard-response","95","412377","0.0-6.0-5.12","3062013","co38587","norming","","","","","","",""
"3504.365000000689","","","post_reveal_questions","survey-likert","96","415884","0.0-6.0-6.12","3062013","co38587","norming","","","{""aha"":4}","[0]","../img/tt/1363tt.jpg","",""
"null","<div style=""font-size:60px;""> </div>","null","fixation","html-keyboard-response","97","416086","0.0-6.0-0.13","3062013","co38587","norming","","","","","","",""
"null","../img/tt/1148tt.jpg","null","mooney1","image-keyboard-response","98","419093","0.0-6.0-1.13","3062013","co38587","norming","","","","","","",""
"4897.6350000011735","","","post_mooney1_questions","survey-likert","99","423993","0.0-6.0-2.13","3062013","co38587","norming","","","{""curiosity"":5,""confidence"":2}","[0,1]","../img/tt/1148tt.jpg","",""
"9045.264999964274","","","recognition","survey-text","100","433042","0.0-6.0-3.13","3062013","co38587","norming","","","{""guess"":""Person in helicopter""}","","../img/tt/1148tt.jpg","",""
"null","../img/gs/1148gs.jpg","null","reveal","image-keyboard-response","101","435055","0.0-6.0-4.13","3062013","co38587","norming","","","","","","",""
"null","../img/tt/1148tt.jpg","null","mooney2","image-keyboard-response","102","437065","0.0-6.0-5.13","3062013","co38587","norming","","","","","","",""
"3354.7399999806657","","","post_reveal_questions","survey-likert","103","440422","0.0-6.0-6.13","3062013","co38587","norming","","","{""aha"":4}","[0]","../img/tt/1148tt.jpg","",""
"null","<div style=""font-size:60px;""> </div>","null","fixation","html-keyboard-response","104","440637","0.0-6.0-0.14","3062013","co38587","norming","","","","","","",""
"null","../img/tt/1250tt.jpg","null","mooney1","image-keyboard-response","105","443640","0.0-6.0-1.14","3062013","co38587","norming","","","","","","",""
"6644.944999949075","","","post_mooney1_questions","survey-likert","106","450287","0.0-6.0-2.14","3062013","co38587","norming","","","{""curiosity"":5,""confidence"":0}","[0,1]","../img/tt/1250tt.jpg","",""
"483.0049999873154","","","recognition","survey-text","107","450774","0.0-6.0-3.14","3062013","co38587","norming","","","{""guess"":""""}","","../img/tt/1250tt.jpg","",""
"null","../img/gs/1250gs.jpg","null","reveal","image-keyboard-response","108","452789","0.0-6.0-4.14","3062013","co38587","norming","","","","","","",""
"null","../img/tt/1250tt.jpg","null","mooney2","image-keyboard-response","109","454792","0.0-6.0-5.14","3062013","co38587","norming","","","","","","",""
"1996.030000038445","","","post_reveal_questions","survey-likert","110","456790","0.0-6.0-6.14","3062013","co38587","norming","","","{""aha"":2}","[0]","../img/tt/1250tt.jpg","",""
"null","<div style=""font-size:60px;""> </div>","null","fixation","html-keyboard-response","111","457006","0.0-6.0-0.15","3062013","co38587","norming","","","","","","",""
"null","../img/tt/507tt.jpg","null","mooney1","image-keyboard-response","112","460022","0.0-6.0-1.15","3062013","co38587","norming","","","","","","",""
"4291.324999998324","","","post_mooney1_questions","survey-likert","113","464315","0.0-6.0-2.15","3062013","co38587","norming","","","{""curiosity"":4,""confidence"":1}","[0,1]","../img/tt/507tt.jpg","",""
"6274.600000004284","","","recognition","survey-text","114","470594","0.0-6.0-3.15","3062013","co38587","norming","","","{""guess"":""people dancing""}","","../img/tt/507tt.jpg","",""
"null","../img/gs/507gs.jpg","null","reveal","image-keyboard-response","115","472607","0.0-6.0-4.15","3062013","co38587","norming","","","","","","",""
"null","../img/tt/507tt.jpg","null","mooney2","image-keyboard-response","116","474615","0.0-6.0-5.15","3062013","co38587","norming","","","","","","",""
"3092.319999996107","","","post_reveal_questions","survey-likert","117","477710","0.0-6.0-6.15","3062013","co38587","norming","","","{""aha"":1}","[0]","../img/tt/507tt.jpg","",""
"null","<div style=""font-size:60px;""> </div>","null","fixation","html-keyboard-response","118","477917","0.0-6.0-0.16","3062013","co38587","norming","","","","","","",""
"null","../img/tt/599tt.jpg","null","mooney1","image-keyboard-response","119","480934","0.0-6.0-1.16","3062013","co38587","norming","","","","","","",""
"5708.219999971334","","","post_mooney1_questions","survey-likert","120","486644","0.0-6.0-2.16","3062013","co38587","norming","","","{""curiosity"":3,""confidence"":0}","[0,1]","../img/tt/599tt.jpg","",""
"669.5600000093691","","","recognition","survey-text","121","487318","0.0-6.0-3.16","3062013","co38587","norming","","","{""guess"":""""}","","../img/tt/599tt.jpg","",""
"null","../img/gs/599gs.jpg","null","reveal","image-keyboard-response","122","489334","0.0-6.0-4.16","3062013","co38587","norming","","","","","","",""
"null","../img/tt/599tt.jpg","null","mooney2","image-keyboard-response","123","491337","0.0-6.0-5.16","3062013","co38587","norming","","","","","","",""
"2879.034999990836","","","post_reveal_questions","survey-likert","124","494218","0.0-6.0-6.16","3062013","co38587","norming","","","{""aha"":4}","[0]","../img/tt/599tt.jpg","",""
"null","<div style=""font-size:60px;""> </div>","null","fixation","html-keyboard-response","125","494434","0.0-6.0-0.17","3062013","co38587","norming","","","","","","",""
"null","../img/tt/063tt.jpg","null","mooney1","image-keyboard-response","126","497443","0.0-6.0-1.17","3062013","co38587","norming","","","","","","",""
"5166.880000033416","","","post_mooney1_questions","survey-likert","127","502612","0.0-6.0-2.17","3062013","co38587","norming","","","{""curiosity"":6,""confidence"":0}","[0,1]","../img/tt/063tt.jpg","",""
"513.890000001993","","","recognition","survey-text","128","503130","0.0-6.0-3.17","3062013","co38587","norming","","","{""guess"":""""}","","../img/tt/063tt.jpg","",""
"null","../img/gs/063gs.jpg","null","reveal","image-keyboard-response","129","505133","0.0-6.0-4.17","3062013","co38587","norming","","","","","","",""
"null","../img/tt/063tt.jpg","null","mooney2","image-keyboard-response","130","507136","0.0-6.0-5.17","3062013","co38587","norming","","","","","","",""
"2350.4050000337884","","","post_reveal_questions","survey-likert","131","509488","0.0-6.0-6.17","3062013","co38587","norming","","","{""aha"":5}","[0]","../img/tt/063tt.jpg","",""
"null","<div style=""font-size:60px;""> </div>","null","fixation","html-keyboard-response","132","509699","0.0-6.0-0.18","3062013","co38587","norming","","","","","","",""
"null","../img/tt/189tt.jpg","null","mooney1","image-keyboard-response","133","512715","0.0-6.0-1.18","3062013","co38587","norming","","","","","","",""
"5593.104999978095","","","post_mooney1_questions","survey-likert","134","518311","0.0-6.0-2.18","3062013","co38587","norming","","","{""curiosity"":5,""confidence"":1}","[0,1]","../img/tt/189tt.jpg","",""
"2907.279999984894","","","recognition","survey-text","135","521222","0.0-6.0-3.18","3062013","co38587","norming","","","{""guess"":""Pelikaan""}","","../img/tt/189tt.jpg","",""
"null","../img/gs/189gs.jpg","null","reveal","image-keyboard-response","136","523235","0.0-6.0-4.18","3062013","co38587","norming","","","","","","",""
"null","../img/tt/189tt.jpg","null","mooney2","image-keyboard-response","137","525253","0.0-6.0-5.18","3062013","co38587","norming","","","","","","",""
"2017.9999999818392","","","post_reveal_questions","survey-likert","138","527273","0.0-6.0-6.18","3062013","co38587","norming","","","{""aha"":1}","[0]","../img/tt/189tt.jpg","",""
"null","<div style=""font-size:60px;""> </div>","null","fixation","html-keyboard-response","139","527484","0.0-6.0-0.19","3062013","co38587","norming","","","","","","",""
"null","../img/tt/1241tt.jpg","null","mooney1","image-keyboard-response","140","530489","0.0-6.0-1.19","3062013","co38587","norming","","","","","","",""
"6414.55499996664","","","post_mooney1_questions","survey-likert","141","536906","0.0-6.0-2.19","3062013","co38587","norming","","","{""curiosity"":5,""confidence"":1}","[0,1]","../img/tt/1241tt.jpg","",""
"1860.1800000178628","","","recognition","survey-text","142","538769","0.0-6.0-3.19","3062013","co38587","norming","","","{""guess"":""legs""}","","../img/tt/1241tt.jpg","",""
"null","../img/gs/1241gs.jpg","null","reveal","image-keyboard-response","143","540782","0.0-6.0-4.19","3062013","co38587","norming","","","","","","",""
"null","../img/tt/1241tt.jpg","null","mooney2","image-keyboard-response","144","542789","0.0-6.0-5.19","3062013","co38587","norming","","","","","","",""
"2633.6599999922328","","","post_reveal_questions","survey-likert","145","545424","0.0-6.0-6.19","3062013","co38587","norming","","","{""aha"":2}","[0]","../img/tt/1241tt.jpg","",""
"null","<div style=""font-size:60px;""> </div>","null","fixation","html-keyboard-response","146","545641","0.0-6.0-0.20","3062013","co38587","norming","","","","","","",""
"null","../img/tt/1190tt.jpg","null","mooney1","image-keyboard-response","147","548650","0.0-6.0-1.20","3062013","co38587","norming","","","","","","",""
"4000.62499998603","","","post_mooney1_questions","survey-likert","148","552653","0.0-6.0-2.20","3062013","co38587","norming","","","{""curiosity"":5,""confidence"":1}","[0,1]","../img/tt/1190tt.jpg","",""
"2098.100000002887","","","recognition","survey-text","149","554755","0.0-6.0-3.20","3062013","co38587","norming","","","{""guess"":""Bear""}","","../img/tt/1190tt.jpg","",""
"null","../img/gs/1190gs.jpg","null","reveal","image-keyboard-response","150","556763","0.0-6.0-4.20","3062013","co38587","norming","","","","","","",""
"null","../img/tt/1190tt.jpg","null","mooney2","image-keyboard-response","151","558777","0.0-6.0-5.20","3062013","co38587","norming","","","","","","",""
"4665.435000031721","","","post_reveal_questions","survey-likert","152","563444","0.0-6.0-6.20","3062013","co38587","norming","","","{""aha"":2}","[0]","../img/tt/1190tt.jpg","",""
"null","<div style=""font-size:60px;""> </div>","null","fixation","html-keyboard-response","153","563657","0.0-6.0-0.21","3062013","co38587","norming","","","","","","",""
"null","../img/tt/1043tt.jpg","null","mooney1","image-keyboard-response","154","566668","0.0-6.0-1.21","3062013","co38587","norming","","","","","","",""
"4453.129999979865","","","post_mooney1_questions","survey-likert","155","571124","0.0-6.0-2.21","3062013","co38587","norming","","","{""curiosity"":6,""confidence"":0}","[0,1]","../img/tt/1043tt.jpg","",""
"263.1249999976717","","","recognition","survey-text","156","571391","0.0-6.0-3.21","3062013","co38587","norming","","","{""guess"":""""}","","../img/tt/1043tt.jpg","",""
"null","../img/gs/1043gs.jpg","null","reveal","image-keyboard-response","157","573403","0.0-6.0-4.21","3062013","co38587","norming","","","","","","",""
"null","../img/tt/1043tt.jpg","null","mooney2","image-keyboard-response","158","575405","0.0-6.0-5.21","3062013","co38587","norming","","","","","","",""
"2358.3900000085123","","","post_reveal_questions","survey-likert","159","577765","0.0-6.0-6.21","3062013","co38587","norming","","","{""aha"":0}","[0]","../img/tt/1043tt.jpg","",""
"null","<div style=""font-size:60px;""> </div>","null","fixation","html-keyboard-response","160","577976","0.0-6.0-0.22","3062013","co38587","norming","","","","","","",""
"null","../img/tt/008tt.jpg","null","mooney1","image-keyboard-response","161","580984","0.0-6.0-1.22","3062013","co38587","norming","","","","","","",""
"3776.91000001505","","","post_mooney1_questions","survey-likert","162","584763","0.0-6.0-2.22","3062013","co38587","norming","","","{""curiosity"":6,""confidence"":0}","[0,1]","../img/tt/008tt.jpg","",""
"639.8300000000745","","","recognition","survey-text","163","585407","0.0-6.0-3.22","3062013","co38587","norming","","","{""guess"":""""}","","../img/tt/008tt.jpg","",""
"null","../img/gs/008gs.jpg","null","reveal","image-keyboard-response","164","587415","0.0-6.0-4.22","3062013","co38587","norming","","","","","","",""
"null","../img/tt/008tt.jpg","null","mooney2","image-keyboard-response","165","589419","0.0-6.0-5.22","3062013","co38587","norming","","","","","","",""
"2620.9300000336953","","","post_reveal_questions","survey-likert","166","592042","0.0-6.0-6.22","3062013","co38587","norming","","","{""aha"":1}","[0]","../img/tt/008tt.jpg","",""
"null","<div style=""font-size:60px;""> </div>","null","fixation","html-keyboard-response","167","592252","0.0-6.0-0.23","3062013","co38587","norming","","","","","","",""
"null","../img/tt/1188tt.jpg","null","mooney1","image-keyboard-response","168","595267","0.0-6.0-1.23","3062013","co38587","norming","","","","","","",""
"4622.720000043046","","","post_mooney1_questions","survey-likert","169","599892","0.0-6.0-2.23","3062013","co38587","norming","","","{""curiosity"":5,""confidence"":0}","[0,1]","../img/tt/1188tt.jpg","",""
"338.9449999667704","","","recognition","survey-text","170","600235","0.0-6.0-3.23","3062013","co38587","norming","","","{""guess"":""""}","","../img/tt/1188tt.jpg","",""
"null","../img/gs/1188gs.jpg","null","reveal","image-keyboard-response","171","602248","0.0-6.0-4.23","3062013","co38587","norming","","","","","","",""
"null","../img/tt/1188tt.jpg","null","mooney2","image-keyboard-response","172","604251","0.0-6.0-5.23","3062013","co38587","norming","","","","","","",""
"3305.259999993723","","","post_reveal_questions","survey-likert","173","607558","0.0-6.0-6.23","3062013","co38587","norming","","","{""aha"":2}","[0]","../img/tt/1188tt.jpg","",""
"null","<div style=""font-size:60px;""> </div>","null","fixation","html-keyboard-response","174","607774","0.0-6.0-0.24","3062013","co38587","norming","","","","","","",""
"null","../img/tt/163tt.jpg","null","mooney1","image-keyboard-response","175","610778","0.0-6.0-1.24","3062013","co38587","norming","","","","","","",""
"5922.350000008009","","","post_mooney1_questions","survey-likert","176","616703","0.0-6.0-2.24","3062013","co38587","norming","","","{""curiosity"":3,""confidence"":0}","[0,1]","../img/tt/163tt.jpg","",""
"562.8649999853224","","","recognition","survey-text","177","617269","0.0-6.0-3.24","3062013","co38587","norming","","","{""guess"":""""}","","../img/tt/163tt.jpg","",""
"null","../img/gs/163gs.jpg","null","reveal","image-keyboard-response","178","619276","0.0-6.0-4.24","3062013","co38587","norming","","","","","","",""
"null","../img/tt/163tt.jpg","null","mooney2","image-keyboard-response","179","621279","0.0-6.0-5.24","3062013","co38587","norming","","","","","","",""
"2931.8249999778345","","","post_reveal_questions","survey-likert","180","624213","0.0-6.0-6.24","3062013","co38587","norming","","","{""aha"":1}","[0]","../img/tt/163tt.jpg","",""
"null","<div style=""font-size:60px;""> </div>","null","fixation","html-keyboard-response","181","624416","0.0-6.0-0.25","3062013","co38587","norming","","","","","","",""
"null","../img/tt/044tt.jpg","null","mooney1","image-keyboard-response","182","627434","0.0-6.0-1.25","3062013","co38587","norming","","","","","","",""
"5026.28500002902","","","post_mooney1_questions","survey-likert","183","632463","0.0-6.0-2.25","3062013","co38587","norming","","","{""curiosity"":5,""confidence"":0}","[0,1]","../img/tt/044tt.jpg","",""
"544.1500000306405","","","recognition","survey-text","184","633011","0.0-6.0-3.25","3062013","co38587","norming","","","{""guess"":""""}","","../img/tt/044tt.jpg","",""
"null","../img/gs/044gs.jpg","null","reveal","image-keyboard-response","185","635014","0.0-6.0-4.25","3062013","co38587","norming","","","","","","",""
"null","../img/tt/044tt.jpg","null","mooney2","image-keyboard-response","186","637030","0.0-6.0-5.25","3062013","co38587","norming","","","","","","",""
"4578.734999988228","","","post_reveal_questions","survey-likert","187","641610","0.0-6.0-6.25","3062013","co38587","norming","","","{""aha"":5}","[0]","../img/tt/044tt.jpg","",""
"null","<div style=""font-size:60px;""> </div>","null","fixation","html-keyboard-response","188","641813","0.0-6.0-0.26","3062013","co38587","norming","","","","","","",""
"null","../img/tt/052tt.jpg","null","mooney1","image-keyboard-response","189","644821","0.0-6.0-1.26","3062013","co38587","norming","","","","","","",""
"3519.96499998495","","","post_mooney1_questions","survey-likert","190","648344","0.0-6.0-2.26","3062013","co38587","norming","","","{""curiosity"":5,""confidence"":2}","[0,1]","../img/tt/052tt.jpg","",""
"4196.325000026263","","","recognition","survey-text","191","652544","0.0-6.0-3.26","3062013","co38587","norming","","","{""guess"":""Laundrybasket""}","","../img/tt/052tt.jpg","",""
"null","../img/gs/052gs.jpg","null","reveal","image-keyboard-response","192","654561","0.0-6.0-4.26","3062013","co38587","norming","","","","","","",""
"null","../img/tt/052tt.jpg","null","mooney2","image-keyboard-response","193","656569","0.0-6.0-5.26","3062013","co38587","norming","","","","","","",""
"4302.010000043083","","","post_reveal_questions","survey-likert","194","660873","0.0-6.0-6.26","3062013","co38587","norming","","","{""aha"":3}","[0]","../img/tt/052tt.jpg","",""
"null","<div style=""font-size:60px;""> </div>","null","fixation","html-keyboard-response","195","661076","0.0-6.0-0.27","3062013","co38587","norming","","","","","","",""
"null","../img/tt/1353tt.jpg","null","mooney1","image-keyboard-response","196","664082","0.0-6.0-1.27","3062013","co38587","norming","","","","","","",""
"4344.634999986738","","","post_mooney1_questions","survey-likert","197","668429","0.0-6.0-2.27","3062013","co38587","norming","","","{""curiosity"":5,""confidence"":0}","[0,1]","../img/tt/1353tt.jpg","",""
"392.9599999682978","","","recognition","survey-text","198","668826","0.0-6.0-3.27","3062013","co38587","norming","","","{""guess"":""""}","","../img/tt/1353tt.jpg","",""
"null","../img/gs/1353gs.jpg","null","reveal","image-keyboard-response","199","670834","0.0-6.0-4.27","3062013","co38587","norming","","","","","","",""
"null","../img/tt/1353tt.jpg","null","mooney2","image-keyboard-response","200","672837","0.0-6.0-5.27","3062013","co38587","norming","","","","","","",""
"2578.8199999951757","","","post_reveal_questions","survey-likert","201","675418","0.0-6.0-6.27","3062013","co38587","norming","","","{""aha"":4}","[0]","../img/tt/1353tt.jpg","",""
"null","<div style=""font-size:60px;""> </div>","null","fixation","html-keyboard-response","202","675634","0.0-6.0-0.28","3062013","co38587","norming","","","","","","",""
"null","../img/tt/1004tt.jpg","null","mooney1","image-keyboard-response","203","678640","0.0-6.0-1.28","3062013","co38587","norming","","","","","","",""
"4542.335000005551","","","post_mooney1_questions","survey-likert","204","683185","0.0-6.0-2.28","3062013","co38587","norming","","","{""curiosity"":5,""confidence"":1}","[0,1]","../img/tt/1004tt.jpg","",""
"3448.565000027884","","","recognition","survey-text","205","686637","0.0-6.0-3.28","3062013","co38587","norming","","","{""guess"":""Bear""}","","../img/tt/1004tt.jpg","",""
"null","../img/gs/1004gs.jpg","null","reveal","image-keyboard-response","206","688646","0.0-6.0-4.28","3062013","co38587","norming","","","","","","",""
"null","../img/tt/1004tt.jpg","null","mooney2","image-keyboard-response","207","690663","0.0-6.0-5.28","3062013","co38587","norming","","","","","","",""
"2907.9250000067987","","","post_reveal_questions","survey-likert","208","693574","0.0-6.0-6.28","3062013","co38587","norming","","","{""aha"":2}","[0]","../img/tt/1004tt.jpg","",""
"null","<div style=""font-size:60px;""> </div>","null","fixation","html-keyboard-response","209","693783","0.0-6.0-0.29","3062013","co38587","norming","","","","","","",""
"null","../img/tt/1146tt.jpg","null","mooney1","image-keyboard-response","210","696802","0.0-6.0-1.29","3062013","co38587","norming","","","","","","",""
"4140.07500000298","","","post_mooney1_questions","survey-likert","211","700944","0.0-6.0-2.29","3062013","co38587","norming","","","{""curiosity"":5,""confidence"":0}","[0,1]","../img/tt/1146tt.jpg","",""
"716.6699999943376","","","recognition","survey-text","212","701665","0.0-6.0-3.29","3062013","co38587","norming","","","{""guess"":""""}","","../img/tt/1146tt.jpg","",""
"null","../img/gs/1146gs.jpg","null","reveal","image-keyboard-response","213","703670","0.0-6.0-4.29","3062013","co38587","norming","","","","","","",""
"null","../img/tt/1146tt.jpg","null","mooney2","image-keyboard-response","214","705673","0.0-6.0-5.29","3062013","co38587","norming","","","","","","",""
"4084.239999996498","","","post_reveal_questions","survey-likert","215","709759","0.0-6.0-6.29","3062013","co38587","norming","","","{""aha"":4}","[0]","../img/tt/1146tt.jpg","",""
"null","<div style=""font-size:60px;""> </div>","null","fixation","html-keyboard-response","216","709972","0.0-6.0-0.30","3062013","co38587","norming","","","","","","",""
"null","../img/tt/1242tt.jpg","null","mooney1","image-keyboard-response","217","712978","0.0-6.0-1.30","3062013","co38587","norming","","","","","","",""
"4534.019999962766","","","post_mooney1_questions","survey-likert","218","717515","0.0-6.0-2.30","3062013","co38587","norming","","","{""curiosity"":4,""confidence"":2}","[0,1]","../img/tt/1242tt.jpg","",""
"2641.315000015311","","","recognition","survey-text","219","720160","0.0-6.0-3.30","3062013","co38587","norming","","","{""guess"":""Fox""}","","../img/tt/1242tt.jpg","",""
"null","../img/gs/1242gs.jpg","null","reveal","image-keyboard-response","220","722168","0.0-6.0-4.30","3062013","co38587","norming","","","","","","",""
"null","../img/tt/1242tt.jpg","null","mooney2","image-keyboard-response","221","724176","0.0-6.0-5.30","3062013","co38587","norming","","","","","","",""
"2906.1550000333227","","","post_reveal_questions","survey-likert","222","727084","0.0-6.0-6.30","3062013","co38587","norming","","","{""aha"":0}","[0]","../img/tt/1242tt.jpg","",""
"null","<div style=""font-size:60px;""> </div>","null","fixation","html-keyboard-response","223","727292","0.0-6.0-0.31","3062013","co38587","norming","","","","","","",""
"null","../img/tt/552tt.jpg","null","mooney1","image-keyboard-response","224","730309","0.0-6.0-1.31","3062013","co38587","norming","","","","","","",""
"4599.589999997988","","","post_mooney1_questions","survey-likert","225","734912","0.0-6.0-2.31","3062013","co38587","norming","","","{""curiosity"":4,""confidence"":2}","[0,1]","../img/tt/552tt.jpg","",""
"4105.0950000062585","","","recognition","survey-text","226","739020","0.0-6.0-3.31","3062013","co38587","norming","","","{""guess"":""Stinkdier""}","","../img/tt/552tt.jpg","",""
"null","../img/gs/552gs.jpg","null","reveal","image-keyboard-response","227","741026","0.0-6.0-4.31","3062013","co38587","norming","","","","","","",""
"null","../img/tt/552tt.jpg","null","mooney2","image-keyboard-response","228","743030","0.0-6.0-5.31","3062013","co38587","norming","","","","","","",""
"4079.345000034664","","","post_reveal_questions","survey-likert","229","747111","0.0-6.0-6.31","3062013","co38587","norming","","","{""aha"":0}","[0]","../img/tt/552tt.jpg","",""
"null","<div style=""font-size:60px;""> </div>","null","fixation","html-keyboard-response","230","747329","0.0-6.0-0.32","3062013","co38587","norming","","","","","","",""
"null","../img/tt/1126tt.jpg","null","mooney1","image-keyboard-response","231","750334","0.0-6.0-1.32","3062013","co38587","norming","","","","","","",""
"4170.299999997951","","","post_mooney1_questions","survey-likert","232","754507","0.0-6.0-2.32","3062013","co38587","norming","","","{""curiosity"":4,""confidence"":1}","[0,1]","../img/tt/1126tt.jpg","",""
"2494.554999982938","","","recognition","survey-text","233","757005","0.0-6.0-3.32","3062013","co38587","norming","","","{""guess"":""Spider""}","","../img/tt/1126tt.jpg","",""
"null","../img/gs/1126gs.jpg","null","reveal","image-keyboard-response","234","759008","0.0-6.0-4.32","3062013","co38587","norming","","","","","","",""
"null","../img/tt/1126tt.jpg","null","mooney2","image-keyboard-response","235","761012","0.0-6.0-5.32","3062013","co38587","norming","","","","","","",""
"3321.9800000078976","","","post_reveal_questions","survey-likert","236","764335","0.0-6.0-6.32","3062013","co38587","norming","","","{""aha"":2}","[0]","../img/tt/1126tt.jpg","",""
"null","<div style=""font-size:60px;""> </div>","null","fixation","html-keyboard-response","237","764544","0.0-6.0-0.33","3062013","co38587","norming","","","","","","",""
"null","../img/tt/580tt.jpg","null","mooney1","image-keyboard-response","238","767561","0.0-6.0-1.33","3062013","co38587","norming","","","","","","",""
"4434.26000000909","","","post_mooney1_questions","survey-likert","239","771998","0.0-6.0-2.33","3062013","co38587","norming","","","{""curiosity"":6,""confidence"":0}","[0,1]","../img/tt/580tt.jpg","",""
"483.040000020992","","","recognition","survey-text","240","772484","0.0-6.0-3.33","3062013","co38587","norming","","","{""guess"":""""}","","../img/tt/580tt.jpg","",""
"null","../img/gs/580gs.jpg","null","reveal","image-keyboard-response","241","774487","0.0-6.0-4.33","3062013","co38587","norming","","","","","","",""
"null","../img/tt/580tt.jpg","null","mooney2","image-keyboard-response","242","776489","0.0-6.0-5.33","3062013","co38587","norming","","","","","","",""
"3273.0150000425056","","","post_reveal_questions","survey-likert","243","779764","0.0-6.0-6.33","3062013","co38587","norming","","","{""aha"":4}","[0]","../img/tt/580tt.jpg","",""
"null","<div style=""font-size:60px;""> </div>","null","fixation","html-keyboard-response","244","779979","0.0-6.0-0.34","3062013","co38587","norming","","","","","","",""
"null","../img/tt/1033tt.jpg","null","mooney1","image-keyboard-response","245","782987","0.0-6.0-1.34","3062013","co38587","norming","","","","","","",""
"5768.32499995362","","","post_mooney1_questions","survey-likert","246","788758","0.0-6.0-2.34","3062013","co38587","norming","","","{""curiosity"":4,""confidence"":2}","[0,1]","../img/tt/1033tt.jpg","",""
"5170.905000006314","","","recognition","survey-text","247","793933","0.0-6.0-3.34","3062013","co38587","norming","","","{""guess"":""archery""}","","../img/tt/1033tt.jpg","",""
"null","../img/gs/1033gs.jpg","null","reveal","image-keyboard-response","248","795946","0.0-6.0-4.34","3062013","co38587","norming","","","","","","",""
"null","../img/tt/1033tt.jpg","null","mooney2","image-keyboard-response","249","797949","0.0-6.0-5.34","3062013","co38587","norming","","","","","","",""
"2980.124999943655","","","post_reveal_questions","survey-likert","250","800931","0.0-6.0-6.34","3062013","co38587","norming","","","{""aha"":3}","[0]","../img/tt/1033tt.jpg","",""
"null","<div style=""font-size:60px;""> </div>","null","fixation","html-keyboard-response","251","801140","0.0-6.0-0.35","3062013","co38587","norming","","","","","","",""
"null","../img/tt/076tt.jpg","null","mooney1","image-keyboard-response","252","804157","0.0-6.0-1.35","3062013","co38587","norming","","","","","","",""
"4719.879999989644","","","post_mooney1_questions","survey-likert","253","808879","0.0-6.0-2.35","3062013","co38587","norming","","","{""curiosity"":5,""confidence"":2}","[0,1]","../img/tt/076tt.jpg","",""
"3385.7200000202283","","","recognition","survey-text","254","812268","0.0-6.0-3.35","3062013","co38587","norming","","","{""guess"":""Rollerblade""}","","../img/tt/076tt.jpg","",""
"null","../img/gs/076gs.jpg","null","reveal","image-keyboard-response","255","814272","0.0-6.0-4.35","3062013","co38587","norming","","","","","","",""
"null","../img/tt/076tt.jpg","null","mooney2","image-keyboard-response","256","816289","0.0-6.0-5.35","3062013","co38587","norming","","","","","","",""
"3248.1450000195764","","","post_reveal_questions","survey-likert","257","819539","0.0-6.0-6.35","3062013","co38587","norming","","","{""aha"":1}","[0]","../img/tt/076tt.jpg","",""
"null","<div style=""font-size:60px;""> </div>","null","fixation","html-keyboard-response","258","819755","0.0-6.0-0.36","3062013","co38587","norming","","","","","","",""
"null","../img/tt/1260tt.jpg","null","mooney1","image-keyboard-response","259","822770","0.0-6.0-1.36","3062013","co38587","norming","","","","","","",""
"3730.254999944009","","","post_mooney1_questions","survey-likert","260","826503","0.0-6.0-2.36","3062013","co38587","norming","","","{""curiosity"":6,""confidence"":0}","[0,1]","../img/tt/1260tt.jpg","",""
"368.63500002073124","","","recognition","survey-text","261","826875","0.0-6.0-3.36","3062013","co38587","norming","","","{""guess"":""""}","","../img/tt/1260tt.jpg","",""
"null","../img/gs/1260gs.jpg","null","reveal","image-keyboard-response","262","828891","0.0-6.0-4.36","3062013","co38587","norming","","","","","","",""
"null","../img/tt/1260tt.jpg","null","mooney2","image-keyboard-response","263","830893","0.0-6.0-5.36","3062013","co38587","norming","","","","","","",""
"4859.150000032969","","","post_reveal_questions","survey-likert","264","835754","0.0-6.0-6.36","3062013","co38587","norming","","","{""aha"":0}","[0]","../img/tt/1260tt.jpg","",""
"null","<div style=""font-size:60px;""> </div>","null","fixation","html-keyboard-response","265","835970","0.0-6.0-0.37","3062013","co38587","norming","","","","","","",""
"null","../img/tt/273tt.jpg","null","mooney1","image-keyboard-response","266","838975","0.0-6.0-1.37","3062013","co38587","norming","","","","","","",""
"5097.869999997783","","","post_mooney1_questions","survey-likert","267","844075","0.0-6.0-2.37","3062013","co38587","norming","","","{""curiosity"":4,""confidence"":4}","[0,1]","../img/tt/273tt.jpg","",""
"2237.0200000004843","","","recognition","survey-text","268","846316","0.0-6.0-3.37","3062013","co38587","norming","","","{""guess"":""Braces""}","","../img/tt/273tt.jpg","",""
"null","../img/gs/273gs.jpg","null","reveal","image-keyboard-response","269","848330","0.0-6.0-4.37","3062013","co38587","norming","","","","","","",""
"null","../img/tt/273tt.jpg","null","mooney2","image-keyboard-response","270","850332","0.0-6.0-5.37","3062013","co38587","norming","","","","","","",""
"3443.985000019893","","","post_reveal_questions","survey-likert","271","853778","0.0-6.0-6.37","3062013","co38587","norming","","","{""aha"":0}","[0]","../img/tt/273tt.jpg","",""
"null","<div style=""font-size:60px;""> </div>","null","fixation","html-keyboard-response","272","853986","0.0-6.0-0.38","3062013","co38587","norming","","","","","","",""
"null","../img/tt/085tt.jpg","null","mooney1","image-keyboard-response","273","857004","0.0-6.0-1.38","3062013","co38587","norming","","","","","","",""
"4615.369999955874","","","post_mooney1_questions","survey-likert","274","861622","0.0-6.0-2.38","3062013","co38587","norming","","","{""curiosity"":6,""confidence"":0}","[0,1]","../img/tt/085tt.jpg","",""
"358.42999996384606","","","recognition","survey-text","275","861984","0.0-6.0-3.38","3062013","co38587","norming","","","{""guess"":""""}","","../img/tt/085tt.jpg","",""
"null","../img/gs/085gs.jpg","null","reveal","image-keyboard-response","276","863991","0.0-6.0-4.38","3062013","co38587","norming","","","","","","",""
"null","../img/tt/085tt.jpg","null","mooney2","image-keyboard-response","277","866006","0.0-6.0-5.38","3062013","co38587","norming","","","","","","",""
"3578.230000042822","","","post_reveal_questions","survey-likert","278","869587","0.0-6.0-6.38","3062013","co38587","norming","","","{""aha"":1}","[0]","../img/tt/085tt.jpg","",""
"null","<div style=""font-size:60px;""> </div>","null","fixation","html-keyboard-response","279","869790","0.0-6.0-0.39","3062013","co38587","norming","","","","","","",""
"null","../img/tt/140tt.jpg","null","mooney1","image-keyboard-response","280","872794","0.0-6.0-1.39","3062013","co38587","norming","","","","","","",""
"4941.270000010263","","","post_mooney1_questions","survey-likert","281","877738","0.0-6.0-2.39","3062013","co38587","norming","","","{""curiosity"":4,""confidence"":4}","[0,1]","../img/tt/140tt.jpg","",""
"2395.1649999944493","","","recognition","survey-text","282","880137","0.0-6.0-3.39","3062013","co38587","norming","","","{""guess"":""Vorken""}","","../img/tt/140tt.jpg","",""
"null","../img/gs/140gs.jpg","null","reveal","image-keyboard-response","283","882150","0.0-6.0-4.39","3062013","co38587","norming","","","","","","",""
"null","../img/tt/140tt.jpg","null","mooney2","image-keyboard-response","284","884151","0.0-6.0-5.39","3062013","co38587","norming","","","","","","",""
"4111.964999989141","","","post_reveal_questions","survey-likert","285","888265","0.0-6.0-6.39","3062013","co38587","norming","","","{""aha"":0}","[0]","../img/tt/140tt.jpg","",""
"null","<div style=""font-size:60px;""> </div>","null","fixation","html-keyboard-response","286","888480","0.0-6.0-0.40","3062013","co38587","norming","","","","","","",""
"null","../img/tt/1107tt.jpg","null","mooney1","image-keyboard-response","287","891487","0.0-6.0-1.40","3062013","co38587","norming","","","","","","",""
"4372.139999992214","","","post_mooney1_questions","survey-likert","288","895863","0.0-6.0-2.40","3062013","co38587","norming","","","{""curiosity"":5,""confidence"":2}","[0,1]","../img/tt/1107tt.jpg","",""
"451.89999998547137","","","recognition","survey-text","289","896318","0.0-6.0-3.40","3062013","co38587","norming","","","{""guess"":""""}","","../img/tt/1107tt.jpg","",""
"null","../img/gs/1107gs.jpg","null","reveal","image-keyboard-response","290","898323","0.0-6.0-4.40","3062013","co38587","norming","","","","","","",""
"null","../img/tt/1107tt.jpg","null","mooney2","image-keyboard-response","291","900340","0.0-6.0-5.40","3062013","co38587","norming","","","","","","",""
"2618.959999992512","","","post_reveal_questions","survey-likert","292","902961","0.0-6.0-6.40","3062013","co38587","norming","","","{""aha"":4}","[0]","../img/tt/1107tt.jpg","",""
"null","<div style=""font-size:60px;""> </div>","null","fixation","html-keyboard-response","293","903165","0.0-6.0-0.41","3062013","co38587","norming","","","","","","",""
"null","../img/tt/549tt.jpg","null","mooney1","image-keyboard-response","294","906177","0.0-6.0-1.41","3062013","co38587","norming","","","","","","",""
"5321.330000006128","","","post_mooney1_questions","survey-likert","295","911501","0.0-6.0-2.41","3062013","co38587","norming","","","{""curiosity"":6,""confidence"":0}","[0,1]","../img/tt/549tt.jpg","",""
"845.82499996759","","","recognition","survey-text","296","912351","0.0-6.0-3.41","3062013","co38587","norming","","","{""guess"":""""}","","../img/tt/549tt.jpg","",""
"null","../img/gs/549gs.jpg","null","reveal","image-keyboard-response","297","914354","0.0-6.0-4.41","3062013","co38587","norming","","","","","","",""
"null","../img/tt/549tt.jpg","null","mooney2","image-keyboard-response","298","916368","0.0-6.0-5.41","3062013","co38587","norming","","","","","","",""
"2700.330000021495","","","post_reveal_questions","survey-likert","299","919070","0.0-6.0-6.41","3062013","co38587","norming","","","{""aha"":1}","[0]","../img/tt/549tt.jpg","",""
"null","<div style=""font-size:60px;""> </div>","null","fixation","html-keyboard-response","300","919286","0.0-6.0-0.42","3062013","co38587","norming","","","","","","",""
"null","../img/tt/1247tt.jpg","null","mooney1","image-keyboard-response","301","922301","0.0-6.0-1.42","3062013","co38587","norming","","","","","","",""
"4132.004999963101","","","post_mooney1_questions","survey-likert","302","926436","0.0-6.0-2.42","3062013","co38587","norming","","","{""curiosity"":5,""confidence"":1}","[0,1]","../img/tt/1247tt.jpg","",""
"3152.590000012424","","","recognition","survey-text","303","929592","0.0-6.0-3.42","3062013","co38587","norming","","","{""guess"":""Schildpad""}","","../img/tt/1247tt.jpg","",""
"null","../img/gs/1247gs.jpg","null","reveal","image-keyboard-response","304","931607","0.0-6.0-4.42","3062013","co38587","norming","","","","","","",""
"null","../img/tt/1247tt.jpg","null","mooney2","image-keyboard-response","305","933613","0.0-6.0-5.42","3062013","co38587","norming","","","","","","",""
"2877.860000007786","","","post_reveal_questions","survey-likert","306","936493","0.0-6.0-6.42","3062013","co38587","norming","","","{""aha"":2}","[0]","../img/tt/1247tt.jpg","",""
"null","<div style=""font-size:60px;""> </div>","null","fixation","html-keyboard-response","307","936699","0.0-6.0-0.43","3062013","co38587","norming","","","","","","",""
"null","../img/tt/1143tt.jpg","null","mooney1","image-keyboard-response","308","939716","0.0-6.0-1.43","3062013","co38587","norming","","","","","","",""
"4923.725000000559","","","post_mooney1_questions","survey-likert","309","944643","0.0-6.0-2.43","3062013","co38587","norming","","","{""curiosity"":5,""confidence"":2}","[0,1]","../img/tt/1143tt.jpg","",""
"262.4700000160374","","","recognition","survey-text","310","944909","0.0-6.0-3.43","3062013","co38587","norming","","","{""guess"":""""}","","../img/tt/1143tt.jpg","",""
"null","../img/gs/1143gs.jpg","null","reveal","image-keyboard-response","311","946923","0.0-6.0-4.43","3062013","co38587","norming","","","","","","",""
"null","../img/tt/1143tt.jpg","null","mooney2","image-keyboard-response","312","948930","0.0-6.0-5.43","3062013","co38587","norming","","","","","","",""
"3573.1099999975413","","","post_reveal_questions","survey-likert","313","952505","0.0-6.0-6.43","3062013","co38587","norming","","","{""aha"":4}","[0]","../img/tt/1143tt.jpg","",""
"null","<div style=""font-size:60px;""> </div>","null","fixation","html-keyboard-response","314","952722","0.0-6.0-0.44","3062013","co38587","norming","","","","","","",""
"null","../img/tt/126tt.jpg","null","mooney1","image-keyboard-response","315","955735","0.0-6.0-1.44","3062013","co38587","norming","","","","","","",""
"4767.059999983758","","","post_mooney1_questions","survey-likert","316","960504","0.0-6.0-2.44","3062013","co38587","norming","","","{""curiosity"":6,""confidence"":0}","[0,1]","../img/tt/126tt.jpg","",""
"1010.840000002645","","","recognition","survey-text","317","961518","0.0-6.0-3.44","3062013","co38587","norming","","","{""guess"":""""}","","../img/tt/126tt.jpg","",""
"null","../img/gs/126gs.jpg","null","reveal","image-keyboard-response","318","963528","0.0-6.0-4.44","3062013","co38587","norming","","","","","","",""
"null","../img/tt/126tt.jpg","null","mooney2","image-keyboard-response","319","965540","0.0-6.0-5.44","3062013","co38587","norming","","","","","","",""
"47225.26999999536","","","post_reveal_questions","survey-likert","320","1012767","0.0-6.0-6.44","3062013","co38587","norming","","","{""aha"":4}","[0]","../img/tt/126tt.jpg","",""
"null","<div style=""font-size:60px;""> </div>","null","fixation","html-keyboard-response","321","1012983","0.0-6.0-0.45","3062013","co38587","norming","","","","","","",""
"null","../img/tt/440tt.jpg","null","mooney1","image-keyboard-response","322","1015998","0.0-6.0-1.45","3062013","co38587","norming","","","","","","",""
"4042.7700000000186","","","post_mooney1_questions","survey-likert","323","1020043","0.0-6.0-2.45","3062013","co38587","norming","","","{""curiosity"":5,""confidence"":3}","[0,1]","../img/tt/440tt.jpg","",""
"2060.0600000470877","","","recognition","survey-text","324","1022107","0.0-6.0-3.45","3062013","co38587","norming","","","{""guess"":""farm""}","","../img/tt/440tt.jpg","",""
"null","../img/gs/440gs.jpg","null","reveal","image-keyboard-response","325","1024114","0.0-6.0-4.45","3062013","co38587","norming","","","","","","",""
"null","../img/tt/440tt.jpg","null","mooney2","image-keyboard-response","326","1026117","0.0-6.0-5.45","3062013","co38587","norming","","","","","","",""
"3091.8800000217743","","","post_reveal_questions","survey-likert","327","1029211","0.0-6.0-6.45","3062013","co38587","norming","","","{""aha"":3}","[0]","../img/tt/440tt.jpg","",""
"null","<div style=""font-size:60px;""> </div>","null","fixation","html-keyboard-response","328","1029414","0.0-6.0-0.46","3062013","co38587","norming","","","","","","",""
"null","../img/tt/436tt.jpg","null","mooney1","image-keyboard-response","329","1032429","0.0-6.0-1.46","3062013","co38587","norming","","","","","","",""
"4254.104999999981","","","post_mooney1_questions","survey-likert","330","1036687","0.0-6.0-2.46","3062013","co38587","norming","","","{""curiosity"":6,""confidence"":2}","[0,1]","../img/tt/436tt.jpg","",""
"2647.6450000191107","","","recognition","survey-text","331","1039338","0.0-6.0-3.46","3062013","co38587","norming","","","{""guess"":""Reptiel""}","","../img/tt/436tt.jpg","",""
"null","../img/gs/436gs.jpg","null","reveal","image-keyboard-response","332","1041347","0.0-6.0-4.46","3062013","co38587","norming","","","","","","",""
"null","../img/tt/436tt.jpg","null","mooney2","image-keyboard-response","333","1043360","0.0-6.0-5.46","3062013","co38587","norming","","","","","","",""
"2704.0450000204146","","","post_reveal_questions","survey-likert","334","1046066","0.0-6.0-6.46","3062013","co38587","norming","","","{""aha"":3}","[0]","../img/tt/436tt.jpg","",""
"null","<div style=""font-size:60px;""> </div>","null","fixation","html-keyboard-response","335","1046271","0.0-6.0-0.47","3062013","co38587","norming","","","","","","",""
"null","../img/tt/064tt.jpg","null","mooney1","image-keyboard-response","336","1049284","0.0-6.0-1.47","3062013","co38587","norming","","","","","","",""
"3106.2399999937043","","","post_mooney1_questions","survey-likert","337","1052396","0.0-6.0-2.47","3062013","co38587","norming","","","{""curiosity"":4,""confidence"":4}","[0,1]","../img/tt/064tt.jpg","",""
"5296.900000015739","","","recognition","survey-text","338","1057696","0.0-6.0-3.47","3062013","co38587","norming","","","{""guess"":""turtle""}","","../img/tt/064tt.jpg","",""
"null","../img/gs/064gs.jpg","null","reveal","image-keyboard-response","339","1059711","0.0-6.0-4.47","3062013","co38587","norming","","","","","","",""
"null","../img/tt/064tt.jpg","null","mooney2","image-keyboard-response","340","1061727","0.0-6.0-5.47","3062013","co38587","norming","","","","","","",""
"4659.894999989774","","","post_reveal_questions","survey-likert","341","1066390","0.0-6.0-6.47","3062013","co38587","norming","","","{""aha"":0}","[0]","../img/tt/064tt.jpg","",""
"null","<div style=""font-size:60px;""> </div>","null","fixation","html-keyboard-response","342","1066596","0.0-6.0-0.48","3062013","co38587","norming","","","","","","",""
"null","../img/tt/1159tt.jpg","null","mooney1","image-keyboard-response","343","1069612","0.0-6.0-1.48","3062013","co38587","norming","","","","","","",""
"4079.2149999761023","","","post_mooney1_questions","survey-likert","344","1073695","0.0-6.0-2.48","3062013","co38587","norming","","","{""curiosity"":5,""confidence"":2}","[0,1]","../img/tt/1159tt.jpg","",""
"207.90999999735504","","","recognition","survey-text","345","1073906","0.0-6.0-3.48","3062013","co38587","norming","","","{""guess"":""""}","","../img/tt/1159tt.jpg","",""
"null","../img/gs/1159gs.jpg","null","reveal","image-keyboard-response","346","1075924","0.0-6.0-4.48","3062013","co38587","norming","","","","","","",""
"null","../img/tt/1159tt.jpg","null","mooney2","image-keyboard-response","347","1077935","0.0-6.0-5.48","3062013","co38587","norming","","","","","","",""
"2333.135000022594","","","post_reveal_questions","survey-likert","348","1080270","0.0-6.0-6.48","3062013","co38587","norming","","","{""aha"":1}","[0]","../img/tt/1159tt.jpg","",""
"null","<div style=""font-size:60px;""> </div>","null","fixation","html-keyboard-response","349","1080477","0.0-6.0-0.49","3062013","co38587","norming","","","","","","",""
"null","../img/tt/1154tt.jpg","null","mooney1","image-keyboard-response","350","1083494","0.0-6.0-1.49","3062013","co38587","norming","","","","","","",""
"4243.715000047814","","","post_mooney1_questions","survey-likert","351","1087741","0.0-6.0-2.49","3062013","co38587","norming","","","{""curiosity"":5,""confidence"":0}","[0,1]","../img/tt/1154tt.jpg","",""
"227.76999999769032","","","recognition","survey-text","352","1087972","0.0-6.0-3.49","3062013","co38587","norming","","","{""guess"":""""}","","../img/tt/1154tt.jpg","",""
"null","../img/gs/1154gs.jpg","null","reveal","image-keyboard-response","353","1089988","0.0-6.0-4.49","3062013","co38587","norming","","","","","","",""
"null","../img/tt/1154tt.jpg","null","mooney2","image-keyboard-response","354","1091990","0.0-6.0-5.49","3062013","co38587","norming","","","","","","",""
"2812.934999994468","","","post_reveal_questions","survey-likert","355","1094805","0.0-6.0-6.49","3062013","co38587","norming","","","{""aha"":1}","[0]","../img/tt/1154tt.jpg","",""
"null","<div style=""font-size:60px;""> </div>","null","fixation","html-keyboard-response","356","1095010","0.0-6.0-0.50","3062013","co38587","norming","","","","","","",""
"null","../img/tt/1012tt.jpg","null","mooney1","image-keyboard-response","357","1098018","0.0-6.0-1.50","3062013","co38587","norming","","","","","","",""
"4134.514999983367","","","post_mooney1_questions","survey-likert","358","1102155","0.0-6.0-2.50","3062013","co38587","norming","","","{""curiosity"":5,""confidence"":1}","[0,1]","../img/tt/1012tt.jpg","",""
"2176.3650000211783","","","recognition","survey-text","359","1104335","0.0-6.0-3.50","3062013","co38587","norming","","","{""guess"":""Zebra""}","","../img/tt/1012tt.jpg","",""
"null","../img/gs/1012gs.jpg","null","reveal","image-keyboard-response","360","1106340","0.0-6.0-4.50","3062013","co38587","norming","","","","","","",""
"null","../img/tt/1012tt.jpg","null","mooney2","image-keyboard-response","361","1108345","0.0-6.0-5.50","3062013","co38587","norming","","","","","","",""
"3856.195000000298","","","post_reveal_questions","survey-likert","362","1112203","0.0-6.0-6.50","3062013","co38587","norming","","","{""aha"":5}","[0]","../img/tt/1012tt.jpg","",""
"null","<div style=""font-size:60px;""> </div>","null","fixation","html-keyboard-response","363","1112414","0.0-6.0-0.51","3062013","co38587","norming","","","","","","",""
"null","../img/tt/319tt.jpg","null","mooney1","image-keyboard-response","364","1115421","0.0-6.0-1.51","3062013","co38587","norming","","","","","","",""
"4280.184999981429","","","post_mooney1_questions","survey-likert","365","1119704","0.0-6.0-2.51","3062013","co38587","norming","","","{""curiosity"":3,""confidence"":4}","[0,1]","../img/tt/319tt.jpg","",""
"2802.1999999764375","","","recognition","survey-text","366","1122510","0.0-6.0-3.51","3062013","co38587","norming","","","{""guess"":""Kameel""}","","../img/tt/319tt.jpg","",""
"null","../img/gs/319gs.jpg","null","reveal","image-keyboard-response","367","1124516","0.0-6.0-4.51","3062013","co38587","norming","","","","","","",""
"null","../img/tt/319tt.jpg","null","mooney2","image-keyboard-response","368","1126522","0.0-6.0-5.51","3062013","co38587","norming","","","","","","",""
"3933.4800000069663","","","post_reveal_questions","survey-likert","369","1130458","0.0-6.0-6.51","3062013","co38587","norming","","","{""aha"":2}","[0]","../img/tt/319tt.jpg","",""
"null","<div style=""font-size:60px;""> </div>","null","fixation","html-keyboard-response","370","1130674","0.0-6.0-0.52","3062013","co38587","norming","","","","","","",""
"null","../img/tt/1237tt.jpg","null","mooney1","image-keyboard-response","371","1133692","0.0-6.0-1.52","3062013","co38587","norming","","","","","","",""
"3842.3100000363775","","","post_mooney1_questions","survey-likert","372","1137537","0.0-6.0-2.52","3062013","co38587","norming","","","{""curiosity"":4,""confidence"":4}","[0,1]","../img/tt/1237tt.jpg","",""
"2518.500000005588","","","recognition","survey-text","373","1140059","0.0-6.0-3.52","3062013","co38587","norming","","","{""guess"":""Eend""}","","../img/tt/1237tt.jpg","",""
"null","../img/gs/1237gs.jpg","null","reveal","image-keyboard-response","374","1142064","0.0-6.0-4.52","3062013","co38587","norming","","","","","","",""
"null","../img/tt/1237tt.jpg","null","mooney2","image-keyboard-response","375","1144069","0.0-6.0-5.52","3062013","co38587","norming","","","","","","",""
"2456.384999968577","","","post_reveal_questions","survey-likert","376","1146527","0.0-6.0-6.52","3062013","co38587","norming","","","{""aha"":0}","[0]","../img/tt/1237tt.jpg","",""
"null","<div style=""font-size:60px;""> </div>","null","fixation","html-keyboard-response","377","1146738","0.0-6.0-0.53","3062013","co38587","norming","","","","","","",""
"null","../img/tt/1269tt.jpg","null","mooney1","image-keyboard-response","378","1149744","0.0-6.0-1.53","3062013","co38587","norming","","","","","","",""
"4116.114999982528","","","post_mooney1_questions","survey-likert","379","1153863","0.0-6.0-2.53","3062013","co38587","norming","","","{""curiosity"":4,""confidence"":5}","[0,1]","../img/tt/1269tt.jpg","",""
"3461.2949999864213","","","recognition","survey-text","380","1157328","0.0-6.0-3.53","3062013","co38587","norming","","","{""guess"":""Eekhoorn""}","","../img/tt/1269tt.jpg","",""
"null","../img/gs/1269gs.jpg","null","reveal","image-keyboard-response","381","1159337","0.0-6.0-4.53","3062013","co38587","norming","","","","","","",""
"null","../img/tt/1269tt.jpg","null","mooney2","image-keyboard-response","382","1161341","0.0-6.0-5.53","3062013","co38587","norming","","","","","","",""
"3772.975000028964","","","post_reveal_questions","survey-likert","383","1165117","0.0-6.0-6.53","3062013","co38587","norming","","","{""aha"":0}","[0]","../img/tt/1269tt.jpg","",""
"null","<div style=""font-size:60px;""> </div>","null","fixation","html-keyboard-response","384","1165321","0.0-6.0-0.54","3062013","co38587","norming","","","","","","",""
"null","../img/tt/010tt.jpg","null","mooney1","image-keyboard-response","385","1168335","0.0-6.0-1.54","3062013","co38587","norming","","","","","","",""
"3500.2150000073016","","","post_mooney1_questions","survey-likert","386","1171838","0.0-6.0-2.54","3062013","co38587","norming","","","{""curiosity"":6,""confidence"":0}","[0,1]","../img/tt/010tt.jpg","",""
"358.2400000304915","","","recognition","survey-text","387","1172200","0.0-6.0-3.54","3062013","co38587","norming","","","{""guess"":""""}","","../img/tt/010tt.jpg","",""
"null","../img/gs/010gs.jpg","null","reveal","image-keyboard-response","388","1174218","0.0-6.0-4.54","3062013","co38587","norming","","","","","","",""
"null","../img/tt/010tt.jpg","null","mooney2","image-keyboard-response","389","1176223","0.0-6.0-5.54","3062013","co38587","norming","","","","","","",""
"2851.439999998547","","","post_reveal_questions","survey-likert","390","1179077","0.0-6.0-6.54","3062013","co38587","norming","","","{""aha"":4}","[0]","../img/tt/010tt.jpg","",""
"null","<div style=""font-size:60px;""> </div>","null","fixation","html-keyboard-response","391","1179284","0.0-6.0-0.55","3062013","co38587","norming","","","","","","",""
"null","../img/tt/108tt.jpg","null","mooney1","image-keyboard-response","392","1182296","0.0-6.0-1.55","3062013","co38587","norming","","","","","","",""
"4699.170000036247","","","post_mooney1_questions","survey-likert","393","1186998","0.0-6.0-2.55","3062013","co38587","norming","","","{""curiosity"":5,""confidence"":0}","[0,1]","../img/tt/108tt.jpg","",""
"357.17999999178573","","","recognition","survey-text","394","1187359","0.0-6.0-3.55","3062013","co38587","norming","","","{""guess"":""""}","","../img/tt/108tt.jpg","",""
"null","../img/gs/108gs.jpg","null","reveal","image-keyboard-response","395","1189364","0.0-6.0-4.55","3062013","co38587","norming","","","","","","",""
"null","../img/tt/108tt.jpg","null","mooney2","image-keyboard-response","396","1191373","0.0-6.0-5.55","3062013","co38587","norming","","","","","","",""
"8593.259999994189","","","post_reveal_questions","survey-likert","397","1199968","0.0-6.0-6.55","3062013","co38587","norming","","","{""aha"":4}","[0]","../img/tt/108tt.jpg","",""
"null","<div style=""font-size:60px;""> </div>","null","fixation","html-keyboard-response","398","1200180","0.0-6.0-0.56","3062013","co38587","norming","","","","","","",""
"null","../img/tt/1102tt.jpg","null","mooney1","image-keyboard-response","399","1203195","0.0-6.0-1.56","3062013","co38587","norming","","","","","","",""
"3886.6849999758415","","","post_mooney1_questions","survey-likert","400","1207084","0.0-6.0-2.56","3062013","co38587","norming","","","{""curiosity"":5,""confidence"":1}","[0,1]","../img/tt/1102tt.jpg","",""
"2890.9800000255927","","","recognition","survey-text","401","1209979","0.0-6.0-3.56","3062013","co38587","norming","","","{""guess"":""Forest""}","","../img/tt/1102tt.jpg","",""
"null","../img/gs/1102gs.jpg","null","reveal","image-keyboard-response","402","1211995","0.0-6.0-4.56","3062013","co38587","norming","","","","","","",""
"null","../img/tt/1102tt.jpg","null","mooney2","image-keyboard-response","403","1214000","0.0-6.0-5.56","3062013","co38587","norming","","","","","","",""
"2673.5549999866635","","","post_reveal_questions","survey-likert","404","1216675","0.0-6.0-6.56","3062013","co38587","norming","","","{""aha"":3}","[0]","../img/tt/1102tt.jpg","",""
"null","<div style=""font-size:60px;""> </div>","null","fixation","html-keyboard-response","405","1216882","0.0-6.0-0.57","3062013","co38587","norming","","","","","","",""
"null","../img/tt/380tt.jpg","null","mooney1","image-keyboard-response","406","1219896","0.0-6.0-1.57","3062013","co38587","norming","","","","","","",""
"3994.795000005979","","","post_mooney1_questions","survey-likert","407","1223894","0.0-6.0-2.57","3062013","co38587","norming","","","{""curiosity"":6,""confidence"":0}","[0,1]","../img/tt/380tt.jpg","",""
"689.200000022538","","","recognition","survey-text","408","1224586","0.0-6.0-3.57","3062013","co38587","norming","","","{""guess"":""""}","","../img/tt/380tt.jpg","",""
"null","../img/gs/380gs.jpg","null","reveal","image-keyboard-response","409","1226604","0.0-6.0-4.57","3062013","co38587","norming","","","","","","",""
"null","../img/tt/380tt.jpg","null","mooney2","image-keyboard-response","410","1228610","0.0-6.0-5.57","3062013","co38587","norming","","","","","","",""
"3174.3700000224635","","","post_reveal_questions","survey-likert","411","1231787","0.0-6.0-6.57","3062013","co38587","norming","","","{""aha"":4}","[0]","../img/tt/380tt.jpg","",""
"null","<div style=""font-size:60px;""> </div>","null","fixation","html-keyboard-response","412","1231996","0.0-6.0-0.58","3062013","co38587","norming","","","","","","",""
"null","../img/tt/084tt.jpg","null","mooney1","image-keyboard-response","413","1235010","0.0-6.0-1.58","3062013","co38587","norming","","","","","","",""
"5960.380000004079","","","post_mooney1_questions","survey-likert","414","1240973","0.0-6.0-2.58","3062013","co38587","norming","","","{""curiosity"":6,""confidence"":0}","[0,1]","../img/tt/084tt.jpg","",""
"1157.8100000042468","","","recognition","survey-text","415","1242135","0.0-6.0-3.58","3062013","co38587","norming","","","{""guess"":""""}","","../img/tt/084tt.jpg","",""
"null","../img/gs/084gs.jpg","null","reveal","image-keyboard-response","416","1244150","0.0-6.0-4.58","3062013","co38587","norming","","","","","","",""
"null","../img/tt/084tt.jpg","null","mooney2","image-keyboard-response","417","1246159","0.0-6.0-5.58","3062013","co38587","norming","","","","","","",""
"3256.020000029821","","","post_reveal_questions","survey-likert","418","1249416","0.0-6.0-6.58","3062013","co38587","norming","","","{""aha"":4}","[0]","../img/tt/084tt.jpg","",""
"null","<div style=""font-size:60px;""> </div>","null","fixation","html-keyboard-response","419","1249630","0.0-6.0-0.59","3062013","co38587","norming","","","","","","",""
"null","../img/tt/1069tt.jpg","null","mooney1","image-keyboard-response","420","1252636","0.0-6.0-1.59","3062013","co38587","norming","","","","","","",""
"5752.459999988787","","","post_mooney1_questions","survey-likert","421","1258391","0.0-6.0-2.59","3062013","co38587","norming","","","{""curiosity"":6,""confidence"":0}","[0,1]","../img/tt/1069tt.jpg","",""
"1454.280000005383","","","recognition","survey-text","422","1259849","0.0-6.0-3.59","3062013","co38587","norming","","","{""guess"":""""}","","../img/tt/1069tt.jpg","",""
"null","../img/gs/1069gs.jpg","null","reveal","image-keyboard-response","423","1261860","0.0-6.0-4.59","3062013","co38587","norming","","","","","","",""
"null","../img/tt/1069tt.jpg","null","mooney2","image-keyboard-response","424","1263877","0.0-6.0-5.59","3062013","co38587","norming","","","","","","",""
"2589.9349999963306","","","post_reveal_questions","survey-likert","425","1266469","0.0-6.0-6.59","3062013","co38587","norming","","","{""aha"":4}","[0]","../img/tt/1069tt.jpg","",""
"null","<div style=""font-size:60px;""> </div>","null","fixation","html-keyboard-response","426","1266686","0.0-6.0-0.60","3062013","co38587","norming","","","","","","",""
"null","../img/tt/1283tt.jpg","null","mooney1","image-keyboard-response","427","1269698","0.0-6.0-1.60","3062013","co38587","norming","","","","","","",""
"3008.84500000393","","","post_mooney1_questions","survey-likert","428","1272710","0.0-6.0-2.60","3062013","co38587","norming","","","{""curiosity"":5,""confidence"":1}","[0,1]","../img/tt/1283tt.jpg","",""
"3078.5049999831244","","","recognition","survey-text","429","1275792","0.0-6.0-3.60","3062013","co38587","norming","","","{""guess"":""Fox in park""}","","../img/tt/1283tt.jpg","",""
"null","../img/gs/1283gs.jpg","null","reveal","image-keyboard-response","430","1277805","0.0-6.0-4.60","3062013","co38587","norming","","","","","","",""
"null","../img/tt/1283tt.jpg","null","mooney2","image-keyboard-response","431","1279809","0.0-6.0-5.60","3062013","co38587","norming","","","","","","",""
"3014.3149999785237","","","post_reveal_questions","survey-likert","432","1282825","0.0-6.0-6.60","3062013","co38587","norming","","","{""aha"":2}","[0]","../img/tt/1283tt.jpg","",""
"null","<div style=""font-size:60px;""> </div>","null","fixation","html-keyboard-response","433","1283036","0.0-6.0-0.61","3062013","co38587","norming","","","","","","",""
"null","../img/tt/1278tt.jpg","null","mooney1","image-keyboard-response","434","1286046","0.0-6.0-1.61","3062013","co38587","norming","","","","","","",""
"7666.950000042561","","","post_mooney1_questions","survey-likert","435","1293716","0.0-6.0-2.61","3062013","co38587","norming","","","{""curiosity"":5,""confidence"":1}","[0,1]","../img/tt/1278tt.jpg","",""
"1777.5799999944866","","","recognition","survey-text","436","1295497","0.0-6.0-3.61","3062013","co38587","norming","","","{""guess"":""Dog""}","","../img/tt/1278tt.jpg","",""
"null","../img/gs/1278gs.jpg","null","reveal","image-keyboard-response","437","1297509","0.0-6.0-4.61","3062013","co38587","norming","","","","","","",""
"null","../img/tt/1278tt.jpg","null","mooney2","image-keyboard-response","438","1299521","0.0-6.0-5.61","3062013","co38587","norming","","","","","","",""
"2403.7249999819323","","","post_reveal_questions","survey-likert","439","1301927","0.0-6.0-6.61","3062013","co38587","norming","","","{""aha"":4}","[0]","../img/tt/1278tt.jpg","",""
"null","<div style=""font-size:60px;""> </div>","null","fixation","html-keyboard-response","440","1302141","0.0-6.0-0.62","3062013","co38587","norming","","","","","","",""
"null","../img/tt/300tt.jpg","null","mooney1","image-keyboard-response","441","1305148","0.0-6.0-1.62","3062013","co38587","norming","","","","","","",""
"11468.560000008438","","","post_mooney1_questions","survey-likert","442","1316619","0.0-6.0-2.62","3062013","co38587","norming","","","{""curiosity"":5,""confidence"":1}","[0,1]","../img/tt/300tt.jpg","",""
"7980.549999978393","","","recognition","survey-text","443","1324603","0.0-6.0-3.62","3062013","co38587","norming","","","{""guess"":""Monkey""}","","../img/tt/300tt.jpg","",""
"null","../img/gs/300gs.jpg","null","reveal","image-keyboard-response","444","1326620","0.0-6.0-4.62","3062013","co38587","norming","","","","","","",""
"null","../img/tt/300tt.jpg","null","mooney2","image-keyboard-response","445","1328623","0.0-6.0-5.62","3062013","co38587","norming","","","","","","",""
"64587.38500002073","","","post_reveal_questions","survey-likert","446","1393212","0.0-6.0-6.62","3062013","co38587","norming","","","{""aha"":4}","[0]","../img/tt/300tt.jpg","",""
"null","<div style=""font-size:60px;""> </div>","null","fixation","html-keyboard-response","447","1393414","0.0-6.0-0.63","3062013","co38587","norming","","","","","","",""
"null","../img/tt/1275tt.jpg","null","mooney1","image-keyboard-response","448","1396423","0.0-6.0-1.63","3062013","co38587","norming","","","","","","",""
"4319.744999986142","","","post_mooney1_questions","survey-likert","449","1400745","0.0-6.0-2.63","3062013","co38587","norming","","","{""curiosity"":5,""confidence"":1}","[0,1]","../img/tt/1275tt.jpg","",""
"4721.475000027567","","","recognition","survey-text","450","1405470","0.0-6.0-3.63","3062013","co38587","norming","","","{""guess"":""everzwijn""}","","../img/tt/1275tt.jpg","",""
"null","../img/gs/1275gs.jpg","null","reveal","image-keyboard-response","451","1407474","0.0-6.0-4.63","3062013","co38587","norming","","","","","","",""
"null","../img/tt/1275tt.jpg","null","mooney2","image-keyboard-response","452","1409481","0.0-6.0-5.63","3062013","co38587","norming","","","","","","",""
"15039.20499997912","","","post_reveal_questions","survey-likert","453","1424522","0.0-6.0-6.63","3062013","co38587","norming","","","{""aha"":0}","[0]","../img/tt/1275tt.jpg","",""
"null","<div style=""font-size:60px;""> </div>","null","fixation","html-keyboard-response","454","1424736","0.0-6.0-0.64","3062013","co38587","norming","","","","","","",""
"null","../img/tt/1091tt.jpg","null","mooney1","image-keyboard-response","455","1427751","0.0-6.0-1.64","3062013","co38587","norming","","","","","","",""
"5405.009999987669","","","post_mooney1_questions","survey-likert","456","1433161","0.0-6.0-2.64","3062013","co38587","norming","","","{""curiosity"":5,""confidence"":1}","[0,1]","../img/tt/1091tt.jpg","",""
"2514.755000011064","","","recognition","survey-text","457","1435679","0.0-6.0-3.64","3062013","co38587","norming","","","{""guess"":""paard""}","","../img/tt/1091tt.jpg","",""
"null","../img/gs/1091gs.jpg","null","reveal","image-keyboard-response","458","1437688","0.0-6.0-4.64","3062013","co38587","norming","","","","","","",""
"null","../img/tt/1091tt.jpg","null","mooney2","image-keyboard-response","459","1439693","0.0-6.0-5.64","3062013","co38587","norming","","","","","","",""
"2956.7999999853782","","","post_reveal_questions","survey-likert","460","1442652","0.0-6.0-6.64","3062013","co38587","norming","","","{""aha"":0}","[0]","../img/tt/1091tt.jpg","",""
"null","<div style=""font-size:60px;""> </div>","null","fixation","html-keyboard-response","461","1442859","0.0-6.0-0.65","3062013","co38587","norming","","","","","","",""
"null","../img/tt/1006tt.jpg","null","mooney1","image-keyboard-response","462","1445866","0.0-6.0-1.65","3062013","co38587","norming","","","","","","",""
"8748.895000026096","","","post_mooney1_questions","survey-likert","463","1454619","0.0-6.0-2.65","3062013","co38587","norming","","","{""curiosity"":5,""confidence"":1}","[0,1]","../img/tt/1006tt.jpg","",""
"1731.195000000298","","","recognition","survey-text","464","1456354","0.0-6.0-3.65","3062013","co38587","norming","","","{""guess"":""ram""}","","../img/tt/1006tt.jpg","",""
"null","../img/gs/1006gs.jpg","null","reveal","image-keyboard-response","465","1458370","0.0-6.0-4.65","3062013","co38587","norming","","","","","","",""
"null","../img/tt/1006tt.jpg","null","mooney2","image-keyboard-response","466","1460377","0.0-6.0-5.65","3062013","co38587","norming","","","","","","",""
"13830.994999967515","","","post_reveal_questions","survey-likert","467","1474210","0.0-6.0-6.65","3062013","co38587","norming","","","{""aha"":0}","[0]","../img/tt/1006tt.jpg","",""
"null","<div style=""font-size:60px;""> </div>","null","fixation","html-keyboard-response","468","1474414","0.0-6.0-0.66","3062013","co38587","norming","","","","","","",""
"null","../img/tt/1366tt.jpg","null","mooney1","image-keyboard-response","469","1477421","0.0-6.0-1.66","3062013","co38587","norming","","","","","","",""
"3336.2700000288896","","","post_mooney1_questions","survey-likert","470","1480760","0.0-6.0-2.66","3062013","co38587","norming","","","{""curiosity"":6,""confidence"":0}","[0,1]","../img/tt/1366tt.jpg","",""
"394.3800000124611","","","recognition","survey-text","471","1481158","0.0-6.0-3.66","3062013","co38587","norming","","","{""guess"":""""}","","../img/tt/1366tt.jpg","",""
"null","../img/gs/1366gs.jpg","null","reveal","image-keyboard-response","472","1483171","0.0-6.0-4.66","3062013","co38587","norming","","","","","","",""
"null","../img/tt/1366tt.jpg","null","mooney2","image-keyboard-response","473","1485181","0.0-6.0-5.66","3062013","co38587","norming","","","","","","",""
"2992.069999978412","","","post_reveal_questions","survey-likert","474","1488176","0.0-6.0-6.66","3062013","co38587","norming","","","{""aha"":4}","[0]","../img/tt/1366tt.jpg","",""
"null","<div style=""font-size:60px;""> </div>","null","fixation","html-keyboard-response","475","1488379","0.0-6.0-0.67","3062013","co38587","norming","","","","","","",""
"null","../img/tt/477tt.jpg","null","mooney1","image-keyboard-response","476","1491397","0.0-6.0-1.67","3062013","co38587","norming","","","","","","",""
"5991.615000006277","","","post_mooney1_questions","survey-likert","477","1497391","0.0-6.0-2.67","3062013","co38587","norming","","","{""curiosity"":6,""confidence"":0}","[0,1]","../img/tt/477tt.jpg","",""
"1629.3300000252202","","","recognition","survey-text","478","1499024","0.0-6.0-3.67","3062013","co38587","norming","","","{""guess"":""""}","","../img/tt/477tt.jpg","",""
"null","../img/gs/477gs.jpg","null","reveal","image-keyboard-response","479","1501029","0.0-6.0-4.67","3062013","co38587","norming","","","","","","",""
"null","../img/tt/477tt.jpg","null","mooney2","image-keyboard-response","480","1503034","0.0-6.0-5.67","3062013","co38587","norming","","","","","","",""
"2865.749999997206","","","post_reveal_questions","survey-likert","481","1505902","0.0-6.0-6.67","3062013","co38587","norming","","","{""aha"":5}","[0]","../img/tt/477tt.jpg","",""
"null","<div style=""font-size:60px;""> </div>","null","fixation","html-keyboard-response","482","1506116","0.0-6.0-0.68","3062013","co38587","norming","","","","","","",""
"null","../img/tt/1084tt.jpg","null","mooney1","image-keyboard-response","483","1509128","0.0-6.0-1.68","3062013","co38587","norming","","","","","","",""
"11325.40000003064","","","post_mooney1_questions","survey-likert","484","1520456","0.0-6.0-2.68","3062013","co38587","norming","","","{""curiosity"":6,""confidence"":0}","[0,1]","../img/tt/1084tt.jpg","",""
"1037.8149999887682","","","recognition","survey-text","485","1521497","0.0-6.0-3.68","3062013","co38587","norming","","","{""guess"":""""}","","../img/tt/1084tt.jpg","",""
"null","../img/gs/1084gs.jpg","null","reveal","image-keyboard-response","486","1523507","0.0-6.0-4.68","3062013","co38587","norming","","","","","","",""
"null","../img/tt/1084tt.jpg","null","mooney2","image-keyboard-response","487","1525523","0.0-6.0-5.68","3062013","co38587","norming","","","","","","",""
"2920.169999997597","","","post_reveal_questions","survey-likert","488","1528445","0.0-6.0-6.68","3062013","co38587","norming","","","{""aha"":5}","[0]","../img/tt/1084tt.jpg","",""
"null","<div style=""font-size:60px;""> </div>","null","fixation","html-keyboard-response","489","1528659","0.0-6.0-0.69","3062013","co38587","norming","","","","","","",""
"null","../img/tt/1211tt.jpg","null","mooney1","image-keyboard-response","490","1531664","0.0-6.0-1.69","3062013","co38587","norming","","","","","","",""
"6373.934999981429","","","post_mooney1_questions","survey-likert","491","1538041","0.0-6.0-2.69","3062013","co38587","norming","","","{""curiosity"":6,""confidence"":0}","[0,1]","../img/tt/1211tt.jpg","",""
"1902.8800000087358","","","recognition","survey-text","492","1539947","0.0-6.0-3.69","3062013","co38587","norming","","","{""guess"":""""}","","../img/tt/1211tt.jpg","",""
"null","../img/gs/1211gs.jpg","null","reveal","image-keyboard-response","493","1541957","0.0-6.0-4.69","3062013","co38587","norming","","","","","","",""
"null","../img/tt/1211tt.jpg","null","mooney2","image-keyboard-response","494","1543964","0.0-6.0-5.69","3062013","co38587","norming","","","","","","",""
"4096.269999979995","","","post_reveal_questions","survey-likert","495","1548062","0.0-6.0-6.69","3062013","co38587","norming","","","{""aha"":5}","[0]","../img/tt/1211tt.jpg","",""
"null","<div style=""font-size:60px;""> </div>","null","fixation","html-keyboard-response","496","1548279","0.0-6.0-0.70","3062013","co38587","norming","","","","","","",""
"null","../img/tt/082tt.jpg","null","mooney1","image-keyboard-response","497","1551281","0.0-6.0-1.70","3062013","co38587","norming","","","","","","",""
"6485.775000008289","","","post_mooney1_questions","survey-likert","498","1557769","0.0-6.0-2.70","3062013","co38587","norming","","","{""curiosity"":6,""confidence"":0}","[0,1]","../img/tt/082tt.jpg","",""
"815.2849999605678","","","recognition","survey-text","499","1558588","0.0-6.0-3.70","3062013","co38587","norming","","","{""guess"":""""}","","../img/tt/082tt.jpg","",""
"null","../img/gs/082gs.jpg","null","reveal","image-keyboard-response","500","1560603","0.0-6.0-4.70","3062013","co38587","norming","","","","","","",""
"null","../img/tt/082tt.jpg","null","mooney2","image-keyboard-response","501","1562608","0.0-6.0-5.70","3062013","co38587","norming","","","","","","",""
"2283.4250000305474","","","post_reveal_questions","survey-likert","502","1564894","0.0-6.0-6.70","3062013","co38587","norming","","","{""aha"":5}","[0]","../img/tt/082tt.jpg","",""
"null","<div style=""font-size:60px;""> </div>","null","fixation","html-keyboard-response","503","1565110","0.0-6.0-0.71","3062013","co38587","norming","","","","","","",""
"null","../img/tt/1362tt.jpg","null","mooney1","image-keyboard-response","504","1568117","0.0-6.0-1.71","3062013","co38587","norming","","","","","","",""
"8059.7149999812245","","","post_mooney1_questions","survey-likert","505","1576179","0.0-6.0-2.71","3062013","co38587","norming","","","{""curiosity"":6,""confidence"":0}","[0,1]","../img/tt/1362tt.jpg","",""
"639.8000000044703","","","recognition","survey-text","506","1576823","0.0-6.0-3.71","3062013","co38587","norming","","","{""guess"":""""}","","../img/tt/1362tt.jpg","",""
"null","../img/gs/1362gs.jpg","null","reveal","image-keyboard-response","507","1578825","0.0-6.0-4.71","3062013","co38587","norming","","","","","","",""
"null","../img/tt/1362tt.jpg","null","mooney2","image-keyboard-response","508","1580833","0.0-6.0-5.71","3062013","co38587","norming","","","","","","",""
"4981.29499994684","","","post_reveal_questions","survey-likert","509","1585816","0.0-6.0-6.71","3062013","co38587","norming","","","{""aha"":5}","[0]","../img/tt/1362tt.jpg","",""
"null","<div style=""font-size:60px;""> </div>","null","fixation","html-keyboard-response","510","1586022","0.0-6.0-0.72","3062013","co38587","norming","","","","","","",""
"null","../img/tt/438tt.jpg","null","mooney1","image-keyboard-response","511","1589027","0.0-6.0-1.72","3062013","co38587","norming","","","","","","",""
"7288.509999983944","","","post_mooney1_questions","survey-likert","512","1596318","0.0-6.0-2.72","3062013","co38587","norming","","","{""curiosity"":5,""confidence"":0}","[0,1]","../img/tt/438tt.jpg","",""
"765.7250000047497","","","recognition","survey-text","513","1597088","0.0-6.0-3.72","3062013","co38587","norming","","","{""guess"":""""}","","../img/tt/438tt.jpg","",""
"null","../img/gs/438gs.jpg","null","reveal","image-keyboard-response","514","1599095","0.0-6.0-4.72","3062013","co38587","norming","","","","","","",""
"null","../img/tt/438tt.jpg","null","mooney2","image-keyboard-response","515","1601110","0.0-6.0-5.72","3062013","co38587","norming","","","","","","",""
"10063.744999992196","","","post_reveal_questions","survey-likert","516","1611176","0.0-6.0-6.72","3062013","co38587","norming","","","{""aha"":4}","[0]","../img/tt/438tt.jpg","",""
"null","<div style=""font-size:60px;""> </div>","null","fixation","html-keyboard-response","517","1611391","0.0-6.0-0.73","3062013","co38587","norming","","","","","","",""
"null","../img/tt/1044tt.jpg","null","mooney1","image-keyboard-response","518","1614408","0.0-6.0-1.73","3062013","co38587","norming","","","","","","",""
"8726.660000043921","","","post_mooney1_questions","survey-likert","519","1623138","0.0-6.0-2.73","3062013","co38587","norming","","","{""curiosity"":6,""confidence"":0}","[0,1]","../img/tt/1044tt.jpg","",""
"624.8100000084378","","","recognition","survey-text","520","1623767","0.0-6.0-3.73","3062013","co38587","norming","","","{""guess"":""""}","","../img/tt/1044tt.jpg","",""
"null","../img/gs/1044gs.jpg","null","reveal","image-keyboard-response","521","1625771","0.0-6.0-4.73","3062013","co38587","norming","","","","","","",""
"null","../img/tt/1044tt.jpg","null","mooney2","image-keyboard-response","522","1627787","0.0-6.0-5.73","3062013","co38587","norming","","","","","","",""
"2272.0550000085495","","","post_reveal_questions","survey-likert","523","1630061","0.0-6.0-6.73","3062013","co38587","norming","","","{""aha"":4}","[0]","../img/tt/1044tt.jpg","",""
"null","<div style=""font-size:60px;""> </div>","null","fixation","html-keyboard-response","524","1630268","0.0-6.0-0.74","3062013","co38587","norming","","","","","","",""
"null","../img/tt/378tt.jpg","null","mooney1","image-keyboard-response","525","1633282","0.0-6.0-1.74","3062013","co38587","norming","","","","","","",""
"4469.260000041686","","","post_mooney1_questions","survey-likert","526","1637753","0.0-6.0-2.74","3062013","co38587","norming","","","{""curiosity"":6,""confidence"":0}","[0,1]","../img/tt/378tt.jpg","",""
"638.9300000155345","","","recognition","survey-text","527","1638396","0.0-6.0-3.74","3062013","co38587","norming","","","{""guess"":""""}","","../img/tt/378tt.jpg","",""
"null","../img/gs/378gs.jpg","null","reveal","image-keyboard-response","528","1640408","0.0-6.0-4.74","3062013","co38587","norming","","","","","","",""
"null","../img/tt/378tt.jpg","null","mooney2","image-keyboard-response","529","1642410","0.0-6.0-5.74","3062013","co38587","norming","","","","","","",""
"3470.870000019204","","","post_reveal_questions","survey-likert","530","1645883","0.0-6.0-6.74","3062013","co38587","norming","","","{""aha"":4}","[0]","../img/tt/378tt.jpg","",""
"null","<div style=""font-size:60px;""> </div>","null","fixation","html-keyboard-response","531","1646100","0.0-6.0-0.75","3062013","co38587","norming","","","","","","",""
"null","../img/tt/080tt.jpg","null","mooney1","image-keyboard-response","532","1649103","0.0-6.0-1.75","3062013","co38587","norming","","","","","","",""
"4465.680000022985","","","post_mooney1_questions","survey-likert","533","1653572","0.0-6.0-2.75","3062013","co38587","norming","","","{""curiosity"":6,""confidence"":0}","[0,1]","../img/tt/080tt.jpg","",""
"599.8649999964982","","","recognition","survey-text","534","1654175","0.0-6.0-3.75","3062013","co38587","norming","","","{""guess"":""""}","","../img/tt/080tt.jpg","",""
"null","../img/gs/080gs.jpg","null","reveal","image-keyboard-response","535","1656177","0.0-6.0-4.75","3062013","co38587","norming","","","","","","",""
"null","../img/tt/080tt.jpg","null","mooney2","image-keyboard-response","536","1658193","0.0-6.0-5.75","3062013","co38587","norming","","","","","","",""
"3581.525000045076","","","post_reveal_questions","survey-likert","537","1661777","0.0-6.0-6.75","3062013","co38587","norming","","","{""aha"":4}","[0]","../img/tt/080tt.jpg","",""
"null","<div style=""font-size:60px;""> </div>","null","fixation","html-keyboard-response","538","1661988","0.0-6.0-0.76","3062013","co38587","norming","","","","","","",""
"null","../img/tt/111tt.jpg","null","mooney1","image-keyboard-response","539","1665002","0.0-6.0-1.76","3062013","co38587","norming","","","","","","",""
"7172.944999998435","","","post_mooney1_questions","survey-likert","540","1672177","0.0-6.0-2.76","3062013","co38587","norming","","","{""curiosity"":6,""confidence"":0}","[0,1]","../img/tt/111tt.jpg","",""
"714.3150000483729","","","recognition","survey-text","541","1672895","0.0-6.0-3.76","3062013","co38587","norming","","","{""guess"":""""}","","../img/tt/111tt.jpg","",""
"null","../img/gs/111gs.jpg","null","reveal","image-keyboard-response","542","1674909","0.0-6.0-4.76","3062013","co38587","norming","","","","","","",""
"null","../img/tt/111tt.jpg","null","mooney2","image-keyboard-response","543","1676924","0.0-6.0-5.76","3062013","co38587","norming","","","","","","",""
"3283.6349999997765","","","post_reveal_questions","survey-likert","544","1680209","0.0-6.0-6.76","3062013","co38587","norming","","","{""aha"":4}","[0]","../img/tt/111tt.jpg","",""
"null","<div style=""font-size:60px;""> </div>","null","fixation","html-keyboard-response","545","1680425","0.0-6.0-0.77","3062013","co38587","norming","","","","","","",""
"null","../img/tt/1037tt.jpg","null","mooney1","image-keyboard-response","546","1683435","0.0-6.0-1.77","3062013","co38587","norming","","","","","","",""
"4290.234999964014","","","post_mooney1_questions","survey-likert","547","1687728","0.0-6.0-2.77","3062013","co38587","norming","","","{""curiosity"":5,""confidence"":1}","[0,1]","../img/tt/1037tt.jpg","",""
"2350.930000015069","","","recognition","survey-text","548","1690083","0.0-6.0-3.77","3062013","co38587","norming","","","{""guess"":""hond""}","","../img/tt/1037tt.jpg","",""
"null","../img/gs/1037gs.jpg","null","reveal","image-keyboard-response","549","1692096","0.0-6.0-4.77","3062013","co38587","norming","","","","","","",""
"null","../img/tt/1037tt.jpg","null","mooney2","image-keyboard-response","550","1694103","0.0-6.0-5.77","3062013","co38587","norming","","","","","","",""
"3508.5850000032224","","","post_reveal_questions","survey-likert","551","1697614","0.0-6.0-6.77","3062013","co38587","norming","","","{""aha"":4}","[0]","../img/tt/1037tt.jpg","",""
"null","<div style=""font-size:60px;""> </div>","null","fixation","html-keyboard-response","552","1697829","0.0-6.0-0.78","3062013","co38587","norming","","","","","","",""
"null","../img/tt/1053tt.jpg","null","mooney1","image-keyboard-response","553","1700837","0.0-6.0-1.78","3062013","co38587","norming","","","","","","",""
