"rt","stimulus","key_press","test_part","trial_type","trial_index","time_elapsed","internal_node_id","totalTime","subject","experiment_name","button_pressed","success","responses","question_order","currentStim","old","correct"
"13992.725000000064","Welcome to the experiment. This is an online experiment so please don't close the tab/window until we say goodbye.  Press any key to begin.","32","instructions","html-keyboard-response","0","14018","0.0-0.0","3321929","co38158","norming","","","","","","",""
"12945.104999999785","<div style='word-wrap: break-word; width: 900px'><h3>Please consider this information carefully before deciding whether to participate in this research</h3><ul style='text-align: left; font-size: .8em;'><li><b>Purpose of the research</b>: To examine how people process images.</li><li><b>What you will do in this research</b>:  Stimuli (images) will be presented on the computer and you will be asked different questions about them.</li><li><b>Time required</b>: Participation will take between 45 and 60 minutes to complete.</li><li><b>Risks</b>:  There are no anticipated risks associated with participating in this study. The effects of participating should be comparable to those you would experience from viewing a computer monitor for 30 minutes and using a mouse or keyboard.</li><li><b>Benefits</b>:  This study provides no benefits to you individually except for the credit. The study provides important information about the nature of perception and learning.</li><li><b>Confidentiality</b>:  Your participation in this study will remain confidential. No personally identifiable information will be associated with your data. Your de-identified data may be shared with other researchers and used in future projects.</li><li><b>Participation and withdrawal</b>:  Your participation in this study is completely voluntary and you may refuse to participate or you may choose to withdraw at any time without penalty.</li><li><b>How to contact the researchers</b>: If you have questions or concerns about your participation or payment, or want to request a summary of research findings, please contact Sander Van de Cruys (KU Leuven), at sander.vandecruys@kuleuven.be.</li></ul><p>The nature and purpose of this research have been sufficiently explained and I agree to participate in this study.  I understand that I am free to withdraw at any time without incurring any penalty.</p><p>Please consent by clicking the button below to continue. Otherwise, please exit the study at this time.</p></div>","","instructions","html-button-response","1","26965","0.0-1.0","3321929","co38158","norming","0","","","","","",""
"","","","instructions","fullscreen","2","33350","0.0-2.0","3321929","co38158","norming","","true","","","","",""
"40917.30499999994","","","sona","survey-html-form","3","74264","0.0-3.0","3321929","co38158","norming","","","[{""name"":""sonaid"",""value"":""38158""},{""name"":""debrief"",""value"":""yes""},{""name"":""datajoin"",""value"":""yes""}]","","","",""
"55067.66500000049","<div style='word-wrap: break-word; width: 900px'><h3>Instructions</h3><p>This experiment will have 3 parts. In the first part you will see a series of distorted images like the one below on the left. As you can see in the righthand image, the distorted images are derived from actual photographs. In what follows, you will <strong>briefly</strong> be presented with <strong>only</strong> the distorted image.</p> <div style='float: left; margin-right: 20px;'><img src='../img/018tt.jpg' height='250' width='250'></img></div><div style='float: right; margin-left: 20px;'><img src='../img/018gs.jpg' height='250' width='250'></img></div><p>Subsequently you will be asked a few questions about the image: One question on how <strong>curious</strong> you are about the solution and one on how <strong>confident</strong> you are that you know the solution.</p>Next, we ask you to make a guess on what is in the image. Note that it is OK to name just the <strong>basic level category</strong>. For example when you see a parrot in the image, 'parrot' will obviously be a correct answer but also correct is 'bird'. However, 'animal' will <strong>not</strong> be counted as a correct response. For the example above, 'rose' would be correct or 'flower', but not 'plant'. When soccer players are depicted, 'soccer', 'football', 'soccer players' will be correct, but not 'humans', 'outdoors', or 'sports'. You do not need to describe the image in full, just name the main object in it <strong>in one or two words</strong>. All images depict objects from one of the following broad level categories: animals, inanimate objects, plants, sports, vehicles, and food. Recognizing means knowing <strong>more</strong> than these broad labels for a given image. But we always encourage you to <strong>make a guess</strong> if you can. Note that you are allowed to use <strong>Dutch and English</strong> in your answers, whatever comes easiest for you.</p><p>Press any key to continue.</p></div>","32","instructions","html-keyboard-response","4","129337","0.0-4.0","3321929","co38158","norming","","","","","","",""
"4557.389999999956","<div style='word-wrap: break-word; width: 900px'><h3>Instructions</h3> <p>Next, the solution image will be revealed to you and you'll be asked to indicate how strong your <strong>aha-experience</strong> was after seeing the solution. This describes the positive feeling of the 'click' you sometimes experience, when the pieces of the 'puzzle' fall together and you suddenly have 'insight' in the image.</p><img src='aha.jpg' height='188' width='250'></img><p>Note that there are no right or wrong answers. We are interested in what <strong>you</strong> see in the image and how <strong>you</strong> feel about it.</p><p>Press any key to start the experiment.</p></div>","32","instructions","html-keyboard-response","5","133899","0.0-5.0","3321929","co38158","norming","","","","","","",""
"null","<div style=""font-size:60px;""> </div>","null","fixation","html-keyboard-response","6","134107","0.0-6.0-0.0","3321929","co38158","norming","","","","","","",""
"null","../img/tt/1048tt.jpg","null","mooney1","image-keyboard-response","7","137113","0.0-6.0-1.0","3321929","co38158","norming","","","","","","",""
"13846.65000000043","","","post_mooney1_questions","survey-likert","8","150963","0.0-6.0-2.0","3321929","co38158","norming","","","{""curiosity"":2,""confidence"":1}","[0,1]","../img/tt/1048tt.jpg","",""
"4261.749999999651","","","recognition","survey-text","9","155226","0.0-6.0-3.0","3321929","co38158","norming","","","{""guess"":""plant""}","","../img/tt/1048tt.jpg","",""
"null","../img/gs/1048gs.jpg","null","reveal","image-keyboard-response","10","157233","0.0-6.0-4.0","3321929","co38158","norming","","","","","","",""
"null","../img/tt/1048tt.jpg","null","mooney2","image-keyboard-response","11","159236","0.0-6.0-5.0","3321929","co38158","norming","","","","","","",""
"9163.370000000228","","","post_reveal_questions","survey-likert","12","168402","0.0-6.0-6.0","3321929","co38158","norming","","","{""aha"":1}","[0]","../img/tt/1048tt.jpg","",""
"null","<div style=""font-size:60px;""> </div>","null","fixation","html-keyboard-response","13","168606","0.0-6.0-0.1","3321929","co38158","norming","","","","","","",""
"null","../img/tt/549tt.jpg","null","mooney1","image-keyboard-response","14","171609","0.0-6.0-1.1","3321929","co38158","norming","","","","","","",""
"8551.619999999268","","","post_mooney1_questions","survey-likert","15","180162","0.0-6.0-2.1","3321929","co38158","norming","","","{""curiosity"":2,""confidence"":2}","[0,1]","../img/tt/549tt.jpg","",""
"1830.049999999581","","","recognition","survey-text","16","181994","0.0-6.0-3.1","3321929","co38158","norming","","","{""guess"":""food""}","","../img/tt/549tt.jpg","",""
"null","../img/gs/549gs.jpg","null","reveal","image-keyboard-response","17","184003","0.0-6.0-4.1","3321929","co38158","norming","","","","","","",""
"null","../img/tt/549tt.jpg","null","mooney2","image-keyboard-response","18","186012","0.0-6.0-5.1","3321929","co38158","norming","","","","","","",""
"3187.6449999999604","","","post_reveal_questions","survey-likert","19","189202","0.0-6.0-6.1","3321929","co38158","norming","","","{""aha"":1}","[0]","../img/tt/549tt.jpg","",""
"null","<div style=""font-size:60px;""> </div>","null","fixation","html-keyboard-response","20","189408","0.0-6.0-0.2","3321929","co38158","norming","","","","","","",""
"null","../img/tt/412tt.jpg","null","mooney1","image-keyboard-response","21","192416","0.0-6.0-1.2","3321929","co38158","norming","","","","","","",""
"10537.654999999184","","","post_mooney1_questions","survey-likert","22","202956","0.0-6.0-2.2","3321929","co38158","norming","","","{""curiosity"":4,""confidence"":1}","[0,1]","../img/tt/412tt.jpg","",""
"3678.345000000263","","","recognition","survey-text","23","206636","0.0-6.0-3.2","3321929","co38158","norming","","","{""guess"":""bottle""}","","../img/tt/412tt.jpg","",""
"null","../img/gs/412gs.jpg","null","reveal","image-keyboard-response","24","208647","0.0-6.0-4.2","3321929","co38158","norming","","","","","","",""
"null","../img/tt/412tt.jpg","null","mooney2","image-keyboard-response","25","210653","0.0-6.0-5.2","3321929","co38158","norming","","","","","","",""
"6243.99999999968","","","post_reveal_questions","survey-likert","26","216900","0.0-6.0-6.2","3321929","co38158","norming","","","{""aha"":2}","[0]","../img/tt/412tt.jpg","",""
"null","<div style=""font-size:60px;""> </div>","null","fixation","html-keyboard-response","27","217109","0.0-6.0-0.3","3321929","co38158","norming","","","","","","",""
"null","../img/tt/056tt.jpg","null","mooney1","image-keyboard-response","28","220121","0.0-6.0-1.3","3321929","co38158","norming","","","","","","",""
"7304.154999999795","","","post_mooney1_questions","survey-likert","29","227428","0.0-6.0-2.3","3321929","co38158","norming","","","{""curiosity"":3,""confidence"":2}","[0,1]","../img/tt/056tt.jpg","",""
"2901.79499999978","","","recognition","survey-text","30","230331","0.0-6.0-3.3","3321929","co38158","norming","","","{""guess"":""wolf""}","","../img/tt/056tt.jpg","",""
"null","../img/gs/056gs.jpg","null","reveal","image-keyboard-response","31","232334","0.0-6.0-4.3","3321929","co38158","norming","","","","","","",""
"null","../img/tt/056tt.jpg","null","mooney2","image-keyboard-response","32","234336","0.0-6.0-5.3","3321929","co38158","norming","","","","","","",""
"2698.3650000001653","","","post_reveal_questions","survey-likert","33","237036","0.0-6.0-6.3","3321929","co38158","norming","","","{""aha"":3}","[0]","../img/tt/056tt.jpg","",""
"null","<div style=""font-size:60px;""> </div>","null","fixation","html-keyboard-response","34","237242","0.0-6.0-0.4","3321929","co38158","norming","","","","","","",""
"null","../img/tt/1148tt.jpg","null","mooney1","image-keyboard-response","35","240251","0.0-6.0-1.4","3321929","co38158","norming","","","","","","",""
"8422.559999999969","","","post_mooney1_questions","survey-likert","36","248676","0.0-6.0-2.4","3321929","co38158","norming","","","{""curiosity"":2,""confidence"":1}","[0,1]","../img/tt/1148tt.jpg","",""
"2918.3300000004238","","","recognition","survey-text","37","251595","0.0-6.0-3.4","3321929","co38158","norming","","","{""guess"":""car""}","","../img/tt/1148tt.jpg","",""
"null","../img/gs/1148gs.jpg","null","reveal","image-keyboard-response","38","253604","0.0-6.0-4.4","3321929","co38158","norming","","","","","","",""
"null","../img/tt/1148tt.jpg","null","mooney2","image-keyboard-response","39","255618","0.0-6.0-5.4","3321929","co38158","norming","","","","","","",""
"2375.430000000051","","","post_reveal_questions","survey-likert","40","258003","0.0-6.0-6.4","3321929","co38158","norming","","","{""aha"":5}","[0]","../img/tt/1148tt.jpg","",""
"null","<div style=""font-size:60px;""> </div>","null","fixation","html-keyboard-response","41","258213","0.0-6.0-0.5","3321929","co38158","norming","","","","","","",""
"null","../img/tt/032tt.jpg","null","mooney1","image-keyboard-response","42","261223","0.0-6.0-1.5","3321929","co38158","norming","","","","","","",""
"6122.62999999983","","","post_mooney1_questions","survey-likert","43","267347","0.0-6.0-2.5","3321929","co38158","norming","","","{""curiosity"":2,""confidence"":2}","[0,1]","../img/tt/032tt.jpg","",""
"4494.235000000102","","","recognition","survey-text","44","271843","0.0-6.0-3.5","3321929","co38158","norming","","","{""guess"":""snake""}","","../img/tt/032tt.jpg","",""
"null","../img/gs/032gs.jpg","null","reveal","image-keyboard-response","45","273850","0.0-6.0-4.5","3321929","co38158","norming","","","","","","",""
"null","../img/tt/032tt.jpg","null","mooney2","image-keyboard-response","46","275852","0.0-6.0-5.5","3321929","co38158","norming","","","","","","",""
"5252.964999999735","","","post_reveal_questions","survey-likert","47","281107","0.0-6.0-6.5","3321929","co38158","norming","","","{""aha"":1}","[0]","../img/tt/032tt.jpg","",""
"null","<div style=""font-size:60px;""> </div>","null","fixation","html-keyboard-response","48","281315","0.0-6.0-0.6","3321929","co38158","norming","","","","","","",""
"null","../img/tt/1239tt.jpg","null","mooney1","image-keyboard-response","49","284318","0.0-6.0-1.6","3321929","co38158","norming","","","","","","",""
"6099.88999999949","","","post_mooney1_questions","survey-likert","50","290419","0.0-6.0-2.6","3321929","co38158","norming","","","{""curiosity"":1,""confidence"":2}","[0,1]","../img/tt/1239tt.jpg","",""
"2254.230000000447","","","recognition","survey-text","51","292675","0.0-6.0-3.6","3321929","co38158","norming","","","{""guess"":""cat""}","","../img/tt/1239tt.jpg","",""
"null","../img/gs/1239gs.jpg","null","reveal","image-keyboard-response","52","294678","0.0-6.0-4.6","3321929","co38158","norming","","","","","","",""
"null","../img/tt/1239tt.jpg","null","mooney2","image-keyboard-response","53","296682","0.0-6.0-5.6","3321929","co38158","norming","","","","","","",""
"5518.645000000077","","","post_reveal_questions","survey-likert","54","302203","0.0-6.0-6.6","3321929","co38158","norming","","","{""aha"":3}","[0]","../img/tt/1239tt.jpg","",""
"null","<div style=""font-size:60px;""> </div>","null","fixation","html-keyboard-response","55","302413","0.0-6.0-0.7","3321929","co38158","norming","","","","","","",""
"null","../img/tt/1270tt.jpg","null","mooney1","image-keyboard-response","56","305421","0.0-6.0-1.7","3321929","co38158","norming","","","","","","",""
"6643.025000000314","","","post_mooney1_questions","survey-likert","57","312067","0.0-6.0-2.7","3321929","co38158","norming","","","{""curiosity"":2,""confidence"":2}","[0,1]","../img/tt/1270tt.jpg","",""
"2574.1299999999464","","","recognition","survey-text","58","314643","0.0-6.0-3.7","3321929","co38158","norming","","","{""guess"":""human""}","","../img/tt/1270tt.jpg","",""
"null","../img/gs/1270gs.jpg","null","reveal","image-keyboard-response","59","316644","0.0-6.0-4.7","3321929","co38158","norming","","","","","","",""
"null","../img/tt/1270tt.jpg","null","mooney2","image-keyboard-response","60","318647","0.0-6.0-5.7","3321929","co38158","norming","","","","","","",""
"2875.0300000002026","","","post_reveal_questions","survey-likert","61","321524","0.0-6.0-6.7","3321929","co38158","norming","","","{""aha"":4}","[0]","../img/tt/1270tt.jpg","",""
"null","<div style=""font-size:60px;""> </div>","null","fixation","html-keyboard-response","62","321732","0.0-6.0-0.8","3321929","co38158","norming","","","","","","",""
"null","../img/tt/044tt.jpg","null","mooney1","image-keyboard-response","63","324736","0.0-6.0-1.8","3321929","co38158","norming","","","","","","",""
"7273.549999999872","","","post_mooney1_questions","survey-likert","64","332012","0.0-6.0-2.8","3321929","co38158","norming","","","{""curiosity"":2,""confidence"":1}","[0,1]","../img/tt/044tt.jpg","",""
"2998.6699999999837","","","recognition","survey-text","65","335012","0.0-6.0-3.8","3321929","co38158","norming","","","{""guess"":""sofa""}","","../img/tt/044tt.jpg","",""
"null","../img/gs/044gs.jpg","null","reveal","image-keyboard-response","66","337021","0.0-6.0-4.8","3321929","co38158","norming","","","","","","",""
"null","../img/tt/044tt.jpg","null","mooney2","image-keyboard-response","67","339031","0.0-6.0-5.8","3321929","co38158","norming","","","","","","",""
"3346.4699999995064","","","post_reveal_questions","survey-likert","68","342380","0.0-6.0-6.8","3321929","co38158","norming","","","{""aha"":1}","[0]","../img/tt/044tt.jpg","",""
"null","<div style=""font-size:60px;""> </div>","null","fixation","html-keyboard-response","69","342589","0.0-6.0-0.9","3321929","co38158","norming","","","","","","",""
"null","../img/tt/534tt.jpg","null","mooney1","image-keyboard-response","70","345592","0.0-6.0-1.9","3321929","co38158","norming","","","","","","",""
"4105.765000000247","","","post_mooney1_questions","survey-likert","71","349700","0.0-6.0-2.9","3321929","co38158","norming","","","{""curiosity"":2,""confidence"":2}","[0,1]","../img/tt/534tt.jpg","",""
"4430.220000000147","","","recognition","survey-text","72","354132","0.0-6.0-3.9","3321929","co38158","norming","","","{""guess"":""plants""}","","../img/tt/534tt.jpg","",""
"null","../img/gs/534gs.jpg","null","reveal","image-keyboard-response","73","356133","0.0-6.0-4.9","3321929","co38158","norming","","","","","","",""
"null","../img/tt/534tt.jpg","null","mooney2","image-keyboard-response","74","358135","0.0-6.0-5.9","3321929","co38158","norming","","","","","","",""
"2362.7249999999185","","","post_reveal_questions","survey-likert","75","360500","0.0-6.0-6.9","3321929","co38158","norming","","","{""aha"":5}","[0]","../img/tt/534tt.jpg","",""
"null","<div style=""font-size:60px;""> </div>","null","fixation","html-keyboard-response","76","360705","0.0-6.0-0.10","3321929","co38158","norming","","","","","","",""
"null","../img/tt/301tt.jpg","null","mooney1","image-keyboard-response","77","363715","0.0-6.0-1.10","3321929","co38158","norming","","","","","","",""
"7134.890000000247","","","post_mooney1_questions","survey-likert","78","370852","0.0-6.0-2.10","3321929","co38158","norming","","","{""curiosity"":2,""confidence"":2}","[0,1]","../img/tt/301tt.jpg","",""
"5774.115000000165","","","recognition","survey-text","79","376628","0.0-6.0-3.10","3321929","co38158","norming","","","{""guess"":""movie theater""}","","../img/tt/301tt.jpg","",""
"null","../img/gs/301gs.jpg","null","reveal","image-keyboard-response","80","378639","0.0-6.0-4.10","3321929","co38158","norming","","","","","","",""
"null","../img/tt/301tt.jpg","null","mooney2","image-keyboard-response","81","380648","0.0-6.0-5.10","3321929","co38158","norming","","","","","","",""
"2668.1550000002608","","","post_reveal_questions","survey-likert","82","383318","0.0-6.0-6.10","3321929","co38158","norming","","","{""aha"":3}","[0]","../img/tt/301tt.jpg","",""
"null","<div style=""font-size:60px;""> </div>","null","fixation","html-keyboard-response","83","383523","0.0-6.0-0.11","3321929","co38158","norming","","","","","","",""
"null","../img/tt/477tt.jpg","null","mooney1","image-keyboard-response","84","386535","0.0-6.0-1.11","3321929","co38158","norming","","","","","","",""
"6204.9049999996205","","","post_mooney1_questions","survey-likert","85","392742","0.0-6.0-2.11","3321929","co38158","norming","","","{""curiosity"":2,""confidence"":1}","[0,1]","../img/tt/477tt.jpg","",""
"4813.920000000508","","","recognition","survey-text","86","397558","0.0-6.0-3.11","3321929","co38158","norming","","","{""guess"":""hippo""}","","../img/tt/477tt.jpg","",""
"null","../img/gs/477gs.jpg","null","reveal","image-keyboard-response","87","399565","0.0-6.0-4.11","3321929","co38158","norming","","","","","","",""
"null","../img/tt/477tt.jpg","null","mooney2","image-keyboard-response","88","401572","0.0-6.0-5.11","3321929","co38158","norming","","","","","","",""
"1928.0600000002305","","","post_reveal_questions","survey-likert","89","403502","0.0-6.0-6.11","3321929","co38158","norming","","","{""aha"":2}","[0]","../img/tt/477tt.jpg","",""
"null","<div style=""font-size:60px;""> </div>","null","fixation","html-keyboard-response","90","403706","0.0-6.0-0.12","3321929","co38158","norming","","","","","","",""
"null","../img/tt/1156tt.jpg","null","mooney1","image-keyboard-response","91","406718","0.0-6.0-1.12","3321929","co38158","norming","","","","","","",""
"7201.635000000359","","","post_mooney1_questions","survey-likert","92","413926","0.0-6.0-2.12","3321929","co38158","norming","","","{""curiosity"":2,""confidence"":1}","[0,1]","../img/tt/1156tt.jpg","",""
"2190.0049999994226","","","recognition","survey-text","93","416118","0.0-6.0-3.12","3321929","co38158","norming","","","{""guess"":""food""}","","../img/tt/1156tt.jpg","",""
"null","../img/gs/1156gs.jpg","null","reveal","image-keyboard-response","94","418127","0.0-6.0-4.12","3321929","co38158","norming","","","","","","",""
"null","../img/tt/1156tt.jpg","null","mooney2","image-keyboard-response","95","420130","0.0-6.0-5.12","3321929","co38158","norming","","","","","","",""
"2441.889999999141","","","post_reveal_questions","survey-likert","96","422574","0.0-6.0-6.12","3321929","co38158","norming","","","{""aha"":4}","[0]","../img/tt/1156tt.jpg","",""
"null","<div style=""font-size:60px;""> </div>","null","fixation","html-keyboard-response","97","422784","0.0-6.0-0.13","3321929","co38158","norming","","","","","","",""
"null","../img/tt/1278tt.jpg","null","mooney1","image-keyboard-response","98","425795","0.0-6.0-1.13","3321929","co38158","norming","","","","","","",""
"4913.160000000091","","","post_mooney1_questions","survey-likert","99","430710","0.0-6.0-2.13","3321929","co38158","norming","","","{""curiosity"":3,""confidence"":2}","[0,1]","../img/tt/1278tt.jpg","",""
"2605.9850000001024","","","recognition","survey-text","100","433318","0.0-6.0-3.13","3321929","co38158","norming","","","{""guess"":""dog""}","","../img/tt/1278tt.jpg","",""
"null","../img/gs/1278gs.jpg","null","reveal","image-keyboard-response","101","435325","0.0-6.0-4.13","3321929","co38158","norming","","","","","","",""
"null","../img/tt/1278tt.jpg","null","mooney2","image-keyboard-response","102","437329","0.0-6.0-5.13","3321929","co38158","norming","","","","","","",""
"6227.079999999667","","","post_reveal_questions","survey-likert","103","443550","0.0-6.0-6.13","3321929","co38158","norming","","","{""aha"":2}","[0]","../img/tt/1278tt.jpg","",""
"null","<div style=""font-size:60px;""> </div>","null","fixation","html-keyboard-response","104","443754","0.0-6.0-0.14","3321929","co38158","norming","","","","","","",""
"null","../img/tt/1043tt.jpg","null","mooney1","image-keyboard-response","105","446759","0.0-6.0-1.14","3321929","co38158","norming","","","","","","",""
"6709.27000000031","","","post_mooney1_questions","survey-likert","106","453471","0.0-6.0-2.14","3321929","co38158","norming","","","{""curiosity"":2,""confidence"":0}","[0,1]","../img/tt/1043tt.jpg","",""
"4525.9550000000745","","","recognition","survey-text","107","457998","0.0-6.0-3.14","3321929","co38158","norming","","","{""guess"":""""}","","../img/tt/1043tt.jpg","",""
"null","../img/gs/1043gs.jpg","null","reveal","image-keyboard-response","108","460000","0.0-6.0-4.14","3321929","co38158","norming","","","","","","",""
"null","../img/tt/1043tt.jpg","null","mooney2","image-keyboard-response","109","462002","0.0-6.0-5.14","3321929","co38158","norming","","","","","","",""
"5202.139999999432","","","post_reveal_questions","survey-likert","110","467206","0.0-6.0-6.14","3321929","co38158","norming","","","{""aha"":0}","[0]","../img/tt/1043tt.jpg","",""
"null","<div style=""font-size:60px;""> </div>","null","fixation","html-keyboard-response","111","467410","0.0-6.0-0.15","3321929","co38158","norming","","","","","","",""
"null","../img/tt/416tt.jpg","null","mooney1","image-keyboard-response","112","470416","0.0-6.0-1.15","3321929","co38158","norming","","","","","","",""
"8133.91000000044","","","post_mooney1_questions","survey-likert","113","478551","0.0-6.0-2.15","3321929","co38158","norming","","","{""curiosity"":2,""confidence"":0}","[0,1]","../img/tt/416tt.jpg","",""
"1213.9100000003818","","","recognition","survey-text","114","479766","0.0-6.0-3.15","3321929","co38158","norming","","","{""guess"":""""}","","../img/tt/416tt.jpg","",""
"null","../img/gs/416gs.jpg","null","reveal","image-keyboard-response","115","481773","0.0-6.0-4.15","3321929","co38158","norming","","","","","","",""
"null","../img/tt/416tt.jpg","null","mooney2","image-keyboard-response","116","483778","0.0-6.0-5.15","3321929","co38158","norming","","","","","","",""
"3531.389999999199","","","post_reveal_questions","survey-likert","117","487310","0.0-6.0-6.15","3321929","co38158","norming","","","{""aha"":4}","[0]","../img/tt/416tt.jpg","",""
"null","<div style=""font-size:60px;""> </div>","null","fixation","html-keyboard-response","118","487513","0.0-6.0-0.16","3321929","co38158","norming","","","","","","",""
"null","../img/tt/1024tt.jpg","null","mooney1","image-keyboard-response","119","490518","0.0-6.0-1.16","3321929","co38158","norming","","","","","","",""
"6860.749999999825","","","post_mooney1_questions","survey-likert","120","497383","0.0-6.0-2.16","3321929","co38158","norming","","","{""curiosity"":3,""confidence"":1}","[0,1]","../img/tt/1024tt.jpg","",""
"2997.7099999996717","","","recognition","survey-text","121","500389","0.0-6.0-3.16","3321929","co38158","norming","","","{""guess"":""animal""}","","../img/tt/1024tt.jpg","",""
"null","../img/gs/1024gs.jpg","null","reveal","image-keyboard-response","122","502393","0.0-6.0-4.16","3321929","co38158","norming","","","","","","",""
"null","../img/tt/1024tt.jpg","null","mooney2","image-keyboard-response","123","504396","0.0-6.0-5.16","3321929","co38158","norming","","","","","","",""
"4752.814999999828","","","post_reveal_questions","survey-likert","124","509150","0.0-6.0-6.16","3321929","co38158","norming","","","{""aha"":4}","[0]","../img/tt/1024tt.jpg","",""
"null","<div style=""font-size:60px;""> </div>","null","fixation","html-keyboard-response","125","509352","0.0-6.0-0.17","3321929","co38158","norming","","","","","","",""
"null","../img/tt/517tt.jpg","null","mooney1","image-keyboard-response","126","512364","0.0-6.0-1.17","3321929","co38158","norming","","","","","","",""
"6200.84499999939","","","post_mooney1_questions","survey-likert","127","518566","0.0-6.0-2.17","3321929","co38158","norming","","","{""curiosity"":2,""confidence"":3}","[0,1]","../img/tt/517tt.jpg","",""
"6717.77500000014","","","recognition","survey-text","128","525286","0.0-6.0-3.17","3321929","co38158","norming","","","{""guess"":""zeehond""}","","../img/tt/517tt.jpg","",""
"null","../img/gs/517gs.jpg","null","reveal","image-keyboard-response","129","527291","0.0-6.0-4.17","3321929","co38158","norming","","","","","","",""
"null","../img/tt/517tt.jpg","null","mooney2","image-keyboard-response","130","529294","0.0-6.0-5.17","3321929","co38158","norming","","","","","","",""
"3653.05999999959","","","post_reveal_questions","survey-likert","131","532950","0.0-6.0-6.17","3321929","co38158","norming","","","{""aha"":4}","[0]","../img/tt/517tt.jpg","",""
"null","<div style=""font-size:60px;""> </div>","null","fixation","html-keyboard-response","132","533158","0.0-6.0-0.18","3321929","co38158","norming","","","","","","",""
"null","../img/tt/1046tt.jpg","null","mooney1","image-keyboard-response","133","536165","0.0-6.0-1.18","3321929","co38158","norming","","","","","","",""
"6600.069999999483","","","post_mooney1_questions","survey-likert","134","542766","0.0-6.0-2.18","3321929","co38158","norming","","","{""curiosity"":2,""confidence"":2}","[0,1]","../img/tt/1046tt.jpg","",""
"3190.135000000708","","","recognition","survey-text","135","545958","0.0-6.0-3.18","3321929","co38158","norming","","","{""guess"":""panda""}","","../img/tt/1046tt.jpg","",""
"null","../img/gs/1046gs.jpg","null","reveal","image-keyboard-response","136","547965","0.0-6.0-4.18","3321929","co38158","norming","","","","","","",""
"null","../img/tt/1046tt.jpg","null","mooney2","image-keyboard-response","137","549967","0.0-6.0-5.18","3321929","co38158","norming","","","","","","",""
"4868.955000000773","","","post_reveal_questions","survey-likert","138","554838","0.0-6.0-6.18","3321929","co38158","norming","","","{""aha"":1}","[0]","../img/tt/1046tt.jpg","",""
"null","<div style=""font-size:60px;""> </div>","null","fixation","html-keyboard-response","139","555047","0.0-6.0-0.19","3321929","co38158","norming","","","","","","",""
"null","../img/tt/1171tt.jpg","null","mooney1","image-keyboard-response","140","558050","0.0-6.0-1.19","3321929","co38158","norming","","","","","","",""
"6633.710000000079","","","post_mooney1_questions","survey-likert","141","564689","0.0-6.0-2.19","3321929","co38158","norming","","","{""curiosity"":1,""confidence"":1}","[0,1]","../img/tt/1171tt.jpg","",""
"3174.114999999758","","","recognition","survey-text","142","567864","0.0-6.0-3.19","3321929","co38158","norming","","","{""guess"":""animal""}","","../img/tt/1171tt.jpg","",""
"null","../img/gs/1171gs.jpg","null","reveal","image-keyboard-response","143","569869","0.0-6.0-4.19","3321929","co38158","norming","","","","","","",""
"null","../img/tt/1171tt.jpg","null","mooney2","image-keyboard-response","144","571872","0.0-6.0-5.19","3321929","co38158","norming","","","","","","",""
"3765.7200000003213","","","post_reveal_questions","survey-likert","145","575641","0.0-6.0-6.19","3321929","co38158","norming","","","{""aha"":1}","[0]","../img/tt/1171tt.jpg","",""
"null","<div style=""font-size:60px;""> </div>","null","fixation","html-keyboard-response","146","575843","0.0-6.0-0.20","3321929","co38158","norming","","","","","","",""
"null","../img/tt/1275tt.jpg","null","mooney1","image-keyboard-response","147","578852","0.0-6.0-1.20","3321929","co38158","norming","","","","","","",""
"10001.624999999884","","","post_mooney1_questions","survey-likert","148","588857","0.0-6.0-2.20","3321929","co38158","norming","","","{""curiosity"":3,""confidence"":0}","[0,1]","../img/tt/1275tt.jpg","",""
"949.964999999851","","","recognition","survey-text","149","589808","0.0-6.0-3.20","3321929","co38158","norming","","","{""guess"":""""}","","../img/tt/1275tt.jpg","",""
"null","../img/gs/1275gs.jpg","null","reveal","image-keyboard-response","150","591811","0.0-6.0-4.20","3321929","co38158","norming","","","","","","",""
"null","../img/tt/1275tt.jpg","null","mooney2","image-keyboard-response","151","593815","0.0-6.0-5.20","3321929","co38158","norming","","","","","","",""
"4631.564999999711","","","post_reveal_questions","survey-likert","152","598448","0.0-6.0-6.20","3321929","co38158","norming","","","{""aha"":0}","[0]","../img/tt/1275tt.jpg","",""
"null","<div style=""font-size:60px;""> </div>","null","fixation","html-keyboard-response","153","598651","0.0-6.0-0.21","3321929","co38158","norming","","","","","","",""
"null","../img/tt/1188tt.jpg","null","mooney1","image-keyboard-response","154","601659","0.0-6.0-1.21","3321929","co38158","norming","","","","","","",""
"7114.254999999539","","","post_mooney1_questions","survey-likert","155","608777","0.0-6.0-2.21","3321929","co38158","norming","","","{""curiosity"":3,""confidence"":4}","[0,1]","../img/tt/1188tt.jpg","",""
"4414.289999999688","","","recognition","survey-text","156","613192","0.0-6.0-3.21","3321929","co38158","norming","","","{""guess"":""cyclist""}","","../img/tt/1188tt.jpg","",""
"null","../img/gs/1188gs.jpg","null","reveal","image-keyboard-response","157","615196","0.0-6.0-4.21","3321929","co38158","norming","","","","","","",""
"null","../img/tt/1188tt.jpg","null","mooney2","image-keyboard-response","158","617198","0.0-6.0-5.21","3321929","co38158","norming","","","","","","",""
"5815.814999999944","","","post_reveal_questions","survey-likert","159","623019","0.0-6.0-6.21","3321929","co38158","norming","","","{""aha"":3}","[0]","../img/tt/1188tt.jpg","",""
"null","<div style=""font-size:60px;""> </div>","null","fixation","html-keyboard-response","160","623224","0.0-6.0-0.22","3321929","co38158","norming","","","","","","",""
"null","../img/tt/296tt.jpg","null","mooney1","image-keyboard-response","161","626236","0.0-6.0-1.22","3321929","co38158","norming","","","","","","",""
"7459.799999999581","","","post_mooney1_questions","survey-likert","162","633699","0.0-6.0-2.22","3321929","co38158","norming","","","{""curiosity"":2,""confidence"":1}","[0,1]","../img/tt/296tt.jpg","",""
"3734.015000000014","","","recognition","survey-text","163","637435","0.0-6.0-3.22","3321929","co38158","norming","","","{""guess"":""sofa""}","","../img/tt/296tt.jpg","",""
"null","../img/gs/296gs.jpg","null","reveal","image-keyboard-response","164","639441","0.0-6.0-4.22","3321929","co38158","norming","","","","","","",""
"null","../img/tt/296tt.jpg","null","mooney2","image-keyboard-response","165","641451","0.0-6.0-5.22","3321929","co38158","norming","","","","","","",""
"7684.979999999981","","","post_reveal_questions","survey-likert","166","649139","0.0-6.0-6.22","3321929","co38158","norming","","","{""aha"":3}","[0]","../img/tt/296tt.jpg","",""
"null","<div style=""font-size:60px;""> </div>","null","fixation","html-keyboard-response","167","649344","0.0-6.0-0.23","3321929","co38158","norming","","","","","","",""
"null","../img/tt/1234tt.jpg","null","mooney1","image-keyboard-response","168","652351","0.0-6.0-1.23","3321929","co38158","norming","","","","","","",""
"8250.404999999795","","","post_mooney1_questions","survey-likert","169","660603","0.0-6.0-2.23","3321929","co38158","norming","","","{""curiosity"":5,""confidence"":1}","[0,1]","../img/tt/1234tt.jpg","",""
"5262.104999999865","","","recognition","survey-text","170","665867","0.0-6.0-3.23","3321929","co38158","norming","","","{""guess"":""rock""}","","../img/tt/1234tt.jpg","",""
"null","../img/gs/1234gs.jpg","null","reveal","image-keyboard-response","171","667877","0.0-6.0-4.23","3321929","co38158","norming","","","","","","",""
"null","../img/tt/1234tt.jpg","null","mooney2","image-keyboard-response","172","669886","0.0-6.0-5.23","3321929","co38158","norming","","","","","","",""
"3178.3750000004657","","","post_reveal_questions","survey-likert","173","673067","0.0-6.0-6.23","3321929","co38158","norming","","","{""aha"":1}","[0]","../img/tt/1234tt.jpg","",""
"null","<div style=""font-size:60px;""> </div>","null","fixation","html-keyboard-response","174","673268","0.0-6.0-0.24","3321929","co38158","norming","","","","","","",""
"null","../img/tt/020tt.jpg","null","mooney1","image-keyboard-response","175","676273","0.0-6.0-1.24","3321929","co38158","norming","","","","","","",""
"5687.530000000144","","","post_mooney1_questions","survey-likert","176","681963","0.0-6.0-2.24","3321929","co38158","norming","","","{""curiosity"":4,""confidence"":0}","[0,1]","../img/tt/020tt.jpg","",""
"765.6999999999534","","","recognition","survey-text","177","682725","0.0-6.0-3.24","3321929","co38158","norming","","","{""guess"":""""}","","../img/tt/020tt.jpg","",""
"null","../img/gs/020gs.jpg","null","reveal","image-keyboard-response","178","684727","0.0-6.0-4.24","3321929","co38158","norming","","","","","","",""
"null","../img/tt/020tt.jpg","null","mooney2","image-keyboard-response","179","686730","0.0-6.0-5.24","3321929","co38158","norming","","","","","","",""
"3151.230000000447","","","post_reveal_questions","survey-likert","180","689885","0.0-6.0-6.24","3321929","co38158","norming","","","{""aha"":1}","[0]","../img/tt/020tt.jpg","",""
"null","<div style=""font-size:60px;""> </div>","null","fixation","html-keyboard-response","181","690095","0.0-6.0-0.25","3321929","co38158","norming","","","","","","",""
"null","../img/tt/1211tt.jpg","null","mooney1","image-keyboard-response","182","693103","0.0-6.0-1.25","3321929","co38158","norming","","","","","","",""
"8035.724999999744","","","post_mooney1_questions","survey-likert","183","701141","0.0-6.0-2.25","3321929","co38158","norming","","","{""curiosity"":2,""confidence"":1}","[0,1]","../img/tt/1211tt.jpg","",""
"1510.1700000005076","","","recognition","survey-text","184","702653","0.0-6.0-3.25","3321929","co38158","norming","","","{""guess"":""""}","","../img/tt/1211tt.jpg","",""
"null","../img/gs/1211gs.jpg","null","reveal","image-keyboard-response","185","704655","0.0-6.0-4.25","3321929","co38158","norming","","","","","","",""
"null","../img/tt/1211tt.jpg","null","mooney2","image-keyboard-response","186","706662","0.0-6.0-5.25","3321929","co38158","norming","","","","","","",""
"3812.7050000003073","","","post_reveal_questions","survey-likert","187","710477","0.0-6.0-6.25","3321929","co38158","norming","","","{""aha"":4}","[0]","../img/tt/1211tt.jpg","",""
"null","<div style=""font-size:60px;""> </div>","null","fixation","html-keyboard-response","188","710682","0.0-6.0-0.26","3321929","co38158","norming","","","","","","",""
"null","../img/tt/194tt.jpg","null","mooney1","image-keyboard-response","189","713689","0.0-6.0-1.26","3321929","co38158","norming","","","","","","",""
"7505.694999999832","","","post_mooney1_questions","survey-likert","190","721198","0.0-6.0-2.26","3321929","co38158","norming","","","{""curiosity"":2,""confidence"":2}","[0,1]","../img/tt/194tt.jpg","",""
"3445.6599999994505","","","recognition","survey-text","191","724645","0.0-6.0-3.26","3321929","co38158","norming","","","{""guess"":""woman""}","","../img/tt/194tt.jpg","",""
"null","../img/gs/194gs.jpg","null","reveal","image-keyboard-response","192","726647","0.0-6.0-4.26","3321929","co38158","norming","","","","","","",""
"null","../img/tt/194tt.jpg","null","mooney2","image-keyboard-response","193","728655","0.0-6.0-5.26","3321929","co38158","norming","","","","","","",""
"3587.810000000056","","","post_reveal_questions","survey-likert","194","732245","0.0-6.0-6.26","3321929","co38158","norming","","","{""aha"":5}","[0]","../img/tt/194tt.jpg","",""
"null","<div style=""font-size:60px;""> </div>","null","fixation","html-keyboard-response","195","732448","0.0-6.0-0.27","3321929","co38158","norming","","","","","","",""
"null","../img/tt/105tt.jpg","null","mooney1","image-keyboard-response","196","735455","0.0-6.0-1.27","3321929","co38158","norming","","","","","","",""
"5428.904999999679","","","post_mooney1_questions","survey-likert","197","740885","0.0-6.0-2.27","3321929","co38158","norming","","","{""curiosity"":2,""confidence"":1}","[0,1]","../img/tt/105tt.jpg","",""
"1429.869999999879","","","recognition","survey-text","198","742317","0.0-6.0-3.27","3321929","co38158","norming","","","{""guess"":""""}","","../img/tt/105tt.jpg","",""
"null","../img/gs/105gs.jpg","null","reveal","image-keyboard-response","199","744326","0.0-6.0-4.27","3321929","co38158","norming","","","","","","",""
"null","../img/tt/105tt.jpg","null","mooney2","image-keyboard-response","200","746328","0.0-6.0-5.27","3321929","co38158","norming","","","","","","",""
"2508.3850000001257","","","post_reveal_questions","survey-likert","201","748837","0.0-6.0-6.27","3321929","co38158","norming","","","{""aha"":5}","[0]","../img/tt/105tt.jpg","",""
"null","<div style=""font-size:60px;""> </div>","null","fixation","html-keyboard-response","202","749042","0.0-6.0-0.28","3321929","co38158","norming","","","","","","",""
"null","../img/tt/1196tt.jpg","null","mooney1","image-keyboard-response","203","752048","0.0-6.0-1.28","3321929","co38158","norming","","","","","","",""
"7100.199999999837","","","post_mooney1_questions","survey-likert","204","759149","0.0-6.0-2.28","3321929","co38158","norming","","","{""curiosity"":3,""confidence"":0}","[0,1]","../img/tt/1196tt.jpg","",""
"829.90500000061","","","recognition","survey-text","205","759981","0.0-6.0-3.28","3321929","co38158","norming","","","{""guess"":""""}","","../img/tt/1196tt.jpg","",""
"null","../img/gs/1196gs.jpg","null","reveal","image-keyboard-response","206","761985","0.0-6.0-4.28","3321929","co38158","norming","","","","","","",""
"null","../img/tt/1196tt.jpg","null","mooney2","image-keyboard-response","207","763986","0.0-6.0-5.28","3321929","co38158","norming","","","","","","",""
"3258.6750000000466","","","post_reveal_questions","survey-likert","208","767245","0.0-6.0-6.28","3321929","co38158","norming","","","{""aha"":4}","[0]","../img/tt/1196tt.jpg","",""
"null","<div style=""font-size:60px;""> </div>","null","fixation","html-keyboard-response","209","767454","0.0-6.0-0.29","3321929","co38158","norming","","","","","","",""
"null","../img/tt/1272tt.jpg","null","mooney1","image-keyboard-response","210","770460","0.0-6.0-1.29","3321929","co38158","norming","","","","","","",""
"8632.290000000503","","","post_mooney1_questions","survey-likert","211","779093","0.0-6.0-2.29","3321929","co38158","norming","","","{""curiosity"":4,""confidence"":1}","[0,1]","../img/tt/1272tt.jpg","",""
"6574.024999999907","","","recognition","survey-text","212","785669","0.0-6.0-3.29","3321929","co38158","norming","","","{""guess"":""line of people""}","","../img/tt/1272tt.jpg","",""
"null","../img/gs/1272gs.jpg","null","reveal","image-keyboard-response","213","787671","0.0-6.0-4.29","3321929","co38158","norming","","","","","","",""
"null","../img/tt/1272tt.jpg","null","mooney2","image-keyboard-response","214","789675","0.0-6.0-5.29","3321929","co38158","norming","","","","","","",""
"2745.570000000065","","","post_reveal_questions","survey-likert","215","792421","0.0-6.0-6.29","3321929","co38158","norming","","","{""aha"":5}","[0]","../img/tt/1272tt.jpg","",""
"null","<div style=""font-size:60px;""> </div>","null","fixation","html-keyboard-response","216","792628","0.0-6.0-0.30","3321929","co38158","norming","","","","","","",""
"null","../img/tt/1307tt.jpg","null","mooney1","image-keyboard-response","217","795638","0.0-6.0-1.30","3321929","co38158","norming","","","","","","",""
"5614.469999999506","","","post_mooney1_questions","survey-likert","218","801253","0.0-6.0-2.30","3321929","co38158","norming","","","{""curiosity"":3,""confidence"":4}","[0,1]","../img/tt/1307tt.jpg","",""
"12349.755000000237","","","recognition","survey-text","219","813612","0.0-6.0-3.30","3321929","co38158","norming","","","{""guess"":""reuzenrad""}","","../img/tt/1307tt.jpg","",""
"null","../img/gs/1307gs.jpg","null","reveal","image-keyboard-response","220","815622","0.0-6.0-4.30","3321929","co38158","norming","","","","","","",""
"null","../img/tt/1307tt.jpg","null","mooney2","image-keyboard-response","221","817625","0.0-6.0-5.30","3321929","co38158","norming","","","","","","",""
"6185.750000000582","","","post_reveal_questions","survey-likert","222","823812","0.0-6.0-6.30","3321929","co38158","norming","","","{""aha"":5}","[0]","../img/tt/1307tt.jpg","",""
"null","<div style=""font-size:60px;""> </div>","null","fixation","html-keyboard-response","223","824013","0.0-6.0-0.31","3321929","co38158","norming","","","","","","",""
"null","../img/tt/1118tt.jpg","null","mooney1","image-keyboard-response","224","827022","0.0-6.0-1.31","3321929","co38158","norming","","","","","","",""
"5981.399999999674","","","post_mooney1_questions","survey-likert","225","833004","0.0-6.0-2.31","3321929","co38158","norming","","","{""curiosity"":4,""confidence"":1}","[0,1]","../img/tt/1118tt.jpg","",""
"9837.865000000456","","","recognition","survey-text","226","842844","0.0-6.0-3.31","3321929","co38158","norming","","","{""guess"":""pipe""}","","../img/tt/1118tt.jpg","",""
"null","../img/gs/1118gs.jpg","null","reveal","image-keyboard-response","227","844851","0.0-6.0-4.31","3321929","co38158","norming","","","","","","",""
"null","../img/tt/1118tt.jpg","null","mooney2","image-keyboard-response","228","846857","0.0-6.0-5.31","3321929","co38158","norming","","","","","","",""
"5730.270000000019","","","post_reveal_questions","survey-likert","229","852588","0.0-6.0-6.31","3321929","co38158","norming","","","{""aha"":3}","[0]","../img/tt/1118tt.jpg","",""
"null","<div style=""font-size:60px;""> </div>","null","fixation","html-keyboard-response","230","852794","0.0-6.0-0.32","3321929","co38158","norming","","","","","","",""
"null","../img/tt/036tt.jpg","null","mooney1","image-keyboard-response","231","855800","0.0-6.0-1.32","3321929","co38158","norming","","","","","","",""
"7626.79999999993","","","post_mooney1_questions","survey-likert","232","863425","0.0-6.0-2.32","3321929","co38158","norming","","","{""curiosity"":3,""confidence"":1}","[0,1]","../img/tt/036tt.jpg","",""
"2838.6500000006054","","","recognition","survey-text","233","866265","0.0-6.0-3.32","3321929","co38158","norming","","","{""guess"":""plants$""}","","../img/tt/036tt.jpg","",""
"null","../img/gs/036gs.jpg","null","reveal","image-keyboard-response","234","868271","0.0-6.0-4.32","3321929","co38158","norming","","","","","","",""
"null","../img/tt/036tt.jpg","null","mooney2","image-keyboard-response","235","870274","0.0-6.0-5.32","3321929","co38158","norming","","","","","","",""
"6709.689999999711","","","post_reveal_questions","survey-likert","236","876985","0.0-6.0-6.32","3321929","co38158","norming","","","{""aha"":0}","[0]","../img/tt/036tt.jpg","",""
"null","<div style=""font-size:60px;""> </div>","null","fixation","html-keyboard-response","237","877187","0.0-6.0-0.33","3321929","co38158","norming","","","","","","",""
"null","../img/tt/1363tt.jpg","null","mooney1","image-keyboard-response","238","880198","0.0-6.0-1.33","3321929","co38158","norming","","","","","","",""
"9018.130000000354","","","post_mooney1_questions","survey-likert","239","889217","0.0-6.0-2.33","3321929","co38158","norming","","","{""curiosity"":2,""confidence"":3}","[0,1]","../img/tt/1363tt.jpg","",""
"4982.3050000004005","","","recognition","survey-text","240","894201","0.0-6.0-3.33","3321929","co38158","norming","","","{""guess"":""sauce pan""}","","../img/tt/1363tt.jpg","",""
"null","../img/gs/1363gs.jpg","null","reveal","image-keyboard-response","241","896209","0.0-6.0-4.33","3321929","co38158","norming","","","","","","",""
"null","../img/tt/1363tt.jpg","null","mooney2","image-keyboard-response","242","898217","0.0-6.0-5.33","3321929","co38158","norming","","","","","","",""
"5229.155000000028","","","post_reveal_questions","survey-likert","243","903449","0.0-6.0-6.33","3321929","co38158","norming","","","{""aha"":4}","[0]","../img/tt/1363tt.jpg","",""
"null","<div style=""font-size:60px;""> </div>","null","fixation","html-keyboard-response","244","903657","0.0-6.0-0.34","3321929","co38158","norming","","","","","","",""
"null","../img/tt/279tt.jpg","null","mooney1","image-keyboard-response","245","906662","0.0-6.0-1.34","3321929","co38158","norming","","","","","","",""
"5808.559999999474","","","post_mooney1_questions","survey-likert","246","912473","0.0-6.0-2.34","3321929","co38158","norming","","","{""curiosity"":3,""confidence"":1}","[0,1]","../img/tt/279tt.jpg","",""
"4990.304999999236","","","recognition","survey-text","247","917465","0.0-6.0-3.34","3321929","co38158","norming","","","{""guess"":""jungle""}","","../img/tt/279tt.jpg","",""
"null","../img/gs/279gs.jpg","null","reveal","image-keyboard-response","248","919471","0.0-6.0-4.34","3321929","co38158","norming","","","","","","",""
"null","../img/tt/279tt.jpg","null","mooney2","image-keyboard-response","249","921473","0.0-6.0-5.34","3321929","co38158","norming","","","","","","",""
"6877.070000000414","","","post_reveal_questions","survey-likert","250","928352","0.0-6.0-6.34","3321929","co38158","norming","","","{""aha"":4}","[0]","../img/tt/279tt.jpg","",""
"null","<div style=""font-size:60px;""> </div>","null","fixation","html-keyboard-response","251","928559","0.0-6.0-0.35","3321929","co38158","norming","","","","","","",""
"null","../img/tt/584tt.jpg","null","mooney1","image-keyboard-response","252","931569","0.0-6.0-1.35","3321929","co38158","norming","","","","","","",""
"8510.439999999944","","","post_mooney1_questions","survey-likert","253","940080","0.0-6.0-2.35","3321929","co38158","norming","","","{""curiosity"":3,""confidence"":3}","[0,1]","../img/tt/584tt.jpg","",""
"7653.944999999949","","","recognition","survey-text","254","947736","0.0-6.0-3.35","3321929","co38158","norming","","","{""guess"":""kniptang""}","","../img/tt/584tt.jpg","",""
"null","../img/gs/584gs.jpg","null","reveal","image-keyboard-response","255","949742","0.0-6.0-4.35","3321929","co38158","norming","","","","","","",""
"null","../img/tt/584tt.jpg","null","mooney2","image-keyboard-response","256","951753","0.0-6.0-5.35","3321929","co38158","norming","","","","","","",""
"2860.7799999999115","","","post_reveal_questions","survey-likert","257","954616","0.0-6.0-6.35","3321929","co38158","norming","","","{""aha"":3}","[0]","../img/tt/584tt.jpg","",""
"null","<div style=""font-size:60px;""> </div>","null","fixation","html-keyboard-response","258","954823","0.0-6.0-0.36","3321929","co38158","norming","","","","","","",""
"null","../img/tt/1159tt.jpg","null","mooney1","image-keyboard-response","259","957827","0.0-6.0-1.36","3321929","co38158","norming","","","","","","",""
"5154.75500000047","","","post_mooney1_questions","survey-likert","260","962984","0.0-6.0-2.36","3321929","co38158","norming","","","{""curiosity"":3,""confidence"":2}","[0,1]","../img/tt/1159tt.jpg","",""
"2190.1600000000326","","","recognition","survey-text","261","965176","0.0-6.0-3.36","3321929","co38158","norming","","","{""guess"":""statue""}","","../img/tt/1159tt.jpg","",""
"null","../img/gs/1159gs.jpg","null","reveal","image-keyboard-response","262","967182","0.0-6.0-4.36","3321929","co38158","norming","","","","","","",""
"null","../img/tt/1159tt.jpg","null","mooney2","image-keyboard-response","263","969185","0.0-6.0-5.36","3321929","co38158","norming","","","","","","",""
"2684.235000000568","","","post_reveal_questions","survey-likert","264","971872","0.0-6.0-6.36","3321929","co38158","norming","","","{""aha"":5}","[0]","../img/tt/1159tt.jpg","",""
"null","<div style=""font-size:60px;""> </div>","null","fixation","html-keyboard-response","265","972074","0.0-6.0-0.37","3321929","co38158","norming","","","","","","",""
"null","../img/tt/1173tt.jpg","null","mooney1","image-keyboard-response","266","975079","0.0-6.0-1.37","3321929","co38158","norming","","","","","","",""
"6126.369999999879","","","post_mooney1_questions","survey-likert","267","981208","0.0-6.0-2.37","3321929","co38158","norming","","","{""curiosity"":3,""confidence"":3}","[0,1]","../img/tt/1173tt.jpg","",""
"11278.629999999772","","","recognition","survey-text","268","992490","0.0-6.0-3.37","3321929","co38158","norming","","","{""guess"":""volleyball players""}","","../img/tt/1173tt.jpg","",""
"null","../img/gs/1173gs.jpg","null","reveal","image-keyboard-response","269","994496","0.0-6.0-4.37","3321929","co38158","norming","","","","","","",""
"null","../img/tt/1173tt.jpg","null","mooney2","image-keyboard-response","270","996498","0.0-6.0-5.37","3321929","co38158","norming","","","","","","",""
"4365.98499999952","","","post_reveal_questions","survey-likert","271","1000865","0.0-6.0-6.37","3321929","co38158","norming","","","{""aha"":4}","[0]","../img/tt/1173tt.jpg","",""
"null","<div style=""font-size:60px;""> </div>","null","fixation","html-keyboard-response","272","1001070","0.0-6.0-0.38","3321929","co38158","norming","","","","","","",""
"null","../img/tt/1055tt.jpg","null","mooney1","image-keyboard-response","273","1004082","0.0-6.0-1.38","3321929","co38158","norming","","","","","","",""
"5572.414999999688","","","post_mooney1_questions","survey-likert","274","1009658","0.0-6.0-2.38","3321929","co38158","norming","","","{""curiosity"":3,""confidence"":2}","[0,1]","../img/tt/1055tt.jpg","",""
"7054.105000000214","","","recognition","survey-text","275","1016714","0.0-6.0-3.38","3321929","co38158","norming","","","{""guess"":""lake by moonlight""}","","../img/tt/1055tt.jpg","",""
"null","../img/gs/1055gs.jpg","null","reveal","image-keyboard-response","276","1018722","0.0-6.0-4.38","3321929","co38158","norming","","","","","","",""
"null","../img/tt/1055tt.jpg","null","mooney2","image-keyboard-response","277","1020725","0.0-6.0-5.38","3321929","co38158","norming","","","","","","",""
"6873.555000000051","","","post_reveal_questions","survey-likert","278","1027602","0.0-6.0-6.38","3321929","co38158","norming","","","{""aha"":4}","[0]","../img/tt/1055tt.jpg","",""
"null","<div style=""font-size:60px;""> </div>","null","fixation","html-keyboard-response","279","1027803","0.0-6.0-0.39","3321929","co38158","norming","","","","","","",""
"null","../img/tt/1186tt.jpg","null","mooney1","image-keyboard-response","280","1030806","0.0-6.0-1.39","3321929","co38158","norming","","","","","","",""
"6505.430000000168","","","post_mooney1_questions","survey-likert","281","1037314","0.0-6.0-2.39","3321929","co38158","norming","","","{""curiosity"":3,""confidence"":1}","[0,1]","../img/tt/1186tt.jpg","",""
"3413.954999999958","","","recognition","survey-text","282","1040730","0.0-6.0-3.39","3321929","co38158","norming","","","{""guess"":""person""}","","../img/tt/1186tt.jpg","",""
"null","../img/gs/1186gs.jpg","null","reveal","image-keyboard-response","283","1042732","0.0-6.0-4.39","3321929","co38158","norming","","","","","","",""
"null","../img/tt/1186tt.jpg","null","mooney2","image-keyboard-response","284","1044734","0.0-6.0-5.39","3321929","co38158","norming","","","","","","",""
"4121.334999999963","","","post_reveal_questions","survey-likert","285","1048856","0.0-6.0-6.39","3321929","co38158","norming","","","{""aha"":3}","[0]","../img/tt/1186tt.jpg","",""
"null","<div style=""font-size:60px;""> </div>","null","fixation","html-keyboard-response","286","1049062","0.0-6.0-0.40","3321929","co38158","norming","","","","","","",""
"null","../img/tt/1269tt.jpg","null","mooney1","image-keyboard-response","287","1052065","0.0-6.0-1.40","3321929","co38158","norming","","","","","","",""
"7284.725000000326","","","post_mooney1_questions","survey-likert","288","1059352","0.0-6.0-2.40","3321929","co38158","norming","","","{""curiosity"":3,""confidence"":4}","[0,1]","../img/tt/1269tt.jpg","",""
"8846.050000000047","","","recognition","survey-text","289","1068200","0.0-6.0-3.40","3321929","co38158","norming","","","{""guess"":""squrl (eekhoon)""}","","../img/tt/1269tt.jpg","",""
"null","../img/gs/1269gs.jpg","null","reveal","image-keyboard-response","290","1070208","0.0-6.0-4.40","3321929","co38158","norming","","","","","","",""
"null","../img/tt/1269tt.jpg","null","mooney2","image-keyboard-response","291","1072212","0.0-6.0-5.40","3321929","co38158","norming","","","","","","",""
"3105.5649999997113","","","post_reveal_questions","survey-likert","292","1075320","0.0-6.0-6.40","3321929","co38158","norming","","","{""aha"":3}","[0]","../img/tt/1269tt.jpg","",""
"null","<div style=""font-size:60px;""> </div>","null","fixation","html-keyboard-response","293","1075529","0.0-6.0-0.41","3321929","co38158","norming","","","","","","",""
"null","../img/tt/496tt.jpg","null","mooney1","image-keyboard-response","294","1078534","0.0-6.0-1.41","3321929","co38158","norming","","","","","","",""
"6935.414999999804","","","post_mooney1_questions","survey-likert","295","1085472","0.0-6.0-2.41","3321929","co38158","norming","","","{""curiosity"":3,""confidence"":2}","[0,1]","../img/tt/496tt.jpg","",""
"1686.1450000007171","","","recognition","survey-text","296","1087160","0.0-6.0-3.41","3321929","co38158","norming","","","{""guess"":""dog""}","","../img/tt/496tt.jpg","",""
"null","../img/gs/496gs.jpg","null","reveal","image-keyboard-response","297","1089170","0.0-6.0-4.41","3321929","co38158","norming","","","","","","",""
"null","../img/tt/496tt.jpg","null","mooney2","image-keyboard-response","298","1091181","0.0-6.0-5.41","3321929","co38158","norming","","","","","","",""
"3880.570000000298","","","post_reveal_questions","survey-likert","299","1095064","0.0-6.0-6.41","3321929","co38158","norming","","","{""aha"":3}","[0]","../img/tt/496tt.jpg","",""
"null","<div style=""font-size:60px;""> </div>","null","fixation","html-keyboard-response","300","1095265","0.0-6.0-0.42","3321929","co38158","norming","","","","","","",""
"null","../img/tt/378tt.jpg","null","mooney1","image-keyboard-response","301","1098268","0.0-6.0-1.42","3321929","co38158","norming","","","","","","",""
"6905.424999999814","","","post_mooney1_questions","survey-likert","302","1105176","0.0-6.0-2.42","3321929","co38158","norming","","","{""curiosity"":3,""confidence"":0}","[0,1]","../img/tt/378tt.jpg","",""
"1070.0349999999162","","","recognition","survey-text","303","1106248","0.0-6.0-3.42","3321929","co38158","norming","","","{""guess"":""""}","","../img/tt/378tt.jpg","",""
"null","../img/gs/378gs.jpg","null","reveal","image-keyboard-response","304","1108263","0.0-6.0-4.42","3321929","co38158","norming","","","","","","",""
"null","../img/tt/378tt.jpg","null","mooney2","image-keyboard-response","305","1110271","0.0-6.0-5.42","3321929","co38158","norming","","","","","","",""
"4394.164999999572","","","post_reveal_questions","survey-likert","306","1114671","0.0-6.0-6.42","3321929","co38158","norming","","","{""aha"":2}","[0]","../img/tt/378tt.jpg","",""
"null","<div style=""font-size:60px;""> </div>","null","fixation","html-keyboard-response","307","1114876","0.0-6.0-0.43","3321929","co38158","norming","","","","","","",""
"null","../img/tt/163tt.jpg","null","mooney1","image-keyboard-response","308","1117886","0.0-6.0-1.43","3321929","co38158","norming","","","","","","",""
"7629.055000000168","","","post_mooney1_questions","survey-likert","309","1125518","0.0-6.0-2.43","3321929","co38158","norming","","","{""curiosity"":3,""confidence"":2}","[0,1]","../img/tt/163tt.jpg","",""
"2877.8549999997485","","","recognition","survey-text","310","1128398","0.0-6.0-3.43","3321929","co38158","norming","","","{""guess"":""frog""}","","../img/tt/163tt.jpg","",""
"null","../img/gs/163gs.jpg","null","reveal","image-keyboard-response","311","1130399","0.0-6.0-4.43","3321929","co38158","norming","","","","","","",""
"null","../img/tt/163tt.jpg","null","mooney2","image-keyboard-response","312","1132399","0.0-6.0-5.43","3321929","co38158","norming","","","","","","",""
"4174.060000000289","","","post_reveal_questions","survey-likert","313","1136574","0.0-6.0-6.43","3321929","co38158","norming","","","{""aha"":3}","[0]","../img/tt/163tt.jpg","",""
"null","<div style=""font-size:60px;""> </div>","null","fixation","html-keyboard-response","314","1136778","0.0-6.0-0.44","3321929","co38158","norming","","","","","","",""
"null","../img/tt/1080tt.jpg","null","mooney1","image-keyboard-response","315","1139790","0.0-6.0-1.44","3321929","co38158","norming","","","","","","",""
"5356.959999999963","","","post_mooney1_questions","survey-likert","316","1145150","0.0-6.0-2.44","3321929","co38158","norming","","","{""curiosity"":3,""confidence"":1}","[0,1]","../img/tt/1080tt.jpg","",""
"3965.9849999998696","","","recognition","survey-text","317","1149118","0.0-6.0-3.44","3321929","co38158","norming","","","{""guess"":""building""}","","../img/tt/1080tt.jpg","",""
"null","../img/gs/1080gs.jpg","null","reveal","image-keyboard-response","318","1151119","0.0-6.0-4.44","3321929","co38158","norming","","","","","","",""
"null","../img/tt/1080tt.jpg","null","mooney2","image-keyboard-response","319","1153123","0.0-6.0-5.44","3321929","co38158","norming","","","","","","",""
"3480.6850000005215","","","post_reveal_questions","survey-likert","320","1156606","0.0-6.0-6.44","3321929","co38158","norming","","","{""aha"":5}","[0]","../img/tt/1080tt.jpg","",""
"null","<div style=""font-size:60px;""> </div>","null","fixation","html-keyboard-response","321","1156811","0.0-6.0-0.45","3321929","co38158","norming","","","","","","",""
"null","../img/tt/1033tt.jpg","null","mooney1","image-keyboard-response","322","1159815","0.0-6.0-1.45","3321929","co38158","norming","","","","","","",""
"9876.884999999776","","","post_mooney1_questions","survey-likert","323","1169692","0.0-6.0-2.45","3321929","co38158","norming","","","{""curiosity"":3,""confidence"":1}","[0,1]","../img/tt/1033tt.jpg","",""
"5357.80999999959","","","recognition","survey-text","324","1175052","0.0-6.0-3.45","3321929","co38158","norming","","","{""guess"":""bow and arrow""}","","../img/tt/1033tt.jpg","",""
"null","../img/gs/1033gs.jpg","null","reveal","image-keyboard-response","325","1177059","0.0-6.0-4.45","3321929","co38158","norming","","","","","","",""
"null","../img/tt/1033tt.jpg","null","mooney2","image-keyboard-response","326","1179067","0.0-6.0-5.45","3321929","co38158","norming","","","","","","",""
"1717.929999999702","","","post_reveal_questions","survey-likert","327","1180788","0.0-6.0-6.45","3321929","co38158","norming","","","{""aha"":2}","[0]","../img/tt/1033tt.jpg","",""
"null","<div style=""font-size:60px;""> </div>","null","fixation","html-keyboard-response","328","1180989","0.0-6.0-0.46","3321929","co38158","norming","","","","","","",""
"null","../img/tt/080tt.jpg","null","mooney1","image-keyboard-response","329","1183994","0.0-6.0-1.46","3321929","co38158","norming","","","","","","",""
"7038.555000000168","","","post_mooney1_questions","survey-likert","330","1191036","0.0-6.0-2.46","3321929","co38158","norming","","","{""curiosity"":3,""confidence"":1}","[0,1]","../img/tt/080tt.jpg","",""
"2510.0750000001863","","","recognition","survey-text","331","1193548","0.0-6.0-3.46","3321929","co38158","norming","","","{""guess"":""egg""}","","../img/tt/080tt.jpg","",""
"null","../img/gs/080gs.jpg","null","reveal","image-keyboard-response","332","1195556","0.0-6.0-4.46","3321929","co38158","norming","","","","","","",""
"null","../img/tt/080tt.jpg","null","mooney2","image-keyboard-response","333","1197558","0.0-6.0-5.46","3321929","co38158","norming","","","","","","",""
"3274.940000000177","","","post_reveal_questions","survey-likert","334","1200836","0.0-6.0-6.46","3321929","co38158","norming","","","{""aha"":5}","[0]","../img/tt/080tt.jpg","",""
"null","<div style=""font-size:60px;""> </div>","null","fixation","html-keyboard-response","335","1201042","0.0-6.0-0.47","3321929","co38158","norming","","","","","","",""
"null","../img/tt/1235tt.jpg","null","mooney1","image-keyboard-response","336","1204052","0.0-6.0-1.47","3321929","co38158","norming","","","","","","",""
"4700.840000000317","","","post_mooney1_questions","survey-likert","337","1208756","0.0-6.0-2.47","3321929","co38158","norming","","","{""curiosity"":3,""confidence"":2}","[0,1]","../img/tt/1235tt.jpg","",""
"3813.4600000004284","","","recognition","survey-text","338","1212572","0.0-6.0-3.47","3321929","co38158","norming","","","{""guess"":""animal""}","","../img/tt/1235tt.jpg","",""
"null","../img/gs/1235gs.jpg","null","reveal","image-keyboard-response","339","1214581","0.0-6.0-4.47","3321929","co38158","norming","","","","","","",""
"null","../img/tt/1235tt.jpg","null","mooney2","image-keyboard-response","340","1216583","0.0-6.0-5.47","3321929","co38158","norming","","","","","","",""
"2738.4799999999814","","","post_reveal_questions","survey-likert","341","1219324","0.0-6.0-6.47","3321929","co38158","norming","","","{""aha"":4}","[0]","../img/tt/1235tt.jpg","",""
"null","<div style=""font-size:60px;""> </div>","null","fixation","html-keyboard-response","342","1219527","0.0-6.0-0.48","3321929","co38158","norming","","","","","","",""
"null","../img/tt/507tt.jpg","null","mooney1","image-keyboard-response","343","1222531","0.0-6.0-1.48","3321929","co38158","norming","","","","","","",""
"7086.470000000205","","","post_mooney1_questions","survey-likert","344","1229616","0.0-6.0-2.48","3321929","co38158","norming","","","{""curiosity"":3,""confidence"":2}","[0,1]","../img/tt/507tt.jpg","",""
"2181.784999999916","","","recognition","survey-text","345","1231800","0.0-6.0-3.48","3321929","co38158","norming","","","{""guess"":""staue""}","","../img/tt/507tt.jpg","",""
"null","../img/gs/507gs.jpg","null","reveal","image-keyboard-response","346","1233802","0.0-6.0-4.48","3321929","co38158","norming","","","","","","",""
"null","../img/tt/507tt.jpg","null","mooney2","image-keyboard-response","347","1235808","0.0-6.0-5.48","3321929","co38158","norming","","","","","","",""
"4765.994999999646","","","post_reveal_questions","survey-likert","348","1240576","0.0-6.0-6.48","3321929","co38158","norming","","","{""aha"":3}","[0]","../img/tt/507tt.jpg","",""
"null","<div style=""font-size:60px;""> </div>","null","fixation","html-keyboard-response","349","1240787","0.0-6.0-0.49","3321929","co38158","norming","","","","","","",""
"null","../img/tt/559tt.jpg","null","mooney1","image-keyboard-response","350","1243794","0.0-6.0-1.49","3321929","co38158","norming","","","","","","",""
"10931.485000000102","","","post_mooney1_questions","survey-likert","351","1254728","0.0-6.0-2.49","3321929","co38158","norming","","","{""curiosity"":3,""confidence"":3}","[0,1]","../img/tt/559tt.jpg","",""
"5533.6699999999255","","","recognition","survey-text","352","1260264","0.0-6.0-3.49","3321929","co38158","norming","","","{""guess"":""naaimachine""}","","../img/tt/559tt.jpg","",""
"null","../img/gs/559gs.jpg","null","reveal","image-keyboard-response","353","1262272","0.0-6.0-4.49","3321929","co38158","norming","","","","","","",""
"null","../img/tt/559tt.jpg","null","mooney2","image-keyboard-response","354","1264275","0.0-6.0-5.49","3321929","co38158","norming","","","","","","",""
"2914.829999999609","","","post_reveal_questions","survey-likert","355","1267192","0.0-6.0-6.49","3321929","co38158","norming","","","{""aha"":3}","[0]","../img/tt/559tt.jpg","",""
"null","<div style=""font-size:60px;""> </div>","null","fixation","html-keyboard-response","356","1267397","0.0-6.0-0.50","3321929","co38158","norming","","","","","","",""
"null","../img/tt/112tt.jpg","null","mooney1","image-keyboard-response","357","1270403","0.0-6.0-1.50","3321929","co38158","norming","","","","","","",""
"7195.585000000428","","","post_mooney1_questions","survey-likert","358","1277600","0.0-6.0-2.50","3321929","co38158","norming","","","{""curiosity"":3,""confidence"":4}","[0,1]","../img/tt/112tt.jpg","",""
"6294.065000000177","","","recognition","survey-text","359","1283896","0.0-6.0-3.50","3321929","co38158","norming","","","{""guess"":""wistle""}","","../img/tt/112tt.jpg","",""
"null","../img/gs/112gs.jpg","null","reveal","image-keyboard-response","360","1285903","0.0-6.0-4.50","3321929","co38158","norming","","","","","","",""
"null","../img/tt/112tt.jpg","null","mooney2","image-keyboard-response","361","1287915","0.0-6.0-5.50","3321929","co38158","norming","","","","","","",""
"2930.524999999674","","","post_reveal_questions","survey-likert","362","1290858","0.0-6.0-6.50","3321929","co38158","norming","","","{""aha"":3}","[0]","../img/tt/112tt.jpg","",""
"null","<div style=""font-size:60px;""> </div>","null","fixation","html-keyboard-response","363","1291059","0.0-6.0-0.51","3321929","co38158","norming","","","","","","",""
"null","../img/tt/515tt.jpg","null","mooney1","image-keyboard-response","364","1294070","0.0-6.0-1.51","3321929","co38158","norming","","","","","","",""
"5817.549999999814","","","post_mooney1_questions","survey-likert","365","1299890","0.0-6.0-2.51","3321929","co38158","norming","","","{""curiosity"":3,""confidence"":1}","[0,1]","../img/tt/515tt.jpg","",""
"2397.989999999292","","","recognition","survey-text","366","1302290","0.0-6.0-3.51","3321929","co38158","norming","","","{""guess"":""book""}","","../img/tt/515tt.jpg","",""
"null","../img/gs/515gs.jpg","null","reveal","image-keyboard-response","367","1304293","0.0-6.0-4.51","3321929","co38158","norming","","","","","","",""
"null","../img/tt/515tt.jpg","null","mooney2","image-keyboard-response","368","1306294","0.0-6.0-5.51","3321929","co38158","norming","","","","","","",""
"2593.1750000000466","","","post_reveal_questions","survey-likert","369","1308890","0.0-6.0-6.51","3321929","co38158","norming","","","{""aha"":4}","[0]","../img/tt/515tt.jpg","",""
"null","<div style=""font-size:60px;""> </div>","null","fixation","html-keyboard-response","370","1309097","0.0-6.0-0.52","3321929","co38158","norming","","","","","","",""
"null","../img/tt/497tt.jpg","null","mooney1","image-keyboard-response","371","1312106","0.0-6.0-1.52","3321929","co38158","norming","","","","","","",""
"4725.0600000005215","","","post_mooney1_questions","survey-likert","372","1316834","0.0-6.0-2.52","3321929","co38158","norming","","","{""curiosity"":3,""confidence"":2}","[0,1]","../img/tt/497tt.jpg","",""
"1742.0650000004098","","","recognition","survey-text","373","1318578","0.0-6.0-3.52","3321929","co38158","norming","","","{""guess"":""weel""}","","../img/tt/497tt.jpg","",""
"null","../img/gs/497gs.jpg","null","reveal","image-keyboard-response","374","1320581","0.0-6.0-4.52","3321929","co38158","norming","","","","","","",""
"null","../img/tt/497tt.jpg","null","mooney2","image-keyboard-response","375","1322590","0.0-6.0-5.52","3321929","co38158","norming","","","","","","",""
"3729.6949999998324","","","post_reveal_questions","survey-likert","376","1326322","0.0-6.0-6.52","3321929","co38158","norming","","","{""aha"":4}","[0]","../img/tt/497tt.jpg","",""
"null","<div style=""font-size:60px;""> </div>","null","fixation","html-keyboard-response","377","1326523","0.0-6.0-0.53","3321929","co38158","norming","","","","","","",""
"null","../img/tt/1125tt.jpg","null","mooney1","image-keyboard-response","378","1329534","0.0-6.0-1.53","3321929","co38158","norming","","","","","","",""
"5841.079999999143","","","post_mooney1_questions","survey-likert","379","1335378","0.0-6.0-2.53","3321929","co38158","norming","","","{""curiosity"":3,""confidence"":2}","[0,1]","../img/tt/1125tt.jpg","",""
"4350.329999999143","","","recognition","survey-text","380","1339730","0.0-6.0-3.53","3321929","co38158","norming","","","{""guess"":""sports player""}","","../img/tt/1125tt.jpg","",""
"null","../img/gs/1125gs.jpg","null","reveal","image-keyboard-response","381","1341739","0.0-6.0-4.53","3321929","co38158","norming","","","","","","",""
"null","../img/tt/1125tt.jpg","null","mooney2","image-keyboard-response","382","1343750","0.0-6.0-5.53","3321929","co38158","norming","","","","","","",""
"4873.344999999972","","","post_reveal_questions","survey-likert","383","1348626","0.0-6.0-6.53","3321929","co38158","norming","","","{""aha"":4}","[0]","../img/tt/1125tt.jpg","",""
"null","<div style=""font-size:60px;""> </div>","null","fixation","html-keyboard-response","384","1348836","0.0-6.0-0.54","3321929","co38158","norming","","","","","","",""
"null","../img/tt/1227tt.jpg","null","mooney1","image-keyboard-response","385","1351842","0.0-6.0-1.54","3321929","co38158","norming","","","","","","",""
"6126.349999999395","","","post_mooney1_questions","survey-likert","386","1357972","0.0-6.0-2.54","3321929","co38158","norming","","","{""curiosity"":3,""confidence"":2}","[0,1]","../img/tt/1227tt.jpg","",""
"7006.0349999994505","","","recognition","survey-text","387","1364979","0.0-6.0-3.54","3321929","co38158","norming","","","{""guess"":""art""}","","../img/tt/1227tt.jpg","",""
"null","../img/gs/1227gs.jpg","null","reveal","image-keyboard-response","388","1366987","0.0-6.0-4.54","3321929","co38158","norming","","","","","","",""
"null","../img/tt/1227tt.jpg","null","mooney2","image-keyboard-response","389","1368991","0.0-6.0-5.54","3321929","co38158","norming","","","","","","",""
"6809.770000000019","","","post_reveal_questions","survey-likert","390","1375804","0.0-6.0-6.54","3321929","co38158","norming","","","{""aha"":5}","[0]","../img/tt/1227tt.jpg","",""
"null","<div style=""font-size:60px;""> </div>","null","fixation","html-keyboard-response","391","1376008","0.0-6.0-0.55","3321929","co38158","norming","","","","","","",""
"null","../img/tt/1236tt.jpg","null","mooney1","image-keyboard-response","392","1379018","0.0-6.0-1.55","3321929","co38158","norming","","","","","","",""
"5886.175000000745","","","post_mooney1_questions","survey-likert","393","1384908","0.0-6.0-2.55","3321929","co38158","norming","","","{""curiosity"":3,""confidence"":0}","[0,1]","../img/tt/1236tt.jpg","",""
"981.9100000003818","","","recognition","survey-text","394","1385891","0.0-6.0-3.55","3321929","co38158","norming","","","{""guess"":""""}","","../img/tt/1236tt.jpg","",""
"null","../img/gs/1236gs.jpg","null","reveal","image-keyboard-response","395","1387893","0.0-6.0-4.55","3321929","co38158","norming","","","","","","",""
"null","../img/tt/1236tt.jpg","null","mooney2","image-keyboard-response","396","1389904","0.0-6.0-5.55","3321929","co38158","norming","","","","","","",""
"2360.660000000382","","","post_reveal_questions","survey-likert","397","1392268","0.0-6.0-6.55","3321929","co38158","norming","","","{""aha"":4}","[0]","../img/tt/1236tt.jpg","",""
"null","<div style=""font-size:60px;""> </div>","null","fixation","html-keyboard-response","398","1392470","0.0-6.0-0.56","3321929","co38158","norming","","","","","","",""
"null","../img/tt/1122tt.jpg","null","mooney1","image-keyboard-response","399","1395476","0.0-6.0-1.56","3321929","co38158","norming","","","","","","",""
"4284.579999999609","","","post_mooney1_questions","survey-likert","400","1399764","0.0-6.0-2.56","3321929","co38158","norming","","","{""curiosity"":3,""confidence"":3}","[0,1]","../img/tt/1122tt.jpg","",""
"2909.8399999993853","","","recognition","survey-text","401","1402675","0.0-6.0-3.56","3321929","co38158","norming","","","{""guess"":""trafic""}","","../img/tt/1122tt.jpg","",""
"null","../img/gs/1122gs.jpg","null","reveal","image-keyboard-response","402","1404681","0.0-6.0-4.56","3321929","co38158","norming","","","","","","",""
"null","../img/tt/1122tt.jpg","null","mooney2","image-keyboard-response","403","1406683","0.0-6.0-5.56","3321929","co38158","norming","","","","","","",""
"2582.2799999995623","","","post_reveal_questions","survey-likert","404","1409268","0.0-6.0-6.56","3321929","co38158","norming","","","{""aha"":5}","[0]","../img/tt/1122tt.jpg","",""
"null","<div style=""font-size:60px;""> </div>","null","fixation","html-keyboard-response","405","1409470","0.0-6.0-0.57","3321929","co38158","norming","","","","","","",""
"null","../img/tt/380tt.jpg","null","mooney1","image-keyboard-response","406","1412475","0.0-6.0-1.57","3321929","co38158","norming","","","","","","",""
"5553.784999999916","","","post_mooney1_questions","survey-likert","407","1418030","0.0-6.0-2.57","3321929","co38158","norming","","","{""curiosity"":3,""confidence"":0}","[0,1]","../img/tt/380tt.jpg","",""
"901.8650000006892","","","recognition","survey-text","408","1418933","0.0-6.0-3.57","3321929","co38158","norming","","","{""guess"":""""}","","../img/tt/380tt.jpg","",""
"null","../img/gs/380gs.jpg","null","reveal","image-keyboard-response","409","1420937","0.0-6.0-4.57","3321929","co38158","norming","","","","","","",""
"null","../img/tt/380tt.jpg","null","mooney2","image-keyboard-response","410","1422942","0.0-6.0-5.57","3321929","co38158","norming","","","","","","",""
"3893.179999999935","","","post_reveal_questions","survey-likert","411","1426838","0.0-6.0-6.57","3321929","co38158","norming","","","{""aha"":3}","[0]","../img/tt/380tt.jpg","",""
"null","<div style=""font-size:60px;""> </div>","null","fixation","html-keyboard-response","412","1427040","0.0-6.0-0.58","3321929","co38158","norming","","","","","","",""
"null","../img/tt/1255tt.jpg","null","mooney1","image-keyboard-response","413","1430052","0.0-6.0-1.58","3321929","co38158","norming","","","","","","",""
"4182.289999999804","","","post_mooney1_questions","survey-likert","414","1434238","0.0-6.0-2.58","3321929","co38158","norming","","","{""curiosity"":3,""confidence"":2}","[0,1]","../img/tt/1255tt.jpg","",""
"2933.9400000008754","","","recognition","survey-text","415","1437173","0.0-6.0-3.58","3321929","co38158","norming","","","{""guess"":""rabit""}","","../img/tt/1255tt.jpg","",""
"null","../img/gs/1255gs.jpg","null","reveal","image-keyboard-response","416","1439174","0.0-6.0-4.58","3321929","co38158","norming","","","","","","",""
"null","../img/tt/1255tt.jpg","null","mooney2","image-keyboard-response","417","1441180","0.0-6.0-5.58","3321929","co38158","norming","","","","","","",""
"6519.5449999999255","","","post_reveal_questions","survey-likert","418","1447702","0.0-6.0-6.58","3321929","co38158","norming","","","{""aha"":3}","[0]","../img/tt/1255tt.jpg","",""
"null","<div style=""font-size:60px;""> </div>","null","fixation","html-keyboard-response","419","1447903","0.0-6.0-0.59","3321929","co38158","norming","","","","","","",""
"null","../img/tt/599tt.jpg","null","mooney1","image-keyboard-response","420","1450907","0.0-6.0-1.59","3321929","co38158","norming","","","","","","",""
"3951.735000000568","","","post_mooney1_questions","survey-likert","421","1454862","0.0-6.0-2.59","3321929","co38158","norming","","","{""curiosity"":3,""confidence"":2}","[0,1]","../img/tt/599tt.jpg","",""
"4373.9650000005495","","","recognition","survey-text","422","1459237","0.0-6.0-3.59","3321929","co38158","norming","","","{""guess"":""vlinder""}","","../img/tt/599tt.jpg","",""
"null","../img/gs/599gs.jpg","null","reveal","image-keyboard-response","423","1461248","0.0-6.0-4.59","3321929","co38158","norming","","","","","","",""
"null","../img/tt/599tt.jpg","null","mooney2","image-keyboard-response","424","1463250","0.0-6.0-5.59","3321929","co38158","norming","","","","","","",""
"3296.135000000475","","","post_reveal_questions","survey-likert","425","1466550","0.0-6.0-6.59","3321929","co38158","norming","","","{""aha"":5}","[0]","../img/tt/599tt.jpg","",""
"null","<div style=""font-size:60px;""> </div>","null","fixation","html-keyboard-response","426","1466756","0.0-6.0-0.60","3321929","co38158","norming","","","","","","",""
"null","../img/tt/060tt.jpg","null","mooney1","image-keyboard-response","427","1469763","0.0-6.0-1.60","3321929","co38158","norming","","","","","","",""
"5295.065000000177","","","post_mooney1_questions","survey-likert","428","1475061","0.0-6.0-2.60","3321929","co38158","norming","","","{""curiosity"":3,""confidence"":2}","[0,1]","../img/tt/060tt.jpg","",""
"2750.100000000326","","","recognition","survey-text","429","1477812","0.0-6.0-3.60","3321929","co38158","norming","","","{""guess"":""insect""}","","../img/tt/060tt.jpg","",""
"null","../img/gs/060gs.jpg","null","reveal","image-keyboard-response","430","1479823","0.0-6.0-4.60","3321929","co38158","norming","","","","","","",""
"null","../img/tt/060tt.jpg","null","mooney2","image-keyboard-response","431","1481825","0.0-6.0-5.60","3321929","co38158","norming","","","","","","",""
"2529.1999999999534","","","post_reveal_questions","survey-likert","432","1484357","0.0-6.0-6.60","3321929","co38158","norming","","","{""aha"":2}","[0]","../img/tt/060tt.jpg","",""
"null","<div style=""font-size:60px;""> </div>","null","fixation","html-keyboard-response","433","1484559","0.0-6.0-0.61","3321929","co38158","norming","","","","","","",""
"null","../img/tt/1260tt.jpg","null","mooney1","image-keyboard-response","434","1487563","0.0-6.0-1.61","3321929","co38158","norming","","","","","","",""
"4446.610000000102","","","post_mooney1_questions","survey-likert","435","1492013","0.0-6.0-2.61","3321929","co38158","norming","","","{""curiosity"":3,""confidence"":2}","[0,1]","../img/tt/1260tt.jpg","",""
"2549.6149999999907","","","recognition","survey-text","436","1494564","0.0-6.0-3.61","3321929","co38158","norming","","","{""guess"":""mous""}","","../img/tt/1260tt.jpg","",""
"null","../img/gs/1260gs.jpg","null","reveal","image-keyboard-response","437","1496567","0.0-6.0-4.61","3321929","co38158","norming","","","","","","",""
"null","../img/tt/1260tt.jpg","null","mooney2","image-keyboard-response","438","1498568","0.0-6.0-5.61","3321929","co38158","norming","","","","","","",""
"2129.4049999995623","","","post_reveal_questions","survey-likert","439","1500700","0.0-6.0-6.61","3321929","co38158","norming","","","{""aha"":3}","[0]","../img/tt/1260tt.jpg","",""
"null","<div style=""font-size:60px;""> </div>","null","fixation","html-keyboard-response","440","1500904","0.0-6.0-0.62","3321929","co38158","norming","","","","","","",""
"null","../img/tt/1181tt.jpg","null","mooney1","image-keyboard-response","441","1503907","0.0-6.0-1.62","3321929","co38158","norming","","","","","","",""
"8983.069999999367","","","post_mooney1_questions","survey-likert","442","1512893","0.0-6.0-2.62","3321929","co38158","norming","","","{""curiosity"":3,""confidence"":3}","[0,1]","../img/tt/1181tt.jpg","",""
"4566.139999999898","","","recognition","survey-text","443","1517461","0.0-6.0-3.62","3321929","co38158","norming","","","{""guess"":""man with a head""}","","../img/tt/1181tt.jpg","",""
"null","../img/gs/1181gs.jpg","null","reveal","image-keyboard-response","444","1519462","0.0-6.0-4.62","3321929","co38158","norming","","","","","","",""
"null","../img/tt/1181tt.jpg","null","mooney2","image-keyboard-response","445","1521465","0.0-6.0-5.62","3321929","co38158","norming","","","","","","",""
"3120.6750000000466","","","post_reveal_questions","survey-likert","446","1524589","0.0-6.0-6.62","3321929","co38158","norming","","","{""aha"":4}","[0]","../img/tt/1181tt.jpg","",""
"null","<div style=""font-size:60px;""> </div>","null","fixation","html-keyboard-response","447","1524792","0.0-6.0-0.63","3321929","co38158","norming","","","","","","",""
"null","../img/tt/1190tt.jpg","null","mooney1","image-keyboard-response","448","1527803","0.0-6.0-1.63","3321929","co38158","norming","","","","","","",""
"3670.234999999637","","","post_mooney1_questions","survey-likert","449","1531477","0.0-6.0-2.63","3321929","co38158","norming","","","{""curiosity"":3,""confidence"":2}","[0,1]","../img/tt/1190tt.jpg","",""
"6558.25500000082","","","recognition","survey-text","450","1538036","0.0-6.0-3.63","3321929","co38158","norming","","","{""guess"":""army peopke""}","","../img/tt/1190tt.jpg","",""
"null","../img/gs/1190gs.jpg","null","reveal","image-keyboard-response","451","1540043","0.0-6.0-4.63","3321929","co38158","norming","","","","","","",""
"null","../img/tt/1190tt.jpg","null","mooney2","image-keyboard-response","452","1542046","0.0-6.0-5.63","3321929","co38158","norming","","","","","","",""
"3443.2649999998976","","","post_reveal_questions","survey-likert","453","1545492","0.0-6.0-6.63","3321929","co38158","norming","","","{""aha"":4}","[0]","../img/tt/1190tt.jpg","",""
"null","<div style=""font-size:60px;""> </div>","null","fixation","html-keyboard-response","454","1545698","0.0-6.0-0.64","3321929","co38158","norming","","","","","","",""
"null","../img/tt/118tt.jpg","null","mooney1","image-keyboard-response","455","1548706","0.0-6.0-1.64","3321929","co38158","norming","","","","","","",""
"5582.674999999814","","","post_mooney1_questions","survey-likert","456","1554292","0.0-6.0-2.64","3321929","co38158","norming","","","{""curiosity"":3,""confidence"":2}","[0,1]","../img/tt/118tt.jpg","",""
"3053.485000000568","","","recognition","survey-text","457","1557348","0.0-6.0-3.64","3321929","co38158","norming","","","{""guess"":""stairs""}","","../img/tt/118tt.jpg","",""
"null","../img/gs/118gs.jpg","null","reveal","image-keyboard-response","458","1559349","0.0-6.0-4.64","3321929","co38158","norming","","","","","","",""
"null","../img/tt/118tt.jpg","null","mooney2","image-keyboard-response","459","1561353","0.0-6.0-5.64","3321929","co38158","norming","","","","","","",""
"2696.785000000149","","","post_reveal_questions","survey-likert","460","1564052","0.0-6.0-6.64","3321929","co38158","norming","","","{""aha"":4}","[0]","../img/tt/118tt.jpg","",""
"null","<div style=""font-size:60px;""> </div>","null","fixation","html-keyboard-response","461","1564254","0.0-6.0-0.65","3321929","co38158","norming","","","","","","",""
"null","../img/tt/1161tt.jpg","null","mooney1","image-keyboard-response","462","1567265","0.0-6.0-1.65","3321929","co38158","norming","","","","","","",""
"7024.48499999987","","","post_mooney1_questions","survey-likert","463","1574292","0.0-6.0-2.65","3321929","co38158","norming","","","{""curiosity"":3,""confidence"":2}","[0,1]","../img/tt/1161tt.jpg","",""
"4430.050000000047","","","recognition","survey-text","464","1578724","0.0-6.0-3.65","3321929","co38158","norming","","","{""guess"":""amimal""}","","../img/tt/1161tt.jpg","",""
"null","../img/gs/1161gs.jpg","null","reveal","image-keyboard-response","465","1580731","0.0-6.0-4.65","3321929","co38158","norming","","","","","","",""
"null","../img/tt/1161tt.jpg","null","mooney2","image-keyboard-response","466","1582734","0.0-6.0-5.65","3321929","co38158","norming","","","","","","",""
"2531.950000000652","","","post_reveal_questions","survey-likert","467","1585268","0.0-6.0-6.65","3321929","co38158","norming","","","{""aha"":4}","[0]","../img/tt/1161tt.jpg","",""
"null","<div style=""font-size:60px;""> </div>","null","fixation","html-keyboard-response","468","1585471","0.0-6.0-0.66","3321929","co38158","norming","","","","","","",""
"null","../img/tt/1199tt.jpg","null","mooney1","image-keyboard-response","469","1588475","0.0-6.0-1.66","3321929","co38158","norming","","","","","","",""
"5431.850000000093","","","post_mooney1_questions","survey-likert","470","1593913","0.0-6.0-2.66","3321929","co38158","norming","","","{""curiosity"":3,""confidence"":2}","[0,1]","../img/tt/1199tt.jpg","",""
"5197.855000000214","","","recognition","survey-text","471","1599113","0.0-6.0-3.66","3321929","co38158","norming","","","{""guess"":""ballet""}","","../img/tt/1199tt.jpg","",""
"null","../img/gs/1199gs.jpg","null","reveal","image-keyboard-response","472","1601121","0.0-6.0-4.66","3321929","co38158","norming","","","","","","",""
"null","../img/tt/1199tt.jpg","null","mooney2","image-keyboard-response","473","1603123","0.0-6.0-5.66","3321929","co38158","norming","","","","","","",""
"6283.755000000354","","","post_reveal_questions","survey-likert","474","1609409","0.0-6.0-6.66","3321929","co38158","norming","","","{""aha"":3}","[0]","../img/tt/1199tt.jpg","",""
"null","<div style=""font-size:60px;""> </div>","null","fixation","html-keyboard-response","475","1609619","0.0-6.0-0.67","3321929","co38158","norming","","","","","","",""
"null","../img/tt/1101tt.jpg","null","mooney1","image-keyboard-response","476","1612622","0.0-6.0-1.67","3321929","co38158","norming","","","","","","",""
"8063.719999999972","","","post_mooney1_questions","survey-likert","477","1620689","0.0-6.0-2.67","3321929","co38158","norming","","","{""curiosity"":3,""confidence"":2}","[0,1]","../img/tt/1101tt.jpg","",""
"6213.9900000002235","","","recognition","survey-text","478","1626905","0.0-6.0-3.67","3321929","co38158","norming","","","{""guess"":""sports person""}","","../img/tt/1101tt.jpg","",""
"null","../img/gs/1101gs.jpg","null","reveal","image-keyboard-response","479","1628916","0.0-6.0-4.67","3321929","co38158","norming","","","","","","",""
"null","../img/tt/1101tt.jpg","null","mooney2","image-keyboard-response","480","1630924","0.0-6.0-5.67","3321929","co38158","norming","","","","","","",""
"5682.599999999162","","","post_reveal_questions","survey-likert","481","1636609","0.0-6.0-6.67","3321929","co38158","norming","","","{""aha"":3}","[0]","../img/tt/1101tt.jpg","",""
"null","<div style=""font-size:60px;""> </div>","null","fixation","html-keyboard-response","482","1636819","0.0-6.0-0.68","3321929","co38158","norming","","","","","","",""
"null","../img/tt/270tt.jpg","null","mooney1","image-keyboard-response","483","1639831","0.0-6.0-1.68","3321929","co38158","norming","","","","","","",""
"6583.040000000503","","","post_mooney1_questions","survey-likert","484","1646417","0.0-6.0-2.68","3321929","co38158","norming","","","{""curiosity"":4,""confidence"":0}","[0,1]","../img/tt/270tt.jpg","",""
"566.1750000000466","","","recognition","survey-text","485","1646985","0.0-6.0-3.68","3321929","co38158","norming","","","{""guess"":""""}","","../img/tt/270tt.jpg","",""
"null","../img/gs/270gs.jpg","null","reveal","image-keyboard-response","486","1648988","0.0-6.0-4.68","3321929","co38158","norming","","","","","","",""
"null","../img/tt/270tt.jpg","null","mooney2","image-keyboard-response","487","1650999","0.0-6.0-5.68","3321929","co38158","norming","","","","","","",""
"4567.969999999041","","","post_reveal_questions","survey-likert","488","1655569","0.0-6.0-6.68","3321929","co38158","norming","","","{""aha"":2}","[0]","../img/tt/270tt.jpg","",""
"null","<div style=""font-size:60px;""> </div>","null","fixation","html-keyboard-response","489","1655777","0.0-6.0-0.69","3321929","co38158","norming","","","","","","",""
"null","../img/tt/1243tt.jpg","null","mooney1","image-keyboard-response","490","1658784","0.0-6.0-1.69","3321929","co38158","norming","","","","","","",""
"6030.565000000177","","","post_mooney1_questions","survey-likert","491","1664817","0.0-6.0-2.69","3321929","co38158","norming","","","{""curiosity"":3,""confidence"":1}","[0,1]","../img/tt/1243tt.jpg","",""
"3094.019999999553","","","recognition","survey-text","492","1667913","0.0-6.0-3.69","3321929","co38158","norming","","","{""guess"":""monkry""}","","../img/tt/1243tt.jpg","",""
"null","../img/gs/1243gs.jpg","null","reveal","image-keyboard-response","493","1669914","0.0-6.0-4.69","3321929","co38158","norming","","","","","","",""
"null","../img/tt/1243tt.jpg","null","mooney2","image-keyboard-response","494","1671925","0.0-6.0-5.69","3321929","co38158","norming","","","","","","",""
"3297.560000000056","","","post_reveal_questions","survey-likert","495","1675225","0.0-6.0-6.69","3321929","co38158","norming","","","{""aha"":5}","[0]","../img/tt/1243tt.jpg","",""
"null","<div style=""font-size:60px;""> </div>","null","fixation","html-keyboard-response","496","1675427","0.0-6.0-0.70","3321929","co38158","norming","","","","","","",""
"null","../img/tt/053tt.jpg","null","mooney1","image-keyboard-response","497","1678435","0.0-6.0-1.70","3321929","co38158","norming","","","","","","",""
"3652.9250000002794","","","post_mooney1_questions","survey-likert","498","1682089","0.0-6.0-2.70","3321929","co38158","norming","","","{""curiosity"":3,""confidence"":3}","[0,1]","../img/tt/053tt.jpg","",""
"3310.024999999674","","","recognition","survey-text","499","1685401","0.0-6.0-3.70","3321929","co38158","norming","","","{""guess"":""sea wave""}","","../img/tt/053tt.jpg","",""
"null","../img/gs/053gs.jpg","null","reveal","image-keyboard-response","500","1687403","0.0-6.0-4.70","3321929","co38158","norming","","","","","","",""
"null","../img/tt/053tt.jpg","null","mooney2","image-keyboard-response","501","1689406","0.0-6.0-5.70","3321929","co38158","norming","","","","","","",""
"2104.994999999646","","","post_reveal_questions","survey-likert","502","1691513","0.0-6.0-6.70","3321929","co38158","norming","","","{""aha"":4}","[0]","../img/tt/053tt.jpg","",""
"null","<div style=""font-size:60px;""> </div>","null","fixation","html-keyboard-response","503","1691714","0.0-6.0-0.71","3321929","co38158","norming","","","","","","",""
"null","../img/tt/111tt.jpg","null","mooney1","image-keyboard-response","504","1694727","0.0-6.0-1.71","3321929","co38158","norming","","","","","","",""
"3718.945000000531","","","post_mooney1_questions","survey-likert","505","1698449","0.0-6.0-2.71","3321929","co38158","norming","","","{""curiosity"":3,""confidence"":4}","[0,1]","../img/tt/111tt.jpg","",""
"2054.105000000214","","","recognition","survey-text","506","1700505","0.0-6.0-3.71","3321929","co38158","norming","","","{""guess"":""sower""}","","../img/tt/111tt.jpg","",""
"null","../img/gs/111gs.jpg","null","reveal","image-keyboard-response","507","1702511","0.0-6.0-4.71","3321929","co38158","norming","","","","","","",""
"null","../img/tt/111tt.jpg","null","mooney2","image-keyboard-response","508","1704511","0.0-6.0-5.71","3321929","co38158","norming","","","","","","",""
"5976.7050000000745","","","post_reveal_questions","survey-likert","509","1710489","0.0-6.0-6.71","3321929","co38158","norming","","","{""aha"":3}","[0]","../img/tt/111tt.jpg","",""
"null","<div style=""font-size:60px;""> </div>","null","fixation","html-keyboard-response","510","1710698","0.0-6.0-0.72","3321929","co38158","norming","","","","","","",""
"null","../img/tt/1175tt.jpg","null","mooney1","image-keyboard-response","511","1713701","0.0-6.0-1.72","3321929","co38158","norming","","","","","","",""
"7784.829999999609","","","post_mooney1_questions","survey-likert","512","1721484","0.0-6.0-2.72","3321929","co38158","norming","","","{""curiosity"":3,""confidence"":1}","[0,1]","../img/tt/1175tt.jpg","",""
"5734.130000000587","","","recognition","survey-text","513","1727220","0.0-6.0-3.72","3321929","co38158","norming","","","{""guess"":""people caring bars""}","","../img/tt/1175tt.jpg","",""
"null","../img/gs/1175gs.jpg","null","reveal","image-keyboard-response","514","1729230","0.0-6.0-4.72","3321929","co38158","norming","","","","","","",""
"null","../img/tt/1175tt.jpg","null","mooney2","image-keyboard-response","515","1731234","0.0-6.0-5.72","3321929","co38158","norming","","","","","","",""
"4047.5749999997206","","","post_reveal_questions","survey-likert","516","1735284","0.0-6.0-6.72","3321929","co38158","norming","","","{""aha"":4}","[0]","../img/tt/1175tt.jpg","",""
"null","<div style=""font-size:60px;""> </div>","null","fixation","html-keyboard-response","517","1735490","0.0-6.0-0.73","3321929","co38158","norming","","","","","","",""
"null","../img/tt/1309tt.jpg","null","mooney1","image-keyboard-response","518","1738494","0.0-6.0-1.73","3321929","co38158","norming","","","","","","",""
"6293.155000000261","","","post_mooney1_questions","survey-likert","519","1744788","0.0-6.0-2.73","3321929","co38158","norming","","","{""curiosity"":3,""confidence"":1}","[0,1]","../img/tt/1309tt.jpg","",""
"4718.230000000447","","","recognition","survey-text","520","1749508","0.0-6.0-3.73","3321929","co38158","norming","","","{""guess"":""car in the woods""}","","../img/tt/1309tt.jpg","",""
"null","../img/gs/1309gs.jpg","null","reveal","image-keyboard-response","521","1751509","0.0-6.0-4.73","3321929","co38158","norming","","","","","","",""
"null","../img/tt/1309tt.jpg","null","mooney2","image-keyboard-response","522","1753520","0.0-6.0-5.73","3321929","co38158","norming","","","","","","",""
"1744.8549999999814","","","post_reveal_questions","survey-likert","523","1755268","0.0-6.0-6.73","3321929","co38158","norming","","","{""aha"":3}","[0]","../img/tt/1309tt.jpg","",""
"null","<div style=""font-size:60px;""> </div>","null","fixation","html-keyboard-response","524","1755470","0.0-6.0-0.74","3321929","co38158","norming","","","","","","",""
"null","../img/tt/1362tt.jpg","null","mooney1","image-keyboard-response","525","1758472","0.0-6.0-1.74","3321929","co38158","norming","","","","","","",""
"3738.7950000001583","","","post_mooney1_questions","survey-likert","526","1762212","0.0-6.0-2.74","3321929","co38158","norming","","","{""curiosity"":3,""confidence"":2}","[0,1]","../img/tt/1362tt.jpg","",""
"4702.134999999544","","","recognition","survey-text","527","1766916","0.0-6.0-3.74","3321929","co38158","norming","","","{""guess"":""table with stuff""}","","../img/tt/1362tt.jpg","",""
"null","../img/gs/1362gs.jpg","null","reveal","image-keyboard-response","528","1768919","0.0-6.0-4.74","3321929","co38158","norming","","","","","","",""
"null","../img/tt/1362tt.jpg","null","mooney2","image-keyboard-response","529","1770921","0.0-6.0-5.74","3321929","co38158","norming","","","","","","",""
"1505.839999999851","","","post_reveal_questions","survey-likert","530","1772428","0.0-6.0-6.74","3321929","co38158","norming","","","{""aha"":3}","[0]","../img/tt/1362tt.jpg","",""
"null","<div style=""font-size:60px;""> </div>","null","fixation","html-keyboard-response","531","1772636","0.0-6.0-0.75","3321929","co38158","norming","","","","","","",""
"null","../img/tt/440tt.jpg","null","mooney1","image-keyboard-response","532","1775639","0.0-6.0-1.75","3321929","co38158","norming","","","","","","",""
"4033.944999999134","","","post_mooney1_questions","survey-likert","533","1779676","0.0-6.0-2.75","3321929","co38158","norming","","","{""curiosity"":3,""confidence"":1}","[0,1]","../img/tt/440tt.jpg","",""
"4470.014999999898","","","recognition","survey-text","534","1784148","0.0-6.0-3.75","3321929","co38158","norming","","","{""guess"":""fens""}","","../img/tt/440tt.jpg","",""
"null","../img/gs/440gs.jpg","null","reveal","image-keyboard-response","535","1786156","0.0-6.0-4.75","3321929","co38158","norming","","","","","","",""
"null","../img/tt/440tt.jpg","null","mooney2","image-keyboard-response","536","1788158","0.0-6.0-5.75","3321929","co38158","norming","","","","","","",""
"4148.05999999959","","","post_reveal_questions","survey-likert","537","1792308","0.0-6.0-6.75","3321929","co38158","norming","","","{""aha"":4}","[0]","../img/tt/440tt.jpg","",""
"null","<div style=""font-size:60px;""> </div>","null","fixation","html-keyboard-response","538","1792512","0.0-6.0-0.76","3321929","co38158","norming","","","","","","",""
"null","../img/tt/040tt.jpg","null","mooney1","image-keyboard-response","539","1795515","0.0-6.0-1.76","3321929","co38158","norming","","","","","","",""
"6798.009999999544","","","post_mooney1_questions","survey-likert","540","1802317","0.0-6.0-2.76","3321929","co38158","norming","","","{""curiosity"":3,""confidence"":1}","[0,1]","../img/tt/040tt.jpg","",""
"1814.0000000004657","","","recognition","survey-text","541","1804132","0.0-6.0-3.76","3321929","co38158","norming","","","{""guess"":""wolf""}","","../img/tt/040tt.jpg","",""
"null","../img/gs/040gs.jpg","null","reveal","image-keyboard-response","542","1806135","0.0-6.0-4.76","3321929","co38158","norming","","","","","","",""
"null","../img/tt/040tt.jpg","null","mooney2","image-keyboard-response","543","1808146","0.0-6.0-5.76","3321929","co38158","norming","","","","","","",""
"4031.4749999998603","","","post_reveal_questions","survey-likert","544","1812180","0.0-6.0-6.76","3321929","co38158","norming","","","{""aha"":2}","[0]","../img/tt/040tt.jpg","",""
"null","<div style=""font-size:60px;""> </div>","null","fixation","html-keyboard-response","545","1812383","0.0-6.0-0.77","3321929","co38158","norming","","","","","","",""
"null","../img/tt/1102tt.jpg","null","mooney1","image-keyboard-response","546","1815386","0.0-6.0-1.77","3321929","co38158","norming","","","","","","",""
"4262.754999999888","","","post_mooney1_questions","survey-likert","547","1819653","0.0-6.0-2.77","3321929","co38158","norming","","","{""curiosity"":3,""confidence"":2}","[0,1]","../img/tt/1102tt.jpg","",""
"6669.604999999981","","","recognition","survey-text","548","1826324","0.0-6.0-3.77","3321929","co38158","norming","","","{""guess"":""palmtree""}","","../img/tt/1102tt.jpg","",""
"null","../img/gs/1102gs.jpg","null","reveal","image-keyboard-response","549","1828327","0.0-6.0-4.77","3321929","co38158","norming","","","","","","",""
"null","../img/tt/1102tt.jpg","null","mooney2","image-keyboard-response","550","1830333","0.0-6.0-5.77","3321929","co38158","norming","","","","","","",""
"1901.1849999995902","","","post_reveal_questions","survey-likert","551","1832236","0.0-6.0-6.77","3321929","co38158","norming","","","{""aha"":4}","[0]","../img/tt/1102tt.jpg","",""
