"rt","stimulus","key_press","test_part","trial_type","trial_index","time_elapsed","internal_node_id","totalTime","subject","experiment_name","button_pressed","success","responses","question_order","currentStim","old","correct"
"57746.615000010934","Welcome to the experiment. This is an online experiment so please don't close the tab/window until we say goodbye.  Press any key to begin.","40","instructions","html-keyboard-response","0","57812","0.0-0.0","2629163","co38524","norming","","","","","","",""
"5384.855000011157","<div style='word-wrap: break-word; width: 900px'><h3>Please consider this information carefully before deciding whether to participate in this research</h3><ul style='text-align: left; font-size: .8em;'><li><b>Purpose of the research</b>: To examine how people process images.</li><li><b>What you will do in this research</b>:  Stimuli (images) will be presented on the computer and you will be asked different questions about them.</li><li><b>Time required</b>: Participation will take between 45 and 60 minutes to complete.</li><li><b>Risks</b>:  There are no anticipated risks associated with participating in this study. The effects of participating should be comparable to those you would experience from viewing a computer monitor for 30 minutes and using a mouse or keyboard.</li><li><b>Benefits</b>:  This study provides no benefits to you individually except for the credit. The study provides important information about the nature of perception and learning.</li><li><b>Confidentiality</b>:  Your participation in this study will remain confidential. No personally identifiable information will be associated with your data. Your de-identified data may be shared with other researchers and used in future projects.</li><li><b>Participation and withdrawal</b>:  Your participation in this study is completely voluntary and you may refuse to participate or you may choose to withdraw at any time without penalty.</li><li><b>How to contact the researchers</b>: If you have questions or concerns about your participation or payment, or want to request a summary of research findings, please contact Sander Van de Cruys (KU Leuven), at sander.vandecruys@kuleuven.be.</li></ul><p>The nature and purpose of this research have been sufficiently explained and I agree to participate in this study.  I understand that I am free to withdraw at any time without incurring any penalty.</p><p>Please consent by clicking the button below to continue. Otherwise, please exit the study at this time.</p></div>","","instructions","html-button-response","1","63199","0.0-1.0","2629163","co38524","norming","0","","","","","",""
"","","","instructions","fullscreen","2","66113","0.0-2.0","2629163","co38524","norming","","true","","","","",""
"32501.78000004962","","","sona","survey-html-form","3","98617","0.0-3.0","2629163","co38524","norming","","","[{""name"":""sonaid"",""value"":""38524""},{""name"":""debrief"",""value"":""no""},{""name"":""datajoin"",""value"":""yes""}]","","","",""
"30981.93499998888","<div style='word-wrap: break-word; width: 900px'><h3>Instructions</h3><p>This experiment will have 3 parts. In the first part you will see a series of distorted images like the one below on the left. As you can see in the righthand image, the distorted images are derived from actual photographs. In what follows, you will <strong>briefly</strong> be presented with <strong>only</strong> the distorted image.</p> <div style='float: left; margin-right: 20px;'><img src='../img/018tt.jpg' height='250' width='250'></img></div><div style='float: right; margin-left: 20px;'><img src='../img/018gs.jpg' height='250' width='250'></img></div><p>Subsequently you will be asked a few questions about the image: One question on how <strong>curious</strong> you are about the solution and one on how <strong>confident</strong> you are that you know the solution.</p>Next, we ask you to make a guess on what is in the image. Note that it is OK to name just the <strong>basic level category</strong>. For example when you see a parrot in the image, 'parrot' will obviously be a correct answer but also correct is 'bird'. However, 'animal' will <strong>not</strong> be counted as a correct response. For the example above, 'rose' would be correct or 'flower', but not 'plant'. When soccer players are depicted, 'soccer', 'football', 'soccer players' will be correct, but not 'humans', 'outdoors', or 'sports'. You do not need to describe the image in full, just name the main object in it <strong>in one or two words</strong>. All images depict objects from one of the following broad level categories: animals, inanimate objects, plants, sports, vehicles, and food. Recognizing means knowing <strong>more</strong> than these broad labels for a given image. But we always encourage you to <strong>make a guess</strong> if you can. Note that you are allowed to use <strong>Dutch and English</strong> in your answers, whatever comes easiest for you.</p><p>Press any key to continue.</p></div>","32","instructions","html-keyboard-response","4","129598","0.0-4.0","2629163","co38524","norming","","","","","","",""
"9887.08499999484","<div style='word-wrap: break-word; width: 900px'><h3>Instructions</h3> <p>Next, the solution image will be revealed to you and you'll be asked to indicate how strong your <strong>aha-experience</strong> was after seeing the solution. This describes the positive feeling of the 'click' you sometimes experience, when the pieces of the 'puzzle' fall together and you suddenly have 'insight' in the image.</p><img src='aha.jpg' height='188' width='250'></img><p>Note that there are no right or wrong answers. We are interested in what <strong>you</strong> see in the image and how <strong>you</strong> feel about it.</p><p>Press any key to start the experiment.</p></div>","32","instructions","html-keyboard-response","5","139487","0.0-5.0","2629163","co38524","norming","","","","","","",""
"null","<div style=""font-size:60px;""> </div>","null","fixation","html-keyboard-response","6","139689","0.0-6.0-0.0","2629163","co38524","norming","","","","","","",""
"null","../img/tt/418tt.jpg","null","mooney1","image-keyboard-response","7","142705","0.0-6.0-1.0","2629163","co38524","norming","","","","","","",""
"6755.599999974947","","","post_mooney1_questions","survey-likert","8","149464","0.0-6.0-2.0","2629163","co38524","norming","","","{""curiosity"":2,""confidence"":4}","[0,1]","../img/tt/418tt.jpg","",""
"9611.78999999538","","","recognition","survey-text","9","159078","0.0-6.0-3.0","2629163","co38524","norming","","","{""guess"":""bloem""}","","../img/tt/418tt.jpg","",""
"null","../img/gs/418gs.jpg","null","reveal","image-keyboard-response","10","161091","0.0-6.0-4.0","2629163","co38524","norming","","","","","","",""
"null","../img/tt/418tt.jpg","null","mooney2","image-keyboard-response","11","163095","0.0-6.0-5.0","2629163","co38524","norming","","","","","","",""
"3401.2199999997392","","","post_reveal_questions","survey-likert","12","166498","0.0-6.0-6.0","2629163","co38524","norming","","","{""aha"":4}","[0]","../img/tt/418tt.jpg","",""
"null","<div style=""font-size:60px;""> </div>","null","fixation","html-keyboard-response","13","166705","0.0-6.0-0.1","2629163","co38524","norming","","","","","","",""
"null","../img/tt/1234tt.jpg","null","mooney1","image-keyboard-response","14","169720","0.0-6.0-1.1","2629163","co38524","norming","","","","","","",""
"6399.524999957066","","","post_mooney1_questions","survey-likert","15","176122","0.0-6.0-2.1","2629163","co38524","norming","","","{""curiosity"":6,""confidence"":1}","[0,1]","../img/tt/1234tt.jpg","",""
"3725.8950000396","","","recognition","survey-text","16","179851","0.0-6.0-3.1","2629163","co38524","norming","","","{""guess"":""""}","","../img/tt/1234tt.jpg","",""
"null","../img/gs/1234gs.jpg","null","reveal","image-keyboard-response","17","181857","0.0-6.0-4.1","2629163","co38524","norming","","","","","","",""
"null","../img/tt/1234tt.jpg","null","mooney2","image-keyboard-response","18","183861","0.0-6.0-5.1","2629163","co38524","norming","","","","","","",""
"3996.899999969173","","","post_reveal_questions","survey-likert","19","187860","0.0-6.0-6.1","2629163","co38524","norming","","","{""aha"":5}","[0]","../img/tt/1234tt.jpg","",""
"null","<div style=""font-size:60px;""> </div>","null","fixation","html-keyboard-response","20","188074","0.0-6.0-0.2","2629163","co38524","norming","","","","","","",""
"null","../img/tt/1102tt.jpg","null","mooney1","image-keyboard-response","21","191079","0.0-6.0-1.2","2629163","co38524","norming","","","","","","",""
"7094.39000004204","","","post_mooney1_questions","survey-likert","22","198175","0.0-6.0-2.2","2629163","co38524","norming","","","{""curiosity"":1,""confidence"":1}","[0,1]","../img/tt/1102tt.jpg","",""
"2955.690000031609","","","recognition","survey-text","23","201134","0.0-6.0-3.2","2629163","co38524","norming","","","{""guess"":""""}","","../img/tt/1102tt.jpg","",""
"null","../img/gs/1102gs.jpg","null","reveal","image-keyboard-response","24","203146","0.0-6.0-4.2","2629163","co38524","norming","","","","","","",""
"null","../img/tt/1102tt.jpg","null","mooney2","image-keyboard-response","25","205160","0.0-6.0-5.2","2629163","co38524","norming","","","","","","",""
"3383.3299999823794","","","post_reveal_questions","survey-likert","26","208545","0.0-6.0-6.2","2629163","co38524","norming","","","{""aha"":5}","[0]","../img/tt/1102tt.jpg","",""
"null","<div style=""font-size:60px;""> </div>","null","fixation","html-keyboard-response","27","208757","0.0-6.0-0.3","2629163","co38524","norming","","","","","","",""
"null","../img/tt/1066tt.jpg","null","mooney1","image-keyboard-response","28","211770","0.0-6.0-1.3","2629163","co38524","norming","","","","","","",""
"6158.170000009704","","","post_mooney1_questions","survey-likert","29","217930","0.0-6.0-2.3","2629163","co38524","norming","","","{""curiosity"":4,""confidence"":2}","[0,1]","../img/tt/1066tt.jpg","",""
"2866.5299999993294","","","recognition","survey-text","30","220798","0.0-6.0-3.3","2629163","co38524","norming","","","{""guess"":""bus""}","","../img/tt/1066tt.jpg","",""
"null","../img/gs/1066gs.jpg","null","reveal","image-keyboard-response","31","222806","0.0-6.0-4.3","2629163","co38524","norming","","","","","","",""
"null","../img/tt/1066tt.jpg","null","mooney2","image-keyboard-response","32","224817","0.0-6.0-5.3","2629163","co38524","norming","","","","","","",""
"3474.709999980405","","","post_reveal_questions","survey-likert","33","228294","0.0-6.0-6.3","2629163","co38524","norming","","","{""aha"":1}","[0]","../img/tt/1066tt.jpg","",""
"null","<div style=""font-size:60px;""> </div>","null","fixation","html-keyboard-response","34","228507","0.0-6.0-0.4","2629163","co38524","norming","","","","","","",""
"null","../img/tt/085tt.jpg","null","mooney1","image-keyboard-response","35","231520","0.0-6.0-1.4","2629163","co38524","norming","","","","","","",""
"8211.840000003576","","","post_mooney1_questions","survey-likert","36","239733","0.0-6.0-2.4","2629163","co38524","norming","","","{""curiosity"":2,""confidence"":5}","[0,1]","../img/tt/085tt.jpg","",""
"3228.4099999815226","","","recognition","survey-text","37","242965","0.0-6.0-3.4","2629163","co38524","norming","","","{""guess"":""woman""}","","../img/tt/085tt.jpg","",""
"null","../img/gs/085gs.jpg","null","reveal","image-keyboard-response","38","244974","0.0-6.0-4.4","2629163","co38524","norming","","","","","","",""
"null","../img/tt/085tt.jpg","null","mooney2","image-keyboard-response","39","246991","0.0-6.0-5.4","2629163","co38524","norming","","","","","","",""
"6159.105000027921","","","post_reveal_questions","survey-likert","40","253151","0.0-6.0-6.4","2629163","co38524","norming","","","{""aha"":5}","[0]","../img/tt/085tt.jpg","",""
"null","<div style=""font-size:60px;""> </div>","null","fixation","html-keyboard-response","41","253365","0.0-6.0-0.5","2629163","co38524","norming","","","","","","",""
"null","../img/tt/064tt.jpg","null","mooney1","image-keyboard-response","42","256381","0.0-6.0-1.5","2629163","co38524","norming","","","","","","",""
"5311.015000042971","","","post_mooney1_questions","survey-likert","43","261694","0.0-6.0-2.5","2629163","co38524","norming","","","{""curiosity"":4,""confidence"":1}","[0,1]","../img/tt/064tt.jpg","",""
"2683.7350000278093","","","recognition","survey-text","44","264381","0.0-6.0-3.5","2629163","co38524","norming","","","{""guess"":""kikker""}","","../img/tt/064tt.jpg","",""
"null","../img/gs/064gs.jpg","null","reveal","image-keyboard-response","45","266396","0.0-6.0-4.5","2629163","co38524","norming","","","","","","",""
"null","../img/tt/064tt.jpg","null","mooney2","image-keyboard-response","46","268412","0.0-6.0-5.5","2629163","co38524","norming","","","","","","",""
"4371.775000006892","","","post_reveal_questions","survey-likert","47","272785","0.0-6.0-6.5","2629163","co38524","norming","","","{""aha"":5}","[0]","../img/tt/064tt.jpg","",""
"null","<div style=""font-size:60px;""> </div>","null","fixation","html-keyboard-response","48","272997","0.0-6.0-0.6","2629163","co38524","norming","","","","","","",""
"null","../img/tt/1118tt.jpg","null","mooney1","image-keyboard-response","49","276004","0.0-6.0-1.6","2629163","co38524","norming","","","","","","",""
"10254.205000004731","","","post_mooney1_questions","survey-likert","50","286261","0.0-6.0-2.6","2629163","co38524","norming","","","{""curiosity"":4,""confidence"":1}","[0,1]","../img/tt/1118tt.jpg","",""
"1092.9200000246055","","","recognition","survey-text","51","287357","0.0-6.0-3.6","2629163","co38524","norming","","","{""guess"":""""}","","../img/tt/1118tt.jpg","",""
"null","../img/gs/1118gs.jpg","null","reveal","image-keyboard-response","52","289363","0.0-6.0-4.6","2629163","co38524","norming","","","","","","",""
"null","../img/tt/1118tt.jpg","null","mooney2","image-keyboard-response","53","291379","0.0-6.0-5.6","2629163","co38524","norming","","","","","","",""
"3654.1250000009313","","","post_reveal_questions","survey-likert","54","295035","0.0-6.0-6.6","2629163","co38524","norming","","","{""aha"":5}","[0]","../img/tt/1118tt.jpg","",""
"null","<div style=""font-size:60px;""> </div>","null","fixation","html-keyboard-response","55","295245","0.0-6.0-0.7","2629163","co38524","norming","","","","","","",""
"null","../img/tt/1040tt.jpg","null","mooney1","image-keyboard-response","56","298256","0.0-6.0-1.7","2629163","co38524","norming","","","","","","",""
"6081.084999954328","","","post_mooney1_questions","survey-likert","57","304338","0.0-6.0-2.7","2629163","co38524","norming","","","{""curiosity"":5,""confidence"":2}","[0,1]","../img/tt/1040tt.jpg","",""
"1838.5199999902397","","","recognition","survey-text","58","306180","0.0-6.0-3.7","2629163","co38524","norming","","","{""guess"":""""}","","../img/tt/1040tt.jpg","",""
"null","../img/gs/1040gs.jpg","null","reveal","image-keyboard-response","59","308193","0.0-6.0-4.7","2629163","co38524","norming","","","","","","",""
"null","../img/tt/1040tt.jpg","null","mooney2","image-keyboard-response","60","310209","0.0-6.0-5.7","2629163","co38524","norming","","","","","","",""
"18404.444999992847","","","post_reveal_questions","survey-likert","61","328616","0.0-6.0-6.7","2629163","co38524","norming","","","{""aha"":5}","[0]","../img/tt/1040tt.jpg","",""
"null","<div style=""font-size:60px;""> </div>","null","fixation","html-keyboard-response","62","328828","0.0-6.0-0.8","2629163","co38524","norming","","","","","","",""
"null","../img/tt/270tt.jpg","null","mooney1","image-keyboard-response","63","331832","0.0-6.0-1.8","2629163","co38524","norming","","","","","","",""
"6707.754999981262","","","post_mooney1_questions","survey-likert","64","338542","0.0-6.0-2.8","2629163","co38524","norming","","","{""curiosity"":5,""confidence"":1}","[0,1]","../img/tt/270tt.jpg","",""
"1476.825000019744","","","recognition","survey-text","65","340022","0.0-6.0-3.8","2629163","co38524","norming","","","{""guess"":""""}","","../img/tt/270tt.jpg","",""
"null","../img/gs/270gs.jpg","null","reveal","image-keyboard-response","66","342036","0.0-6.0-4.8","2629163","co38524","norming","","","","","","",""
"null","../img/tt/270tt.jpg","null","mooney2","image-keyboard-response","67","344051","0.0-6.0-5.8","2629163","co38524","norming","","","","","","",""
"3012.9000000306405","","","post_reveal_questions","survey-likert","68","347066","0.0-6.0-6.8","2629163","co38524","norming","","","{""aha"":5}","[0]","../img/tt/270tt.jpg","",""
"null","<div style=""font-size:60px;""> </div>","null","fixation","html-keyboard-response","69","347277","0.0-6.0-0.9","2629163","co38524","norming","","","","","","",""
"null","../img/tt/1227tt.jpg","null","mooney1","image-keyboard-response","70","350288","0.0-6.0-1.9","2629163","co38524","norming","","","","","","",""
"6293.285000021569","","","post_mooney1_questions","survey-likert","71","356584","0.0-6.0-2.9","2629163","co38524","norming","","","{""curiosity"":1,""confidence"":5}","[0,1]","../img/tt/1227tt.jpg","",""
"4044.7799999965355","","","recognition","survey-text","72","360631","0.0-6.0-3.9","2629163","co38524","norming","","","{""guess"":""""}","","../img/tt/1227tt.jpg","",""
"null","../img/gs/1227gs.jpg","null","reveal","image-keyboard-response","73","362645","0.0-6.0-4.9","2629163","co38524","norming","","","","","","",""
"null","../img/tt/1227tt.jpg","null","mooney2","image-keyboard-response","74","364661","0.0-6.0-5.9","2629163","co38524","norming","","","","","","",""
"3733.234999992419","","","post_reveal_questions","survey-likert","75","368396","0.0-6.0-6.9","2629163","co38524","norming","","","{""aha"":1}","[0]","../img/tt/1227tt.jpg","",""
"null","<div style=""font-size:60px;""> </div>","null","fixation","html-keyboard-response","76","368613","0.0-6.0-0.10","2629163","co38524","norming","","","","","","",""
"null","../img/tt/1049tt.jpg","null","mooney1","image-keyboard-response","77","371630","0.0-6.0-1.10","2629163","co38524","norming","","","","","","",""
"7785.770000016782","","","post_mooney1_questions","survey-likert","78","379418","0.0-6.0-2.10","2629163","co38524","norming","","","{""curiosity"":1,""confidence"":5}","[0,1]","../img/tt/1049tt.jpg","",""
"2443.039999983739","","","recognition","survey-text","79","381864","0.0-6.0-3.10","2629163","co38524","norming","","","{""guess"":""""}","","../img/tt/1049tt.jpg","",""
"null","../img/gs/1049gs.jpg","null","reveal","image-keyboard-response","80","383880","0.0-6.0-4.10","2629163","co38524","norming","","","","","","",""
"null","../img/tt/1049tt.jpg","null","mooney2","image-keyboard-response","81","385895","0.0-6.0-5.10","2629163","co38524","norming","","","","","","",""
"3734.4450000091456","","","post_reveal_questions","survey-likert","82","389631","0.0-6.0-6.10","2629163","co38524","norming","","","{""aha"":3}","[0]","../img/tt/1049tt.jpg","",""
"null","<div style=""font-size:60px;""> </div>","null","fixation","html-keyboard-response","83","389839","0.0-6.0-0.11","2629163","co38524","norming","","","","","","",""
"null","../img/tt/1226tt.jpg","null","mooney1","image-keyboard-response","84","392847","0.0-6.0-1.11","2629163","co38524","norming","","","","","","",""
"5118.950000032783","","","post_mooney1_questions","survey-likert","85","397969","0.0-6.0-2.11","2629163","co38524","norming","","","{""curiosity"":4,""confidence"":5}","[0,1]","../img/tt/1226tt.jpg","",""
"4260.754999995697","","","recognition","survey-text","86","402233","0.0-6.0-3.11","2629163","co38524","norming","","","{""guess"":""chicken""}","","../img/tt/1226tt.jpg","",""
"null","../img/gs/1226gs.jpg","null","reveal","image-keyboard-response","87","404241","0.0-6.0-4.11","2629163","co38524","norming","","","","","","",""
"null","../img/tt/1226tt.jpg","null","mooney2","image-keyboard-response","88","406255","0.0-6.0-5.11","2629163","co38524","norming","","","","","","",""
"4133.2750000292435","","","post_reveal_questions","survey-likert","89","410391","0.0-6.0-6.11","2629163","co38524","norming","","","{""aha"":3}","[0]","../img/tt/1226tt.jpg","",""
"null","<div style=""font-size:60px;""> </div>","null","fixation","html-keyboard-response","90","410599","0.0-6.0-0.12","2629163","co38524","norming","","","","","","",""
"null","../img/tt/108tt.jpg","null","mooney1","image-keyboard-response","91","413613","0.0-6.0-1.12","2629163","co38524","norming","","","","","","",""
"5663.484999968205","","","post_mooney1_questions","survey-likert","92","419279","0.0-6.0-2.12","2629163","co38524","norming","","","{""curiosity"":1,""confidence"":1}","[0,1]","../img/tt/108tt.jpg","",""
"1148.285000002943","","","recognition","survey-text","93","420431","0.0-6.0-3.12","2629163","co38524","norming","","","{""guess"":""""}","","../img/tt/108tt.jpg","",""
"null","../img/gs/108gs.jpg","null","reveal","image-keyboard-response","94","422443","0.0-6.0-4.12","2629163","co38524","norming","","","","","","",""
"null","../img/tt/108tt.jpg","null","mooney2","image-keyboard-response","95","424458","0.0-6.0-5.12","2629163","co38524","norming","","","","","","",""
"5077.999999979511","","","post_reveal_questions","survey-likert","96","429538","0.0-6.0-6.12","2629163","co38524","norming","","","{""aha"":4}","[0]","../img/tt/108tt.jpg","",""
"null","<div style=""font-size:60px;""> </div>","null","fixation","html-keyboard-response","97","429754","0.0-6.0-0.13","2629163","co38524","norming","","","","","","",""
"null","../img/tt/1236tt.jpg","null","mooney1","image-keyboard-response","98","432770","0.0-6.0-1.13","2629163","co38524","norming","","","","","","",""
"6323.43500002753","","","post_mooney1_questions","survey-likert","99","439095","0.0-6.0-2.13","2629163","co38524","norming","","","{""curiosity"":4,""confidence"":1}","[0,1]","../img/tt/1236tt.jpg","",""
"3394.9899999424815","","","recognition","survey-text","100","442493","0.0-6.0-3.13","2629163","co38524","norming","","","{""guess"":""""}","","../img/tt/1236tt.jpg","",""
"null","../img/gs/1236gs.jpg","null","reveal","image-keyboard-response","101","444506","0.0-6.0-4.13","2629163","co38524","norming","","","","","","",""
"null","../img/tt/1236tt.jpg","null","mooney2","image-keyboard-response","102","446522","0.0-6.0-5.13","2629163","co38524","norming","","","","","","",""
"2949.529999983497","","","post_reveal_questions","survey-likert","103","449473","0.0-6.0-6.13","2629163","co38524","norming","","","{""aha"":5}","[0]","../img/tt/1236tt.jpg","",""
"null","<div style=""font-size:60px;""> </div>","null","fixation","html-keyboard-response","104","449677","0.0-6.0-0.14","2629163","co38524","norming","","","","","","",""
"null","../img/tt/1146tt.jpg","null","mooney1","image-keyboard-response","105","452692","0.0-6.0-1.14","2629163","co38524","norming","","","","","","",""
"4251.214999996591","","","post_mooney1_questions","survey-likert","106","456946","0.0-6.0-2.14","2629163","co38524","norming","","","{""curiosity"":1,""confidence"":1}","[0,1]","../img/tt/1146tt.jpg","",""
"1393.709999974817","","","recognition","survey-text","107","458343","0.0-6.0-3.14","2629163","co38524","norming","","","{""guess"":""""}","","../img/tt/1146tt.jpg","",""
"null","../img/gs/1146gs.jpg","null","reveal","image-keyboard-response","108","460351","0.0-6.0-4.14","2629163","co38524","norming","","","","","","",""
"null","../img/tt/1146tt.jpg","null","mooney2","image-keyboard-response","109","462365","0.0-6.0-5.14","2629163","co38524","norming","","","","","","",""
"3970.6899999873713","","","post_reveal_questions","survey-likert","110","466338","0.0-6.0-6.14","2629163","co38524","norming","","","{""aha"":5}","[0]","../img/tt/1146tt.jpg","",""
"null","<div style=""font-size:60px;""> </div>","null","fixation","html-keyboard-response","111","466550","0.0-6.0-0.15","2629163","co38524","norming","","","","","","",""
"null","../img/tt/524tt.jpg","null","mooney1","image-keyboard-response","112","469552","0.0-6.0-1.15","2629163","co38524","norming","","","","","","",""
"6244.21999999322","","","post_mooney1_questions","survey-likert","113","475799","0.0-6.0-2.15","2629163","co38524","norming","","","{""curiosity"":1,""confidence"":1}","[0,1]","../img/tt/524tt.jpg","",""
"1540.999999968335","","","recognition","survey-text","114","477342","0.0-6.0-3.15","2629163","co38524","norming","","","{""guess"":""""}","","../img/tt/524tt.jpg","",""
"null","../img/gs/524gs.jpg","null","reveal","image-keyboard-response","115","479348","0.0-6.0-4.15","2629163","co38524","norming","","","","","","",""
"null","../img/tt/524tt.jpg","null","mooney2","image-keyboard-response","116","481365","0.0-6.0-5.15","2629163","co38524","norming","","","","","","",""
"3884.7350000287406","","","post_reveal_questions","survey-likert","117","485252","0.0-6.0-6.15","2629163","co38524","norming","","","{""aha"":2}","[0]","../img/tt/524tt.jpg","",""
"null","<div style=""font-size:60px;""> </div>","null","fixation","html-keyboard-response","118","485465","0.0-6.0-0.16","2629163","co38524","norming","","","","","","",""
"null","../img/tt/552tt.jpg","null","mooney1","image-keyboard-response","119","488476","0.0-6.0-1.16","2629163","co38524","norming","","","","","","",""
"4918.46000001533","","","post_mooney1_questions","survey-likert","120","493396","0.0-6.0-2.16","2629163","co38524","norming","","","{""curiosity"":5,""confidence"":5}","[0,1]","../img/tt/552tt.jpg","",""
"3608.4999999729916","","","recognition","survey-text","121","497007","0.0-6.0-3.16","2629163","co38524","norming","","","{""guess"":""stinkdier""}","","../img/tt/552tt.jpg","",""
"null","../img/gs/552gs.jpg","null","reveal","image-keyboard-response","122","499021","0.0-6.0-4.16","2629163","co38524","norming","","","","","","",""
"null","../img/tt/552tt.jpg","null","mooney2","image-keyboard-response","123","501035","0.0-6.0-5.16","2629163","co38524","norming","","","","","","",""
"3198.930000013206","","","post_reveal_questions","survey-likert","124","504236","0.0-6.0-6.16","2629163","co38524","norming","","","{""aha"":4}","[0]","../img/tt/552tt.jpg","",""
"null","<div style=""font-size:60px;""> </div>","null","fixation","html-keyboard-response","125","504447","0.0-6.0-0.17","2629163","co38524","norming","","","","","","",""
"null","../img/tt/1080tt.jpg","null","mooney1","image-keyboard-response","126","507458","0.0-6.0-1.17","2629163","co38524","norming","","","","","","",""
"5133.025000046473","","","post_mooney1_questions","survey-likert","127","512592","0.0-6.0-2.17","2629163","co38524","norming","","","{""curiosity"":1,""confidence"":3}","[0,1]","../img/tt/1080tt.jpg","",""
"2465.855000016745","","","recognition","survey-text","128","515060","0.0-6.0-3.17","2629163","co38524","norming","","","{""guess"":""rabbit""}","","../img/tt/1080tt.jpg","",""
"null","../img/gs/1080gs.jpg","null","reveal","image-keyboard-response","129","517067","0.0-6.0-4.17","2629163","co38524","norming","","","","","","",""
"null","../img/tt/1080tt.jpg","null","mooney2","image-keyboard-response","130","519082","0.0-6.0-5.17","2629163","co38524","norming","","","","","","",""
"3001.8549999804236","","","post_reveal_questions","survey-likert","131","522085","0.0-6.0-6.17","2629163","co38524","norming","","","{""aha"":4}","[0]","../img/tt/1080tt.jpg","",""
"null","<div style=""font-size:60px;""> </div>","null","fixation","html-keyboard-response","132","522299","0.0-6.0-0.18","2629163","co38524","norming","","","","","","",""
"null","../img/tt/1200tt.jpg","null","mooney1","image-keyboard-response","133","525317","0.0-6.0-1.18","2629163","co38524","norming","","","","","","",""
"4558.050000050571","","","post_mooney1_questions","survey-likert","134","529877","0.0-6.0-2.18","2629163","co38524","norming","","","{""curiosity"":1,""confidence"":1}","[0,1]","../img/tt/1200tt.jpg","",""
"1280.80000000773","","","recognition","survey-text","135","531160","0.0-6.0-3.18","2629163","co38524","norming","","","{""guess"":""""}","","../img/tt/1200tt.jpg","",""
"null","../img/gs/1200gs.jpg","null","reveal","image-keyboard-response","136","533177","0.0-6.0-4.18","2629163","co38524","norming","","","","","","",""
"null","../img/tt/1200tt.jpg","null","mooney2","image-keyboard-response","137","535192","0.0-6.0-5.18","2629163","co38524","norming","","","","","","",""
"4707.605000003241","","","post_reveal_questions","survey-likert","138","539901","0.0-6.0-6.18","2629163","co38524","norming","","","{""aha"":5}","[0]","../img/tt/1200tt.jpg","",""
"null","<div style=""font-size:60px;""> </div>","null","fixation","html-keyboard-response","139","540115","0.0-6.0-0.19","2629163","co38524","norming","","","","","","",""
"null","../img/tt/1243tt.jpg","null","mooney1","image-keyboard-response","140","543129","0.0-6.0-1.19","2629163","co38524","norming","","","","","","",""
"7327.239999955054","","","post_mooney1_questions","survey-likert","141","550458","0.0-6.0-2.19","2629163","co38524","norming","","","{""curiosity"":4,""confidence"":3}","[0,1]","../img/tt/1243tt.jpg","",""
"2198.424999951385","","","recognition","survey-text","142","552659","0.0-6.0-3.19","2629163","co38524","norming","","","{""guess"":""aap""}","","../img/tt/1243tt.jpg","",""
"null","../img/gs/1243gs.jpg","null","reveal","image-keyboard-response","143","554676","0.0-6.0-4.19","2629163","co38524","norming","","","","","","",""
"null","../img/tt/1243tt.jpg","null","mooney2","image-keyboard-response","144","556691","0.0-6.0-5.19","2629163","co38524","norming","","","","","","",""
"2893.080000008922","","","post_reveal_questions","survey-likert","145","559586","0.0-6.0-6.19","2629163","co38524","norming","","","{""aha"":4}","[0]","../img/tt/1243tt.jpg","",""
"null","<div style=""font-size:60px;""> </div>","null","fixation","html-keyboard-response","146","559796","0.0-6.0-0.20","2629163","co38524","norming","","","","","","",""
"null","../img/tt/060tt.jpg","null","mooney1","image-keyboard-response","147","562801","0.0-6.0-1.20","2629163","co38524","norming","","","","","","",""
"4409.540000022389","","","post_mooney1_questions","survey-likert","148","567213","0.0-6.0-2.20","2629163","co38524","norming","","","{""curiosity"":1,""confidence"":1}","[0,1]","../img/tt/060tt.jpg","",""
"1109.9300000350922","","","recognition","survey-text","149","568327","0.0-6.0-3.20","2629163","co38524","norming","","","{""guess"":""""}","","../img/tt/060tt.jpg","",""
"null","../img/gs/060gs.jpg","null","reveal","image-keyboard-response","150","570334","0.0-6.0-4.20","2629163","co38524","norming","","","","","","",""
"null","../img/tt/060tt.jpg","null","mooney2","image-keyboard-response","151","572350","0.0-6.0-5.20","2629163","co38524","norming","","","","","","",""
"7696.330000006128","","","post_reveal_questions","survey-likert","152","580048","0.0-6.0-6.20","2629163","co38524","norming","","","{""aha"":2}","[0]","../img/tt/060tt.jpg","",""
"null","<div style=""font-size:60px;""> </div>","null","fixation","html-keyboard-response","153","580262","0.0-6.0-0.21","2629163","co38524","norming","","","","","","",""
"null","../img/tt/1199tt.jpg","null","mooney1","image-keyboard-response","154","583270","0.0-6.0-1.21","2629163","co38524","norming","","","","","","",""
"6766.139999963343","","","post_mooney1_questions","survey-likert","155","590039","0.0-6.0-2.21","2629163","co38524","norming","","","{""curiosity"":5,""confidence"":3}","[0,1]","../img/tt/1199tt.jpg","",""
"2059.6699999878183","","","recognition","survey-text","156","592102","0.0-6.0-3.21","2629163","co38524","norming","","","{""guess"":""tafel""}","","../img/tt/1199tt.jpg","",""
"null","../img/gs/1199gs.jpg","null","reveal","image-keyboard-response","157","594110","0.0-6.0-4.21","2629163","co38524","norming","","","","","","",""
"null","../img/tt/1199tt.jpg","null","mooney2","image-keyboard-response","158","596115","0.0-6.0-5.21","2629163","co38524","norming","","","","","","",""
"3055.014999990817","","","post_reveal_questions","survey-likert","159","599172","0.0-6.0-6.21","2629163","co38524","norming","","","{""aha"":5}","[0]","../img/tt/1199tt.jpg","",""
"null","<div style=""font-size:60px;""> </div>","null","fixation","html-keyboard-response","160","599382","0.0-6.0-0.22","2629163","co38524","norming","","","","","","",""
"null","../img/tt/1161tt.jpg","null","mooney1","image-keyboard-response","161","602385","0.0-6.0-1.22","2629163","co38524","norming","","","","","","",""
"4701.7000000341795","","","post_mooney1_questions","survey-likert","162","607089","0.0-6.0-2.22","2629163","co38524","norming","","","{""curiosity"":1,""confidence"":2}","[0,1]","../img/tt/1161tt.jpg","",""
"2167.5149999791756","","","recognition","survey-text","163","609258","0.0-6.0-3.22","2629163","co38524","norming","","","{""guess"":""""}","","../img/tt/1161tt.jpg","",""
"null","../img/gs/1161gs.jpg","null","reveal","image-keyboard-response","164","611261","0.0-6.0-4.22","2629163","co38524","norming","","","","","","",""
"null","../img/tt/1161tt.jpg","null","mooney2","image-keyboard-response","165","613270","0.0-6.0-5.22","2629163","co38524","norming","","","","","","",""
"3274.794999975711","","","post_reveal_questions","survey-likert","166","616547","0.0-6.0-6.22","2629163","co38524","norming","","","{""aha"":5}","[0]","../img/tt/1161tt.jpg","",""
"null","<div style=""font-size:60px;""> </div>","null","fixation","html-keyboard-response","167","616758","0.0-6.0-0.23","2629163","co38524","norming","","","","","","",""
"null","../img/tt/1130tt.jpg","null","mooney1","image-keyboard-response","168","619770","0.0-6.0-1.23","2629163","co38524","norming","","","","","","",""
"6683.120000001509","","","post_mooney1_questions","survey-likert","169","626454","0.0-6.0-2.23","2629163","co38524","norming","","","{""curiosity"":0,""confidence"":6}","[0,1]","../img/tt/1130tt.jpg","",""
"2675.4599999985658","","","recognition","survey-text","170","629132","0.0-6.0-3.23","2629163","co38524","norming","","","{""guess"":""persoon""}","","../img/tt/1130tt.jpg","",""
"null","../img/gs/1130gs.jpg","null","reveal","image-keyboard-response","171","631145","0.0-6.0-4.23","2629163","co38524","norming","","","","","","",""
"null","../img/tt/1130tt.jpg","null","mooney2","image-keyboard-response","172","633161","0.0-6.0-5.23","2629163","co38524","norming","","","","","","",""
"3181.990000011865","","","post_reveal_questions","survey-likert","173","636345","0.0-6.0-6.23","2629163","co38524","norming","","","{""aha"":4}","[0]","../img/tt/1130tt.jpg","",""
"null","<div style=""font-size:60px;""> </div>","null","fixation","html-keyboard-response","174","636547","0.0-6.0-0.24","2629163","co38524","norming","","","","","","",""
"null","../img/tt/1366tt.jpg","null","mooney1","image-keyboard-response","175","639551","0.0-6.0-1.24","2629163","co38524","norming","","","","","","",""
"6015.979999967385","","","post_mooney1_questions","survey-likert","176","645568","0.0-6.0-2.24","2629163","co38524","norming","","","{""curiosity"":1,""confidence"":1}","[0,1]","../img/tt/1366tt.jpg","",""
"1362.874999991618","","","recognition","survey-text","177","646933","0.0-6.0-3.24","2629163","co38524","norming","","","{""guess"":""""}","","../img/tt/1366tt.jpg","",""
"null","../img/gs/1366gs.jpg","null","reveal","image-keyboard-response","178","648942","0.0-6.0-4.24","2629163","co38524","norming","","","","","","",""
"null","../img/tt/1366tt.jpg","null","mooney2","image-keyboard-response","179","650958","0.0-6.0-5.24","2629163","co38524","norming","","","","","","",""
"3167.014999955427","","","post_reveal_questions","survey-likert","180","654127","0.0-6.0-6.24","2629163","co38524","norming","","","{""aha"":5}","[0]","../img/tt/1366tt.jpg","",""
"null","<div style=""font-size:60px;""> </div>","null","fixation","html-keyboard-response","181","654341","0.0-6.0-0.25","2629163","co38524","norming","","","","","","",""
"null","../img/tt/436tt.jpg","null","mooney1","image-keyboard-response","182","657348","0.0-6.0-1.25","2629163","co38524","norming","","","","","","",""
"5374.784999992698","","","post_mooney1_questions","survey-likert","183","662725","0.0-6.0-2.25","2629163","co38524","norming","","","{""curiosity"":2,""confidence"":2}","[0,1]","../img/tt/436tt.jpg","",""
"1256.775000016205","","","recognition","survey-text","184","663986","0.0-6.0-3.25","2629163","co38524","norming","","","{""guess"":""""}","","../img/tt/436tt.jpg","",""
"null","../img/gs/436gs.jpg","null","reveal","image-keyboard-response","185","665989","0.0-6.0-4.25","2629163","co38524","norming","","","","","","",""
"null","../img/tt/436tt.jpg","null","mooney2","image-keyboard-response","186","668005","0.0-6.0-5.25","2629163","co38524","norming","","","","","","",""
"2586.3900000113063","","","post_reveal_questions","survey-likert","187","670593","0.0-6.0-6.25","2629163","co38524","norming","","","{""aha"":4}","[0]","../img/tt/436tt.jpg","",""
"null","<div style=""font-size:60px;""> </div>","null","fixation","html-keyboard-response","188","670809","0.0-6.0-0.26","2629163","co38524","norming","","","","","","",""
"null","../img/tt/357tt.jpg","null","mooney1","image-keyboard-response","189","673817","0.0-6.0-1.26","2629163","co38524","norming","","","","","","",""
"4969.27499998128","","","post_mooney1_questions","survey-likert","190","678788","0.0-6.0-2.26","2629163","co38524","norming","","","{""curiosity"":2,""confidence"":1}","[0,1]","../img/tt/357tt.jpg","",""
"1279.4250000151806","","","recognition","survey-text","191","680071","0.0-6.0-3.26","2629163","co38524","norming","","","{""guess"":""""}","","../img/tt/357tt.jpg","",""
"null","../img/gs/357gs.jpg","null","reveal","image-keyboard-response","192","682083","0.0-6.0-4.26","2629163","co38524","norming","","","","","","",""
"null","../img/tt/357tt.jpg","null","mooney2","image-keyboard-response","193","684098","0.0-6.0-5.26","2629163","co38524","norming","","","","","","",""
"7742.804999987129","","","post_reveal_questions","survey-likert","194","691843","0.0-6.0-6.26","2629163","co38524","norming","","","{""aha"":4}","[0]","../img/tt/357tt.jpg","",""
"null","<div style=""font-size:60px;""> </div>","null","fixation","html-keyboard-response","195","692055","0.0-6.0-0.27","2629163","co38524","norming","","","","","","",""
"null","../img/tt/1190tt.jpg","null","mooney1","image-keyboard-response","196","695067","0.0-6.0-1.27","2629163","co38524","norming","","","","","","",""
"10827.85999996122","","","post_mooney1_questions","survey-likert","197","705898","0.0-6.0-2.27","2629163","co38524","norming","","","{""curiosity"":4,""confidence"":3}","[0,1]","../img/tt/1190tt.jpg","",""
"978.159999998752","","","recognition","survey-text","198","706879","0.0-6.0-3.27","2629163","co38524","norming","","","{""guess"":""""}","","../img/tt/1190tt.jpg","",""
"null","../img/gs/1190gs.jpg","null","reveal","image-keyboard-response","199","708895","0.0-6.0-4.27","2629163","co38524","norming","","","","","","",""
"null","../img/tt/1190tt.jpg","null","mooney2","image-keyboard-response","200","710897","0.0-6.0-5.27","2629163","co38524","norming","","","","","","",""
"4057.054999982938","","","post_reveal_questions","survey-likert","201","714956","0.0-6.0-6.27","2629163","co38524","norming","","","{""aha"":4}","[0]","../img/tt/1190tt.jpg","",""
"null","<div style=""font-size:60px;""> </div>","null","fixation","html-keyboard-response","202","715158","0.0-6.0-0.28","2629163","co38524","norming","","","","","","",""
"null","../img/tt/1260tt.jpg","null","mooney1","image-keyboard-response","203","718163","0.0-6.0-1.28","2629163","co38524","norming","","","","","","",""
"14206.489999953192","","","post_mooney1_questions","survey-likert","204","732372","0.0-6.0-2.28","2629163","co38524","norming","","","{""curiosity"":5,""confidence"":4}","[0,1]","../img/tt/1260tt.jpg","",""
"1318.6700000078417","","","recognition","survey-text","205","733694","0.0-6.0-3.28","2629163","co38524","norming","","","{""guess"":""""}","","../img/tt/1260tt.jpg","",""
"null","../img/gs/1260gs.jpg","null","reveal","image-keyboard-response","206","735708","0.0-6.0-4.28","2629163","co38524","norming","","","","","","",""
"null","../img/tt/1260tt.jpg","null","mooney2","image-keyboard-response","207","737723","0.0-6.0-5.28","2629163","co38524","norming","","","","","","",""
"2705.805000034161","","","post_reveal_questions","survey-likert","208","740431","0.0-6.0-6.28","2629163","co38524","norming","","","{""aha"":4}","[0]","../img/tt/1260tt.jpg","",""
"null","<div style=""font-size:60px;""> </div>","null","fixation","html-keyboard-response","209","740645","0.0-6.0-0.29","2629163","co38524","norming","","","","","","",""
"null","../img/tt/1063tt.jpg","null","mooney1","image-keyboard-response","210","743661","0.0-6.0-1.29","2629163","co38524","norming","","","","","","",""
"4645.254999981262","","","post_mooney1_questions","survey-likert","211","748308","0.0-6.0-2.29","2629163","co38524","norming","","","{""curiosity"":4,""confidence"":3}","[0,1]","../img/tt/1063tt.jpg","",""
"2176.0799999465235","","","recognition","survey-text","212","750486","0.0-6.0-3.29","2629163","co38524","norming","","","{""guess"":""""}","","../img/tt/1063tt.jpg","",""
"null","../img/gs/1063gs.jpg","null","reveal","image-keyboard-response","213","752493","0.0-6.0-4.29","2629163","co38524","norming","","","","","","",""
"null","../img/tt/1063tt.jpg","null","mooney2","image-keyboard-response","214","754502","0.0-6.0-5.29","2629163","co38524","norming","","","","","","",""
"2911.58000001451","","","post_reveal_questions","survey-likert","215","757415","0.0-6.0-6.29","2629163","co38524","norming","","","{""aha"":4}","[0]","../img/tt/1063tt.jpg","",""
"null","<div style=""font-size:60px;""> </div>","null","fixation","html-keyboard-response","216","757629","0.0-6.0-0.30","2629163","co38524","norming","","","","","","",""
"null","../img/tt/020tt.jpg","null","mooney1","image-keyboard-response","217","760646","0.0-6.0-1.30","2629163","co38524","norming","","","","","","",""
"4644.200000038836","","","post_mooney1_questions","survey-likert","218","765293","0.0-6.0-2.30","2629163","co38524","norming","","","{""curiosity"":3,""confidence"":3}","[0,1]","../img/tt/020tt.jpg","",""
"1414.1149999923073","","","recognition","survey-text","219","766710","0.0-6.0-3.30","2629163","co38524","norming","","","{""guess"":""""}","","../img/tt/020tt.jpg","",""
"null","../img/gs/020gs.jpg","null","reveal","image-keyboard-response","220","768724","0.0-6.0-4.30","2629163","co38524","norming","","","","","","",""
"null","../img/tt/020tt.jpg","null","mooney2","image-keyboard-response","221","770739","0.0-6.0-5.30","2629163","co38524","norming","","","","","","",""
"3075.730000040494","","","post_reveal_questions","survey-likert","222","773817","0.0-6.0-6.30","2629163","co38524","norming","","","{""aha"":4}","[0]","../img/tt/020tt.jpg","",""
"null","<div style=""font-size:60px;""> </div>","null","fixation","html-keyboard-response","223","774028","0.0-6.0-0.31","2629163","co38524","norming","","","","","","",""
"null","../img/tt/1278tt.jpg","null","mooney1","image-keyboard-response","224","777038","0.0-6.0-1.31","2629163","co38524","norming","","","","","","",""
"5058.3300000289455","","","post_mooney1_questions","survey-likert","225","782099","0.0-6.0-2.31","2629163","co38524","norming","","","{""curiosity"":5,""confidence"":4}","[0,1]","../img/tt/1278tt.jpg","",""
"1386.7099999915808","","","recognition","survey-text","226","783489","0.0-6.0-3.31","2629163","co38524","norming","","","{""guess"":""""}","","../img/tt/1278tt.jpg","",""
"null","../img/gs/1278gs.jpg","null","reveal","image-keyboard-response","227","785504","0.0-6.0-4.31","2629163","co38524","norming","","","","","","",""
"null","../img/tt/1278tt.jpg","null","mooney2","image-keyboard-response","228","787520","0.0-6.0-5.31","2629163","co38524","norming","","","","","","",""
"3180.6799999903888","","","post_reveal_questions","survey-likert","229","790702","0.0-6.0-6.31","2629163","co38524","norming","","","{""aha"":4}","[0]","../img/tt/1278tt.jpg","",""
"null","<div style=""font-size:60px;""> </div>","null","fixation","html-keyboard-response","230","790906","0.0-6.0-0.32","2629163","co38524","norming","","","","","","",""
"null","../img/tt/044tt.jpg","null","mooney1","image-keyboard-response","231","793911","0.0-6.0-1.32","2629163","co38524","norming","","","","","","",""
"4687.734999984968","","","post_mooney1_questions","survey-likert","232","798601","0.0-6.0-2.32","2629163","co38524","norming","","","{""curiosity"":5,""confidence"":5}","[0,1]","../img/tt/044tt.jpg","",""
"2970.5449999892153","","","recognition","survey-text","233","801575","0.0-6.0-3.32","2629163","co38524","norming","","","{""guess"":""laptop""}","","../img/tt/044tt.jpg","",""
"null","../img/gs/044gs.jpg","null","reveal","image-keyboard-response","234","803582","0.0-6.0-4.32","2629163","co38524","norming","","","","","","",""
"null","../img/tt/044tt.jpg","null","mooney2","image-keyboard-response","235","805599","0.0-6.0-5.32","2629163","co38524","norming","","","","","","",""
"4382.000000041444","","","post_reveal_questions","survey-likert","236","809983","0.0-6.0-6.32","2629163","co38524","norming","","","{""aha"":6}","[0]","../img/tt/044tt.jpg","",""
"null","<div style=""font-size:60px;""> </div>","null","fixation","html-keyboard-response","237","810197","0.0-6.0-0.33","2629163","co38524","norming","","","","","","",""
"null","../img/tt/184tt.jpg","null","mooney1","image-keyboard-response","238","813207","0.0-6.0-1.33","2629163","co38524","norming","","","","","","",""
"4701.570000033826","","","post_mooney1_questions","survey-likert","239","817910","0.0-6.0-2.33","2629163","co38524","norming","","","{""curiosity"":5,""confidence"":2}","[0,1]","../img/tt/184tt.jpg","",""
"1447.0999999903142","","","recognition","survey-text","240","819361","0.0-6.0-3.33","2629163","co38524","norming","","","{""guess"":""food""}","","../img/tt/184tt.jpg","",""
"null","../img/gs/184gs.jpg","null","reveal","image-keyboard-response","241","821363","0.0-6.0-4.33","2629163","co38524","norming","","","","","","",""
"null","../img/tt/184tt.jpg","null","mooney2","image-keyboard-response","242","823371","0.0-6.0-5.33","2629163","co38524","norming","","","","","","",""
"2978.374999947846","","","post_reveal_questions","survey-likert","243","826351","0.0-6.0-6.33","2629163","co38524","norming","","","{""aha"":5}","[0]","../img/tt/184tt.jpg","",""
"null","<div style=""font-size:60px;""> </div>","null","fixation","html-keyboard-response","244","826552","0.0-6.0-0.34","2629163","co38524","norming","","","","","","",""
"null","../img/tt/1004tt.jpg","null","mooney1","image-keyboard-response","245","829555","0.0-6.0-1.34","2629163","co38524","norming","","","","","","",""
"6107.435000012629","","","post_mooney1_questions","survey-likert","246","835664","0.0-6.0-2.34","2629163","co38524","norming","","","{""curiosity"":2,""confidence"":0}","[0,1]","../img/tt/1004tt.jpg","",""
"1072.71000003675","","","recognition","survey-text","247","836740","0.0-6.0-3.34","2629163","co38524","norming","","","{""guess"":""""}","","../img/tt/1004tt.jpg","",""
"null","../img/gs/1004gs.jpg","null","reveal","image-keyboard-response","248","838746","0.0-6.0-4.34","2629163","co38524","norming","","","","","","",""
"null","../img/tt/1004tt.jpg","null","mooney2","image-keyboard-response","249","840756","0.0-6.0-5.34","2629163","co38524","norming","","","","","","",""
"3827.370000013616","","","post_reveal_questions","survey-likert","250","844585","0.0-6.0-6.34","2629163","co38524","norming","","","{""aha"":5}","[0]","../img/tt/1004tt.jpg","",""
"null","<div style=""font-size:60px;""> </div>","null","fixation","html-keyboard-response","251","844795","0.0-6.0-0.35","2629163","co38524","norming","","","","","","",""
"null","../img/tt/1254tt.jpg","null","mooney1","image-keyboard-response","252","847801","0.0-6.0-1.35","2629163","co38524","norming","","","","","","",""
"4739.51499996474","","","post_mooney1_questions","survey-likert","253","852543","0.0-6.0-2.35","2629163","co38524","norming","","","{""curiosity"":3,""confidence"":0}","[0,1]","../img/tt/1254tt.jpg","",""
"1462.5949999899603","","","recognition","survey-text","254","854008","0.0-6.0-3.35","2629163","co38524","norming","","","{""guess"":""""}","","../img/tt/1254tt.jpg","",""
"null","../img/gs/1254gs.jpg","null","reveal","image-keyboard-response","255","856020","0.0-6.0-4.35","2629163","co38524","norming","","","","","","",""
"null","../img/tt/1254tt.jpg","null","mooney2","image-keyboard-response","256","858022","0.0-6.0-5.35","2629163","co38524","norming","","","","","","",""
"2669.419999991078","","","post_reveal_questions","survey-likert","257","860694","0.0-6.0-6.35","2629163","co38524","norming","","","{""aha"":5}","[0]","../img/tt/1254tt.jpg","",""
"null","<div style=""font-size:60px;""> </div>","null","fixation","html-keyboard-response","258","860899","0.0-6.0-0.36","2629163","co38524","norming","","","","","","",""
"null","../img/tt/1211tt.jpg","null","mooney1","image-keyboard-response","259","863912","0.0-6.0-1.36","2629163","co38524","norming","","","","","","",""
"5264.3500000122","","","post_mooney1_questions","survey-likert","260","869179","0.0-6.0-2.36","2629163","co38524","norming","","","{""curiosity"":3,""confidence"":0}","[0,1]","../img/tt/1211tt.jpg","",""
"1781.2200000043958","","","recognition","survey-text","261","870963","0.0-6.0-3.36","2629163","co38524","norming","","","{""guess"":""""}","","../img/tt/1211tt.jpg","",""
"null","../img/gs/1211gs.jpg","null","reveal","image-keyboard-response","262","872974","0.0-6.0-4.36","2629163","co38524","norming","","","","","","",""
"null","../img/tt/1211tt.jpg","null","mooney2","image-keyboard-response","263","874989","0.0-6.0-5.36","2629163","co38524","norming","","","","","","",""
"3477.400000032503","","","post_reveal_questions","survey-likert","264","878468","0.0-6.0-6.36","2629163","co38524","norming","","","{""aha"":5}","[0]","../img/tt/1211tt.jpg","",""
"null","<div style=""font-size:60px;""> </div>","null","fixation","html-keyboard-response","265","878675","0.0-6.0-0.37","2629163","co38524","norming","","","","","","",""
"null","../img/tt/1143tt.jpg","null","mooney1","image-keyboard-response","266","881692","0.0-6.0-1.37","2629163","co38524","norming","","","","","","",""
"4651.060000003781","","","post_mooney1_questions","survey-likert","267","886346","0.0-6.0-2.37","2629163","co38524","norming","","","{""curiosity"":5,""confidence"":1}","[0,1]","../img/tt/1143tt.jpg","",""
"1892.8949999972247","","","recognition","survey-text","268","888242","0.0-6.0-3.37","2629163","co38524","norming","","","{""guess"":""""}","","../img/tt/1143tt.jpg","",""
"null","../img/gs/1143gs.jpg","null","reveal","image-keyboard-response","269","890247","0.0-6.0-4.37","2629163","co38524","norming","","","","","","",""
"null","../img/tt/1143tt.jpg","null","mooney2","image-keyboard-response","270","892260","0.0-6.0-5.37","2629163","co38524","norming","","","","","","",""
"3057.7249999623746","","","post_reveal_questions","survey-likert","271","895320","0.0-6.0-6.37","2629163","co38524","norming","","","{""aha"":5}","[0]","../img/tt/1143tt.jpg","",""
"null","<div style=""font-size:60px;""> </div>","null","fixation","html-keyboard-response","272","895532","0.0-6.0-0.38","2629163","co38524","norming","","","","","","",""
"null","../img/tt/1033tt.jpg","null","mooney1","image-keyboard-response","273","898538","0.0-6.0-1.38","2629163","co38524","norming","","","","","","",""
"4856.165000004694","","","post_mooney1_questions","survey-likert","274","903397","0.0-6.0-2.38","2629163","co38524","norming","","","{""curiosity"":2,""confidence"":1}","[0,1]","../img/tt/1033tt.jpg","",""
"3655.9550000238232","","","recognition","survey-text","275","907056","0.0-6.0-3.38","2629163","co38524","norming","","","{""guess"":""speerwerpen""}","","../img/tt/1033tt.jpg","",""
"null","../img/gs/1033gs.jpg","null","reveal","image-keyboard-response","276","909067","0.0-6.0-4.38","2629163","co38524","norming","","","","","","",""
"null","../img/tt/1033tt.jpg","null","mooney2","image-keyboard-response","277","911082","0.0-6.0-5.38","2629163","co38524","norming","","","","","","",""
"6081.579999998212","","","post_reveal_questions","survey-likert","278","917165","0.0-6.0-6.38","2629163","co38524","norming","","","{""aha"":5}","[0]","../img/tt/1033tt.jpg","",""
"null","<div style=""font-size:60px;""> </div>","null","fixation","html-keyboard-response","279","917379","0.0-6.0-0.39","2629163","co38524","norming","","","","","","",""
"null","../img/tt/010tt.jpg","null","mooney1","image-keyboard-response","280","920385","0.0-6.0-1.39","2629163","co38524","norming","","","","","","",""
"5038.7099999934435","","","post_mooney1_questions","survey-likert","281","925426","0.0-6.0-2.39","2629163","co38524","norming","","","{""curiosity"":1,""confidence"":0}","[0,1]","../img/tt/010tt.jpg","",""
"1493.4100000537","","","recognition","survey-text","282","926923","0.0-6.0-3.39","2629163","co38524","norming","","","{""guess"":""""}","","../img/tt/010tt.jpg","",""
"null","../img/gs/010gs.jpg","null","reveal","image-keyboard-response","283","928937","0.0-6.0-4.39","2629163","co38524","norming","","","","","","",""
"null","../img/tt/010tt.jpg","null","mooney2","image-keyboard-response","284","930942","0.0-6.0-5.39","2629163","co38524","norming","","","","","","",""
"2703.719999990426","","","post_reveal_questions","survey-likert","285","933648","0.0-6.0-6.39","2629163","co38524","norming","","","{""aha"":5}","[0]","../img/tt/010tt.jpg","",""
"null","<div style=""font-size:60px;""> </div>","null","fixation","html-keyboard-response","286","933864","0.0-6.0-0.40","2629163","co38524","norming","","","","","","",""
"null","../img/tt/1159tt.jpg","null","mooney1","image-keyboard-response","287","936870","0.0-6.0-1.40","2629163","co38524","norming","","","","","","",""
"4668.280000041705","","","post_mooney1_questions","survey-likert","288","941540","0.0-6.0-2.40","2629163","co38524","norming","","","{""curiosity"":1,""confidence"":5}","[0,1]","../img/tt/1159tt.jpg","",""
"1712.015000055544","","","recognition","survey-text","289","943255","0.0-6.0-3.40","2629163","co38524","norming","","","{""guess"":""hek""}","","../img/tt/1159tt.jpg","",""
"null","../img/gs/1159gs.jpg","null","reveal","image-keyboard-response","290","945270","0.0-6.0-4.40","2629163","co38524","norming","","","","","","",""
"null","../img/tt/1159tt.jpg","null","mooney2","image-keyboard-response","291","947272","0.0-6.0-5.40","2629163","co38524","norming","","","","","","",""
"3511.0749999876134","","","post_reveal_questions","survey-likert","292","950785","0.0-6.0-6.40","2629163","co38524","norming","","","{""aha"":6}","[0]","../img/tt/1159tt.jpg","",""
"null","<div style=""font-size:60px;""> </div>","null","fixation","html-keyboard-response","293","950996","0.0-6.0-0.41","2629163","co38524","norming","","","","","","",""
"null","../img/tt/456tt.jpg","null","mooney1","image-keyboard-response","294","954011","0.0-6.0-1.41","2629163","co38524","norming","","","","","","",""
"4132.7649999875575","","","post_mooney1_questions","survey-likert","295","958145","0.0-6.0-2.41","2629163","co38524","norming","","","{""curiosity"":1,""confidence"":0}","[0,1]","../img/tt/456tt.jpg","",""
"1127.2250000038184","","","recognition","survey-text","296","959276","0.0-6.0-3.41","2629163","co38524","norming","","","{""guess"":""""}","","../img/tt/456tt.jpg","",""
"null","../img/gs/456gs.jpg","null","reveal","image-keyboard-response","297","961285","0.0-6.0-4.41","2629163","co38524","norming","","","","","","",""
"null","../img/tt/456tt.jpg","null","mooney2","image-keyboard-response","298","963290","0.0-6.0-5.41","2629163","co38524","norming","","","","","","",""
"2323.1050000176765","","","post_reveal_questions","survey-likert","299","965616","0.0-6.0-6.41","2629163","co38524","norming","","","{""aha"":1}","[0]","../img/tt/456tt.jpg","",""
"null","<div style=""font-size:60px;""> </div>","null","fixation","html-keyboard-response","300","965819","0.0-6.0-0.42","2629163","co38524","norming","","","","","","",""
"null","../img/tt/1151tt.jpg","null","mooney1","image-keyboard-response","301","968832","0.0-6.0-1.42","2629163","co38524","norming","","","","","","",""
"6676.7499999841675","","","post_mooney1_questions","survey-likert","302","975511","0.0-6.0-2.42","2629163","co38524","norming","","","{""curiosity"":5,""confidence"":1}","[0,1]","../img/tt/1151tt.jpg","",""
"1461.6700000478886","","","recognition","survey-text","303","976975","0.0-6.0-3.42","2629163","co38524","norming","","","{""guess"":""""}","","../img/tt/1151tt.jpg","",""
"null","../img/gs/1151gs.jpg","null","reveal","image-keyboard-response","304","978989","0.0-6.0-4.42","2629163","co38524","norming","","","","","","",""
"null","../img/tt/1151tt.jpg","null","mooney2","image-keyboard-response","305","981005","0.0-6.0-5.42","2629163","co38524","norming","","","","","","",""
"3248.1700000353158","","","post_reveal_questions","survey-likert","306","984255","0.0-6.0-6.42","2629163","co38524","norming","","","{""aha"":5}","[0]","../img/tt/1151tt.jpg","",""
"null","<div style=""font-size:60px;""> </div>","null","fixation","html-keyboard-response","307","984465","0.0-6.0-0.43","2629163","co38524","norming","","","","","","",""
"null","../img/tt/1309tt.jpg","null","mooney1","image-keyboard-response","308","987477","0.0-6.0-1.43","2629163","co38524","norming","","","","","","",""
"5899.074999964796","","","post_mooney1_questions","survey-likert","309","993378","0.0-6.0-2.43","2629163","co38524","norming","","","{""curiosity"":5,""confidence"":3}","[0,1]","../img/tt/1309tt.jpg","",""
"1323.6950000282377","","","recognition","survey-text","310","994706","0.0-6.0-3.43","2629163","co38524","norming","","","{""guess"":""bos""}","","../img/tt/1309tt.jpg","",""
"null","../img/gs/1309gs.jpg","null","reveal","image-keyboard-response","311","996709","0.0-6.0-4.43","2629163","co38524","norming","","","","","","",""
"null","../img/tt/1309tt.jpg","null","mooney2","image-keyboard-response","312","998714","0.0-6.0-5.43","2629163","co38524","norming","","","","","","",""
"2753.4599999780767","","","post_reveal_questions","survey-likert","313","1001470","0.0-6.0-6.43","2629163","co38524","norming","","","{""aha"":5}","[0]","../img/tt/1309tt.jpg","",""
"null","<div style=""font-size:60px;""> </div>","null","fixation","html-keyboard-response","314","1001677","0.0-6.0-0.44","2629163","co38524","norming","","","","","","",""
"null","../img/tt/040tt.jpg","null","mooney1","image-keyboard-response","315","1004691","0.0-6.0-1.44","2629163","co38524","norming","","","","","","",""
"4418.130000005476","","","post_mooney1_questions","survey-likert","316","1009112","0.0-6.0-2.44","2629163","co38524","norming","","","{""curiosity"":1,""confidence"":4}","[0,1]","../img/tt/040tt.jpg","",""
"1999.0100000286475","","","recognition","survey-text","317","1011101","0.0-6.0-3.44","2629163","co38524","norming","","","{""guess"":""animal""}","","../img/tt/040tt.jpg","",""
"null","../img/gs/040gs.jpg","null","reveal","image-keyboard-response","318","1013110","0.0-6.0-4.44","2629163","co38524","norming","","","","","","",""
"null","../img/tt/040tt.jpg","null","mooney2","image-keyboard-response","319","1015118","0.0-6.0-5.44","2629163","co38524","norming","","","","","","",""
"4073.755000019446","","","post_reveal_questions","survey-likert","320","1019193","0.0-6.0-6.44","2629163","co38524","norming","","","{""aha"":5}","[0]","../img/tt/040tt.jpg","",""
"null","<div style=""font-size:60px;""> </div>","null","fixation","html-keyboard-response","321","1019404","0.0-6.0-0.45","2629163","co38524","norming","","","","","","",""
"null","../img/tt/135tt.jpg","null","mooney1","image-keyboard-response","322","1022412","0.0-6.0-1.45","2629163","co38524","norming","","","","","","",""
"22206.540000042878","","","post_mooney1_questions","survey-likert","323","1044620","0.0-6.0-2.45","2629163","co38524","norming","","","{""curiosity"":1,""confidence"":1}","[0,1]","../img/tt/135tt.jpg","",""
"1341.7699999990873","","","recognition","survey-text","324","1045965","0.0-6.0-3.45","2629163","co38524","norming","","","{""guess"":""""}","","../img/tt/135tt.jpg","",""
"null","../img/gs/135gs.jpg","null","reveal","image-keyboard-response","325","1047981","0.0-6.0-4.45","2629163","co38524","norming","","","","","","",""
"null","../img/tt/135tt.jpg","null","mooney2","image-keyboard-response","326","1049993","0.0-6.0-5.45","2629163","co38524","norming","","","","","","",""
"5117.15499998536","","","post_reveal_questions","survey-likert","327","1055112","0.0-6.0-6.45","2629163","co38524","norming","","","{""aha"":1}","[0]","../img/tt/135tt.jpg","",""
"null","<div style=""font-size:60px;""> </div>","null","fixation","html-keyboard-response","328","1055322","0.0-6.0-0.46","2629163","co38524","norming","","","","","","",""
"null","../img/tt/1142tt.jpg","null","mooney1","image-keyboard-response","329","1058339","0.0-6.0-1.46","2629163","co38524","norming","","","","","","",""
"4561.174999980722","","","post_mooney1_questions","survey-likert","330","1062902","0.0-6.0-2.46","2629163","co38524","norming","","","{""curiosity"":1,""confidence"":5}","[0,1]","../img/tt/1142tt.jpg","",""
"3447.9750000173226","","","recognition","survey-text","331","1066354","0.0-6.0-3.46","2629163","co38524","norming","","","{""guess"":""motor""}","","../img/tt/1142tt.jpg","",""
"null","../img/gs/1142gs.jpg","null","reveal","image-keyboard-response","332","1068370","0.0-6.0-4.46","2629163","co38524","norming","","","","","","",""
"null","../img/tt/1142tt.jpg","null","mooney2","image-keyboard-response","333","1070384","0.0-6.0-5.46","2629163","co38524","norming","","","","","","",""
"2971.9199999817647","","","post_reveal_questions","survey-likert","334","1073369","0.0-6.0-6.46","2629163","co38524","norming","","","{""aha"":6}","[0]","../img/tt/1142tt.jpg","",""
"null","<div style=""font-size:60px;""> </div>","null","fixation","html-keyboard-response","335","1073582","0.0-6.0-0.47","2629163","co38524","norming","","","","","","",""
"null","../img/tt/1069tt.jpg","null","mooney1","image-keyboard-response","336","1076598","0.0-6.0-1.47","2629163","co38524","norming","","","","","","",""
"5962.1749999932945","","","post_mooney1_questions","survey-likert","337","1082563","0.0-6.0-2.47","2629163","co38524","norming","","","{""curiosity"":0,""confidence"":6}","[0,1]","../img/tt/1069tt.jpg","",""
"2598.3349999878556","","","recognition","survey-text","338","1085164","0.0-6.0-3.47","2629163","co38524","norming","","","{""guess"":""schaap""}","","../img/tt/1069tt.jpg","",""
"null","../img/gs/1069gs.jpg","null","reveal","image-keyboard-response","339","1087177","0.0-6.0-4.47","2629163","co38524","norming","","","","","","",""
"null","../img/tt/1069tt.jpg","null","mooney2","image-keyboard-response","340","1089179","0.0-6.0-5.47","2629163","co38524","norming","","","","","","",""
"12130.624999990687","","","post_reveal_questions","survey-likert","341","1101312","0.0-6.0-6.47","2629163","co38524","norming","","","{""aha"":0}","[0]","../img/tt/1069tt.jpg","",""
"null","<div style=""font-size:60px;""> </div>","null","fixation","html-keyboard-response","342","1101524","0.0-6.0-0.48","2629163","co38524","norming","","","","","","",""
"null","../img/tt/1072tt.jpg","null","mooney1","image-keyboard-response","343","1104531","0.0-6.0-1.48","2629163","co38524","norming","","","","","","",""
"4434.294999984559","","","post_mooney1_questions","survey-likert","344","1108968","0.0-6.0-2.48","2629163","co38524","norming","","","{""curiosity"":0,""confidence"":0}","[0,1]","../img/tt/1072tt.jpg","",""
"1299.3900000001304","","","recognition","survey-text","345","1110271","0.0-6.0-3.48","2629163","co38524","norming","","","{""guess"":""""}","","../img/tt/1072tt.jpg","",""
"null","../img/gs/1072gs.jpg","null","reveal","image-keyboard-response","346","1112277","0.0-6.0-4.48","2629163","co38524","norming","","","","","","",""
"null","../img/tt/1072tt.jpg","null","mooney2","image-keyboard-response","347","1114288","0.0-6.0-5.48","2629163","co38524","norming","","","","","","",""
"3537.979999964591","","","post_reveal_questions","survey-likert","348","1117828","0.0-6.0-6.48","2629163","co38524","norming","","","{""aha"":5}","[0]","../img/tt/1072tt.jpg","",""
"null","<div style=""font-size:60px;""> </div>","null","fixation","html-keyboard-response","349","1118040","0.0-6.0-0.49","2629163","co38524","norming","","","","","","",""
"null","../img/tt/1078tt.jpg","null","mooney1","image-keyboard-response","350","1121053","0.0-6.0-1.49","2629163","co38524","norming","","","","","","",""
"4783.319999987725","","","post_mooney1_questions","survey-likert","351","1125839","0.0-6.0-2.49","2629163","co38524","norming","","","{""curiosity"":5,""confidence"":5}","[0,1]","../img/tt/1078tt.jpg","",""
"2773.459999996703","","","recognition","survey-text","352","1128616","0.0-6.0-3.49","2629163","co38524","norming","","","{""guess"":""personen""}","","../img/tt/1078tt.jpg","",""
"null","../img/gs/1078gs.jpg","null","reveal","image-keyboard-response","353","1130629","0.0-6.0-4.49","2629163","co38524","norming","","","","","","",""
"null","../img/tt/1078tt.jpg","null","mooney2","image-keyboard-response","354","1132645","0.0-6.0-5.49","2629163","co38524","norming","","","","","","",""
"3531.5649999538437","","","post_reveal_questions","survey-likert","355","1136178","0.0-6.0-6.49","2629163","co38524","norming","","","{""aha"":4}","[0]","../img/tt/1078tt.jpg","",""
"null","<div style=""font-size:60px;""> </div>","null","fixation","html-keyboard-response","356","1136390","0.0-6.0-0.50","2629163","co38524","norming","","","","","","",""
"null","../img/tt/1096tt.jpg","null","mooney1","image-keyboard-response","357","1139399","0.0-6.0-1.50","2629163","co38524","norming","","","","","","",""
"7899.884999962524","","","post_mooney1_questions","survey-likert","358","1147301","0.0-6.0-2.50","2629163","co38524","norming","","","{""curiosity"":4,""confidence"":5}","[0,1]","../img/tt/1096tt.jpg","",""
"5073.919999995269","","","recognition","survey-text","359","1152378","0.0-6.0-3.50","2629163","co38524","norming","","","{""guess"":""trap ""}","","../img/tt/1096tt.jpg","",""
"null","../img/gs/1096gs.jpg","null","reveal","image-keyboard-response","360","1154385","0.0-6.0-4.50","2629163","co38524","norming","","","","","","",""
"null","../img/tt/1096tt.jpg","null","mooney2","image-keyboard-response","361","1156388","0.0-6.0-5.50","2629163","co38524","norming","","","","","","",""
"2881.005000032019","","","post_reveal_questions","survey-likert","362","1159271","0.0-6.0-6.50","2629163","co38524","norming","","","{""aha"":5}","[0]","../img/tt/1096tt.jpg","",""
"null","<div style=""font-size:60px;""> </div>","null","fixation","html-keyboard-response","363","1159485","0.0-6.0-0.51","2629163","co38524","norming","","","","","","",""
"null","../img/tt/1154tt.jpg","null","mooney1","image-keyboard-response","364","1162488","0.0-6.0-1.51","2629163","co38524","norming","","","","","","",""
"3707.909999997355","","","post_mooney1_questions","survey-likert","365","1166198","0.0-6.0-2.51","2629163","co38524","norming","","","{""curiosity"":0,""confidence"":0}","[0,1]","../img/tt/1154tt.jpg","",""
"1507.5599999981932","","","recognition","survey-text","366","1167709","0.0-6.0-3.51","2629163","co38524","norming","","","{""guess"":""""}","","../img/tt/1154tt.jpg","",""
"null","../img/gs/1154gs.jpg","null","reveal","image-keyboard-response","367","1169711","0.0-6.0-4.51","2629163","co38524","norming","","","","","","",""
"null","../img/tt/1154tt.jpg","null","mooney2","image-keyboard-response","368","1171723","0.0-6.0-5.51","2629163","co38524","norming","","","","","","",""
"6063.614999991842","","","post_reveal_questions","survey-likert","369","1177789","0.0-6.0-6.51","2629163","co38524","norming","","","{""aha"":5}","[0]","../img/tt/1154tt.jpg","",""
"null","<div style=""font-size:60px;""> </div>","null","fixation","html-keyboard-response","370","1178001","0.0-6.0-0.52","2629163","co38524","norming","","","","","","",""
"null","../img/tt/1261tt.jpg","null","mooney1","image-keyboard-response","371","1181005","0.0-6.0-1.52","2629163","co38524","norming","","","","","","",""
"4807.174999965355","","","post_mooney1_questions","survey-likert","372","1185813","0.0-6.0-2.52","2629163","co38524","norming","","","{""curiosity"":1,""confidence"":4}","[0,1]","../img/tt/1261tt.jpg","",""
"1631.9049999583513","","","recognition","survey-text","373","1187448","0.0-6.0-3.52","2629163","co38524","norming","","","{""guess"":""raam""}","","../img/tt/1261tt.jpg","",""
"null","../img/gs/1261gs.jpg","null","reveal","image-keyboard-response","374","1189461","0.0-6.0-4.52","2629163","co38524","norming","","","","","","",""
"null","../img/tt/1261tt.jpg","null","mooney2","image-keyboard-response","375","1191468","0.0-6.0-5.52","2629163","co38524","norming","","","","","","",""
"3836.955000006128","","","post_reveal_questions","survey-likert","376","1195306","0.0-6.0-6.52","2629163","co38524","norming","","","{""aha"":5}","[0]","../img/tt/1261tt.jpg","",""
"null","<div style=""font-size:60px;""> </div>","null","fixation","html-keyboard-response","377","1195518","0.0-6.0-0.53","2629163","co38524","norming","","","","","","",""
"null","../img/tt/1089tt.jpg","null","mooney1","image-keyboard-response","378","1198522","0.0-6.0-1.53","2629163","co38524","norming","","","","","","",""
"4574.675000039861","","","post_mooney1_questions","survey-likert","379","1203099","0.0-6.0-2.53","2629163","co38524","norming","","","{""curiosity"":1,""confidence"":4}","[0,1]","../img/tt/1089tt.jpg","",""
"1158.3800000371411","","","recognition","survey-text","380","1204261","0.0-6.0-3.53","2629163","co38524","norming","","","{""guess"":""dier""}","","../img/tt/1089tt.jpg","",""
"null","../img/gs/1089gs.jpg","null","reveal","image-keyboard-response","381","1206272","0.0-6.0-4.53","2629163","co38524","norming","","","","","","",""
"null","../img/tt/1089tt.jpg","null","mooney2","image-keyboard-response","382","1208275","0.0-6.0-5.53","2629163","co38524","norming","","","","","","",""
"2764.2500000074506","","","post_reveal_questions","survey-likert","383","1211042","0.0-6.0-6.53","2629163","co38524","norming","","","{""aha"":5}","[0]","../img/tt/1089tt.jpg","",""
"null","<div style=""font-size:60px;""> </div>","null","fixation","html-keyboard-response","384","1211252","0.0-6.0-0.54","2629163","co38524","norming","","","","","","",""
"null","../img/tt/1101tt.jpg","null","mooney1","image-keyboard-response","385","1214257","0.0-6.0-1.54","2629163","co38524","norming","","","","","","",""
"4974.939999985509","","","post_mooney1_questions","survey-likert","386","1219234","0.0-6.0-2.54","2629163","co38524","norming","","","{""curiosity"":5,""confidence"":5}","[0,1]","../img/tt/1101tt.jpg","",""
"5856.980000040494","","","recognition","survey-text","387","1225095","0.0-6.0-3.54","2629163","co38524","norming","","","{""guess"":""persoon leunt naar achter""}","","../img/tt/1101tt.jpg","",""
"null","../img/gs/1101gs.jpg","null","reveal","image-keyboard-response","388","1227102","0.0-6.0-4.54","2629163","co38524","norming","","","","","","",""
"null","../img/tt/1101tt.jpg","null","mooney2","image-keyboard-response","389","1229105","0.0-6.0-5.54","2629163","co38524","norming","","","","","","",""
"2922.405000019353","","","post_reveal_questions","survey-likert","390","1232030","0.0-6.0-6.54","2629163","co38524","norming","","","{""aha"":5}","[0]","../img/tt/1101tt.jpg","",""
"null","<div style=""font-size:60px;""> </div>","null","fixation","html-keyboard-response","391","1232237","0.0-6.0-0.55","2629163","co38524","norming","","","","","","",""
"null","../img/tt/1232tt.jpg","null","mooney1","image-keyboard-response","392","1235242","0.0-6.0-1.55","2629163","co38524","norming","","","","","","",""
"6668.890000029933","","","post_mooney1_questions","survey-likert","393","1241913","0.0-6.0-2.55","2629163","co38524","norming","","","{""curiosity"":2,""confidence"":5}","[0,1]","../img/tt/1232tt.jpg","",""
"8335.339999990538","","","recognition","survey-text","394","1250252","0.0-6.0-3.55","2629163","co38524","norming","","","{""guess"":""vogel die voorover buigt""}","","../img/tt/1232tt.jpg","",""
"null","../img/gs/1232gs.jpg","null","reveal","image-keyboard-response","395","1252256","0.0-6.0-4.55","2629163","co38524","norming","","","","","","",""
"null","../img/tt/1232tt.jpg","null","mooney2","image-keyboard-response","396","1254260","0.0-6.0-5.55","2629163","co38524","norming","","","","","","",""
"4598.875000025146","","","post_reveal_questions","survey-likert","397","1258861","0.0-6.0-6.55","2629163","co38524","norming","","","{""aha"":3}","[0]","../img/tt/1232tt.jpg","",""
"null","<div style=""font-size:60px;""> </div>","null","fixation","html-keyboard-response","398","1259076","0.0-6.0-0.56","2629163","co38524","norming","","","","","","",""
"null","../img/tt/124tt.jpg","null","mooney1","image-keyboard-response","399","1262083","0.0-6.0-1.56","2629163","co38524","norming","","","","","","",""
"7419.510000036098","","","post_mooney1_questions","survey-likert","400","1269505","0.0-6.0-2.56","2629163","co38524","norming","","","{""curiosity"":2,""confidence"":6}","[0,1]","../img/tt/124tt.jpg","",""
"1757.6150000095367","","","recognition","survey-text","401","1271265","0.0-6.0-3.56","2629163","co38524","norming","","","{""guess"":""gorilla""}","","../img/tt/124tt.jpg","",""
"null","../img/gs/124gs.jpg","null","reveal","image-keyboard-response","402","1273267","0.0-6.0-4.56","2629163","co38524","norming","","","","","","",""
"null","../img/tt/124tt.jpg","null","mooney2","image-keyboard-response","403","1275273","0.0-6.0-5.56","2629163","co38524","norming","","","","","","",""
"3919.510000036098","","","post_reveal_questions","survey-likert","404","1279195","0.0-6.0-6.56","2629163","co38524","norming","","","{""aha"":1}","[0]","../img/tt/124tt.jpg","",""
"null","<div style=""font-size:60px;""> </div>","null","fixation","html-keyboard-response","405","1279406","0.0-6.0-0.57","2629163","co38524","norming","","","","","","",""
"null","../img/tt/1191tt.jpg","null","mooney1","image-keyboard-response","406","1282409","0.0-6.0-1.57","2629163","co38524","norming","","","","","","",""
"6640.205000003334","","","post_mooney1_questions","survey-likert","407","1289051","0.0-6.0-2.57","2629163","co38524","norming","","","{""curiosity"":5,""confidence"":3}","[0,1]","../img/tt/1191tt.jpg","",""
"1042.8949999623","","","recognition","survey-text","408","1290098","0.0-6.0-3.57","2629163","co38524","norming","","","{""guess"":""""}","","../img/tt/1191tt.jpg","",""
"null","../img/gs/1191gs.jpg","null","reveal","image-keyboard-response","409","1292114","0.0-6.0-4.57","2629163","co38524","norming","","","","","","",""
"null","../img/tt/1191tt.jpg","null","mooney2","image-keyboard-response","410","1294126","0.0-6.0-5.57","2629163","co38524","norming","","","","","","",""
"3060.4150000144728","","","post_reveal_questions","survey-likert","411","1297188","0.0-6.0-6.57","2629163","co38524","norming","","","{""aha"":6}","[0]","../img/tt/1191tt.jpg","",""
"null","<div style=""font-size:60px;""> </div>","null","fixation","html-keyboard-response","412","1297391","0.0-6.0-0.58","2629163","co38524","norming","","","","","","",""
"null","../img/tt/019tt.jpg","null","mooney1","image-keyboard-response","413","1300403","0.0-6.0-1.58","2629163","co38524","norming","","","","","","",""
"4256.250000034925","","","post_mooney1_questions","survey-likert","414","1304662","0.0-6.0-2.58","2629163","co38524","norming","","","{""curiosity"":1,""confidence"":1}","[0,1]","../img/tt/019tt.jpg","",""
"1607.685000053607","","","recognition","survey-text","415","1306272","0.0-6.0-3.58","2629163","co38524","norming","","","{""guess"":""""}","","../img/tt/019tt.jpg","",""
"null","../img/gs/019gs.jpg","null","reveal","image-keyboard-response","416","1308286","0.0-6.0-4.58","2629163","co38524","norming","","","","","","",""
"null","../img/tt/019tt.jpg","null","mooney2","image-keyboard-response","417","1310292","0.0-6.0-5.58","2629163","co38524","norming","","","","","","",""
"3815.2349999872968","","","post_reveal_questions","survey-likert","418","1314108","0.0-6.0-6.58","2629163","co38524","norming","","","{""aha"":5}","[0]","../img/tt/019tt.jpg","",""
"null","<div style=""font-size:60px;""> </div>","null","fixation","html-keyboard-response","419","1314323","0.0-6.0-0.59","2629163","co38524","norming","","","","","","",""
"null","../img/tt/1053tt.jpg","null","mooney1","image-keyboard-response","420","1317332","0.0-6.0-1.59","2629163","co38524","norming","","","","","","",""
"4802.8550000162795","","","post_mooney1_questions","survey-likert","421","1322137","0.0-6.0-2.59","2629163","co38524","norming","","","{""curiosity"":5,""confidence"":5}","[0,1]","../img/tt/1053tt.jpg","",""
"711.3149999640882","","","recognition","survey-text","422","1322852","0.0-6.0-3.59","2629163","co38524","norming","","","{""guess"":""koe""}","","../img/tt/1053tt.jpg","",""
"null","../img/gs/1053gs.jpg","null","reveal","image-keyboard-response","423","1324864","0.0-6.0-4.59","2629163","co38524","norming","","","","","","",""
"null","../img/tt/1053tt.jpg","null","mooney2","image-keyboard-response","424","1326878","0.0-6.0-5.59","2629163","co38524","norming","","","","","","",""
"3615.6300000147894","","","post_reveal_questions","survey-likert","425","1330496","0.0-6.0-6.59","2629163","co38524","norming","","","{""aha"":2}","[0]","../img/tt/1053tt.jpg","",""
"null","<div style=""font-size:60px;""> </div>","null","fixation","html-keyboard-response","426","1330707","0.0-6.0-0.60","2629163","co38524","norming","","","","","","",""
"null","../img/tt/1251tt.jpg","null","mooney1","image-keyboard-response","427","1333723","0.0-6.0-1.60","2629163","co38524","norming","","","","","","",""
"6858.325000037439","","","post_mooney1_questions","survey-likert","428","1340583","0.0-6.0-2.60","2629163","co38524","norming","","","{""curiosity"":1,""confidence"":6}","[0,1]","../img/tt/1251tt.jpg","",""
"737.4600000330247","","","recognition","survey-text","429","1341323","0.0-6.0-3.60","2629163","co38524","norming","","","{""guess"":""beer""}","","../img/tt/1251tt.jpg","",""
"null","../img/gs/1251gs.jpg","null","reveal","image-keyboard-response","430","1343332","0.0-6.0-4.60","2629163","co38524","norming","","","","","","",""
"null","../img/tt/1251tt.jpg","null","mooney2","image-keyboard-response","431","1345339","0.0-6.0-5.60","2629163","co38524","norming","","","","","","",""
"3836.760000034701","","","post_reveal_questions","survey-likert","432","1349178","0.0-6.0-6.60","2629163","co38524","norming","","","{""aha"":0}","[0]","../img/tt/1251tt.jpg","",""
"null","<div style=""font-size:60px;""> </div>","null","fixation","html-keyboard-response","433","1349390","0.0-6.0-0.61","2629163","co38524","norming","","","","","","",""
"null","../img/tt/580tt.jpg","null","mooney1","image-keyboard-response","434","1352406","0.0-6.0-1.61","2629163","co38524","norming","","","","","","",""
"5092.709999997169","","","post_mooney1_questions","survey-likert","435","1357502","0.0-6.0-2.61","2629163","co38524","norming","","","{""curiosity"":3,""confidence"":6}","[0,1]","../img/tt/580tt.jpg","",""
"1566.965000005439","","","recognition","survey-text","436","1359071","0.0-6.0-3.61","2629163","co38524","norming","","","{""guess"":""wasbeer""}","","../img/tt/580tt.jpg","",""
"null","../img/gs/580gs.jpg","null","reveal","image-keyboard-response","437","1361081","0.0-6.0-4.61","2629163","co38524","norming","","","","","","",""
"null","../img/tt/580tt.jpg","null","mooney2","image-keyboard-response","438","1363086","0.0-6.0-5.61","2629163","co38524","norming","","","","","","",""
"4138.564999972004","","","post_reveal_questions","survey-likert","439","1367226","0.0-6.0-6.61","2629163","co38524","norming","","","{""aha"":0}","[0]","../img/tt/580tt.jpg","",""
"null","<div style=""font-size:60px;""> </div>","null","fixation","html-keyboard-response","440","1367440","0.0-6.0-0.62","2629163","co38524","norming","","","","","","",""
"null","../img/tt/567tt.jpg","null","mooney1","image-keyboard-response","441","1370443","0.0-6.0-1.62","2629163","co38524","norming","","","","","","",""
"4217.1650000382215","","","post_mooney1_questions","survey-likert","442","1374662","0.0-6.0-2.62","2629163","co38524","norming","","","{""curiosity"":0,""confidence"":0}","[0,1]","../img/tt/567tt.jpg","",""
"1342.739999992773","","","recognition","survey-text","443","1376008","0.0-6.0-3.62","2629163","co38524","norming","","","{""guess"":""""}","","../img/tt/567tt.jpg","",""
"null","../img/gs/567gs.jpg","null","reveal","image-keyboard-response","444","1378010","0.0-6.0-4.62","2629163","co38524","norming","","","","","","",""
"null","../img/tt/567tt.jpg","null","mooney2","image-keyboard-response","445","1380022","0.0-6.0-5.62","2629163","co38524","norming","","","","","","",""
"3204.454999999143","","","post_reveal_questions","survey-likert","446","1383230","0.0-6.0-6.62","2629163","co38524","norming","","","{""aha"":6}","[0]","../img/tt/567tt.jpg","",""
"null","<div style=""font-size:60px;""> </div>","null","fixation","html-keyboard-response","447","1383442","0.0-6.0-0.63","2629163","co38524","norming","","","","","","",""
"null","../img/tt/1276tt.jpg","null","mooney1","image-keyboard-response","448","1386449","0.0-6.0-1.63","2629163","co38524","norming","","","","","","",""
"17728.21999998996","","","post_mooney1_questions","survey-likert","449","1404179","0.0-6.0-2.63","2629163","co38524","norming","","","{""curiosity"":1,""confidence"":0}","[0,1]","../img/tt/1276tt.jpg","",""
"1842.7099999971688","","","recognition","survey-text","450","1406025","0.0-6.0-3.63","2629163","co38524","norming","","","{""guess"":""""}","","../img/tt/1276tt.jpg","",""
"null","../img/gs/1276gs.jpg","null","reveal","image-keyboard-response","451","1408036","0.0-6.0-4.63","2629163","co38524","norming","","","","","","",""
"null","../img/tt/1276tt.jpg","null","mooney2","image-keyboard-response","452","1410043","0.0-6.0-5.63","2629163","co38524","norming","","","","","","",""
"37695.98499999847","","","post_reveal_questions","survey-likert","453","1447741","0.0-6.0-6.63","2629163","co38524","norming","","","{""aha"":1}","[0]","../img/tt/1276tt.jpg","",""
"null","<div style=""font-size:60px;""> </div>","null","fixation","html-keyboard-response","454","1447950","0.0-6.0-0.64","2629163","co38524","norming","","","","","","",""
"null","../img/tt/1241tt.jpg","null","mooney1","image-keyboard-response","455","1450958","0.0-6.0-1.64","2629163","co38524","norming","","","","","","",""
"4641.004999983124","","","post_mooney1_questions","survey-likert","456","1455601","0.0-6.0-2.64","2629163","co38524","norming","","","{""curiosity"":0,""confidence"":0}","[0,1]","../img/tt/1241tt.jpg","",""
"1289.2449999926612","","","recognition","survey-text","457","1456894","0.0-6.0-3.64","2629163","co38524","norming","","","{""guess"":""""}","","../img/tt/1241tt.jpg","",""
"null","../img/gs/1241gs.jpg","null","reveal","image-keyboard-response","458","1458906","0.0-6.0-4.64","2629163","co38524","norming","","","","","","",""
"null","../img/tt/1241tt.jpg","null","mooney2","image-keyboard-response","459","1460911","0.0-6.0-5.64","2629163","co38524","norming","","","","","","",""
"8687.074999965262","","","post_reveal_questions","survey-likert","460","1469600","0.0-6.0-6.64","2629163","co38524","norming","","","{""aha"":5}","[0]","../img/tt/1241tt.jpg","",""
"null","<div style=""font-size:60px;""> </div>","null","fixation","html-keyboard-response","461","1469811","0.0-6.0-0.65","2629163","co38524","norming","","","","","","",""
"null","../img/tt/123tt.jpg","null","mooney1","image-keyboard-response","462","1472827","0.0-6.0-1.65","2629163","co38524","norming","","","","","","",""
"4626.425000024028","","","post_mooney1_questions","survey-likert","463","1477456","0.0-6.0-2.65","2629163","co38524","norming","","","{""curiosity"":1,""confidence"":5}","[0,1]","../img/tt/123tt.jpg","",""
"1584.4400000059977","","","recognition","survey-text","464","1479043","0.0-6.0-3.65","2629163","co38524","norming","","","{""guess"":""tas""}","","../img/tt/123tt.jpg","",""
"null","../img/gs/123gs.jpg","null","reveal","image-keyboard-response","465","1481048","0.0-6.0-4.65","2629163","co38524","norming","","","","","","",""
"null","../img/tt/123tt.jpg","null","mooney2","image-keyboard-response","466","1483053","0.0-6.0-5.65","2629163","co38524","norming","","","","","","",""
"4261.354999965988","","","post_reveal_questions","survey-likert","467","1487316","0.0-6.0-6.65","2629163","co38524","norming","","","{""aha"":3}","[0]","../img/tt/123tt.jpg","",""
"null","<div style=""font-size:60px;""> </div>","null","fixation","html-keyboard-response","468","1487528","0.0-6.0-0.66","2629163","co38524","norming","","","","","","",""
"null","../img/tt/329tt.jpg","null","mooney1","image-keyboard-response","469","1490535","0.0-6.0-1.66","2629163","co38524","norming","","","","","","",""
"4506.299999949988","","","post_mooney1_questions","survey-likert","470","1495042","0.0-6.0-2.66","2629163","co38524","norming","","","{""curiosity"":0,""confidence"":0}","[0,1]","../img/tt/329tt.jpg","",""
"1111.7599999997765","","","recognition","survey-text","471","1496157","0.0-6.0-3.66","2629163","co38524","norming","","","{""guess"":""""}","","../img/tt/329tt.jpg","",""
"null","../img/gs/329gs.jpg","null","reveal","image-keyboard-response","472","1498167","0.0-6.0-4.66","2629163","co38524","norming","","","","","","",""
"null","../img/tt/329tt.jpg","null","mooney2","image-keyboard-response","473","1500182","0.0-6.0-5.66","2629163","co38524","norming","","","","","","",""
"8362.140000041109","","","post_reveal_questions","survey-likert","474","1508546","0.0-6.0-6.66","2629163","co38524","norming","","","{""aha"":1}","[0]","../img/tt/329tt.jpg","",""
"null","<div style=""font-size:60px;""> </div>","null","fixation","html-keyboard-response","475","1508758","0.0-6.0-0.67","2629163","co38524","norming","","","","","","",""
"null","../img/tt/1125tt.jpg","null","mooney1","image-keyboard-response","476","1511761","0.0-6.0-1.67","2629163","co38524","norming","","","","","","",""
"4111.284999991767","","","post_mooney1_questions","survey-likert","477","1515873","0.0-6.0-2.67","2629163","co38524","norming","","","{""curiosity"":0,""confidence"":0}","[0,1]","../img/tt/1125tt.jpg","",""
"1261.2000000081025","","","recognition","survey-text","478","1517138","0.0-6.0-3.67","2629163","co38524","norming","","","{""guess"":""""}","","../img/tt/1125tt.jpg","",""
"null","../img/gs/1125gs.jpg","null","reveal","image-keyboard-response","479","1519139","0.0-6.0-4.67","2629163","co38524","norming","","","","","","",""
"null","../img/tt/1125tt.jpg","null","mooney2","image-keyboard-response","480","1521149","0.0-6.0-5.67","2629163","co38524","norming","","","","","","",""
"3195.6300000310875","","","post_reveal_questions","survey-likert","481","1524347","0.0-6.0-6.67","2629163","co38524","norming","","","{""aha"":5}","[0]","../img/tt/1125tt.jpg","",""
"null","<div style=""font-size:60px;""> </div>","null","fixation","html-keyboard-response","482","1524551","0.0-6.0-0.68","2629163","co38524","norming","","","","","","",""
"null","../img/tt/112tt.jpg","null","mooney1","image-keyboard-response","483","1527554","0.0-6.0-1.68","2629163","co38524","norming","","","","","","",""
"15175.104999972973","","","post_mooney1_questions","survey-likert","484","1542731","0.0-6.0-2.68","2629163","co38524","norming","","","{""curiosity"":1,""confidence"":1}","[0,1]","../img/tt/112tt.jpg","",""
"1079.39000002807","","","recognition","survey-text","485","1543814","0.0-6.0-3.68","2629163","co38524","norming","","","{""guess"":""""}","","../img/tt/112tt.jpg","",""
"null","../img/gs/112gs.jpg","null","reveal","image-keyboard-response","486","1545824","0.0-6.0-4.68","2629163","co38524","norming","","","","","","",""
"null","../img/tt/112tt.jpg","null","mooney2","image-keyboard-response","487","1547826","0.0-6.0-5.68","2629163","co38524","norming","","","","","","",""
"3377.664999978151","","","post_reveal_questions","survey-likert","488","1551205","0.0-6.0-6.68","2629163","co38524","norming","","","{""aha"":5}","[0]","../img/tt/112tt.jpg","",""
"null","<div style=""font-size:60px;""> </div>","null","fixation","html-keyboard-response","489","1551419","0.0-6.0-0.69","2629163","co38524","norming","","","","","","",""
"null","../img/tt/1087tt.jpg","null","mooney1","image-keyboard-response","490","1554425","0.0-6.0-1.69","2629163","co38524","norming","","","","","","",""
"6004.450000007637","","","post_mooney1_questions","survey-likert","491","1560431","0.0-6.0-2.69","2629163","co38524","norming","","","{""curiosity"":5,""confidence"":4}","[0,1]","../img/tt/1087tt.jpg","",""
"1730.905000003986","","","recognition","survey-text","492","1562165","0.0-6.0-3.69","2629163","co38524","norming","","","{""guess"":""lammetjes""}","","../img/tt/1087tt.jpg","",""
"null","../img/gs/1087gs.jpg","null","reveal","image-keyboard-response","493","1564178","0.0-6.0-4.69","2629163","co38524","norming","","","","","","",""
"null","../img/tt/1087tt.jpg","null","mooney2","image-keyboard-response","494","1566193","0.0-6.0-5.69","2629163","co38524","norming","","","","","","",""
"7620.21999998251","","","post_reveal_questions","survey-likert","495","1573815","0.0-6.0-6.69","2629163","co38524","norming","","","{""aha"":5}","[0]","../img/tt/1087tt.jpg","",""
"null","<div style=""font-size:60px;""> </div>","null","fixation","html-keyboard-response","496","1574033","0.0-6.0-0.70","2629163","co38524","norming","","","","","","",""
"null","../img/tt/1205tt.jpg","null","mooney1","image-keyboard-response","497","1577049","0.0-6.0-1.70","2629163","co38524","norming","","","","","","",""
"7473.469999968074","","","post_mooney1_questions","survey-likert","498","1584524","0.0-6.0-2.70","2629163","co38524","norming","","","{""curiosity"":1,""confidence"":1}","[0,1]","../img/tt/1205tt.jpg","",""
"1667.6850000512786","","","recognition","survey-text","499","1586194","0.0-6.0-3.70","2629163","co38524","norming","","","{""guess"":""""}","","../img/tt/1205tt.jpg","",""
"null","../img/gs/1205gs.jpg","null","reveal","image-keyboard-response","500","1588209","0.0-6.0-4.70","2629163","co38524","norming","","","","","","",""
"null","../img/tt/1205tt.jpg","null","mooney2","image-keyboard-response","501","1590211","0.0-6.0-5.70","2629163","co38524","norming","","","","","","",""
"6232.955000014044","","","post_reveal_questions","survey-likert","502","1596446","0.0-6.0-6.70","2629163","co38524","norming","","","{""aha"":5}","[0]","../img/tt/1205tt.jpg","",""
"null","<div style=""font-size:60px;""> </div>","null","fixation","html-keyboard-response","503","1596661","0.0-6.0-0.71","2629163","co38524","norming","","","","","","",""
"null","../img/tt/111tt.jpg","null","mooney1","image-keyboard-response","504","1599677","0.0-6.0-1.71","2629163","co38524","norming","","","","","","",""
"4295.419999980368","","","post_mooney1_questions","survey-likert","505","1603975","0.0-6.0-2.71","2629163","co38524","norming","","","{""curiosity"":0,""confidence"":0}","[0,1]","../img/tt/111tt.jpg","",""
"3974.0400000009686","","","recognition","survey-text","506","1607952","0.0-6.0-3.71","2629163","co38524","norming","","","{""guess"":""""}","","../img/tt/111tt.jpg","",""
"null","../img/gs/111gs.jpg","null","reveal","image-keyboard-response","507","1609961","0.0-6.0-4.71","2629163","co38524","norming","","","","","","",""
"null","../img/tt/111tt.jpg","null","mooney2","image-keyboard-response","508","1611965","0.0-6.0-5.71","2629163","co38524","norming","","","","","","",""
"3262.425000022631","","","post_reveal_questions","survey-likert","509","1615229","0.0-6.0-6.71","2629163","co38524","norming","","","{""aha"":5}","[0]","../img/tt/111tt.jpg","",""
"null","<div style=""font-size:60px;""> </div>","null","fixation","html-keyboard-response","510","1615442","0.0-6.0-0.72","2629163","co38524","norming","","","","","","",""
"null","../img/tt/1283tt.jpg","null","mooney1","image-keyboard-response","511","1618459","0.0-6.0-1.72","2629163","co38524","norming","","","","","","",""
"6220.039999985602","","","post_mooney1_questions","survey-likert","512","1624680","0.0-6.0-2.72","2629163","co38524","norming","","","{""curiosity"":4,""confidence"":6}","[0,1]","../img/tt/1283tt.jpg","",""
"3894.1849999828264","","","recognition","survey-text","513","1628578","0.0-6.0-3.72","2629163","co38524","norming","","","{""guess"":""dier op een tak""}","","../img/tt/1283tt.jpg","",""
"null","../img/gs/1283gs.jpg","null","reveal","image-keyboard-response","514","1630582","0.0-6.0-4.72","2629163","co38524","norming","","","","","","",""
"null","../img/tt/1283tt.jpg","null","mooney2","image-keyboard-response","515","1632598","0.0-6.0-5.72","2629163","co38524","norming","","","","","","",""
"4492.365000012796","","","post_reveal_questions","survey-likert","516","1637092","0.0-6.0-6.72","2629163","co38524","norming","","","{""aha"":3}","[0]","../img/tt/1283tt.jpg","",""
"null","<div style=""font-size:60px;""> </div>","null","fixation","html-keyboard-response","517","1637305","0.0-6.0-0.73","2629163","co38524","norming","","","","","","",""
"null","../img/tt/406tt.jpg","null","mooney1","image-keyboard-response","518","1640318","0.0-6.0-1.73","2629163","co38524","norming","","","","","","",""
"4766.479999991134","","","post_mooney1_questions","survey-likert","519","1645087","0.0-6.0-2.73","2629163","co38524","norming","","","{""curiosity"":2,""confidence"":5}","[0,1]","../img/tt/406tt.jpg","",""
"2768.4400000143796","","","recognition","survey-text","520","1647858","0.0-6.0-3.73","2629163","co38524","norming","","","{""guess"":""vleermuis""}","","../img/tt/406tt.jpg","",""
"null","../img/gs/406gs.jpg","null","reveal","image-keyboard-response","521","1649863","0.0-6.0-4.73","2629163","co38524","norming","","","","","","",""
"null","../img/tt/406tt.jpg","null","mooney2","image-keyboard-response","522","1651867","0.0-6.0-5.73","2629163","co38524","norming","","","","","","",""
"5921.039999986533","","","post_reveal_questions","survey-likert","523","1657790","0.0-6.0-6.73","2629163","co38524","norming","","","{""aha"":3}","[0]","../img/tt/406tt.jpg","",""
"null","<div style=""font-size:60px;""> </div>","null","fixation","html-keyboard-response","524","1658002","0.0-6.0-0.74","2629163","co38524","norming","","","","","","",""
"null","../img/tt/380tt.jpg","null","mooney1","image-keyboard-response","525","1661020","0.0-6.0-1.74","2629163","co38524","norming","","","","","","",""
"5060.895000002347","","","post_mooney1_questions","survey-likert","526","1666084","0.0-6.0-2.74","2629163","co38524","norming","","","{""curiosity"":6,""confidence"":3}","[0,1]","../img/tt/380tt.jpg","",""
"4918.595000053756","","","recognition","survey-text","527","1671006","0.0-6.0-3.74","2629163","co38524","norming","","","{""guess"":""kameleon""}","","../img/tt/380tt.jpg","",""
"null","../img/gs/380gs.jpg","null","reveal","image-keyboard-response","528","1673013","0.0-6.0-4.74","2629163","co38524","norming","","","","","","",""
"null","../img/tt/380tt.jpg","null","mooney2","image-keyboard-response","529","1675017","0.0-6.0-5.74","2629163","co38524","norming","","","","","","",""
"3019.7299999999814","","","post_reveal_questions","survey-likert","530","1678039","0.0-6.0-6.74","2629163","co38524","norming","","","{""aha"":4}","[0]","../img/tt/380tt.jpg","",""
"null","<div style=""font-size:60px;""> </div>","null","fixation","html-keyboard-response","531","1678252","0.0-6.0-0.75","2629163","co38524","norming","","","","","","",""
"null","../img/tt/078tt.jpg","null","mooney1","image-keyboard-response","532","1681256","0.0-6.0-1.75","2629163","co38524","norming","","","","","","",""
"8615.270000009332","","","post_mooney1_questions","survey-likert","533","1689872","0.0-6.0-2.75","2629163","co38524","norming","","","{""curiosity"":6,""confidence"":2}","[0,1]","../img/tt/078tt.jpg","",""
"2031.119999999646","","","recognition","survey-text","534","1691907","0.0-6.0-3.75","2629163","co38524","norming","","","{""guess"":""aardbei""}","","../img/tt/078tt.jpg","",""
"null","../img/gs/078gs.jpg","null","reveal","image-keyboard-response","535","1693910","0.0-6.0-4.75","2629163","co38524","norming","","","","","","",""
"null","../img/tt/078tt.jpg","null","mooney2","image-keyboard-response","536","1695914","0.0-6.0-5.75","2629163","co38524","norming","","","","","","",""
"6081.354999972973","","","post_reveal_questions","survey-likert","537","1701997","0.0-6.0-6.75","2629163","co38524","norming","","","{""aha"":5}","[0]","../img/tt/078tt.jpg","",""
"null","<div style=""font-size:60px;""> </div>","null","fixation","html-keyboard-response","538","1702213","0.0-6.0-0.76","2629163","co38524","norming","","","","","","",""
"null","../img/tt/1097tt.jpg","null","mooney1","image-keyboard-response","539","1705229","0.0-6.0-1.76","2629163","co38524","norming","","","","","","",""
"4868.634999962524","","","post_mooney1_questions","survey-likert","540","1710100","0.0-6.0-2.76","2629163","co38524","norming","","","{""curiosity"":5,""confidence"":5}","[0,1]","../img/tt/1097tt.jpg","",""
"4230.299999995623","","","recognition","survey-text","541","1714333","0.0-6.0-3.76","2629163","co38524","norming","","","{""guess"":""persoon met stok""}","","../img/tt/1097tt.jpg","",""
"null","../img/gs/1097gs.jpg","null","reveal","image-keyboard-response","542","1716345","0.0-6.0-4.76","2629163","co38524","norming","","","","","","",""
"null","../img/tt/1097tt.jpg","null","mooney2","image-keyboard-response","543","1718359","0.0-6.0-5.76","2629163","co38524","norming","","","","","","",""
"6049.0800000261515","","","post_reveal_questions","survey-likert","544","1724411","0.0-6.0-6.76","2629163","co38524","norming","","","{""aha"":5}","[0]","../img/tt/1097tt.jpg","",""
"null","<div style=""font-size:60px;""> </div>","null","fixation","html-keyboard-response","545","1724614","0.0-6.0-0.77","2629163","co38524","norming","","","","","","",""
"null","../img/tt/598tt.jpg","null","mooney1","image-keyboard-response","546","1727617","0.0-6.0-1.77","2629163","co38524","norming","","","","","","",""
"4734.435000049416","","","post_mooney1_questions","survey-likert","547","1732354","0.0-6.0-2.77","2629163","co38524","norming","","","{""curiosity"":5,""confidence"":5}","[0,1]","../img/tt/598tt.jpg","",""
"3126.010000007227","","","recognition","survey-text","548","1735483","0.0-6.0-3.77","2629163","co38524","norming","","","{""guess"":""""}","","../img/tt/598tt.jpg","",""
"null","../img/gs/598gs.jpg","null","reveal","image-keyboard-response","549","1737489","0.0-6.0-4.77","2629163","co38524","norming","","","","","","",""
"null","../img/tt/598tt.jpg","null","mooney2","image-keyboard-response","550","1739505","0.0-6.0-5.77","2629163","co38524","norming","","","","","","",""
"21269.410000008065","","","post_reveal_questions","survey-likert","551","1760775","0.0-6.0-6.77","2629163","co38524","norming","","","{""aha"":5}","[0]","../img/tt/598tt.jpg","",""
"null","<div style=""font-size:60px;""> </div>","null","fixation","html-keyboard-response","552","1760989","0.0-6.0-0.78","2629163","co38524","norming","","","","","","",""
