"rt","stimulus","key_press","test_part","trial_type","trial_index","time_elapsed","internal_node_id","totalTime","subject","experiment_name","button_pressed","success","responses","question_order","currentStim","old","correct"
"9025.899999993271","Welcome to the experiment. This is an online experiment so please don't close the tab/window until we say goodbye.  Press any key to begin.","32","instructions","html-keyboard-response","0","9044","0.0-0.0","3090555","co38506","norming","","","","","","",""
"6113.754999998491","<div style='word-wrap: break-word; width: 900px'><h3>Please consider this information carefully before deciding whether to participate in this research</h3><ul style='text-align: left; font-size: .8em;'><li><b>Purpose of the research</b>: To examine how people process images.</li><li><b>What you will do in this research</b>:  Stimuli (images) will be presented on the computer and you will be asked different questions about them.</li><li><b>Time required</b>: Participation will take between 45 and 60 minutes to complete.</li><li><b>Risks</b>:  There are no anticipated risks associated with participating in this study. The effects of participating should be comparable to those you would experience from viewing a computer monitor for 30 minutes and using a mouse or keyboard.</li><li><b>Benefits</b>:  This study provides no benefits to you individually except for the credit. The study provides important information about the nature of perception and learning.</li><li><b>Confidentiality</b>:  Your participation in this study will remain confidential. No personally identifiable information will be associated with your data. Your de-identified data may be shared with other researchers and used in future projects.</li><li><b>Participation and withdrawal</b>:  Your participation in this study is completely voluntary and you may refuse to participate or you may choose to withdraw at any time without penalty.</li><li><b>How to contact the researchers</b>: If you have questions or concerns about your participation or payment, or want to request a summary of research findings, please contact Sander Van de Cruys (KU Leuven), at sander.vandecruys@kuleuven.be.</li></ul><p>The nature and purpose of this research have been sufficiently explained and I agree to participate in this study.  I understand that I am free to withdraw at any time without incurring any penalty.</p><p>Please consent by clicking the button below to continue. Otherwise, please exit the study at this time.</p></div>","","instructions","html-button-response","1","15160","0.0-1.0","3090555","co38506","norming","0","","","","","",""
"","","","instructions","fullscreen","2","27544","0.0-2.0","3090555","co38506","norming","","true","","","","",""
"30107.465000008233","","","sona","survey-html-form","3","57658","0.0-3.0","3090555","co38506","norming","","","[{""name"":""sonaid"",""value"":""38506""},{""name"":""debrief"",""value"":""yes""},{""name"":""datajoin"",""value"":""yes""}]","","","",""
"79268.029999992","<div style='word-wrap: break-word; width: 900px'><h3>Instructions</h3><p>This experiment will have 3 parts. In the first part you will see a series of distorted images like the one below on the left. As you can see in the righthand image, the distorted images are derived from actual photographs. In what follows, you will <strong>briefly</strong> be presented with <strong>only</strong> the distorted image.</p> <div style='float: left; margin-right: 20px;'><img src='../img/018tt.jpg' height='250' width='250'></img></div><div style='float: right; margin-left: 20px;'><img src='../img/018gs.jpg' height='250' width='250'></img></div><p>Subsequently you will be asked a few questions about the image: One question on how <strong>curious</strong> you are about the solution and one on how <strong>confident</strong> you are that you know the solution.</p>Next, we ask you to make a guess on what is in the image. Note that it is OK to name just the <strong>basic level category</strong>. For example when you see a parrot in the image, 'parrot' will obviously be a correct answer but also correct is 'bird'. However, 'animal' will <strong>not</strong> be counted as a correct response. For the example above, 'rose' would be correct or 'flower', but not 'plant'. When soccer players are depicted, 'soccer', 'football', 'soccer players' will be correct, but not 'humans', 'outdoors', or 'sports'. You do not need to describe the image in full, just name the main object in it <strong>in one or two words</strong>. All images depict objects from one of the following broad level categories: animals, inanimate objects, plants, sports, vehicles, and food. Recognizing means knowing <strong>more</strong> than these broad labels for a given image. But we always encourage you to <strong>make a guess</strong> if you can. Note that you are allowed to use <strong>Dutch and English</strong> in your answers, whatever comes easiest for you.</p><p>Press any key to continue.</p></div>","32","instructions","html-keyboard-response","4","136927","0.0-4.0","3090555","co38506","norming","","","","","","",""
"125084.44500000041","<div style='word-wrap: break-word; width: 900px'><h3>Instructions</h3> <p>Next, the solution image will be revealed to you and you'll be asked to indicate how strong your <strong>aha-experience</strong> was after seeing the solution. This describes the positive feeling of the 'click' you sometimes experience, when the pieces of the 'puzzle' fall together and you suddenly have 'insight' in the image.</p><img src='aha.jpg' height='188' width='250'></img><p>Note that there are no right or wrong answers. We are interested in what <strong>you</strong> see in the image and how <strong>you</strong> feel about it.</p><p>Press any key to start the experiment.</p></div>","32","instructions","html-keyboard-response","5","262024","0.0-5.0","3090555","co38506","norming","","","","","","",""
"null","<div style=""font-size:60px;""> </div>","null","fixation","html-keyboard-response","6","262234","0.0-6.0-0.0","3090555","co38506","norming","","","","","","",""
"null","../img/tt/1224tt.jpg","null","mooney1","image-keyboard-response","7","265236","0.0-6.0-1.0","3090555","co38506","norming","","","","","","",""
"12232.889999999315","","","post_mooney1_questions","survey-likert","8","277473","0.0-6.0-2.0","3090555","co38506","norming","","","{""curiosity"":4,""confidence"":2}","[0,1]","../img/tt/1224tt.jpg","",""
"15413.2249999966","","","recognition","survey-text","9","292888","0.0-6.0-3.0","3090555","co38506","norming","","","{""guess"":""""}","","../img/tt/1224tt.jpg","",""
"null","../img/gs/1224gs.jpg","null","reveal","image-keyboard-response","10","294896","0.0-6.0-4.0","3090555","co38506","norming","","","","","","",""
"null","../img/tt/1224tt.jpg","null","mooney2","image-keyboard-response","11","296897","0.0-6.0-5.0","3090555","co38506","norming","","","","","","",""
"5180.515000000014","","","post_reveal_questions","survey-likert","12","302080","0.0-6.0-6.0","3090555","co38506","norming","","","{""aha"":4}","[0]","../img/tt/1224tt.jpg","",""
"null","<div style=""font-size:60px;""> </div>","null","fixation","html-keyboard-response","13","302291","0.0-6.0-0.1","3090555","co38506","norming","","","","","","",""
"null","../img/tt/078tt.jpg","null","mooney1","image-keyboard-response","14","305296","0.0-6.0-1.1","3090555","co38506","norming","","","","","","",""
"6629.994999995688","","","post_mooney1_questions","survey-likert","15","311928","0.0-6.0-2.1","3090555","co38506","norming","","","{""curiosity"":4,""confidence"":4}","[0,1]","../img/tt/078tt.jpg","",""
"3398.270000005141","","","recognition","survey-text","16","315328","0.0-6.0-3.1","3090555","co38506","norming","","","{""guess"":""druif""}","","../img/tt/078tt.jpg","",""
"null","../img/gs/078gs.jpg","null","reveal","image-keyboard-response","17","317334","0.0-6.0-4.1","3090555","co38506","norming","","","","","","",""
"null","../img/tt/078tt.jpg","null","mooney2","image-keyboard-response","18","319337","0.0-6.0-5.1","3090555","co38506","norming","","","","","","",""
"3773.235000000568","","","post_reveal_questions","survey-likert","19","323107","0.0-6.0-6.1","3090555","co38506","norming","","","{""aha"":2}","[0]","../img/tt/078tt.jpg","",""
"null","<div style=""font-size:60px;""> </div>","null","fixation","html-keyboard-response","20","323316","0.0-6.0-0.2","3090555","co38506","norming","","","","","","",""
"null","../img/tt/007tt.jpg","null","mooney1","image-keyboard-response","21","326327","0.0-6.0-1.2","3090555","co38506","norming","","","","","","",""
"4977.664999998524","","","post_mooney1_questions","survey-likert","22","331307","0.0-6.0-2.2","3090555","co38506","norming","","","{""curiosity"":4,""confidence"":1}","[0,1]","../img/tt/007tt.jpg","",""
"5022.049999999581","","","recognition","survey-text","23","336331","0.0-6.0-3.2","3090555","co38506","norming","","","{""guess"":""olifant""}","","../img/tt/007tt.jpg","",""
"null","../img/gs/007gs.jpg","null","reveal","image-keyboard-response","24","338336","0.0-6.0-4.2","3090555","co38506","norming","","","","","","",""
"null","../img/tt/007tt.jpg","null","mooney2","image-keyboard-response","25","340346","0.0-6.0-5.2","3090555","co38506","norming","","","","","","",""
"6958.569999987958","","","post_reveal_questions","survey-likert","26","347307","0.0-6.0-6.2","3090555","co38506","norming","","","{""aha"":3}","[0]","../img/tt/007tt.jpg","",""
"null","<div style=""font-size:60px;""> </div>","null","fixation","html-keyboard-response","27","347510","0.0-6.0-0.3","3090555","co38506","norming","","","","","","",""
"null","../img/tt/010tt.jpg","null","mooney1","image-keyboard-response","28","350515","0.0-6.0-1.3","3090555","co38506","norming","","","","","","",""
"6589.619999998831","","","post_mooney1_questions","survey-likert","29","357107","0.0-6.0-2.3","3090555","co38506","norming","","","{""curiosity"":4,""confidence"":1}","[0,1]","../img/tt/010tt.jpg","",""
"790.0200000003679","","","recognition","survey-text","30","357899","0.0-6.0-3.3","3090555","co38506","norming","","","{""guess"":""""}","","../img/tt/010tt.jpg","",""
"null","../img/gs/010gs.jpg","null","reveal","image-keyboard-response","31","359902","0.0-6.0-4.3","3090555","co38506","norming","","","","","","",""
"null","../img/tt/010tt.jpg","null","mooney2","image-keyboard-response","32","361913","0.0-6.0-5.3","3090555","co38506","norming","","","","","","",""
"2239.7499999933643","","","post_reveal_questions","survey-likert","33","364155","0.0-6.0-6.3","3090555","co38506","norming","","","{""aha"":4}","[0]","../img/tt/010tt.jpg","",""
"null","<div style=""font-size:60px;""> </div>","null","fixation","html-keyboard-response","34","364361","0.0-6.0-0.4","3090555","co38506","norming","","","","","","",""
"null","../img/tt/378tt.jpg","null","mooney1","image-keyboard-response","35","367363","0.0-6.0-1.4","3090555","co38506","norming","","","","","","",""
"5413.384999992559","","","post_mooney1_questions","survey-likert","36","372779","0.0-6.0-2.4","3090555","co38506","norming","","","{""curiosity"":4,""confidence"":0}","[0,1]","../img/tt/378tt.jpg","",""
"710.1600000023609","","","recognition","survey-text","37","373491","0.0-6.0-3.4","3090555","co38506","norming","","","{""guess"":""""}","","../img/tt/378tt.jpg","",""
"null","../img/gs/378gs.jpg","null","reveal","image-keyboard-response","38","375493","0.0-6.0-4.4","3090555","co38506","norming","","","","","","",""
"null","../img/tt/378tt.jpg","null","mooney2","image-keyboard-response","39","377504","0.0-6.0-5.4","3090555","co38506","norming","","","","","","",""
"3634.6150000026682","","","post_reveal_questions","survey-likert","40","381139","0.0-6.0-6.4","3090555","co38506","norming","","","{""aha"":2}","[0]","../img/tt/378tt.jpg","",""
"null","<div style=""font-size:60px;""> </div>","null","fixation","html-keyboard-response","41","381346","0.0-6.0-0.5","3090555","co38506","norming","","","","","","",""
"null","../img/tt/118tt.jpg","null","mooney1","image-keyboard-response","42","384359","0.0-6.0-1.5","3090555","co38506","norming","","","","","","",""
"7355.4000000003725","","","post_mooney1_questions","survey-likert","43","391717","0.0-6.0-2.5","3090555","co38506","norming","","","{""curiosity"":5,""confidence"":1}","[0,1]","../img/tt/118tt.jpg","",""
"6198.059999995166","","","recognition","survey-text","44","397916","0.0-6.0-3.5","3090555","co38506","norming","","","{""guess"":""tafel""}","","../img/tt/118tt.jpg","",""
"null","../img/gs/118gs.jpg","null","reveal","image-keyboard-response","45","399923","0.0-6.0-4.5","3090555","co38506","norming","","","","","","",""
"null","../img/tt/118tt.jpg","null","mooney2","image-keyboard-response","46","401934","0.0-6.0-5.5","3090555","co38506","norming","","","","","","",""
"4916.5999999968335","","","post_reveal_questions","survey-likert","47","406852","0.0-6.0-6.5","3090555","co38506","norming","","","{""aha"":3}","[0]","../img/tt/118tt.jpg","",""
"null","<div style=""font-size:60px;""> </div>","null","fixation","html-keyboard-response","48","407054","0.0-6.0-0.6","3090555","co38506","norming","","","","","","",""
"null","../img/tt/1205tt.jpg","null","mooney1","image-keyboard-response","49","410065","0.0-6.0-1.6","3090555","co38506","norming","","","","","","",""
"6369.2599999922095","","","post_mooney1_questions","survey-likert","50","416437","0.0-6.0-2.6","3090555","co38506","norming","","","{""curiosity"":5,""confidence"":1}","[0,1]","../img/tt/1205tt.jpg","",""
"4405.7449999963865","","","recognition","survey-text","51","420844","0.0-6.0-3.6","3090555","co38506","norming","","","{""guess"":""zetel""}","","../img/tt/1205tt.jpg","",""
"null","../img/gs/1205gs.jpg","null","reveal","image-keyboard-response","52","422855","0.0-6.0-4.6","3090555","co38506","norming","","","","","","",""
"null","../img/tt/1205tt.jpg","null","mooney2","image-keyboard-response","53","424860","0.0-6.0-5.6","3090555","co38506","norming","","","","","","",""
"2382.064999997965","","","post_reveal_questions","survey-likert","54","427244","0.0-6.0-6.6","3090555","co38506","norming","","","{""aha"":2}","[0]","../img/tt/1205tt.jpg","",""
"null","<div style=""font-size:60px;""> </div>","null","fixation","html-keyboard-response","55","427445","0.0-6.0-0.7","3090555","co38506","norming","","","","","","",""
"null","../img/tt/1122tt.jpg","null","mooney1","image-keyboard-response","56","430451","0.0-6.0-1.7","3090555","co38506","norming","","","","","","",""
"5775.420000005397","","","post_mooney1_questions","survey-likert","57","436229","0.0-6.0-2.7","3090555","co38506","norming","","","{""curiosity"":3,""confidence"":2}","[0,1]","../img/tt/1122tt.jpg","",""
"3558.0750000081025","","","recognition","survey-text","58","439788","0.0-6.0-3.7","3090555","co38506","norming","","","{""guess"":""boot ""}","","../img/tt/1122tt.jpg","",""
"null","../img/gs/1122gs.jpg","null","reveal","image-keyboard-response","59","441790","0.0-6.0-4.7","3090555","co38506","norming","","","","","","",""
"null","../img/tt/1122tt.jpg","null","mooney2","image-keyboard-response","60","443793","0.0-6.0-5.7","3090555","co38506","norming","","","","","","",""
"2169.7500000009313","","","post_reveal_questions","survey-likert","61","445966","0.0-6.0-6.7","3090555","co38506","norming","","","{""aha"":4}","[0]","../img/tt/1122tt.jpg","",""
"null","<div style=""font-size:60px;""> </div>","null","fixation","html-keyboard-response","62","446167","0.0-6.0-0.8","3090555","co38506","norming","","","","","","",""
"null","../img/tt/1309tt.jpg","null","mooney1","image-keyboard-response","63","449170","0.0-6.0-1.8","3090555","co38506","norming","","","","","","",""
"5433.655000000726","","","post_mooney1_questions","survey-likert","64","454606","0.0-6.0-2.8","3090555","co38506","norming","","","{""curiosity"":2,""confidence"":4}","[0,1]","../img/tt/1309tt.jpg","",""
"6550.0949999986915","","","recognition","survey-text","65","461158","0.0-6.0-3.8","3090555","co38506","norming","","","{""guess"":""auto bos""}","","../img/tt/1309tt.jpg","",""
"null","../img/gs/1309gs.jpg","null","reveal","image-keyboard-response","66","463168","0.0-6.0-4.8","3090555","co38506","norming","","","","","","",""
"null","../img/tt/1309tt.jpg","null","mooney2","image-keyboard-response","67","465177","0.0-6.0-5.8","3090555","co38506","norming","","","","","","",""
"3219.02499999851","","","post_reveal_questions","survey-likert","68","468398","0.0-6.0-6.8","3090555","co38506","norming","","","{""aha"":2}","[0]","../img/tt/1309tt.jpg","",""
"null","<div style=""font-size:60px;""> </div>","null","fixation","html-keyboard-response","69","468601","0.0-6.0-0.9","3090555","co38506","norming","","","","","","",""
"null","../img/tt/515tt.jpg","null","mooney1","image-keyboard-response","70","471603","0.0-6.0-1.9","3090555","co38506","norming","","","","","","",""
"2904.3750000128057","","","post_mooney1_questions","survey-likert","71","474510","0.0-6.0-2.9","3090555","co38506","norming","","","{""curiosity"":5,""confidence"":1}","[0,1]","../img/tt/515tt.jpg","",""
"5470.295000006445","","","recognition","survey-text","72","479982","0.0-6.0-3.9","3090555","co38506","norming","","","{""guess"":""toren""}","","../img/tt/515tt.jpg","",""
"null","../img/gs/515gs.jpg","null","reveal","image-keyboard-response","73","481985","0.0-6.0-4.9","3090555","co38506","norming","","","","","","",""
"null","../img/tt/515tt.jpg","null","mooney2","image-keyboard-response","74","483987","0.0-6.0-5.9","3090555","co38506","norming","","","","","","",""
"2872.964999987744","","","post_reveal_questions","survey-likert","75","486862","0.0-6.0-6.9","3090555","co38506","norming","","","{""aha"":4}","[0]","../img/tt/515tt.jpg","",""
"null","<div style=""font-size:60px;""> </div>","null","fixation","html-keyboard-response","76","487067","0.0-6.0-0.10","3090555","co38506","norming","","","","","","",""
"null","../img/tt/056tt.jpg","null","mooney1","image-keyboard-response","77","490079","0.0-6.0-1.10","3090555","co38506","norming","","","","","","",""
"4340.5799999891315","","","post_mooney1_questions","survey-likert","78","494422","0.0-6.0-2.10","3090555","co38506","norming","","","{""curiosity"":2,""confidence"":4}","[0,1]","../img/tt/056tt.jpg","",""
"5677.844999998342","","","recognition","survey-text","79","500102","0.0-6.0-3.10","3090555","co38506","norming","","","{""guess"":""leeuw""}","","../img/tt/056tt.jpg","",""
"null","../img/gs/056gs.jpg","null","reveal","image-keyboard-response","80","502110","0.0-6.0-4.10","3090555","co38506","norming","","","","","","",""
"null","../img/tt/056tt.jpg","null","mooney2","image-keyboard-response","81","504116","0.0-6.0-5.10","3090555","co38506","norming","","","","","","",""
"11991.760000004433","","","post_reveal_questions","survey-likert","82","516109","0.0-6.0-6.10","3090555","co38506","norming","","","{""aha"":2}","[0]","../img/tt/056tt.jpg","",""
"null","<div style=""font-size:60px;""> </div>","null","fixation","html-keyboard-response","83","516310","0.0-6.0-0.11","3090555","co38506","norming","","","","","","",""
"null","../img/tt/184tt.jpg","null","mooney1","image-keyboard-response","84","519321","0.0-6.0-1.11","3090555","co38506","norming","","","","","","",""
"5402.029999997467","","","post_mooney1_questions","survey-likert","85","524725","0.0-6.0-2.11","3090555","co38506","norming","","","{""curiosity"":5,""confidence"":1}","[0,1]","../img/tt/184tt.jpg","",""
"2974.3599999928847","","","recognition","survey-text","86","527701","0.0-6.0-3.11","3090555","co38506","norming","","","{""guess"":""slang""}","","../img/tt/184tt.jpg","",""
"null","../img/gs/184gs.jpg","null","reveal","image-keyboard-response","87","529702","0.0-6.0-4.11","3090555","co38506","norming","","","","","","",""
"null","../img/tt/184tt.jpg","null","mooney2","image-keyboard-response","88","531708","0.0-6.0-5.11","3090555","co38506","norming","","","","","","",""
"1774.9849999963772","","","post_reveal_questions","survey-likert","89","533485","0.0-6.0-6.11","3090555","co38506","norming","","","{""aha"":3}","[0]","../img/tt/184tt.jpg","",""
"null","<div style=""font-size:60px;""> </div>","null","fixation","html-keyboard-response","90","533687","0.0-6.0-0.12","3090555","co38506","norming","","","","","","",""
"null","../img/tt/279tt.jpg","null","mooney1","image-keyboard-response","91","536690","0.0-6.0-1.12","3090555","co38506","norming","","","","","","",""
"3809.819999994943","","","post_mooney1_questions","survey-likert","92","540501","0.0-6.0-2.12","3090555","co38506","norming","","","{""curiosity"":1,""confidence"":6}","[0,1]","../img/tt/279tt.jpg","",""
"3046.0299999976996","","","recognition","survey-text","93","543549","0.0-6.0-3.12","3090555","co38506","norming","","","{""guess"":""koala""}","","../img/tt/279tt.jpg","",""
"null","../img/gs/279gs.jpg","null","reveal","image-keyboard-response","94","545558","0.0-6.0-4.12","3090555","co38506","norming","","","","","","",""
"null","../img/tt/279tt.jpg","null","mooney2","image-keyboard-response","95","547560","0.0-6.0-5.12","3090555","co38506","norming","","","","","","",""
"5866.3850000011735","","","post_reveal_questions","survey-likert","96","553429","0.0-6.0-6.12","3090555","co38506","norming","","","{""aha"":1}","[0]","../img/tt/279tt.jpg","",""
"null","<div style=""font-size:60px;""> </div>","null","fixation","html-keyboard-response","97","553639","0.0-6.0-0.13","3090555","co38506","norming","","","","","","",""
"null","../img/tt/1004tt.jpg","null","mooney1","image-keyboard-response","98","556648","0.0-6.0-1.13","3090555","co38506","norming","","","","","","",""
"5282.579999999143","","","post_mooney1_questions","survey-likert","99","561933","0.0-6.0-2.13","3090555","co38506","norming","","","{""curiosity"":2,""confidence"":4}","[0,1]","../img/tt/1004tt.jpg","",""
"3750.0250000011874","","","recognition","survey-text","100","565685","0.0-6.0-3.13","3090555","co38506","norming","","","{""guess"":""koe hond""}","","../img/tt/1004tt.jpg","",""
"null","../img/gs/1004gs.jpg","null","reveal","image-keyboard-response","101","567692","0.0-6.0-4.13","3090555","co38506","norming","","","","","","",""
"null","../img/tt/1004tt.jpg","null","mooney2","image-keyboard-response","102","569694","0.0-6.0-5.13","3090555","co38506","norming","","","","","","",""
"3340.4650000011316","","","post_reveal_questions","survey-likert","103","573037","0.0-6.0-6.13","3090555","co38506","norming","","","{""aha"":5}","[0]","../img/tt/1004tt.jpg","",""
"null","<div style=""font-size:60px;""> </div>","null","fixation","html-keyboard-response","104","573238","0.0-6.0-0.14","3090555","co38506","norming","","","","","","",""
"null","../img/tt/468tt.jpg","null","mooney1","image-keyboard-response","105","576247","0.0-6.0-1.14","3090555","co38506","norming","","","","","","",""
"7393.309999999474","","","post_mooney1_questions","survey-likert","106","583642","0.0-6.0-2.14","3090555","co38506","norming","","","{""curiosity"":3,""confidence"":4}","[0,1]","../img/tt/468tt.jpg","",""
"9222.3449999874","","","recognition","survey-text","107","592866","0.0-6.0-3.14","3090555","co38506","norming","","","{""guess"":""noodles stokjes""}","","../img/tt/468tt.jpg","",""
"null","../img/gs/468gs.jpg","null","reveal","image-keyboard-response","108","594876","0.0-6.0-4.14","3090555","co38506","norming","","","","","","",""
"null","../img/tt/468tt.jpg","null","mooney2","image-keyboard-response","109","596877","0.0-6.0-5.14","3090555","co38506","norming","","","","","","",""
"2370.089999996708","","","post_reveal_questions","survey-likert","110","599250","0.0-6.0-6.14","3090555","co38506","norming","","","{""aha"":5}","[0]","../img/tt/468tt.jpg","",""
"null","<div style=""font-size:60px;""> </div>","null","fixation","html-keyboard-response","111","599451","0.0-6.0-0.15","3090555","co38506","norming","","","","","","",""
"null","../img/tt/598tt.jpg","null","mooney1","image-keyboard-response","112","602454","0.0-6.0-1.15","3090555","co38506","norming","","","","","","",""
"6368.679999999586","","","post_mooney1_questions","survey-likert","113","608826","0.0-6.0-2.15","3090555","co38506","norming","","","{""curiosity"":4,""confidence"":2}","[0,1]","../img/tt/598tt.jpg","",""
"9318.075000002864","","","recognition","survey-text","114","618145","0.0-6.0-3.15","3090555","co38506","norming","","","{""guess"":""slak kat""}","","../img/tt/598tt.jpg","",""
"null","../img/gs/598gs.jpg","null","reveal","image-keyboard-response","115","620151","0.0-6.0-4.15","3090555","co38506","norming","","","","","","",""
"null","../img/tt/598tt.jpg","null","mooney2","image-keyboard-response","116","622153","0.0-6.0-5.15","3090555","co38506","norming","","","","","","",""
"2830.4950000019744","","","post_reveal_questions","survey-likert","117","624986","0.0-6.0-6.15","3090555","co38506","norming","","","{""aha"":3}","[0]","../img/tt/598tt.jpg","",""
"null","<div style=""font-size:60px;""> </div>","null","fixation","html-keyboard-response","118","625187","0.0-6.0-0.16","3090555","co38506","norming","","","","","","",""
"null","../img/tt/222tt.jpg","null","mooney1","image-keyboard-response","119","628192","0.0-6.0-1.16","3090555","co38506","norming","","","","","","",""
"3351.0499999974854","","","post_mooney1_questions","survey-likert","120","631546","0.0-6.0-2.16","3090555","co38506","norming","","","{""curiosity"":5,""confidence"":0}","[0,1]","../img/tt/222tt.jpg","",""
"734.2600000120001","","","recognition","survey-text","121","632281","0.0-6.0-3.16","3090555","co38506","norming","","","{""guess"":""""}","","../img/tt/222tt.jpg","",""
"null","../img/gs/222gs.jpg","null","reveal","image-keyboard-response","122","634283","0.0-6.0-4.16","3090555","co38506","norming","","","","","","",""
"null","../img/tt/222tt.jpg","null","mooney2","image-keyboard-response","123","636286","0.0-6.0-5.16","3090555","co38506","norming","","","","","","",""
"2659.444999997504","","","post_reveal_questions","survey-likert","124","638947","0.0-6.0-6.16","3090555","co38506","norming","","","{""aha"":4}","[0]","../img/tt/222tt.jpg","",""
"null","<div style=""font-size:60px;""> </div>","null","fixation","html-keyboard-response","125","639149","0.0-6.0-0.17","3090555","co38506","norming","","","","","","",""
"null","../img/tt/1151tt.jpg","null","mooney1","image-keyboard-response","126","642160","0.0-6.0-1.17","3090555","co38506","norming","","","","","","",""
"9392.540000000736","","","post_mooney1_questions","survey-likert","127","651555","0.0-6.0-2.17","3090555","co38506","norming","","","{""curiosity"":3,""confidence"":1}","[0,1]","../img/tt/1151tt.jpg","",""
"5966.014999998151","","","recognition","survey-text","128","657523","0.0-6.0-3.17","3090555","co38506","norming","","","{""guess"":""berg""}","","../img/tt/1151tt.jpg","",""
"null","../img/gs/1151gs.jpg","null","reveal","image-keyboard-response","129","659528","0.0-6.0-4.17","3090555","co38506","norming","","","","","","",""
"null","../img/tt/1151tt.jpg","null","mooney2","image-keyboard-response","130","661538","0.0-6.0-5.17","3090555","co38506","norming","","","","","","",""
"1671.1900000082096","","","post_reveal_questions","survey-likert","131","663211","0.0-6.0-6.17","3090555","co38506","norming","","","{""aha"":5}","[0]","../img/tt/1151tt.jpg","",""
"null","<div style=""font-size:60px;""> </div>","null","fixation","html-keyboard-response","132","663414","0.0-6.0-0.18","3090555","co38506","norming","","","","","","",""
"null","../img/tt/1156tt.jpg","null","mooney1","image-keyboard-response","133","666416","0.0-6.0-1.18","3090555","co38506","norming","","","","","","",""
"5760.914999991655","","","post_mooney1_questions","survey-likert","134","672179","0.0-6.0-2.18","3090555","co38506","norming","","","{""curiosity"":1,""confidence"":5}","[0,1]","../img/tt/1156tt.jpg","",""
"23358.01999999967","","","recognition","survey-text","135","695539","0.0-6.0-3.18","3090555","co38506","norming","","","{""guess"":""zonnen strand""}","","../img/tt/1156tt.jpg","",""
"null","../img/gs/1156gs.jpg","null","reveal","image-keyboard-response","136","697542","0.0-6.0-4.18","3090555","co38506","norming","","","","","","",""
"null","../img/tt/1156tt.jpg","null","mooney2","image-keyboard-response","137","699546","0.0-6.0-5.18","3090555","co38506","norming","","","","","","",""
"1792.505000004894","","","post_reveal_questions","survey-likert","138","701341","0.0-6.0-6.18","3090555","co38506","norming","","","{""aha"":4}","[0]","../img/tt/1156tt.jpg","",""
"null","<div style=""font-size:60px;""> </div>","null","fixation","html-keyboard-response","139","701545","0.0-6.0-0.19","3090555","co38506","norming","","","","","","",""
"null","../img/tt/1228tt.jpg","null","mooney1","image-keyboard-response","140","704549","0.0-6.0-1.19","3090555","co38506","norming","","","","","","",""
"7333.675000001676","","","post_mooney1_questions","survey-likert","141","711885","0.0-6.0-2.19","3090555","co38506","norming","","","{""curiosity"":2,""confidence"":4}","[0,1]","../img/tt/1228tt.jpg","",""
"6246.155000000726","","","recognition","survey-text","142","718133","0.0-6.0-3.19","3090555","co38506","norming","","","{""guess"":""arend duif""}","","../img/tt/1228tt.jpg","",""
"null","../img/gs/1228gs.jpg","null","reveal","image-keyboard-response","143","720138","0.0-6.0-4.19","3090555","co38506","norming","","","","","","",""
"null","../img/tt/1228tt.jpg","null","mooney2","image-keyboard-response","144","722140","0.0-6.0-5.19","3090555","co38506","norming","","","","","","",""
"2390.1700000133133","","","post_reveal_questions","survey-likert","145","724533","0.0-6.0-6.19","3090555","co38506","norming","","","{""aha"":5}","[0]","../img/tt/1228tt.jpg","",""
"null","<div style=""font-size:60px;""> </div>","null","fixation","html-keyboard-response","146","724734","0.0-6.0-0.20","3090555","co38506","norming","","","","","","",""
"null","../img/tt/1276tt.jpg","null","mooney1","image-keyboard-response","147","727741","0.0-6.0-1.20","3090555","co38506","norming","","","","","","",""
"2821.8550000019604","","","post_mooney1_questions","survey-likert","148","730565","0.0-6.0-2.20","3090555","co38506","norming","","","{""curiosity"":1,""confidence"":0}","[0,1]","../img/tt/1276tt.jpg","",""
"966.6549999965355","","","recognition","survey-text","149","731533","0.0-6.0-3.20","3090555","co38506","norming","","","{""guess"":""""}","","../img/tt/1276tt.jpg","",""
"null","../img/gs/1276gs.jpg","null","reveal","image-keyboard-response","150","733538","0.0-6.0-4.20","3090555","co38506","norming","","","","","","",""
"null","../img/tt/1276tt.jpg","null","mooney2","image-keyboard-response","151","735547","0.0-6.0-5.20","3090555","co38506","norming","","","","","","",""
"4191.439999995055","","","post_reveal_questions","survey-likert","152","739741","0.0-6.0-6.20","3090555","co38506","norming","","","{""aha"":3}","[0]","../img/tt/1276tt.jpg","",""
"null","<div style=""font-size:60px;""> </div>","null","fixation","html-keyboard-response","153","739950","0.0-6.0-0.21","3090555","co38506","norming","","","","","","",""
"null","../img/tt/060tt.jpg","null","mooney1","image-keyboard-response","154","742955","0.0-6.0-1.21","3090555","co38506","norming","","","","","","",""
"4327.594999995199","","","post_mooney1_questions","survey-likert","155","747285","0.0-6.0-2.21","3090555","co38506","norming","","","{""curiosity"":4,""confidence"":3}","[0,1]","../img/tt/060tt.jpg","",""
"3869.9500000075204","","","recognition","survey-text","156","751157","0.0-6.0-3.21","3090555","co38506","norming","","","{""guess"":""paddestoel""}","","../img/tt/060tt.jpg","",""
"null","../img/gs/060gs.jpg","null","reveal","image-keyboard-response","157","753167","0.0-6.0-4.21","3090555","co38506","norming","","","","","","",""
"null","../img/tt/060tt.jpg","null","mooney2","image-keyboard-response","158","755168","0.0-6.0-5.21","3090555","co38506","norming","","","","","","",""
"1834.5399999961955","","","post_reveal_questions","survey-likert","159","757005","0.0-6.0-6.21","3090555","co38506","norming","","","{""aha"":6}","[0]","../img/tt/060tt.jpg","",""
"null","<div style=""font-size:60px;""> </div>","null","fixation","html-keyboard-response","160","757206","0.0-6.0-0.22","3090555","co38506","norming","","","","","","",""
"null","../img/tt/552tt.jpg","null","mooney1","image-keyboard-response","161","760214","0.0-6.0-1.22","3090555","co38506","norming","","","","","","",""
"4261.5000000078","","","post_mooney1_questions","survey-likert","162","764478","0.0-6.0-2.22","3090555","co38506","norming","","","{""curiosity"":2,""confidence"":4}","[0,1]","../img/tt/552tt.jpg","",""
"8510.334999999031","","","recognition","survey-text","163","772990","0.0-6.0-3.22","3090555","co38506","norming","","","{""guess"":""stinkdier eekhoorn""}","","../img/tt/552tt.jpg","",""
"null","../img/gs/552gs.jpg","null","reveal","image-keyboard-response","164","774995","0.0-6.0-4.22","3090555","co38506","norming","","","","","","",""
"null","../img/tt/552tt.jpg","null","mooney2","image-keyboard-response","165","777001","0.0-6.0-5.22","3090555","co38506","norming","","","","","","",""
"4083.2549999904586","","","post_reveal_questions","survey-likert","166","781086","0.0-6.0-6.22","3090555","co38506","norming","","","{""aha"":0}","[0]","../img/tt/552tt.jpg","",""
"null","<div style=""font-size:60px;""> </div>","null","fixation","html-keyboard-response","167","781287","0.0-6.0-0.23","3090555","co38506","norming","","","","","","",""
"null","../img/tt/1171tt.jpg","null","mooney1","image-keyboard-response","168","784292","0.0-6.0-1.23","3090555","co38506","norming","","","","","","",""
"4911.425000012969","","","post_mooney1_questions","survey-likert","169","789206","0.0-6.0-2.23","3090555","co38506","norming","","","{""curiosity"":5,""confidence"":1}","[0,1]","../img/tt/1171tt.jpg","",""
"3422.279999998864","","","recognition","survey-text","170","792630","0.0-6.0-3.23","3090555","co38506","norming","","","{""guess"":""skelet""}","","../img/tt/1171tt.jpg","",""
"null","../img/gs/1171gs.jpg","null","reveal","image-keyboard-response","171","794632","0.0-6.0-4.23","3090555","co38506","norming","","","","","","",""
"null","../img/tt/1171tt.jpg","null","mooney2","image-keyboard-response","172","796640","0.0-6.0-5.23","3090555","co38506","norming","","","","","","",""
"3131.329999989248","","","post_reveal_questions","survey-likert","173","799774","0.0-6.0-6.23","3090555","co38506","norming","","","{""aha"":6}","[0]","../img/tt/1171tt.jpg","",""
"null","<div style=""font-size:60px;""> </div>","null","fixation","html-keyboard-response","174","799975","0.0-6.0-0.24","3090555","co38506","norming","","","","","","",""
"null","../img/tt/1053tt.jpg","null","mooney1","image-keyboard-response","175","802979","0.0-6.0-1.24","3090555","co38506","norming","","","","","","",""
"4032.724999997299","","","post_mooney1_questions","survey-likert","176","807014","0.0-6.0-2.24","3090555","co38506","norming","","","{""curiosity"":1,""confidence"":5}","[0,1]","../img/tt/1053tt.jpg","",""
"3365.495000005467","","","recognition","survey-text","177","810382","0.0-6.0-3.24","3090555","co38506","norming","","","{""guess"":""koeien""}","","../img/tt/1053tt.jpg","",""
"null","../img/gs/1053gs.jpg","null","reveal","image-keyboard-response","178","812384","0.0-6.0-4.24","3090555","co38506","norming","","","","","","",""
"null","../img/tt/1053tt.jpg","null","mooney2","image-keyboard-response","179","814386","0.0-6.0-5.24","3090555","co38506","norming","","","","","","",""
"1881.534999993164","","","post_reveal_questions","survey-likert","180","816270","0.0-6.0-6.24","3090555","co38506","norming","","","{""aha"":1}","[0]","../img/tt/1053tt.jpg","",""
"null","<div style=""font-size:60px;""> </div>","null","fixation","html-keyboard-response","181","816471","0.0-6.0-0.25","3090555","co38506","norming","","","","","","",""
"null","../img/tt/1126tt.jpg","null","mooney1","image-keyboard-response","182","819475","0.0-6.0-1.25","3090555","co38506","norming","","","","","","",""
"5952.78999999573","","","post_mooney1_questions","survey-likert","183","825427","0.0-6.0-2.25","3090555","co38506","norming","","","{""curiosity"":2,""confidence"":4}","[0,1]","../img/tt/1126tt.jpg","",""
"8261.730000012903","","","recognition","survey-text","184","833691","0.0-6.0-3.25","3090555","co38506","norming","","","{""guess"":""muurklimmer""}","","../img/tt/1126tt.jpg","",""
"null","../img/gs/1126gs.jpg","null","reveal","image-keyboard-response","185","835697","0.0-6.0-4.25","3090555","co38506","norming","","","","","","",""
"null","../img/tt/1126tt.jpg","null","mooney2","image-keyboard-response","186","837707","0.0-6.0-5.25","3090555","co38506","norming","","","","","","",""
"2725.239999999758","","","post_reveal_questions","survey-likert","187","840435","0.0-6.0-6.25","3090555","co38506","norming","","","{""aha"":1}","[0]","../img/tt/1126tt.jpg","",""
"null","<div style=""font-size:60px;""> </div>","null","fixation","html-keyboard-response","188","840637","0.0-6.0-0.26","3090555","co38506","norming","","","","","","",""
"null","../img/tt/567tt.jpg","null","mooney1","image-keyboard-response","189","843649","0.0-6.0-1.26","3090555","co38506","norming","","","","","","",""
"4424.875000011525","","","post_mooney1_questions","survey-likert","190","848083","0.0-6.0-2.26","3090555","co38506","norming","","","{""curiosity"":1,""confidence"":5}","[0,1]","../img/tt/567tt.jpg","",""
"7286.04500000074","","","recognition","survey-text","191","855371","0.0-6.0-3.26","3090555","co38506","norming","","","{""guess"":""broodrooster""}","","../img/tt/567tt.jpg","",""
"null","../img/gs/567gs.jpg","null","reveal","image-keyboard-response","192","857380","0.0-6.0-4.26","3090555","co38506","norming","","","","","","",""
"null","../img/tt/567tt.jpg","null","mooney2","image-keyboard-response","193","859382","0.0-6.0-5.26","3090555","co38506","norming","","","","","","",""
"1722.7450000063982","","","post_reveal_questions","survey-likert","194","861107","0.0-6.0-6.26","3090555","co38506","norming","","","{""aha"":0}","[0]","../img/tt/567tt.jpg","",""
"null","<div style=""font-size:60px;""> </div>","null","fixation","html-keyboard-response","195","861308","0.0-6.0-0.27","3090555","co38506","norming","","","","","","",""
"null","../img/tt/559tt.jpg","null","mooney1","image-keyboard-response","196","864314","0.0-6.0-1.27","3090555","co38506","norming","","","","","","",""
"4094.5250000077067","","","post_mooney1_questions","survey-likert","197","868411","0.0-6.0-2.27","3090555","co38506","norming","","","{""curiosity"":3,""confidence"":4}","[0,1]","../img/tt/559tt.jpg","",""
"4318.100000004051","","","recognition","survey-text","198","872731","0.0-6.0-3.27","3090555","co38506","norming","","","{""guess"":""naaimachine""}","","../img/tt/559tt.jpg","",""
"null","../img/gs/559gs.jpg","null","reveal","image-keyboard-response","199","874735","0.0-6.0-4.27","3090555","co38506","norming","","","","","","",""
"null","../img/tt/559tt.jpg","null","mooney2","image-keyboard-response","200","876736","0.0-6.0-5.27","3090555","co38506","norming","","","","","","",""
"1961.1350000050152","","","post_reveal_questions","survey-likert","201","878698","0.0-6.0-6.27","3090555","co38506","norming","","","{""aha"":0}","[0]","../img/tt/559tt.jpg","",""
"null","<div style=""font-size:60px;""> </div>","null","fixation","html-keyboard-response","202","878900","0.0-6.0-0.28","3090555","co38506","norming","","","","","","",""
"null","../img/tt/079tt.jpg","null","mooney1","image-keyboard-response","203","881905","0.0-6.0-1.28","3090555","co38506","norming","","","","","","",""
"4742.859999998473","","","post_mooney1_questions","survey-likert","204","886653","0.0-6.0-2.28","3090555","co38506","norming","","","{""curiosity"":1,""confidence"":6}","[0,1]","../img/tt/079tt.jpg","",""
"2822.1599999960745","","","recognition","survey-text","205","889477","0.0-6.0-3.28","3090555","co38506","norming","","","{""guess"":""beer""}","","../img/tt/079tt.jpg","",""
"null","../img/gs/079gs.jpg","null","reveal","image-keyboard-response","206","891483","0.0-6.0-4.28","3090555","co38506","norming","","","","","","",""
"null","../img/tt/079tt.jpg","null","mooney2","image-keyboard-response","207","893488","0.0-6.0-5.28","3090555","co38506","norming","","","","","","",""
"3705.7349999959115","","","post_reveal_questions","survey-likert","208","897196","0.0-6.0-6.28","3090555","co38506","norming","","","{""aha"":0}","[0]","../img/tt/079tt.jpg","",""
"null","<div style=""font-size:60px;""> </div>","null","fixation","html-keyboard-response","209","897407","0.0-6.0-0.29","3090555","co38506","norming","","","","","","",""
"null","../img/tt/1200tt.jpg","null","mooney1","image-keyboard-response","210","900418","0.0-6.0-1.29","3090555","co38506","norming","","","","","","",""
"4440.514999994775","","","post_mooney1_questions","survey-likert","211","904861","0.0-6.0-2.29","3090555","co38506","norming","","","{""curiosity"":5,""confidence"":1}","[0,1]","../img/tt/1200tt.jpg","",""
"4813.4550000104355","","","recognition","survey-text","212","909676","0.0-6.0-3.29","3090555","co38506","norming","","","{""guess"":""eenden""}","","../img/tt/1200tt.jpg","",""
"null","../img/gs/1200gs.jpg","null","reveal","image-keyboard-response","213","911687","0.0-6.0-4.29","3090555","co38506","norming","","","","","","",""
"null","../img/tt/1200tt.jpg","null","mooney2","image-keyboard-response","214","913689","0.0-6.0-5.29","3090555","co38506","norming","","","","","","",""
"4402.68999998807","","","post_reveal_questions","survey-likert","215","918092","0.0-6.0-6.29","3090555","co38506","norming","","","{""aha"":5}","[0]","../img/tt/1200tt.jpg","",""
"null","<div style=""font-size:60px;""> </div>","null","fixation","html-keyboard-response","216","918294","0.0-6.0-0.30","3090555","co38506","norming","","","","","","",""
"null","../img/tt/1070tt.jpg","null","mooney1","image-keyboard-response","217","921304","0.0-6.0-1.30","3090555","co38506","norming","","","","","","",""
"4138.925000006566","","","post_mooney1_questions","survey-likert","218","925444","0.0-6.0-2.30","3090555","co38506","norming","","","{""curiosity"":5,""confidence"":1}","[0,1]","../img/tt/1070tt.jpg","",""
"9166.709999990417","","","recognition","survey-text","219","934612","0.0-6.0-3.30","3090555","co38506","norming","","","{""guess"":""maïs ""}","","../img/tt/1070tt.jpg","",""
"null","../img/gs/1070gs.jpg","null","reveal","image-keyboard-response","220","936622","0.0-6.0-4.30","3090555","co38506","norming","","","","","","",""
"null","../img/tt/1070tt.jpg","null","mooney2","image-keyboard-response","221","938626","0.0-6.0-5.30","3090555","co38506","norming","","","","","","",""
"2184.1399999975692","","","post_reveal_questions","survey-likert","222","940812","0.0-6.0-6.30","3090555","co38506","norming","","","{""aha"":4}","[0]","../img/tt/1070tt.jpg","",""
"null","<div style=""font-size:60px;""> </div>","null","fixation","html-keyboard-response","223","941013","0.0-6.0-0.31","3090555","co38506","norming","","","","","","",""
"null","../img/tt/442tt.jpg","null","mooney1","image-keyboard-response","224","944020","0.0-6.0-1.31","3090555","co38506","norming","","","","","","",""
"4357.895000008284","","","post_mooney1_questions","survey-likert","225","948387","0.0-6.0-2.31","3090555","co38506","norming","","","{""curiosity"":5,""confidence"":0}","[0,1]","../img/tt/442tt.jpg","",""
"565.8649999968475","","","recognition","survey-text","226","948955","0.0-6.0-3.31","3090555","co38506","norming","","","{""guess"":""""}","","../img/tt/442tt.jpg","",""
"null","../img/gs/442gs.jpg","null","reveal","image-keyboard-response","227","950961","0.0-6.0-4.31","3090555","co38506","norming","","","","","","",""
"null","../img/tt/442tt.jpg","null","mooney2","image-keyboard-response","228","952964","0.0-6.0-5.31","3090555","co38506","norming","","","","","","",""
"3131.2200000102166","","","post_reveal_questions","survey-likert","229","956099","0.0-6.0-6.31","3090555","co38506","norming","","","{""aha"":4}","[0]","../img/tt/442tt.jpg","",""
"null","<div style=""font-size:60px;""> </div>","null","fixation","html-keyboard-response","230","956300","0.0-6.0-0.32","3090555","co38506","norming","","","","","","",""
"null","../img/tt/1188tt.jpg","null","mooney1","image-keyboard-response","231","959308","0.0-6.0-1.32","3090555","co38506","norming","","","","","","",""
"4139.865000004647","","","post_mooney1_questions","survey-likert","232","963451","0.0-6.0-2.32","3090555","co38506","norming","","","{""curiosity"":1,""confidence"":6}","[0,1]","../img/tt/1188tt.jpg","",""
"5902.004999996279","","","recognition","survey-text","233","969355","0.0-6.0-3.32","3090555","co38506","norming","","","{""guess"":""wielrenner""}","","../img/tt/1188tt.jpg","",""
"null","../img/gs/1188gs.jpg","null","reveal","image-keyboard-response","234","971361","0.0-6.0-4.32","3090555","co38506","norming","","","","","","",""
"null","../img/tt/1188tt.jpg","null","mooney2","image-keyboard-response","235","973362","0.0-6.0-5.32","3090555","co38506","norming","","","","","","",""
"1750.3000000142492","","","post_reveal_questions","survey-likert","236","975115","0.0-6.0-6.32","3090555","co38506","norming","","","{""aha"":0}","[0]","../img/tt/1188tt.jpg","",""
"null","<div style=""font-size:60px;""> </div>","null","fixation","html-keyboard-response","237","975317","0.0-6.0-0.33","3090555","co38506","norming","","","","","","",""
"null","../img/tt/357tt.jpg","null","mooney1","image-keyboard-response","238","978320","0.0-6.0-1.33","3090555","co38506","norming","","","","","","",""
"4264.200000005076","","","post_mooney1_questions","survey-likert","239","982587","0.0-6.0-2.33","3090555","co38506","norming","","","{""curiosity"":1,""confidence"":6}","[0,1]","../img/tt/357tt.jpg","",""
"2446.155000012368","","","recognition","survey-text","240","985035","0.0-6.0-3.33","3090555","co38506","norming","","","{""guess"":""egel""}","","../img/tt/357tt.jpg","",""
"null","../img/gs/357gs.jpg","null","reveal","image-keyboard-response","241","987039","0.0-6.0-4.33","3090555","co38506","norming","","","","","","",""
"null","../img/tt/357tt.jpg","null","mooney2","image-keyboard-response","242","989045","0.0-6.0-5.33","3090555","co38506","norming","","","","","","",""
"1804.149999996298","","","post_reveal_questions","survey-likert","243","990851","0.0-6.0-6.33","3090555","co38506","norming","","","{""aha"":0}","[0]","../img/tt/357tt.jpg","",""
"null","<div style=""font-size:60px;""> </div>","null","fixation","html-keyboard-response","244","991052","0.0-6.0-0.34","3090555","co38506","norming","","","","","","",""
"null","../img/tt/496tt.jpg","null","mooney1","image-keyboard-response","245","994063","0.0-6.0-1.34","3090555","co38506","norming","","","","","","",""
"3336.80999999342","","","post_mooney1_questions","survey-likert","246","997403","0.0-6.0-2.34","3090555","co38506","norming","","","{""curiosity"":5,""confidence"":1}","[0,1]","../img/tt/496tt.jpg","",""
"2942.4250000010943","","","recognition","survey-text","247","1000347","0.0-6.0-3.34","3090555","co38506","norming","","","{""guess"":""varken""}","","../img/tt/496tt.jpg","",""
"null","../img/gs/496gs.jpg","null","reveal","image-keyboard-response","248","1002354","0.0-6.0-4.34","3090555","co38506","norming","","","","","","",""
"null","../img/tt/496tt.jpg","null","mooney2","image-keyboard-response","249","1004356","0.0-6.0-5.34","3090555","co38506","norming","","","","","","",""
"2676.644999999553","","","post_reveal_questions","survey-likert","250","1007037","0.0-6.0-6.34","3090555","co38506","norming","","","{""aha"":5}","[0]","../img/tt/496tt.jpg","",""
"null","<div style=""font-size:60px;""> </div>","null","fixation","html-keyboard-response","251","1007238","0.0-6.0-0.35","3090555","co38506","norming","","","","","","",""
"null","../img/tt/1279tt.jpg","null","mooney1","image-keyboard-response","252","1010244","0.0-6.0-1.35","3090555","co38506","norming","","","","","","",""
"4173.455000011018","","","post_mooney1_questions","survey-likert","253","1014421","0.0-6.0-2.35","3090555","co38506","norming","","","{""curiosity"":4,""confidence"":1}","[0,1]","../img/tt/1279tt.jpg","",""
"6342.165000009118","","","recognition","survey-text","254","1020765","0.0-6.0-3.35","3090555","co38506","norming","","","{""guess"":""paard ""}","","../img/tt/1279tt.jpg","",""
"null","../img/gs/1279gs.jpg","null","reveal","image-keyboard-response","255","1022772","0.0-6.0-4.35","3090555","co38506","norming","","","","","","",""
"null","../img/tt/1279tt.jpg","null","mooney2","image-keyboard-response","256","1024776","0.0-6.0-5.35","3090555","co38506","norming","","","","","","",""
"2939.3400000117254","","","post_reveal_questions","survey-likert","257","1027717","0.0-6.0-6.35","3090555","co38506","norming","","","{""aha"":4}","[0]","../img/tt/1279tt.jpg","",""
"null","<div style=""font-size:60px;""> </div>","null","fixation","html-keyboard-response","258","1027918","0.0-6.0-0.36","3090555","co38506","norming","","","","","","",""
"null","../img/tt/111tt.jpg","null","mooney1","image-keyboard-response","259","1030927","0.0-6.0-1.36","3090555","co38506","norming","","","","","","",""
"3827.290000001085","","","post_mooney1_questions","survey-likert","260","1034757","0.0-6.0-2.36","3090555","co38506","norming","","","{""curiosity"":4,""confidence"":1}","[0,1]","../img/tt/111tt.jpg","",""
"2502.1899999992456","","","recognition","survey-text","261","1037261","0.0-6.0-3.36","3090555","co38506","norming","","","{""guess"":""wijn""}","","../img/tt/111tt.jpg","",""
"null","../img/gs/111gs.jpg","null","reveal","image-keyboard-response","262","1039267","0.0-6.0-4.36","3090555","co38506","norming","","","","","","",""
"null","../img/tt/111tt.jpg","null","mooney2","image-keyboard-response","263","1041274","0.0-6.0-5.36","3090555","co38506","norming","","","","","","",""
"3064.2750000115484","","","post_reveal_questions","survey-likert","264","1044341","0.0-6.0-6.36","3090555","co38506","norming","","","{""aha"":5}","[0]","../img/tt/111tt.jpg","",""
"null","<div style=""font-size:60px;""> </div>","null","fixation","html-keyboard-response","265","1044542","0.0-6.0-0.37","3090555","co38506","norming","","","","","","",""
"null","../img/tt/1049tt.jpg","null","mooney1","image-keyboard-response","266","1047545","0.0-6.0-1.37","3090555","co38506","norming","","","","","","",""
"5121.099999989499","","","post_mooney1_questions","survey-likert","267","1052669","0.0-6.0-2.37","3090555","co38506","norming","","","{""curiosity"":5,""confidence"":1}","[0,1]","../img/tt/1049tt.jpg","",""
"5486.355000000913","","","recognition","survey-text","268","1058157","0.0-6.0-3.37","3090555","co38506","norming","","","{""guess"":""mand luchtballon""}","","../img/tt/1049tt.jpg","",""
"null","../img/gs/1049gs.jpg","null","reveal","image-keyboard-response","269","1060158","0.0-6.0-4.37","3090555","co38506","norming","","","","","","",""
"null","../img/tt/1049tt.jpg","null","mooney2","image-keyboard-response","270","1062160","0.0-6.0-5.37","3090555","co38506","norming","","","","","","",""
"2666.1400000012945","","","post_reveal_questions","survey-likert","271","1064829","0.0-6.0-6.37","3090555","co38506","norming","","","{""aha"":6}","[0]","../img/tt/1049tt.jpg","",""
"null","<div style=""font-size:60px;""> </div>","null","fixation","html-keyboard-response","272","1065031","0.0-6.0-0.38","3090555","co38506","norming","","","","","","",""
"null","../img/tt/1189tt.jpg","null","mooney1","image-keyboard-response","273","1068041","0.0-6.0-1.38","3090555","co38506","norming","","","","","","",""
"3617.9949999933597","","","post_mooney1_questions","survey-likert","274","1071662","0.0-6.0-2.38","3090555","co38506","norming","","","{""curiosity"":1,""confidence"":5}","[0,1]","../img/tt/1189tt.jpg","",""
"5645.720000000438","","","recognition","survey-text","275","1077310","0.0-6.0-3.38","3090555","co38506","norming","","","{""guess"":""zwemmer""}","","../img/tt/1189tt.jpg","",""
"null","../img/gs/1189gs.jpg","null","reveal","image-keyboard-response","276","1079312","0.0-6.0-4.38","3090555","co38506","norming","","","","","","",""
"null","../img/tt/1189tt.jpg","null","mooney2","image-keyboard-response","277","1081316","0.0-6.0-5.38","3090555","co38506","norming","","","","","","",""
"2039.5850000057835","","","post_reveal_questions","survey-likert","278","1083358","0.0-6.0-6.38","3090555","co38506","norming","","","{""aha"":1}","[0]","../img/tt/1189tt.jpg","",""
"null","<div style=""font-size:60px;""> </div>","null","fixation","html-keyboard-response","279","1083559","0.0-6.0-0.39","3090555","co38506","norming","","","","","","",""
"null","../img/tt/1048tt.jpg","null","mooney1","image-keyboard-response","280","1086566","0.0-6.0-1.39","3090555","co38506","norming","","","","","","",""
"5764.744999993127","","","post_mooney1_questions","survey-likert","281","1092334","0.0-6.0-2.39","3090555","co38506","norming","","","{""curiosity"":4,""confidence"":2}","[0,1]","../img/tt/1048tt.jpg","",""
"4269.944999992615","","","recognition","survey-text","282","1096606","0.0-6.0-3.39","3090555","co38506","norming","","","{""guess"":""bos bergen ""}","","../img/tt/1048tt.jpg","",""
"null","../img/gs/1048gs.jpg","null","reveal","image-keyboard-response","283","1098608","0.0-6.0-4.39","3090555","co38506","norming","","","","","","",""
"null","../img/tt/1048tt.jpg","null","mooney2","image-keyboard-response","284","1100619","0.0-6.0-5.39","3090555","co38506","norming","","","","","","",""
"4128.310000000056","","","post_reveal_questions","survey-likert","285","1104749","0.0-6.0-6.39","3090555","co38506","norming","","","{""aha"":3}","[0]","../img/tt/1048tt.jpg","",""
"null","<div style=""font-size:60px;""> </div>","null","fixation","html-keyboard-response","286","1104950","0.0-6.0-0.40","3090555","co38506","norming","","","","","","",""
"null","../img/tt/1217tt.jpg","null","mooney1","image-keyboard-response","287","1107959","0.0-6.0-1.40","3090555","co38506","norming","","","","","","",""
"5715.86499999091","","","post_mooney1_questions","survey-likert","288","1113678","0.0-6.0-2.40","3090555","co38506","norming","","","{""curiosity"":3,""confidence"":2}","[0,1]","../img/tt/1217tt.jpg","",""
"14486.059999995632","","","recognition","survey-text","289","1128158","0.0-6.0-3.40","3090555","co38506","norming","","","{""guess"":""lopers schaatsers""}","","../img/tt/1217tt.jpg","",""
"null","../img/gs/1217gs.jpg","null","reveal","image-keyboard-response","290","1130169","0.0-6.0-4.40","3090555","co38506","norming","","","","","","",""
"null","../img/tt/1217tt.jpg","null","mooney2","image-keyboard-response","291","1132176","0.0-6.0-5.40","3090555","co38506","norming","","","","","","",""
"1780.3950000088662","","","post_reveal_questions","survey-likert","292","1133958","0.0-6.0-6.40","3090555","co38506","norming","","","{""aha"":4}","[0]","../img/tt/1217tt.jpg","",""
"null","<div style=""font-size:60px;""> </div>","null","fixation","html-keyboard-response","293","1134168","0.0-6.0-0.41","3090555","co38506","norming","","","","","","",""
"null","../img/tt/405tt.jpg","null","mooney1","image-keyboard-response","294","1137171","0.0-6.0-1.41","3090555","co38506","norming","","","","","","",""
"4409.025000000838","","","post_mooney1_questions","survey-likert","295","1141583","0.0-6.0-2.41","3090555","co38506","norming","","","{""curiosity"":1,""confidence"":5}","[0,1]","../img/tt/405tt.jpg","",""
"1829.89999999688","","","recognition","survey-text","296","1143414","0.0-6.0-3.41","3090555","co38506","norming","","","{""guess"":""koala""}","","../img/tt/405tt.jpg","",""
"null","../img/gs/405gs.jpg","null","reveal","image-keyboard-response","297","1145423","0.0-6.0-4.41","3090555","co38506","norming","","","","","","",""
"null","../img/tt/405tt.jpg","null","mooney2","image-keyboard-response","298","1147426","0.0-6.0-5.41","3090555","co38506","norming","","","","","","",""
"2570.449999999255","","","post_reveal_questions","survey-likert","299","1149998","0.0-6.0-6.41","3090555","co38506","norming","","","{""aha"":1}","[0]","../img/tt/405tt.jpg","",""
"null","<div style=""font-size:60px;""> </div>","null","fixation","html-keyboard-response","300","1150209","0.0-6.0-0.42","3090555","co38506","norming","","","","","","",""
"null","../img/tt/1186tt.jpg","null","mooney1","image-keyboard-response","301","1153218","0.0-6.0-1.42","3090555","co38506","norming","","","","","","",""
"6241.810000006808","","","post_mooney1_questions","survey-likert","302","1159462","0.0-6.0-2.42","3090555","co38506","norming","","","{""curiosity"":2,""confidence"":2}","[0,1]","../img/tt/1186tt.jpg","",""
"7886.054999995511","","","recognition","survey-text","303","1167350","0.0-6.0-3.42","3090555","co38506","norming","","","{""guess"":""wandelaar bos""}","","../img/tt/1186tt.jpg","",""
"null","../img/gs/1186gs.jpg","null","reveal","image-keyboard-response","304","1169355","0.0-6.0-4.42","3090555","co38506","norming","","","","","","",""
"null","../img/tt/1186tt.jpg","null","mooney2","image-keyboard-response","305","1171359","0.0-6.0-5.42","3090555","co38506","norming","","","","","","",""
"2763.0750000097323","","","post_reveal_questions","survey-likert","306","1174127","0.0-6.0-6.42","3090555","co38506","norming","","","{""aha"":5}","[0]","../img/tt/1186tt.jpg","",""
"null","<div style=""font-size:60px;""> </div>","null","fixation","html-keyboard-response","307","1174328","0.0-6.0-0.43","3090555","co38506","norming","","","","","","",""
"null","../img/tt/1061tt.jpg","null","mooney1","image-keyboard-response","308","1177335","0.0-6.0-1.43","3090555","co38506","norming","","","","","","",""
"5772.955000007758","","","post_mooney1_questions","survey-likert","309","1183110","0.0-6.0-2.43","3090555","co38506","norming","","","{""curiosity"":3,""confidence"":2}","[0,1]","../img/tt/1061tt.jpg","",""
"6702.064999990398","","","recognition","survey-text","310","1189825","0.0-6.0-3.43","3090555","co38506","norming","","","{""guess"":""schaatsen""}","","../img/tt/1061tt.jpg","",""
"null","../img/gs/1061gs.jpg","null","reveal","image-keyboard-response","311","1191829","0.0-6.0-4.43","3090555","co38506","norming","","","","","","",""
"null","../img/tt/1061tt.jpg","null","mooney2","image-keyboard-response","312","1193831","0.0-6.0-5.43","3090555","co38506","norming","","","","","","",""
"1967.1050000034738","","","post_reveal_questions","survey-likert","313","1195801","0.0-6.0-6.43","3090555","co38506","norming","","","{""aha"":4}","[0]","../img/tt/1061tt.jpg","",""
"null","<div style=""font-size:60px;""> </div>","null","fixation","html-keyboard-response","314","1196002","0.0-6.0-0.44","3090555","co38506","norming","","","","","","",""
"null","../img/tt/1055tt.jpg","null","mooney1","image-keyboard-response","315","1199012","0.0-6.0-1.44","3090555","co38506","norming","","","","","","",""
"4800.31500000041","","","post_mooney1_questions","survey-likert","316","1203817","0.0-6.0-2.44","3090555","co38506","norming","","","{""curiosity"":5,""confidence"":1}","[0,1]","../img/tt/1055tt.jpg","",""
"2166.2450000005774","","","recognition","survey-text","317","1205985","0.0-6.0-3.44","3090555","co38506","norming","","","{""guess"":""kever""}","","../img/tt/1055tt.jpg","",""
"null","../img/gs/1055gs.jpg","null","reveal","image-keyboard-response","318","1207986","0.0-6.0-4.44","3090555","co38506","norming","","","","","","",""
"null","../img/tt/1055tt.jpg","null","mooney2","image-keyboard-response","319","1209988","0.0-6.0-5.44","3090555","co38506","norming","","","","","","",""
"1466.5749999987893","","","post_reveal_questions","survey-likert","320","1211457","0.0-6.0-6.44","3090555","co38506","norming","","","{""aha"":5}","[0]","../img/tt/1055tt.jpg","",""
"null","<div style=""font-size:60px;""> </div>","null","fixation","html-keyboard-response","321","1211657","0.0-6.0-0.45","3090555","co38506","norming","","","","","","",""
"null","../img/tt/121tt.jpg","null","mooney1","image-keyboard-response","322","1214661","0.0-6.0-1.45","3090555","co38506","norming","","","","","","",""
"3144.9849999914877","","","post_mooney1_questions","survey-likert","323","1217809","0.0-6.0-2.45","3090555","co38506","norming","","","{""curiosity"":1,""confidence"":5}","[0,1]","../img/tt/121tt.jpg","",""
"3582.340000008233","","","recognition","survey-text","324","1221393","0.0-6.0-3.45","3090555","co38506","norming","","","{""guess"":""kangoeroe""}","","../img/tt/121tt.jpg","",""
"null","../img/gs/121gs.jpg","null","reveal","image-keyboard-response","325","1223394","0.0-6.0-4.45","3090555","co38506","norming","","","","","","",""
"null","../img/tt/121tt.jpg","null","mooney2","image-keyboard-response","326","1225399","0.0-6.0-5.45","3090555","co38506","norming","","","","","","",""
"3366.6949999898206","","","post_reveal_questions","survey-likert","327","1228769","0.0-6.0-6.45","3090555","co38506","norming","","","{""aha"":1}","[0]","../img/tt/121tt.jpg","",""
"null","<div style=""font-size:60px;""> </div>","null","fixation","html-keyboard-response","328","1228974","0.0-6.0-0.46","3090555","co38506","norming","","","","","","",""
"null","../img/tt/603tt.jpg","null","mooney1","image-keyboard-response","329","1231976","0.0-6.0-1.46","3090555","co38506","norming","","","","","","",""
"7381.145000006538","","","post_mooney1_questions","survey-likert","330","1239361","0.0-6.0-2.46","3090555","co38506","norming","","","{""curiosity"":4,""confidence"":0}","[0,1]","../img/tt/603tt.jpg","",""
"1189.8749999965075","","","recognition","survey-text","331","1240552","0.0-6.0-3.46","3090555","co38506","norming","","","{""guess"":""""}","","../img/tt/603tt.jpg","",""
"null","../img/gs/603gs.jpg","null","reveal","image-keyboard-response","332","1242553","0.0-6.0-4.46","3090555","co38506","norming","","","","","","",""
"null","../img/tt/603tt.jpg","null","mooney2","image-keyboard-response","333","1244562","0.0-6.0-5.46","3090555","co38506","norming","","","","","","",""
"3100.5149999982677","","","post_reveal_questions","survey-likert","334","1247664","0.0-6.0-6.46","3090555","co38506","norming","","","{""aha"":4}","[0]","../img/tt/603tt.jpg","",""
"null","<div style=""font-size:60px;""> </div>","null","fixation","html-keyboard-response","335","1247869","0.0-6.0-0.47","3090555","co38506","norming","","","","","","",""
"null","../img/tt/358tt.jpg","null","mooney1","image-keyboard-response","336","1250877","0.0-6.0-1.47","3090555","co38506","norming","","","","","","",""
"3970.289999997476","","","post_mooney1_questions","survey-likert","337","1254850","0.0-6.0-2.47","3090555","co38506","norming","","","{""curiosity"":5,""confidence"":0}","[0,1]","../img/tt/358tt.jpg","",""
"693.6599999899045","","","recognition","survey-text","338","1255546","0.0-6.0-3.47","3090555","co38506","norming","","","{""guess"":""""}","","../img/tt/358tt.jpg","",""
"null","../img/gs/358gs.jpg","null","reveal","image-keyboard-response","339","1257553","0.0-6.0-4.47","3090555","co38506","norming","","","","","","",""
"null","../img/tt/358tt.jpg","null","mooney2","image-keyboard-response","340","1259555","0.0-6.0-5.47","3090555","co38506","norming","","","","","","",""
"2268.320000003092","","","post_reveal_questions","survey-likert","341","1261826","0.0-6.0-6.47","3090555","co38506","norming","","","{""aha"":5}","[0]","../img/tt/358tt.jpg","",""
"null","<div style=""font-size:60px;""> </div>","null","fixation","html-keyboard-response","342","1262027","0.0-6.0-0.48","3090555","co38506","norming","","","","","","",""
"null","../img/tt/1101tt.jpg","null","mooney1","image-keyboard-response","343","1265032","0.0-6.0-1.48","3090555","co38506","norming","","","","","","",""
"10991.420000005746","","","post_mooney1_questions","survey-likert","344","1276026","0.0-6.0-2.48","3090555","co38506","norming","","","{""curiosity"":3,""confidence"":3}","[0,1]","../img/tt/1101tt.jpg","",""
"5814.265000008047","","","recognition","survey-text","345","1281842","0.0-6.0-3.48","3090555","co38506","norming","","","{""guess"":""voetballer""}","","../img/tt/1101tt.jpg","",""
"null","../img/gs/1101gs.jpg","null","reveal","image-keyboard-response","346","1283844","0.0-6.0-4.48","3090555","co38506","norming","","","","","","",""
"null","../img/tt/1101tt.jpg","null","mooney2","image-keyboard-response","347","1285847","0.0-6.0-5.48","3090555","co38506","norming","","","","","","",""
"1520.8200000049546","","","post_reveal_questions","survey-likert","348","1287370","0.0-6.0-6.48","3090555","co38506","norming","","","{""aha"":3}","[0]","../img/tt/1101tt.jpg","",""
"null","<div style=""font-size:60px;""> </div>","null","fixation","html-keyboard-response","349","1287571","0.0-6.0-0.49","3090555","co38506","norming","","","","","","",""
"null","../img/tt/008tt.jpg","null","mooney1","image-keyboard-response","350","1290579","0.0-6.0-1.49","3090555","co38506","norming","","","","","","",""
"5076.194999987027","","","post_mooney1_questions","survey-likert","351","1295658","0.0-6.0-2.49","3090555","co38506","norming","","","{""curiosity"":4,""confidence"":3}","[0,1]","../img/tt/008tt.jpg","",""
"5045.999999987427","","","recognition","survey-text","352","1300706","0.0-6.0-3.49","3090555","co38506","norming","","","{""guess"":""jagen""}","","../img/tt/008tt.jpg","",""
"null","../img/gs/008gs.jpg","null","reveal","image-keyboard-response","353","1302713","0.0-6.0-4.49","3090555","co38506","norming","","","","","","",""
"null","../img/tt/008tt.jpg","null","mooney2","image-keyboard-response","354","1304720","0.0-6.0-5.49","3090555","co38506","norming","","","","","","",""
"1952.4649999949615","","","post_reveal_questions","survey-likert","355","1306674","0.0-6.0-6.49","3090555","co38506","norming","","","{""aha"":4}","[0]","../img/tt/008tt.jpg","",""
"null","<div style=""font-size:60px;""> </div>","null","fixation","html-keyboard-response","356","1306879","0.0-6.0-0.50","3090555","co38506","norming","","","","","","",""
"null","../img/tt/032tt.jpg","null","mooney1","image-keyboard-response","357","1309884","0.0-6.0-1.50","3090555","co38506","norming","","","","","","",""
"4690.719999998575","","","post_mooney1_questions","survey-likert","358","1314579","0.0-6.0-2.50","3090555","co38506","norming","","","{""curiosity"":4,""confidence"":0}","[0,1]","../img/tt/032tt.jpg","",""
"2686.1100000096485","","","recognition","survey-text","359","1317267","0.0-6.0-3.50","3090555","co38506","norming","","","{""guess"":""slang""}","","../img/tt/032tt.jpg","",""
"null","../img/gs/032gs.jpg","null","reveal","image-keyboard-response","360","1319278","0.0-6.0-4.50","3090555","co38506","norming","","","","","","",""
"null","../img/tt/032tt.jpg","null","mooney2","image-keyboard-response","361","1321280","0.0-6.0-5.50","3090555","co38506","norming","","","","","","",""
"1872.6299999980256","","","post_reveal_questions","survey-likert","362","1323155","0.0-6.0-6.50","3090555","co38506","norming","","","{""aha"":5}","[0]","../img/tt/032tt.jpg","",""
"null","<div style=""font-size:60px;""> </div>","null","fixation","html-keyboard-response","363","1323357","0.0-6.0-0.51","3090555","co38506","norming","","","","","","",""
"null","../img/tt/108tt.jpg","null","mooney1","image-keyboard-response","364","1326365","0.0-6.0-1.51","3090555","co38506","norming","","","","","","",""
"5186.75999999675","","","post_mooney1_questions","survey-likert","365","1331555","0.0-6.0-2.51","3090555","co38506","norming","","","{""curiosity"":4,""confidence"":0}","[0,1]","../img/tt/108tt.jpg","",""
"814.0249999999069","","","recognition","survey-text","366","1332371","0.0-6.0-3.51","3090555","co38506","norming","","","{""guess"":""""}","","../img/tt/108tt.jpg","",""
"null","../img/gs/108gs.jpg","null","reveal","image-keyboard-response","367","1334373","0.0-6.0-4.51","3090555","co38506","norming","","","","","","",""
"null","../img/tt/108tt.jpg","null","mooney2","image-keyboard-response","368","1336374","0.0-6.0-5.51","3090555","co38506","norming","","","","","","",""
"1954.8150000046007","","","post_reveal_questions","survey-likert","369","1338331","0.0-6.0-6.51","3090555","co38506","norming","","","{""aha"":5}","[0]","../img/tt/108tt.jpg","",""
"null","<div style=""font-size:60px;""> </div>","null","fixation","html-keyboard-response","370","1338533","0.0-6.0-0.52","3090555","co38506","norming","","","","","","",""
"null","../img/tt/1143tt.jpg","null","mooney1","image-keyboard-response","371","1341541","0.0-6.0-1.52","3090555","co38506","norming","","","","","","",""
"5203.535000008065","","","post_mooney1_questions","survey-likert","372","1346747","0.0-6.0-2.52","3090555","co38506","norming","","","{""curiosity"":1,""confidence"":5}","[0,1]","../img/tt/1143tt.jpg","",""
"7718.364999993471","","","recognition","survey-text","373","1354467","0.0-6.0-3.52","3090555","co38506","norming","","","{""guess"":""fitness fietser""}","","../img/tt/1143tt.jpg","",""
"null","../img/gs/1143gs.jpg","null","reveal","image-keyboard-response","374","1356475","0.0-6.0-4.52","3090555","co38506","norming","","","","","","",""
"null","../img/tt/1143tt.jpg","null","mooney2","image-keyboard-response","375","1358483","0.0-6.0-5.52","3090555","co38506","norming","","","","","","",""
"2189.919999989681","","","post_reveal_questions","survey-likert","376","1360675","0.0-6.0-6.52","3090555","co38506","norming","","","{""aha"":1}","[0]","../img/tt/1143tt.jpg","",""
"null","<div style=""font-size:60px;""> </div>","null","fixation","html-keyboard-response","377","1360877","0.0-6.0-0.53","3090555","co38506","norming","","","","","","",""
"null","../img/tt/319tt.jpg","null","mooney1","image-keyboard-response","378","1363886","0.0-6.0-1.53","3090555","co38506","norming","","","","","","",""
"4075.589999992866","","","post_mooney1_questions","survey-likert","379","1367963","0.0-6.0-2.53","3090555","co38506","norming","","","{""curiosity"":1,""confidence"":6}","[0,1]","../img/tt/319tt.jpg","",""
"2918.2949999957345","","","recognition","survey-text","380","1370883","0.0-6.0-3.53","3090555","co38506","norming","","","{""guess"":""ezels""}","","../img/tt/319tt.jpg","",""
"null","../img/gs/319gs.jpg","null","reveal","image-keyboard-response","381","1372887","0.0-6.0-4.53","3090555","co38506","norming","","","","","","",""
"null","../img/tt/319tt.jpg","null","mooney2","image-keyboard-response","382","1374897","0.0-6.0-5.53","3090555","co38506","norming","","","","","","",""
"3144.7699999990873","","","post_reveal_questions","survey-likert","383","1378044","0.0-6.0-6.53","3090555","co38506","norming","","","{""aha"":0}","[0]","../img/tt/319tt.jpg","",""
"null","<div style=""font-size:60px;""> </div>","null","fixation","html-keyboard-response","384","1378246","0.0-6.0-0.54","3090555","co38506","norming","","","","","","",""
"null","../img/tt/1024tt.jpg","null","mooney1","image-keyboard-response","385","1381251","0.0-6.0-1.54","3090555","co38506","norming","","","","","","",""
"5174.7349999931175","","","post_mooney1_questions","survey-likert","386","1386429","0.0-6.0-2.54","3090555","co38506","norming","","","{""curiosity"":4,""confidence"":2}","[0,1]","../img/tt/1024tt.jpg","",""
"9397.90500000515","","","recognition","survey-text","387","1395829","0.0-6.0-3.54","3090555","co38506","norming","","","{""guess"":""rolstoel basketbal""}","","../img/tt/1024tt.jpg","",""
"null","../img/gs/1024gs.jpg","null","reveal","image-keyboard-response","388","1397830","0.0-6.0-4.54","3090555","co38506","norming","","","","","","",""
"null","../img/tt/1024tt.jpg","null","mooney2","image-keyboard-response","389","1399837","0.0-6.0-5.54","3090555","co38506","norming","","","","","","",""
"1603.3999999926891","","","post_reveal_questions","survey-likert","390","1401445","0.0-6.0-6.54","3090555","co38506","norming","","","{""aha"":6}","[0]","../img/tt/1024tt.jpg","",""
"null","<div style=""font-size:60px;""> </div>","null","fixation","html-keyboard-response","391","1401646","0.0-6.0-0.55","3090555","co38506","norming","","","","","","",""
"null","../img/tt/1241tt.jpg","null","mooney1","image-keyboard-response","392","1404653","0.0-6.0-1.55","3090555","co38506","norming","","","","","","",""
"5180.389999994077","","","post_mooney1_questions","survey-likert","393","1409837","0.0-6.0-2.55","3090555","co38506","norming","","","{""curiosity"":2,""confidence"":4}","[0,1]","../img/tt/1241tt.jpg","",""
"5270.1949999900535","","","recognition","survey-text","394","1415109","0.0-6.0-3.55","3090555","co38506","norming","","","{""guess"":""leeuw kat""}","","../img/tt/1241tt.jpg","",""
"null","../img/gs/1241gs.jpg","null","reveal","image-keyboard-response","395","1417110","0.0-6.0-4.55","3090555","co38506","norming","","","","","","",""
"null","../img/tt/1241tt.jpg","null","mooney2","image-keyboard-response","396","1419120","0.0-6.0-5.55","3090555","co38506","norming","","","","","","",""
"1945.9950000017416","","","post_reveal_questions","survey-likert","397","1421069","0.0-6.0-6.55","3090555","co38506","norming","","","{""aha"":5}","[0]","../img/tt/1241tt.jpg","",""
"null","<div style=""font-size:60px;""> </div>","null","fixation","html-keyboard-response","398","1421272","0.0-6.0-0.56","3090555","co38506","norming","","","","","","",""
"null","../img/tt/1202tt.jpg","null","mooney1","image-keyboard-response","399","1424280","0.0-6.0-1.56","3090555","co38506","norming","","","","","","",""
"5003.30499999132","","","post_mooney1_questions","survey-likert","400","1429285","0.0-6.0-2.56","3090555","co38506","norming","","","{""curiosity"":3,""confidence"":1}","[0,1]","../img/tt/1202tt.jpg","",""
"9485.945000007516","","","recognition","survey-text","401","1438774","0.0-6.0-3.56","3090555","co38506","norming","","","{""guess"":""hutje ""}","","../img/tt/1202tt.jpg","",""
"null","../img/gs/1202gs.jpg","null","reveal","image-keyboard-response","402","1440784","0.0-6.0-4.56","3090555","co38506","norming","","","","","","",""
"null","../img/tt/1202tt.jpg","null","mooney2","image-keyboard-response","403","1442788","0.0-6.0-5.56","3090555","co38506","norming","","","","","","",""
"1960.890000001993","","","post_reveal_questions","survey-likert","404","1444750","0.0-6.0-6.56","3090555","co38506","norming","","","{""aha"":6}","[0]","../img/tt/1202tt.jpg","",""
"null","<div style=""font-size:60px;""> </div>","null","fixation","html-keyboard-response","405","1444951","0.0-6.0-0.57","3090555","co38506","norming","","","","","","",""
"null","../img/tt/080tt.jpg","null","mooney1","image-keyboard-response","406","1447956","0.0-6.0-1.57","3090555","co38506","norming","","","","","","",""
"3590.909999998985","","","post_mooney1_questions","survey-likert","407","1451550","0.0-6.0-2.57","3090555","co38506","norming","","","{""curiosity"":4,""confidence"":3}","[0,1]","../img/tt/080tt.jpg","",""
"3910.0949999992736","","","recognition","survey-text","408","1455462","0.0-6.0-3.57","3090555","co38506","norming","","","{""guess"":""paddestoel""}","","../img/tt/080tt.jpg","",""
"null","../img/gs/080gs.jpg","null","reveal","image-keyboard-response","409","1457466","0.0-6.0-4.57","3090555","co38506","norming","","","","","","",""
"null","../img/tt/080tt.jpg","null","mooney2","image-keyboard-response","410","1459469","0.0-6.0-5.57","3090555","co38506","norming","","","","","","",""
"2070.4549999935552","","","post_reveal_questions","survey-likert","411","1461542","0.0-6.0-6.57","3090555","co38506","norming","","","{""aha"":4}","[0]","../img/tt/080tt.jpg","",""
"null","<div style=""font-size:60px;""> </div>","null","fixation","html-keyboard-response","412","1461745","0.0-6.0-0.58","3090555","co38506","norming","","","","","","",""
"null","../img/tt/091tt.jpg","null","mooney1","image-keyboard-response","413","1464750","0.0-6.0-1.58","3090555","co38506","norming","","","","","","",""
"3854.804999995511","","","post_mooney1_questions","survey-likert","414","1468606","0.0-6.0-2.58","3090555","co38506","norming","","","{""curiosity"":4,""confidence"":2}","[0,1]","../img/tt/091tt.jpg","",""
"5846.219999992056","","","recognition","survey-text","415","1474454","0.0-6.0-3.58","3090555","co38506","norming","","","{""guess"":""zeehond zeeleeuw""}","","../img/tt/091tt.jpg","",""
"null","../img/gs/091gs.jpg","null","reveal","image-keyboard-response","416","1476461","0.0-6.0-4.58","3090555","co38506","norming","","","","","","",""
"null","../img/tt/091tt.jpg","null","mooney2","image-keyboard-response","417","1478464","0.0-6.0-5.58","3090555","co38506","norming","","","","","","",""
"1691.0950000020675","","","post_reveal_questions","survey-likert","418","1480158","0.0-6.0-6.58","3090555","co38506","norming","","","{""aha"":5}","[0]","../img/tt/091tt.jpg","",""
"null","<div style=""font-size:60px;""> </div>","null","fixation","html-keyboard-response","419","1480358","0.0-6.0-0.59","3090555","co38506","norming","","","","","","",""
"null","../img/tt/1255tt.jpg","null","mooney1","image-keyboard-response","420","1483365","0.0-6.0-1.59","3090555","co38506","norming","","","","","","",""
"4574.164999998175","","","post_mooney1_questions","survey-likert","421","1487942","0.0-6.0-2.59","3090555","co38506","norming","","","{""curiosity"":5,""confidence"":0}","[0,1]","../img/tt/1255tt.jpg","",""
"1302.1000000007916","","","recognition","survey-text","422","1489246","0.0-6.0-3.59","3090555","co38506","norming","","","{""guess"":""""}","","../img/tt/1255tt.jpg","",""
"null","../img/gs/1255gs.jpg","null","reveal","image-keyboard-response","423","1491254","0.0-6.0-4.59","3090555","co38506","norming","","","","","","",""
"null","../img/tt/1255tt.jpg","null","mooney2","image-keyboard-response","424","1493263","0.0-6.0-5.59","3090555","co38506","norming","","","","","","",""
"1364.77500000922","","","post_reveal_questions","survey-likert","425","1494628","0.0-6.0-6.59","3090555","co38506","norming","","","{""aha"":6}","[0]","../img/tt/1255tt.jpg","",""
"null","<div style=""font-size:60px;""> </div>","null","fixation","html-keyboard-response","426","1494829","0.0-6.0-0.60","3090555","co38506","norming","","","","","","",""
"null","../img/tt/1040tt.jpg","null","mooney1","image-keyboard-response","427","1497833","0.0-6.0-1.60","3090555","co38506","norming","","","","","","",""
"3919.970000002533","","","post_mooney1_questions","survey-likert","428","1501756","0.0-6.0-2.60","3090555","co38506","norming","","","{""curiosity"":5,""confidence"":2}","[0,1]","../img/tt/1040tt.jpg","",""
"4006.1399999975692","","","recognition","survey-text","429","1505764","0.0-6.0-3.60","3090555","co38506","norming","","","{""guess"":""olifant""}","","../img/tt/1040tt.jpg","",""
"null","../img/gs/1040gs.jpg","null","reveal","image-keyboard-response","430","1507766","0.0-6.0-4.60","3090555","co38506","norming","","","","","","",""
"null","../img/tt/1040tt.jpg","null","mooney2","image-keyboard-response","431","1509768","0.0-6.0-5.60","3090555","co38506","norming","","","","","","",""
"3402.0600000075065","","","post_reveal_questions","survey-likert","432","1513172","0.0-6.0-6.60","3090555","co38506","norming","","","{""aha"":5}","[0]","../img/tt/1040tt.jpg","",""
"null","<div style=""font-size:60px;""> </div>","null","fixation","html-keyboard-response","433","1513378","0.0-6.0-0.61","3090555","co38506","norming","","","","","","",""
"null","../img/tt/140tt.jpg","null","mooney1","image-keyboard-response","434","1516382","0.0-6.0-1.61","3090555","co38506","norming","","","","","","",""
"3419.4649999991525","","","post_mooney1_questions","survey-likert","435","1519804","0.0-6.0-2.61","3090555","co38506","norming","","","{""curiosity"":1,""confidence"":6}","[0,1]","../img/tt/140tt.jpg","",""
"4870.165000000503","","","recognition","survey-text","436","1524676","0.0-6.0-3.61","3090555","co38506","norming","","","{""guess"":""2 vorken""}","","../img/tt/140tt.jpg","",""
"null","../img/gs/140gs.jpg","null","reveal","image-keyboard-response","437","1526684","0.0-6.0-4.61","3090555","co38506","norming","","","","","","",""
"null","../img/tt/140tt.jpg","null","mooney2","image-keyboard-response","438","1528692","0.0-6.0-5.61","3090555","co38506","norming","","","","","","",""
"2669.829999999143","","","post_reveal_questions","survey-likert","439","1531364","0.0-6.0-6.61","3090555","co38506","norming","","","{""aha"":1}","[0]","../img/tt/140tt.jpg","",""
"null","<div style=""font-size:60px;""> </div>","null","fixation","html-keyboard-response","440","1531566","0.0-6.0-0.62","3090555","co38506","norming","","","","","","",""
"null","../img/tt/040tt.jpg","null","mooney1","image-keyboard-response","441","1534576","0.0-6.0-1.62","3090555","co38506","norming","","","","","","",""
"3784.610000002198","","","post_mooney1_questions","survey-likert","442","1538364","0.0-6.0-2.62","3090555","co38506","norming","","","{""curiosity"":5,""confidence"":0}","[0,1]","../img/tt/040tt.jpg","",""
"1438.109999988228","","","recognition","survey-text","443","1539804","0.0-6.0-3.62","3090555","co38506","norming","","","{""guess"":""""}","","../img/tt/040tt.jpg","",""
"null","../img/gs/040gs.jpg","null","reveal","image-keyboard-response","444","1541814","0.0-6.0-4.62","3090555","co38506","norming","","","","","","",""
"null","../img/tt/040tt.jpg","null","mooney2","image-keyboard-response","445","1543817","0.0-6.0-5.62","3090555","co38506","norming","","","","","","",""
"2376.329999999143","","","post_reveal_questions","survey-likert","446","1546196","0.0-6.0-6.62","3090555","co38506","norming","","","{""aha"":5}","[0]","../img/tt/040tt.jpg","",""
"null","<div style=""font-size:60px;""> </div>","null","fixation","html-keyboard-response","447","1546402","0.0-6.0-0.63","3090555","co38506","norming","","","","","","",""
"null","../img/tt/1033tt.jpg","null","mooney1","image-keyboard-response","448","1549412","0.0-6.0-1.63","3090555","co38506","norming","","","","","","",""
"3565.195000002859","","","post_mooney1_questions","survey-likert","449","1552980","0.0-6.0-2.63","3090555","co38506","norming","","","{""curiosity"":3,""confidence"":2}","[0,1]","../img/tt/1033tt.jpg","",""
"5326.140000004787","","","recognition","survey-text","450","1558311","0.0-6.0-3.63","3090555","co38506","norming","","","{""guess"":""geweer ""}","","../img/tt/1033tt.jpg","",""
"null","../img/gs/1033gs.jpg","null","reveal","image-keyboard-response","451","1560313","0.0-6.0-4.63","3090555","co38506","norming","","","","","","",""
"null","../img/tt/1033tt.jpg","null","mooney2","image-keyboard-response","452","1562315","0.0-6.0-5.63","3090555","co38506","norming","","","","","","",""
"1576.7849999975879","","","post_reveal_questions","survey-likert","453","1563895","0.0-6.0-6.63","3090555","co38506","norming","","","{""aha"":5}","[0]","../img/tt/1033tt.jpg","",""
"null","<div style=""font-size:60px;""> </div>","null","fixation","html-keyboard-response","454","1564096","0.0-6.0-0.64","3090555","co38506","norming","","","","","","",""
"null","../img/tt/1125tt.jpg","null","mooney1","image-keyboard-response","455","1567103","0.0-6.0-1.64","3090555","co38506","norming","","","","","","",""
"6292.31999999308","","","post_mooney1_questions","survey-likert","456","1573399","0.0-6.0-2.64","3090555","co38506","norming","","","{""curiosity"":5,""confidence"":0}","[0,1]","../img/tt/1125tt.jpg","",""
"838.0949999990407","","","recognition","survey-text","457","1574239","0.0-6.0-3.64","3090555","co38506","norming","","","{""guess"":""""}","","../img/tt/1125tt.jpg","",""
"null","../img/gs/1125gs.jpg","null","reveal","image-keyboard-response","458","1576242","0.0-6.0-4.64","3090555","co38506","norming","","","","","","",""
"null","../img/tt/1125tt.jpg","null","mooney2","image-keyboard-response","459","1578248","0.0-6.0-5.64","3090555","co38506","norming","","","","","","",""
"2004.7950000008568","","","post_reveal_questions","survey-likert","460","1580255","0.0-6.0-6.64","3090555","co38506","norming","","","{""aha"":5}","[0]","../img/tt/1125tt.jpg","",""
"null","<div style=""font-size:60px;""> </div>","null","fixation","html-keyboard-response","461","1580456","0.0-6.0-0.65","3090555","co38506","norming","","","","","","",""
"null","../img/tt/273tt.jpg","null","mooney1","image-keyboard-response","462","1583462","0.0-6.0-1.65","3090555","co38506","norming","","","","","","",""
"6893.750000002794","","","post_mooney1_questions","survey-likert","463","1590359","0.0-6.0-2.65","3090555","co38506","norming","","","{""curiosity"":5,""confidence"":0}","[0,1]","../img/tt/273tt.jpg","",""
"9725.740000009071","","","recognition","survey-text","464","1600087","0.0-6.0-3.65","3090555","co38506","norming","","","{""guess"":""binnenkant auto""}","","../img/tt/273tt.jpg","",""
"null","../img/gs/273gs.jpg","null","reveal","image-keyboard-response","465","1602088","0.0-6.0-4.65","3090555","co38506","norming","","","","","","",""
"null","../img/tt/273tt.jpg","null","mooney2","image-keyboard-response","466","1604092","0.0-6.0-5.65","3090555","co38506","norming","","","","","","",""
"2281.42499999376","","","post_reveal_questions","survey-likert","467","1606375","0.0-6.0-6.65","3090555","co38506","norming","","","{""aha"":6}","[0]","../img/tt/273tt.jpg","",""
"null","<div style=""font-size:60px;""> </div>","null","fixation","html-keyboard-response","468","1606576","0.0-6.0-0.66","3090555","co38506","norming","","","","","","",""
"null","../img/tt/1148tt.jpg","null","mooney1","image-keyboard-response","469","1609587","0.0-6.0-1.66","3090555","co38506","norming","","","","","","",""
"7240.9600000099745","","","post_mooney1_questions","survey-likert","470","1616830","0.0-6.0-2.66","3090555","co38506","norming","","","{""curiosity"":5,""confidence"":2}","[0,1]","../img/tt/1148tt.jpg","",""
"10358.070000001928","","","recognition","survey-text","471","1627190","0.0-6.0-3.66","3090555","co38506","norming","","","{""guess"":""fietsers ""}","","../img/tt/1148tt.jpg","",""
"null","../img/gs/1148gs.jpg","null","reveal","image-keyboard-response","472","1629195","0.0-6.0-4.66","3090555","co38506","norming","","","","","","",""
"null","../img/tt/1148tt.jpg","null","mooney2","image-keyboard-response","473","1631198","0.0-6.0-5.66","3090555","co38506","norming","","","","","","",""
"3260.510000007227","","","post_reveal_questions","survey-likert","474","1634462","0.0-6.0-6.66","3090555","co38506","norming","","","{""aha"":5}","[0]","../img/tt/1148tt.jpg","",""
"null","<div style=""font-size:60px;""> </div>","null","fixation","html-keyboard-response","475","1634668","0.0-6.0-0.67","3090555","co38506","norming","","","","","","",""
"null","../img/tt/315tt.jpg","null","mooney1","image-keyboard-response","476","1637674","0.0-6.0-1.67","3090555","co38506","norming","","","","","","",""
"5656.52999999281","","","post_mooney1_questions","survey-likert","477","1643334","0.0-6.0-2.67","3090555","co38506","norming","","","{""curiosity"":4,""confidence"":0}","[0,1]","../img/tt/315tt.jpg","",""
"789.9199999955017","","","recognition","survey-text","478","1644125","0.0-6.0-3.67","3090555","co38506","norming","","","{""guess"":""""}","","../img/tt/315tt.jpg","",""
"null","../img/gs/315gs.jpg","null","reveal","image-keyboard-response","479","1646127","0.0-6.0-4.67","3090555","co38506","norming","","","","","","",""
"null","../img/tt/315tt.jpg","null","mooney2","image-keyboard-response","480","1648131","0.0-6.0-5.67","3090555","co38506","norming","","","","","","",""
"1809.7899999993388","","","post_reveal_questions","survey-likert","481","1649942","0.0-6.0-6.67","3090555","co38506","norming","","","{""aha"":3}","[0]","../img/tt/315tt.jpg","",""
"null","<div style=""font-size:60px;""> </div>","null","fixation","html-keyboard-response","482","1650149","0.0-6.0-0.68","3090555","co38506","norming","","","","","","",""
"null","../img/tt/1123tt.jpg","null","mooney1","image-keyboard-response","483","1653155","0.0-6.0-1.68","3090555","co38506","norming","","","","","","",""
"5977.155000000494","","","post_mooney1_questions","survey-likert","484","1659134","0.0-6.0-2.68","3090555","co38506","norming","","","{""curiosity"":2,""confidence"":2}","[0,1]","../img/tt/1123tt.jpg","",""
"9533.660000000848","","","recognition","survey-text","485","1668669","0.0-6.0-3.68","3090555","co38506","norming","","","{""guess"":""basketballer voetballer""}","","../img/tt/1123tt.jpg","",""
"null","../img/gs/1123gs.jpg","null","reveal","image-keyboard-response","486","1670673","0.0-6.0-4.68","3090555","co38506","norming","","","","","","",""
"null","../img/tt/1123tt.jpg","null","mooney2","image-keyboard-response","487","1672676","0.0-6.0-5.68","3090555","co38506","norming","","","","","","",""
"2495.0399999944493","","","post_reveal_questions","survey-likert","488","1675173","0.0-6.0-6.68","3090555","co38506","norming","","","{""aha"":4}","[0]","../img/tt/1123tt.jpg","",""
"null","<div style=""font-size:60px;""> </div>","null","fixation","html-keyboard-response","489","1675375","0.0-6.0-0.69","3090555","co38506","norming","","","","","","",""
"null","../img/tt/019tt.jpg","null","mooney1","image-keyboard-response","490","1678390","0.0-6.0-1.69","3090555","co38506","norming","","","","","","",""
"3466.8549999913666","","","post_mooney1_questions","survey-likert","491","1681859","0.0-6.0-2.69","3090555","co38506","norming","","","{""curiosity"":3,""confidence"":0}","[0,1]","../img/tt/019tt.jpg","",""
"566.1300000066403","","","recognition","survey-text","492","1682427","0.0-6.0-3.69","3090555","co38506","norming","","","{""guess"":""""}","","../img/tt/019tt.jpg","",""
"null","../img/gs/019gs.jpg","null","reveal","image-keyboard-response","493","1684428","0.0-6.0-4.69","3090555","co38506","norming","","","","","","",""
"null","../img/tt/019tt.jpg","null","mooney2","image-keyboard-response","494","1686430","0.0-6.0-5.69","3090555","co38506","norming","","","","","","",""
"1906.2149999954272","","","post_reveal_questions","survey-likert","495","1688339","0.0-6.0-6.69","3090555","co38506","norming","","","{""aha"":4}","[0]","../img/tt/019tt.jpg","",""
"null","<div style=""font-size:60px;""> </div>","null","fixation","html-keyboard-response","496","1688541","0.0-6.0-0.70","3090555","co38506","norming","","","","","","",""
"null","../img/tt/329tt.jpg","null","mooney1","image-keyboard-response","497","1691550","0.0-6.0-1.70","3090555","co38506","norming","","","","","","",""
"13305.809999990743","","","post_mooney1_questions","survey-likert","498","1704859","0.0-6.0-2.70","3090555","co38506","norming","","","{""curiosity"":4,""confidence"":1}","[0,1]","../img/tt/329tt.jpg","",""
"1069.920000008773","","","recognition","survey-text","499","1705931","0.0-6.0-3.70","3090555","co38506","norming","","","{""guess"":""""}","","../img/tt/329tt.jpg","",""
"null","../img/gs/329gs.jpg","null","reveal","image-keyboard-response","500","1707937","0.0-6.0-4.70","3090555","co38506","norming","","","","","","",""
"null","../img/tt/329tt.jpg","null","mooney2","image-keyboard-response","501","1709939","0.0-6.0-5.70","3090555","co38506","norming","","","","","","",""
"1997.2899999995716","","","post_reveal_questions","survey-likert","502","1711939","0.0-6.0-6.70","3090555","co38506","norming","","","{""aha"":5}","[0]","../img/tt/329tt.jpg","",""
"null","<div style=""font-size:60px;""> </div>","null","fixation","html-keyboard-response","503","1712147","0.0-6.0-0.71","3090555","co38506","norming","","","","","","",""
"null","../img/tt/590tt.jpg","null","mooney1","image-keyboard-response","504","1715151","0.0-6.0-1.71","3090555","co38506","norming","","","","","","",""
"3729.065000006929","","","post_mooney1_questions","survey-likert","505","1718883","0.0-6.0-2.71","3090555","co38506","norming","","","{""curiosity"":4,""confidence"":2}","[0,1]","../img/tt/590tt.jpg","",""
"6102.434999993537","","","recognition","survey-text","506","1724987","0.0-6.0-3.71","3090555","co38506","norming","","","{""guess"":""schoolbank leerling""}","","../img/tt/590tt.jpg","",""
"null","../img/gs/590gs.jpg","null","reveal","image-keyboard-response","507","1726993","0.0-6.0-4.71","3090555","co38506","norming","","","","","","",""
"null","../img/tt/590tt.jpg","null","mooney2","image-keyboard-response","508","1729002","0.0-6.0-5.71","3090555","co38506","norming","","","","","","",""
"1542.524999997113","","","post_reveal_questions","survey-likert","509","1730547","0.0-6.0-6.71","3090555","co38506","norming","","","{""aha"":5}","[0]","../img/tt/590tt.jpg","",""
"null","<div style=""font-size:60px;""> </div>","null","fixation","html-keyboard-response","510","1730748","0.0-6.0-0.72","3090555","co38506","norming","","","","","","",""
"null","../img/tt/124tt.jpg","null","mooney1","image-keyboard-response","511","1733749","0.0-6.0-1.72","3090555","co38506","norming","","","","","","",""
"4330.7099999948405","","","post_mooney1_questions","survey-likert","512","1738083","0.0-6.0-2.72","3090555","co38506","norming","","","{""curiosity"":1,""confidence"":5}","[0,1]","../img/tt/124tt.jpg","",""
"11318.274999997811","","","recognition","survey-text","513","1749402","0.0-6.0-3.72","3090555","co38506","norming","","","{""guess"":""gorilla aap""}","","../img/tt/124tt.jpg","",""
"null","../img/gs/124gs.jpg","null","reveal","image-keyboard-response","514","1751403","0.0-6.0-4.72","3090555","co38506","norming","","","","","","",""
"null","../img/tt/124tt.jpg","null","mooney2","image-keyboard-response","515","1753404","0.0-6.0-5.72","3090555","co38506","norming","","","","","","",""
"1635.0200000016484","","","post_reveal_questions","survey-likert","516","1755042","0.0-6.0-6.72","3090555","co38506","norming","","","{""aha"":1}","[0]","../img/tt/124tt.jpg","",""
"null","<div style=""font-size:60px;""> </div>","null","fixation","html-keyboard-response","517","1755243","0.0-6.0-0.73","3090555","co38506","norming","","","","","","",""
"null","../img/tt/1251tt.jpg","null","mooney1","image-keyboard-response","518","1758249","0.0-6.0-1.73","3090555","co38506","norming","","","","","","",""
"5749.859999996144","","","post_mooney1_questions","survey-likert","519","1764002","0.0-6.0-2.73","3090555","co38506","norming","","","{""curiosity"":4,""confidence"":1}","[0,1]","../img/tt/1251tt.jpg","",""
"1045.8350000116043","","","recognition","survey-text","520","1765050","0.0-6.0-3.73","3090555","co38506","norming","","","{""guess"":""""}","","../img/tt/1251tt.jpg","",""
"null","../img/gs/1251gs.jpg","null","reveal","image-keyboard-response","521","1767060","0.0-6.0-4.73","3090555","co38506","norming","","","","","","",""
"null","../img/tt/1251tt.jpg","null","mooney2","image-keyboard-response","522","1769072","0.0-6.0-5.73","3090555","co38506","norming","","","","","","",""
"3279.1100000031292","","","post_reveal_questions","survey-likert","523","1772354","0.0-6.0-6.73","3090555","co38506","norming","","","{""aha"":3}","[0]","../img/tt/1251tt.jpg","",""
"null","<div style=""font-size:60px;""> </div>","null","fixation","html-keyboard-response","524","1772556","0.0-6.0-0.74","3090555","co38506","norming","","","","","","",""
"null","../img/tt/1096tt.jpg","null","mooney1","image-keyboard-response","525","1775563","0.0-6.0-1.74","3090555","co38506","norming","","","","","","",""
"4042.9949999961536","","","post_mooney1_questions","survey-likert","526","1779610","0.0-6.0-2.74","3090555","co38506","norming","","","{""curiosity"":3,""confidence"":0}","[0,1]","../img/tt/1096tt.jpg","",""
"550.0250000040978","","","recognition","survey-text","527","1780162","0.0-6.0-3.74","3090555","co38506","norming","","","{""guess"":""""}","","../img/tt/1096tt.jpg","",""
"null","../img/gs/1096gs.jpg","null","reveal","image-keyboard-response","528","1782163","0.0-6.0-4.74","3090555","co38506","norming","","","","","","",""
"null","../img/tt/1096tt.jpg","null","mooney2","image-keyboard-response","529","1784166","0.0-6.0-5.74","3090555","co38506","norming","","","","","","",""
"1945.7300000067335","","","post_reveal_questions","survey-likert","530","1786114","0.0-6.0-6.74","3090555","co38506","norming","","","{""aha"":4}","[0]","../img/tt/1096tt.jpg","",""
"null","<div style=""font-size:60px;""> </div>","null","fixation","html-keyboard-response","531","1786315","0.0-6.0-0.75","3090555","co38506","norming","","","","","","",""
"null","../img/tt/1237tt.jpg","null","mooney1","image-keyboard-response","532","1789321","0.0-6.0-1.75","3090555","co38506","norming","","","","","","",""
"3917.825000011362","","","post_mooney1_questions","survey-likert","533","1793242","0.0-6.0-2.75","3090555","co38506","norming","","","{""curiosity"":3,""confidence"":3}","[0,1]","../img/tt/1237tt.jpg","",""
"5006.045000001788","","","recognition","survey-text","534","1798250","0.0-6.0-3.75","3090555","co38506","norming","","","{""guess"":""eend gans""}","","../img/tt/1237tt.jpg","",""
"null","../img/gs/1237gs.jpg","null","reveal","image-keyboard-response","535","1800257","0.0-6.0-4.75","3090555","co38506","norming","","","","","","",""
"null","../img/tt/1237tt.jpg","null","mooney2","image-keyboard-response","536","1802272","0.0-6.0-5.75","3090555","co38506","norming","","","","","","",""
"3354.579999999376","","","post_reveal_questions","survey-likert","537","1805629","0.0-6.0-6.75","3090555","co38506","norming","","","{""aha"":1}","[0]","../img/tt/1237tt.jpg","",""
"null","<div style=""font-size:60px;""> </div>","null","fixation","html-keyboard-response","538","1805839","0.0-6.0-0.76","3090555","co38506","norming","","","","","","",""
"null","../img/tt/001tt.jpg","null","mooney1","image-keyboard-response","539","1808846","0.0-6.0-1.76","3090555","co38506","norming","","","","","","",""
"3429.7650000080466","","","post_mooney1_questions","survey-likert","540","1812277","0.0-6.0-2.76","3090555","co38506","norming","","","{""curiosity"":4,""confidence"":0}","[0,1]","../img/tt/001tt.jpg","",""
"1941.6400000045542","","","recognition","survey-text","541","1814221","0.0-6.0-3.76","3090555","co38506","norming","","","{""guess"":""uil""}","","../img/tt/001tt.jpg","",""
"null","../img/gs/001gs.jpg","null","reveal","image-keyboard-response","542","1816224","0.0-6.0-4.76","3090555","co38506","norming","","","","","","",""
"null","../img/tt/001tt.jpg","null","mooney2","image-keyboard-response","543","1818232","0.0-6.0-5.76","3090555","co38506","norming","","","","","","",""
"2330.9199999931734","","","post_reveal_questions","survey-likert","544","1820565","0.0-6.0-6.76","3090555","co38506","norming","","","{""aha"":4}","[0]","../img/tt/001tt.jpg","",""
"null","<div style=""font-size:60px;""> </div>","null","fixation","html-keyboard-response","545","1820768","0.0-6.0-0.77","3090555","co38506","norming","","","","","","",""
"null","../img/tt/085tt.jpg","null","mooney1","image-keyboard-response","546","1823773","0.0-6.0-1.77","3090555","co38506","norming","","","","","","",""
"3372.6150000002235","","","post_mooney1_questions","survey-likert","547","1827149","0.0-6.0-2.77","3090555","co38506","norming","","","{""curiosity"":4,""confidence"":1}","[0,1]","../img/tt/085tt.jpg","",""
"4510.4299999948125","","","recognition","survey-text","548","1831661","0.0-6.0-3.77","3090555","co38506","norming","","","{""guess"":""sprinkhaan""}","","../img/tt/085tt.jpg","",""
"null","../img/gs/085gs.jpg","null","reveal","image-keyboard-response","549","1833670","0.0-6.0-4.77","3090555","co38506","norming","","","","","","",""
"null","../img/tt/085tt.jpg","null","mooney2","image-keyboard-response","550","1835677","0.0-6.0-5.77","3090555","co38506","norming","","","","","","",""
"3997.8049999917857","","","post_reveal_questions","survey-likert","551","1839677","0.0-6.0-6.77","3090555","co38506","norming","","","{""aha"":3}","[0]","../img/tt/085tt.jpg","",""
