"rt","stimulus","key_press","test_part","trial_type","trial_index","time_elapsed","internal_node_id","totalTime","subject","experiment_name","button_pressed","success","responses","question_order","currentStim","old","correct"
"16821.919999999976","Welcome to the experiment. This is an online experiment so please don't close the tab/window until we say goodbye.  Press any key to begin.","72","instructions","html-keyboard-response","0","16832","0.0-0.0","3095122","co38578","norming","","","","","","",""
"51446.21000000001","<div style='word-wrap: break-word; width: 900px'><h3>Please consider this information carefully before deciding whether to participate in this research</h3><ul style='text-align: left; font-size: .8em;'><li><b>Purpose of the research</b>: To examine how people process images.</li><li><b>What you will do in this research</b>:  Stimuli (images) will be presented on the computer and you will be asked different questions about them.</li><li><b>Time required</b>: Participation will take between 45 and 60 minutes to complete.</li><li><b>Risks</b>:  There are no anticipated risks associated with participating in this study. The effects of participating should be comparable to those you would experience from viewing a computer monitor for 30 minutes and using a mouse or keyboard.</li><li><b>Benefits</b>:  This study provides no benefits to you individually except for the credit. The study provides important information about the nature of perception and learning.</li><li><b>Confidentiality</b>:  Your participation in this study will remain confidential. No personally identifiable information will be associated with your data. Your de-identified data may be shared with other researchers and used in future projects.</li><li><b>Participation and withdrawal</b>:  Your participation in this study is completely voluntary and you may refuse to participate or you may choose to withdraw at any time without penalty.</li><li><b>How to contact the researchers</b>: If you have questions or concerns about your participation or payment, or want to request a summary of research findings, please contact Sander Van de Cruys (KU Leuven), at sander.vandecruys@kuleuven.be.</li></ul><p>The nature and purpose of this research have been sufficiently explained and I agree to participate in this study.  I understand that I am free to withdraw at any time without incurring any penalty.</p><p>Please consent by clicking the button below to continue. Otherwise, please exit the study at this time.</p></div>","","instructions","html-button-response","1","68280","0.0-1.0","3095122","co38578","norming","0","","","","","",""
"","","","instructions","fullscreen","2","73066","0.0-2.0","3095122","co38578","norming","","true","","","","",""
"32588.365000000005","","","sona","survey-html-form","3","105659","0.0-3.0","3095122","co38578","norming","","","[{""name"":""sonaid"",""value"":""38578""},{""name"":""debrief"",""value"":""yes""},{""name"":""datajoin"",""value"":""yes""}]","","","",""
"104018.28000000001","<div style='word-wrap: break-word; width: 900px'><h3>Instructions</h3><p>This experiment will have 3 parts. In the first part you will see a series of distorted images like the one below on the left. As you can see in the righthand image, the distorted images are derived from actual photographs. In what follows, you will <strong>briefly</strong> be presented with <strong>only</strong> the distorted image.</p> <div style='float: left; margin-right: 20px;'><img src='../img/018tt.jpg' height='250' width='250'></img></div><div style='float: right; margin-left: 20px;'><img src='../img/018gs.jpg' height='250' width='250'></img></div><p>Subsequently you will be asked a few questions about the image: One question on how <strong>curious</strong> you are about the solution and one on how <strong>confident</strong> you are that you know the solution.</p>Next, we ask you to make a guess on what is in the image. Note that it is OK to name just the <strong>basic level category</strong>. For example when you see a parrot in the image, 'parrot' will obviously be a correct answer but also correct is 'bird'. However, 'animal' will <strong>not</strong> be counted as a correct response. For the example above, 'rose' would be correct or 'flower', but not 'plant'. When soccer players are depicted, 'soccer', 'football', 'soccer players' will be correct, but not 'humans', 'outdoors', or 'sports'. You do not need to describe the image in full, just name the main object in it <strong>in one or two words</strong>. All images depict objects from one of the following broad level categories: animals, inanimate objects, plants, sports, vehicles, and food. Recognizing means knowing <strong>more</strong> than these broad labels for a given image. But we always encourage you to <strong>make a guess</strong> if you can. Note that you are allowed to use <strong>Dutch and English</strong> in your answers, whatever comes easiest for you.</p><p>Press any key to continue.</p></div>","32","instructions","html-keyboard-response","4","209670","0.0-4.0","3095122","co38578","norming","","","","","","",""
"34271.10500000004","<div style='word-wrap: break-word; width: 900px'><h3>Instructions</h3> <p>Next, the solution image will be revealed to you and you'll be asked to indicate how strong your <strong>aha-experience</strong> was after seeing the solution. This describes the positive feeling of the 'click' you sometimes experience, when the pieces of the 'puzzle' fall together and you suddenly have 'insight' in the image.</p><img src='aha.jpg' height='188' width='250'></img><p>Note that there are no right or wrong answers. We are interested in what <strong>you</strong> see in the image and how <strong>you</strong> feel about it.</p><p>Press any key to start the experiment.</p></div>","32","instructions","html-keyboard-response","5","243942","0.0-5.0","3095122","co38578","norming","","","","","","",""
"null","<div style=""font-size:60px;""> </div>","null","fixation","html-keyboard-response","6","244151","0.0-6.0-0.0","3095122","co38578","norming","","","","","","",""
"null","../img/tt/1283tt.jpg","null","mooney1","image-keyboard-response","7","247156","0.0-6.0-1.0","3095122","co38578","norming","","","","","","",""
"6104.60500000004","","","post_mooney1_questions","survey-likert","8","253262","0.0-6.0-2.0","3095122","co38578","norming","","","{""curiosity"":6,""confidence"":0}","[0,1]","../img/tt/1283tt.jpg","",""
"21661.564999999973","","","recognition","survey-text","9","274891","0.0-6.0-3.0","3095122","co38578","norming","","","{""guess"":""dog""}","","../img/tt/1283tt.jpg","",""
"null","../img/gs/1283gs.jpg","null","reveal","image-keyboard-response","10","276894","0.0-6.0-4.0","3095122","co38578","norming","","","","","","",""
"null","../img/tt/1283tt.jpg","null","mooney2","image-keyboard-response","11","278896","0.0-6.0-5.0","3095122","co38578","norming","","","","","","",""
"7048.539999999979","","","post_reveal_questions","survey-likert","12","285947","0.0-6.0-6.0","3095122","co38578","norming","","","{""aha"":2}","[0]","../img/tt/1283tt.jpg","",""
"null","<div style=""font-size:60px;""> </div>","null","fixation","html-keyboard-response","13","286149","0.0-6.0-0.1","3095122","co38578","norming","","","","","","",""
"null","../img/tt/1087tt.jpg","null","mooney1","image-keyboard-response","14","289154","0.0-6.0-1.1","3095122","co38578","norming","","","","","","",""
"5319.434999999998","","","post_mooney1_questions","survey-likert","15","294475","0.0-6.0-2.1","3095122","co38578","norming","","","{""curiosity"":4,""confidence"":4}","[0,1]","../img/tt/1087tt.jpg","",""
"3853.960000000021","","","recognition","survey-text","16","298331","0.0-6.0-3.1","3095122","co38578","norming","","","{""guess"":""sheep""}","","../img/tt/1087tt.jpg","",""
"null","../img/gs/1087gs.jpg","null","reveal","image-keyboard-response","17","300340","0.0-6.0-4.1","3095122","co38578","norming","","","","","","",""
"null","../img/tt/1087tt.jpg","null","mooney2","image-keyboard-response","18","302346","0.0-6.0-5.1","3095122","co38578","norming","","","","","","",""
"7174.469999999972","","","post_reveal_questions","survey-likert","19","309523","0.0-6.0-6.1","3095122","co38578","norming","","","{""aha"":1}","[0]","../img/tt/1087tt.jpg","",""
"null","<div style=""font-size:60px;""> </div>","null","fixation","html-keyboard-response","20","309725","0.0-6.0-0.2","3095122","co38578","norming","","","","","","",""
"null","../img/tt/353tt.jpg","null","mooney1","image-keyboard-response","21","312737","0.0-6.0-1.2","3095122","co38578","norming","","","","","","",""
"5136.795000000042","","","post_mooney1_questions","survey-likert","22","317875","0.0-6.0-2.2","3095122","co38578","norming","","","{""curiosity"":6,""confidence"":1}","[0,1]","../img/tt/353tt.jpg","",""
"4190.020000000019","","","recognition","survey-text","23","322067","0.0-6.0-3.2","3095122","co38578","norming","","","{""guess"":""whale""}","","../img/tt/353tt.jpg","",""
"null","../img/gs/353gs.jpg","null","reveal","image-keyboard-response","24","324069","0.0-6.0-4.2","3095122","co38578","norming","","","","","","",""
"null","../img/tt/353tt.jpg","null","mooney2","image-keyboard-response","25","326080","0.0-6.0-5.2","3095122","co38578","norming","","","","","","",""
"2634.694999999949","","","post_reveal_questions","survey-likert","26","328715","0.0-6.0-6.2","3095122","co38578","norming","","","{""aha"":6}","[0]","../img/tt/353tt.jpg","",""
"null","<div style=""font-size:60px;""> </div>","null","fixation","html-keyboard-response","27","328919","0.0-6.0-0.3","3095122","co38578","norming","","","","","","",""
"null","../img/tt/105tt.jpg","null","mooney1","image-keyboard-response","28","331886","0.0-6.0-1.3","3095122","co38578","norming","","","","","","",""
"3391.3800000000047","","","post_mooney1_questions","survey-likert","29","335280","0.0-6.0-2.3","3095122","co38578","norming","","","{""curiosity"":6,""confidence"":0}","[0,1]","../img/tt/105tt.jpg","",""
"6038.319999999949","","","recognition","survey-text","30","341320","0.0-6.0-3.3","3095122","co38578","norming","","","{""guess"":""sticks""}","","../img/tt/105tt.jpg","",""
"null","../img/gs/105gs.jpg","null","reveal","image-keyboard-response","31","343325","0.0-6.0-4.3","3095122","co38578","norming","","","","","","",""
"null","../img/tt/105tt.jpg","null","mooney2","image-keyboard-response","32","345330","0.0-6.0-5.3","3095122","co38578","norming","","","","","","",""
"2148.259999999951","","","post_reveal_questions","survey-likert","33","347480","0.0-6.0-6.3","3095122","co38578","norming","","","{""aha"":6}","[0]","../img/tt/105tt.jpg","",""
"null","<div style=""font-size:60px;""> </div>","null","fixation","html-keyboard-response","34","347688","0.0-6.0-0.4","3095122","co38578","norming","","","","","","",""
"null","../img/tt/378tt.jpg","null","mooney1","image-keyboard-response","35","350690","0.0-6.0-1.4","3095122","co38578","norming","","","","","","",""
"6307.419999999984","","","post_mooney1_questions","survey-likert","36","357000","0.0-6.0-2.4","3095122","co38578","norming","","","{""curiosity"":5,""confidence"":0}","[0,1]","../img/tt/378tt.jpg","",""
"2518.0199999999604","","","recognition","survey-text","37","359520","0.0-6.0-3.4","3095122","co38578","norming","","","{""guess"":""cat""}","","../img/tt/378tt.jpg","",""
"null","../img/gs/378gs.jpg","null","reveal","image-keyboard-response","38","361529","0.0-6.0-4.4","3095122","co38578","norming","","","","","","",""
"null","../img/tt/378tt.jpg","null","mooney2","image-keyboard-response","39","363538","0.0-6.0-5.4","3095122","co38578","norming","","","","","","",""
"3157.45000000007","","","post_reveal_questions","survey-likert","40","366696","0.0-6.0-6.4","3095122","co38578","norming","","","{""aha"":5}","[0]","../img/tt/378tt.jpg","",""
"null","<div style=""font-size:60px;""> </div>","null","fixation","html-keyboard-response","41","366898","0.0-6.0-0.5","3095122","co38578","norming","","","","","","",""
"null","../img/tt/140tt.jpg","null","mooney1","image-keyboard-response","42","369903","0.0-6.0-1.5","3095122","co38578","norming","","","","","","",""
"3366.3150000000023","","","post_mooney1_questions","survey-likert","43","373272","0.0-6.0-2.5","3095122","co38578","norming","","","{""curiosity"":6,""confidence"":0}","[0,1]","../img/tt/140tt.jpg","",""
"24414.215000000026","","","recognition","survey-text","44","397638","0.0-6.0-3.5","3095122","co38578","norming","","","{""guess"":""weaving machine""}","","../img/tt/140tt.jpg","",""
"null","../img/gs/140gs.jpg","null","reveal","image-keyboard-response","45","399646","0.0-6.0-4.5","3095122","co38578","norming","","","","","","",""
"null","../img/tt/140tt.jpg","null","mooney2","image-keyboard-response","46","401649","0.0-6.0-5.5","3095122","co38578","norming","","","","","","",""
"3842.7099999999045","","","post_reveal_questions","survey-likert","47","405494","0.0-6.0-6.5","3095122","co38578","norming","","","{""aha"":3}","[0]","../img/tt/140tt.jpg","",""
"null","<div style=""font-size:60px;""> </div>","null","fixation","html-keyboard-response","48","405695","0.0-6.0-0.6","3095122","co38578","norming","","","","","","",""
"null","../img/tt/1290tt.jpg","null","mooney1","image-keyboard-response","49","408706","0.0-6.0-1.6","3095122","co38578","norming","","","","","","",""
"3281.5800000000745","","","post_mooney1_questions","survey-likert","50","411990","0.0-6.0-2.6","3095122","co38578","norming","","","{""curiosity"":6,""confidence"":0}","[0,1]","../img/tt/1290tt.jpg","",""
"5149.859999999986","","","recognition","survey-text","51","417142","0.0-6.0-3.6","3095122","co38578","norming","","","{""guess"":""""}","","../img/tt/1290tt.jpg","",""
"null","../img/gs/1290gs.jpg","null","reveal","image-keyboard-response","52","419148","0.0-6.0-4.6","3095122","co38578","norming","","","","","","",""
"null","../img/tt/1290tt.jpg","null","mooney2","image-keyboard-response","53","421149","0.0-6.0-5.6","3095122","co38578","norming","","","","","","",""
"4776.335000000021","","","post_reveal_questions","survey-likert","54","425926","0.0-6.0-6.6","3095122","co38578","norming","","","{""aha"":4}","[0]","../img/tt/1290tt.jpg","",""
"null","<div style=""font-size:60px;""> </div>","null","fixation","html-keyboard-response","55","426134","0.0-6.0-0.7","3095122","co38578","norming","","","","","","",""
"null","../img/tt/040tt.jpg","null","mooney1","image-keyboard-response","56","429136","0.0-6.0-1.7","3095122","co38578","norming","","","","","","",""
"4173.364999999991","","","post_mooney1_questions","survey-likert","57","433310","0.0-6.0-2.7","3095122","co38578","norming","","","{""curiosity"":6,""confidence"":0}","[0,1]","../img/tt/040tt.jpg","",""
"3374.045000000042","","","recognition","survey-text","58","436686","0.0-6.0-3.7","3095122","co38578","norming","","","{""guess"":""face""}","","../img/tt/040tt.jpg","",""
"null","../img/gs/040gs.jpg","null","reveal","image-keyboard-response","59","438692","0.0-6.0-4.7","3095122","co38578","norming","","","","","","",""
"null","../img/tt/040tt.jpg","null","mooney2","image-keyboard-response","60","440696","0.0-6.0-5.7","3095122","co38578","norming","","","","","","",""
"2412.695000000007","","","post_reveal_questions","survey-likert","61","443110","0.0-6.0-6.7","3095122","co38578","norming","","","{""aha"":5}","[0]","../img/tt/040tt.jpg","",""
"null","<div style=""font-size:60px;""> </div>","null","fixation","html-keyboard-response","62","443316","0.0-6.0-0.8","3095122","co38578","norming","","","","","","",""
"null","../img/tt/1236tt.jpg","null","mooney1","image-keyboard-response","63","446317","0.0-6.0-1.8","3095122","co38578","norming","","","","","","",""
"3895.634999999951","","","post_mooney1_questions","survey-likert","64","450214","0.0-6.0-2.8","3095122","co38578","norming","","","{""curiosity"":6,""confidence"":1}","[0,1]","../img/tt/1236tt.jpg","",""
"3134.25","","","recognition","survey-text","65","453350","0.0-6.0-3.8","3095122","co38578","norming","","","{""guess"":""bird""}","","../img/tt/1236tt.jpg","",""
"null","../img/gs/1236gs.jpg","null","reveal","image-keyboard-response","66","455357","0.0-6.0-4.8","3095122","co38578","norming","","","","","","",""
"null","../img/tt/1236tt.jpg","null","mooney2","image-keyboard-response","67","457362","0.0-6.0-5.8","3095122","co38578","norming","","","","","","",""
"2779.070000000065","","","post_reveal_questions","survey-likert","68","460098","0.0-6.0-6.8","3095122","co38578","norming","","","{""aha"":2}","[0]","../img/tt/1236tt.jpg","",""
"null","<div style=""font-size:60px;""> </div>","null","fixation","html-keyboard-response","69","460300","0.0-6.0-0.9","3095122","co38578","norming","","","","","","",""
"null","../img/tt/1242tt.jpg","null","mooney1","image-keyboard-response","70","463306","0.0-6.0-1.9","3095122","co38578","norming","","","","","","",""
"3734.4349999999977","","","post_mooney1_questions","survey-likert","71","467042","0.0-6.0-2.9","3095122","co38578","norming","","","{""curiosity"":6,""confidence"":1}","[0,1]","../img/tt/1242tt.jpg","",""
"35606.149999999965","","","recognition","survey-text","72","502650","0.0-6.0-3.9","3095122","co38578","norming","","","{""guess"":""baby lion""}","","../img/tt/1242tt.jpg","",""
"null","../img/gs/1242gs.jpg","null","reveal","image-keyboard-response","73","504658","0.0-6.0-4.9","3095122","co38578","norming","","","","","","",""
"null","../img/tt/1242tt.jpg","null","mooney2","image-keyboard-response","74","506659","0.0-6.0-5.9","3095122","co38578","norming","","","","","","",""
"2165.0849999999627","","","post_reveal_questions","survey-likert","75","508825","0.0-6.0-6.9","3095122","co38578","norming","","","{""aha"":2}","[0]","../img/tt/1242tt.jpg","",""
"null","<div style=""font-size:60px;""> </div>","null","fixation","html-keyboard-response","76","509027","0.0-6.0-0.10","3095122","co38578","norming","","","","","","",""
"null","../img/tt/580tt.jpg","null","mooney1","image-keyboard-response","77","512030","0.0-6.0-1.10","3095122","co38578","norming","","","","","","",""
"3218.179999999935","","","post_mooney1_questions","survey-likert","78","515250","0.0-6.0-2.10","3095122","co38578","norming","","","{""curiosity"":6,""confidence"":0}","[0,1]","../img/tt/580tt.jpg","",""
"7380.815000000002","","","recognition","survey-text","79","522607","0.0-6.0-3.10","3095122","co38578","norming","","","{""guess"":""woman""}","","../img/tt/580tt.jpg","",""
"null","../img/gs/580gs.jpg","null","reveal","image-keyboard-response","80","524608","0.0-6.0-4.10","3095122","co38578","norming","","","","","","",""
"null","../img/tt/580tt.jpg","null","mooney2","image-keyboard-response","81","526616","0.0-6.0-5.10","3095122","co38578","norming","","","","","","",""
"2574.564999999944","","","post_reveal_questions","survey-likert","82","529191","0.0-6.0-6.10","3095122","co38578","norming","","","{""aha"":6}","[0]","../img/tt/580tt.jpg","",""
"null","<div style=""font-size:60px;""> </div>","null","fixation","html-keyboard-response","83","529398","0.0-6.0-0.11","3095122","co38578","norming","","","","","","",""
"null","../img/tt/1191tt.jpg","null","mooney1","image-keyboard-response","84","532409","0.0-6.0-1.11","3095122","co38578","norming","","","","","","",""
"6429.180000000051","","","post_mooney1_questions","survey-likert","85","538839","0.0-6.0-2.11","3095122","co38578","norming","","","{""curiosity"":5,""confidence"":1}","[0,1]","../img/tt/1191tt.jpg","",""
"3957","","","recognition","survey-text","86","542799","0.0-6.0-3.11","3095122","co38578","norming","","","{""guess"":""camels""}","","../img/tt/1191tt.jpg","",""
"null","../img/gs/1191gs.jpg","null","reveal","image-keyboard-response","87","544802","0.0-6.0-4.11","3095122","co38578","norming","","","","","","",""
"null","../img/tt/1191tt.jpg","null","mooney2","image-keyboard-response","88","546809","0.0-6.0-5.11","3095122","co38578","norming","","","","","","",""
"2141.5250000000233","","","post_reveal_questions","survey-likert","89","548951","0.0-6.0-6.11","3095122","co38578","norming","","","{""aha"":5}","[0]","../img/tt/1191tt.jpg","",""
"null","<div style=""font-size:60px;""> </div>","null","fixation","html-keyboard-response","90","549157","0.0-6.0-0.12","3095122","co38578","norming","","","","","","",""
"null","../img/tt/1012tt.jpg","null","mooney1","image-keyboard-response","91","552163","0.0-6.0-1.12","3095122","co38578","norming","","","","","","",""
"3138.8649999999907","","","post_mooney1_questions","survey-likert","92","555303","0.0-6.0-2.12","3095122","co38578","norming","","","{""curiosity"":6,""confidence"":0}","[0,1]","../img/tt/1012tt.jpg","",""
"1725.9099999999162","","","recognition","survey-text","93","557031","0.0-6.0-3.12","3095122","co38578","norming","","","{""guess"":""""}","","../img/tt/1012tt.jpg","",""
"null","../img/gs/1012gs.jpg","null","reveal","image-keyboard-response","94","559032","0.0-6.0-4.12","3095122","co38578","norming","","","","","","",""
"null","../img/tt/1012tt.jpg","null","mooney2","image-keyboard-response","95","561033","0.0-6.0-5.12","3095122","co38578","norming","","","","","","",""
"3827.784999999916","","","post_reveal_questions","survey-likert","96","564863","0.0-6.0-6.12","3095122","co38578","norming","","","{""aha"":4}","[0]","../img/tt/1012tt.jpg","",""
"null","<div style=""font-size:60px;""> </div>","null","fixation","html-keyboard-response","97","565066","0.0-6.0-0.13","3095122","co38578","norming","","","","","","",""
"null","../img/tt/1211tt.jpg","null","mooney1","image-keyboard-response","98","568069","0.0-6.0-1.13","3095122","co38578","norming","","","","","","",""
"12265.63500000001","","","post_mooney1_questions","survey-likert","99","580337","0.0-6.0-2.13","3095122","co38578","norming","","","{""curiosity"":5,""confidence"":0}","[0,1]","../img/tt/1211tt.jpg","",""
"1485.9400000000605","","","recognition","survey-text","100","581825","0.0-6.0-3.13","3095122","co38578","norming","","","{""guess"":""""}","","../img/tt/1211tt.jpg","",""
"null","../img/gs/1211gs.jpg","null","reveal","image-keyboard-response","101","583826","0.0-6.0-4.13","3095122","co38578","norming","","","","","","",""
"null","../img/tt/1211tt.jpg","null","mooney2","image-keyboard-response","102","585830","0.0-6.0-5.13","3095122","co38578","norming","","","","","","",""
"3072.359999999986","","","post_reveal_questions","survey-likert","103","588905","0.0-6.0-6.13","3095122","co38578","norming","","","{""aha"":4}","[0]","../img/tt/1211tt.jpg","",""
"null","<div style=""font-size:60px;""> </div>","null","fixation","html-keyboard-response","104","589116","0.0-6.0-0.14","3095122","co38578","norming","","","","","","",""
"null","../img/tt/1254tt.jpg","null","mooney1","image-keyboard-response","105","592122","0.0-6.0-1.14","3095122","co38578","norming","","","","","","",""
"9972.5","","","post_mooney1_questions","survey-likert","106","602097","0.0-6.0-2.14","3095122","co38578","norming","","","{""curiosity"":5,""confidence"":1}","[0,1]","../img/tt/1254tt.jpg","",""
"3734.130000000121","","","recognition","survey-text","107","605833","0.0-6.0-3.14","3095122","co38578","norming","","","{""guess"":""horses""}","","../img/tt/1254tt.jpg","",""
"null","../img/gs/1254gs.jpg","null","reveal","image-keyboard-response","108","607843","0.0-6.0-4.14","3095122","co38578","norming","","","","","","",""
"null","../img/tt/1254tt.jpg","null","mooney2","image-keyboard-response","109","609852","0.0-6.0-5.14","3095122","co38578","norming","","","","","","",""
"1834.7350000001024","","","post_reveal_questions","survey-likert","110","611689","0.0-6.0-6.14","3095122","co38578","norming","","","{""aha"":2}","[0]","../img/tt/1254tt.jpg","",""
"null","<div style=""font-size:60px;""> </div>","null","fixation","html-keyboard-response","111","611898","0.0-6.0-0.15","3095122","co38578","norming","","","","","","",""
"null","../img/tt/524tt.jpg","null","mooney1","image-keyboard-response","112","614907","0.0-6.0-1.15","3095122","co38578","norming","","","","","","",""
"4578.979999999981","","","post_mooney1_questions","survey-likert","113","619489","0.0-6.0-2.15","3095122","co38578","norming","","","{""curiosity"":6,""confidence"":1}","[0,1]","../img/tt/524tt.jpg","",""
"3870.2249999999767","","","recognition","survey-text","114","623361","0.0-6.0-3.15","3095122","co38578","norming","","","{""guess"":""olifant""}","","../img/tt/524tt.jpg","",""
"null","../img/gs/524gs.jpg","null","reveal","image-keyboard-response","115","625367","0.0-6.0-4.15","3095122","co38578","norming","","","","","","",""
"null","../img/tt/524tt.jpg","null","mooney2","image-keyboard-response","116","627370","0.0-6.0-5.15","3095122","co38578","norming","","","","","","",""
"2076.875","","","post_reveal_questions","survey-likert","117","629449","0.0-6.0-6.15","3095122","co38578","norming","","","{""aha"":5}","[0]","../img/tt/524tt.jpg","",""
"null","<div style=""font-size:60px;""> </div>","null","fixation","html-keyboard-response","118","629656","0.0-6.0-0.16","3095122","co38578","norming","","","","","","",""
"null","../img/tt/1151tt.jpg","null","mooney1","image-keyboard-response","119","632666","0.0-6.0-1.16","3095122","co38578","norming","","","","","","",""
"3420.7200000000885","","","post_mooney1_questions","survey-likert","120","636089","0.0-6.0-2.16","3095122","co38578","norming","","","{""curiosity"":6,""confidence"":1}","[0,1]","../img/tt/1151tt.jpg","",""
"3589.9749999999767","","","recognition","survey-text","121","639681","0.0-6.0-3.16","3095122","co38578","norming","","","{""guess"":""horse""}","","../img/tt/1151tt.jpg","",""
"null","../img/gs/1151gs.jpg","null","reveal","image-keyboard-response","122","641691","0.0-6.0-4.16","3095122","co38578","norming","","","","","","",""
"null","../img/tt/1151tt.jpg","null","mooney2","image-keyboard-response","123","643701","0.0-6.0-5.16","3095122","co38578","norming","","","","","","",""
"3243.179999999935","","","post_reveal_questions","survey-likert","124","646946","0.0-6.0-6.16","3095122","co38578","norming","","","{""aha"":2}","[0]","../img/tt/1151tt.jpg","",""
"null","<div style=""font-size:60px;""> </div>","null","fixation","html-keyboard-response","125","647151","0.0-6.0-0.17","3095122","co38578","norming","","","","","","",""
"null","../img/tt/1154tt.jpg","null","mooney1","image-keyboard-response","126","650159","0.0-6.0-1.17","3095122","co38578","norming","","","","","","",""
"6146.724999999977","","","post_mooney1_questions","survey-likert","127","656307","0.0-6.0-2.17","3095122","co38578","norming","","","{""curiosity"":6,""confidence"":1}","[0,1]","../img/tt/1154tt.jpg","",""
"11941.839999999967","","","recognition","survey-text","128","668250","0.0-6.0-3.17","3095122","co38578","norming","","","{""guess"":""""}","","../img/tt/1154tt.jpg","",""
"null","../img/gs/1154gs.jpg","null","reveal","image-keyboard-response","129","670252","0.0-6.0-4.17","3095122","co38578","norming","","","","","","",""
"null","../img/tt/1154tt.jpg","null","mooney2","image-keyboard-response","130","672259","0.0-6.0-5.17","3095122","co38578","norming","","","","","","",""
"2718.655000000028","","","post_reveal_questions","survey-likert","131","674978","0.0-6.0-6.17","3095122","co38578","norming","","","{""aha"":4}","[0]","../img/tt/1154tt.jpg","",""
"null","<div style=""font-size:60px;""> </div>","null","fixation","html-keyboard-response","132","675186","0.0-6.0-0.18","3095122","co38578","norming","","","","","","",""
"null","../img/tt/1181tt.jpg","null","mooney1","image-keyboard-response","133","678198","0.0-6.0-1.18","3095122","co38578","norming","","","","","","",""
"2969.7099999999627","","","post_mooney1_questions","survey-likert","134","681171","0.0-6.0-2.18","3095122","co38578","norming","","","{""curiosity"":6,""confidence"":1}","[0,1]","../img/tt/1181tt.jpg","",""
"6430.144999999902","","","recognition","survey-text","135","687602","0.0-6.0-3.18","3095122","co38578","norming","","","{""guess"":""men hugging""}","","../img/tt/1181tt.jpg","",""
"null","../img/gs/1181gs.jpg","null","reveal","image-keyboard-response","136","689609","0.0-6.0-4.18","3095122","co38578","norming","","","","","","",""
"null","../img/tt/1181tt.jpg","null","mooney2","image-keyboard-response","137","691616","0.0-6.0-5.18","3095122","co38578","norming","","","","","","",""
"2135.9050000001444","","","post_reveal_questions","survey-likert","138","693754","0.0-6.0-6.18","3095122","co38578","norming","","","{""aha"":5}","[0]","../img/tt/1181tt.jpg","",""
"null","<div style=""font-size:60px;""> </div>","null","fixation","html-keyboard-response","139","693964","0.0-6.0-0.19","3095122","co38578","norming","","","","","","",""
"null","../img/tt/032tt.jpg","null","mooney1","image-keyboard-response","140","696967","0.0-6.0-1.19","3095122","co38578","norming","","","","","","",""
"3577.0149999998976","","","post_mooney1_questions","survey-likert","141","700546","0.0-6.0-2.19","3095122","co38578","norming","","","{""curiosity"":5,""confidence"":1}","[0,1]","../img/tt/032tt.jpg","",""
"16534.265000000014","","","recognition","survey-text","142","717080","0.0-6.0-3.19","3095122","co38578","norming","","","{""guess"":""bungee jumping""}","","../img/tt/032tt.jpg","",""
"null","../img/gs/032gs.jpg","null","reveal","image-keyboard-response","143","719082","0.0-6.0-4.19","3095122","co38578","norming","","","","","","",""
"null","../img/tt/032tt.jpg","null","mooney2","image-keyboard-response","144","721090","0.0-6.0-5.19","3095122","co38578","norming","","","","","","",""
"1835.405000000028","","","post_reveal_questions","survey-likert","145","722928","0.0-6.0-6.19","3095122","co38578","norming","","","{""aha"":5}","[0]","../img/tt/032tt.jpg","",""
"null","<div style=""font-size:60px;""> </div>","null","fixation","html-keyboard-response","146","723130","0.0-6.0-0.20","3095122","co38578","norming","","","","","","",""
"null","../img/tt/1190tt.jpg","null","mooney1","image-keyboard-response","147","726141","0.0-6.0-1.20","3095122","co38578","norming","","","","","","",""
"2968.680000000051","","","post_mooney1_questions","survey-likert","148","729112","0.0-6.0-2.20","3095122","co38578","norming","","","{""curiosity"":6,""confidence"":0}","[0,1]","../img/tt/1190tt.jpg","",""
"5262.125","","","recognition","survey-text","149","734376","0.0-6.0-3.20","3095122","co38578","norming","","","{""guess"":""trench war""}","","../img/tt/1190tt.jpg","",""
"null","../img/gs/1190gs.jpg","null","reveal","image-keyboard-response","150","736386","0.0-6.0-4.20","3095122","co38578","norming","","","","","","",""
"null","../img/tt/1190tt.jpg","null","mooney2","image-keyboard-response","151","738390","0.0-6.0-5.20","3095122","co38578","norming","","","","","","",""
"3216.2449999999953","","","post_reveal_questions","survey-likert","152","741608","0.0-6.0-6.20","3095122","co38578","norming","","","{""aha"":5}","[0]","../img/tt/1190tt.jpg","",""
"null","<div style=""font-size:60px;""> </div>","null","fixation","html-keyboard-response","153","741809","0.0-6.0-0.21","3095122","co38578","norming","","","","","","",""
"null","../img/tt/1247tt.jpg","null","mooney1","image-keyboard-response","154","744813","0.0-6.0-1.21","3095122","co38578","norming","","","","","","",""
"3569.0500000000466","","","post_mooney1_questions","survey-likert","155","748384","0.0-6.0-2.21","3095122","co38578","norming","","","{""curiosity"":6,""confidence"":0}","[0,1]","../img/tt/1247tt.jpg","",""
"2534.1600000000326","","","recognition","survey-text","156","750920","0.0-6.0-3.21","3095122","co38578","norming","","","{""guess"":""""}","","../img/tt/1247tt.jpg","",""
"null","../img/gs/1247gs.jpg","null","reveal","image-keyboard-response","157","752921","0.0-6.0-4.21","3095122","co38578","norming","","","","","","",""
"null","../img/tt/1247tt.jpg","null","mooney2","image-keyboard-response","158","754926","0.0-6.0-5.21","3095122","co38578","norming","","","","","","",""
"3447.820000000065","","","post_reveal_questions","survey-likert","159","758376","0.0-6.0-6.21","3095122","co38578","norming","","","{""aha"":5}","[0]","../img/tt/1247tt.jpg","",""
"null","<div style=""font-size:60px;""> </div>","null","fixation","html-keyboard-response","160","758583","0.0-6.0-0.22","3095122","co38578","norming","","","","","","",""
"null","../img/tt/1268tt.jpg","null","mooney1","image-keyboard-response","161","761586","0.0-6.0-1.22","3095122","co38578","norming","","","","","","",""
"4421.295000000042","","","post_mooney1_questions","survey-likert","162","766001","0.0-6.0-2.22","3095122","co38578","norming","","","{""curiosity"":6,""confidence"":1}","[0,1]","../img/tt/1268tt.jpg","",""
"10318.055000000051","","","recognition","survey-text","163","776321","0.0-6.0-3.22","3095122","co38578","norming","","","{""guess"":""drowning man""}","","../img/tt/1268tt.jpg","",""
"null","../img/gs/1268gs.jpg","null","reveal","image-keyboard-response","164","778322","0.0-6.0-4.22","3095122","co38578","norming","","","","","","",""
"null","../img/tt/1268tt.jpg","null","mooney2","image-keyboard-response","165","780326","0.0-6.0-5.22","3095122","co38578","norming","","","","","","",""
"2665.6600000000326","","","post_reveal_questions","survey-likert","166","782993","0.0-6.0-6.22","3095122","co38578","norming","","","{""aha"":4}","[0]","../img/tt/1268tt.jpg","",""
"null","<div style=""font-size:60px;""> </div>","null","fixation","html-keyboard-response","167","783200","0.0-6.0-0.23","3095122","co38578","norming","","","","","","",""
"null","../img/tt/019tt.jpg","null","mooney1","image-keyboard-response","168","786211","0.0-6.0-1.23","3095122","co38578","norming","","","","","","",""
"4021.244999999879","","","post_mooney1_questions","survey-likert","169","790233","0.0-6.0-2.23","3095122","co38578","norming","","","{""curiosity"":6,""confidence"":1}","[0,1]","../img/tt/019tt.jpg","",""
"3630.4649999999674","","","recognition","survey-text","170","793865","0.0-6.0-3.23","3095122","co38578","norming","","","{""guess"":""plane""}","","../img/tt/019tt.jpg","",""
"null","../img/gs/019gs.jpg","null","reveal","image-keyboard-response","171","795871","0.0-6.0-4.23","3095122","co38578","norming","","","","","","",""
"null","../img/tt/019tt.jpg","null","mooney2","image-keyboard-response","172","797880","0.0-6.0-5.23","3095122","co38578","norming","","","","","","",""
"1958.5400000000373","","","post_reveal_questions","survey-likert","173","799841","0.0-6.0-6.23","3095122","co38578","norming","","","{""aha"":5}","[0]","../img/tt/019tt.jpg","",""
"null","<div style=""font-size:60px;""> </div>","null","fixation","html-keyboard-response","174","800048","0.0-6.0-0.24","3095122","co38578","norming","","","","","","",""
"null","../img/tt/1272tt.jpg","null","mooney1","image-keyboard-response","175","803052","0.0-6.0-1.24","3095122","co38578","norming","","","","","","",""
"3075.0200000000186","","","post_mooney1_questions","survey-likert","176","806129","0.0-6.0-2.24","3095122","co38578","norming","","","{""curiosity"":6,""confidence"":1}","[0,1]","../img/tt/1272tt.jpg","",""
"6166","","","recognition","survey-text","177","812297","0.0-6.0-3.24","3095122","co38578","norming","","","{""guess"":""woman swimming""}","","../img/tt/1272tt.jpg","",""
"null","../img/gs/1272gs.jpg","null","reveal","image-keyboard-response","178","814299","0.0-6.0-4.24","3095122","co38578","norming","","","","","","",""
"null","../img/tt/1272tt.jpg","null","mooney2","image-keyboard-response","179","816307","0.0-6.0-5.24","3095122","co38578","norming","","","","","","",""
"4573.319999999949","","","post_reveal_questions","survey-likert","180","820881","0.0-6.0-6.24","3095122","co38578","norming","","","{""aha"":1}","[0]","../img/tt/1272tt.jpg","",""
"null","<div style=""font-size:60px;""> </div>","null","fixation","html-keyboard-response","181","821088","0.0-6.0-0.25","3095122","co38578","norming","","","","","","",""
"null","../img/tt/358tt.jpg","null","mooney1","image-keyboard-response","182","824102","0.0-6.0-1.25","3095122","co38578","norming","","","","","","",""
"3306","","","post_mooney1_questions","survey-likert","183","827410","0.0-6.0-2.25","3095122","co38578","norming","","","{""curiosity"":6,""confidence"":1}","[0,1]","../img/tt/358tt.jpg","",""
"4342.175000000047","","","recognition","survey-text","184","831754","0.0-6.0-3.25","3095122","co38578","norming","","","{""guess"":""bird""}","","../img/tt/358tt.jpg","",""
"null","../img/gs/358gs.jpg","null","reveal","image-keyboard-response","185","833761","0.0-6.0-4.25","3095122","co38578","norming","","","","","","",""
"null","../img/tt/358tt.jpg","null","mooney2","image-keyboard-response","186","835763","0.0-6.0-5.25","3095122","co38578","norming","","","","","","",""
"3141.20000000007","","","post_reveal_questions","survey-likert","187","838906","0.0-6.0-6.25","3095122","co38578","norming","","","{""aha"":2}","[0]","../img/tt/358tt.jpg","",""
"null","<div style=""font-size:60px;""> </div>","null","fixation","html-keyboard-response","188","839108","0.0-6.0-0.26","3095122","co38578","norming","","","","","","",""
"null","../img/tt/1307tt.jpg","null","mooney1","image-keyboard-response","189","842118","0.0-6.0-1.26","3095122","co38578","norming","","","","","","",""
"5409.7799999999115","","","post_mooney1_questions","survey-likert","190","847531","0.0-6.0-2.26","3095122","co38578","norming","","","{""curiosity"":6,""confidence"":0}","[0,1]","../img/tt/1307tt.jpg","",""
"917.984999999986","","","recognition","survey-text","191","848450","0.0-6.0-3.26","3095122","co38578","norming","","","{""guess"":""""}","","../img/tt/1307tt.jpg","",""
"null","../img/gs/1307gs.jpg","null","reveal","image-keyboard-response","192","850452","0.0-6.0-4.26","3095122","co38578","norming","","","","","","",""
"null","../img/tt/1307tt.jpg","null","mooney2","image-keyboard-response","193","852463","0.0-6.0-5.26","3095122","co38578","norming","","","","","","",""
"2977.5100000001257","","","post_reveal_questions","survey-likert","194","855442","0.0-6.0-6.26","3095122","co38578","norming","","","{""aha"":4}","[0]","../img/tt/1307tt.jpg","",""
"null","<div style=""font-size:60px;""> </div>","null","fixation","html-keyboard-response","195","855648","0.0-6.0-0.27","3095122","co38578","norming","","","","","","",""
"null","../img/tt/584tt.jpg","null","mooney1","image-keyboard-response","196","858660","0.0-6.0-1.27","3095122","co38578","norming","","","","","","",""
"3387.2900000000373","","","post_mooney1_questions","survey-likert","197","862051","0.0-6.0-2.27","3095122","co38578","norming","","","{""curiosity"":6,""confidence"":2}","[0,1]","../img/tt/584tt.jpg","",""
"29565.939999999828","","","recognition","survey-text","198","891618","0.0-6.0-3.27","3095122","co38578","norming","","","{""guess"":""circel tangen""}","","../img/tt/584tt.jpg","",""
"null","../img/gs/584gs.jpg","null","reveal","image-keyboard-response","199","893628","0.0-6.0-4.27","3095122","co38578","norming","","","","","","",""
"null","../img/tt/584tt.jpg","null","mooney2","image-keyboard-response","200","895638","0.0-6.0-5.27","3095122","co38578","norming","","","","","","",""
"2930.4799999999814","","","post_reveal_questions","survey-likert","201","898570","0.0-6.0-6.27","3095122","co38578","norming","","","{""aha"":1}","[0]","../img/tt/584tt.jpg","",""
"null","<div style=""font-size:60px;""> </div>","null","fixation","html-keyboard-response","202","898774","0.0-6.0-0.28","3095122","co38578","norming","","","","","","",""
"null","../img/tt/567tt.jpg","null","mooney1","image-keyboard-response","203","901778","0.0-6.0-1.28","3095122","co38578","norming","","","","","","",""
"4534.614999999991","","","post_mooney1_questions","survey-likert","204","906314","0.0-6.0-2.28","3095122","co38578","norming","","","{""curiosity"":6,""confidence"":1}","[0,1]","../img/tt/567tt.jpg","",""
"10166.190000000177","","","recognition","survey-text","205","916482","0.0-6.0-3.28","3095122","co38578","norming","","","{""guess"":""car mirror""}","","../img/tt/567tt.jpg","",""
"null","../img/gs/567gs.jpg","null","reveal","image-keyboard-response","206","918488","0.0-6.0-4.28","3095122","co38578","norming","","","","","","",""
"null","../img/tt/567tt.jpg","null","mooney2","image-keyboard-response","207","920494","0.0-6.0-5.28","3095122","co38578","norming","","","","","","",""
"2178.04999999993","","","post_reveal_questions","survey-likert","208","922674","0.0-6.0-6.28","3095122","co38578","norming","","","{""aha"":4}","[0]","../img/tt/567tt.jpg","",""
"null","<div style=""font-size:60px;""> </div>","null","fixation","html-keyboard-response","209","922876","0.0-6.0-0.29","3095122","co38578","norming","","","","","","",""
"null","../img/tt/123tt.jpg","null","mooney1","image-keyboard-response","210","925882","0.0-6.0-1.29","3095122","co38578","norming","","","","","","",""
"2413.0749999999534","","","post_mooney1_questions","survey-likert","211","928298","0.0-6.0-2.29","3095122","co38578","norming","","","{""curiosity"":6,""confidence"":1}","[0,1]","../img/tt/123tt.jpg","",""
"2470.4150000000373","","","recognition","survey-text","212","930770","0.0-6.0-3.29","3095122","co38578","norming","","","{""guess"":""boat""}","","../img/tt/123tt.jpg","",""
"null","../img/gs/123gs.jpg","null","reveal","image-keyboard-response","213","932773","0.0-6.0-4.29","3095122","co38578","norming","","","","","","",""
"null","../img/tt/123tt.jpg","null","mooney2","image-keyboard-response","214","934775","0.0-6.0-5.29","3095122","co38578","norming","","","","","","",""
"2513.1200000001118","","","post_reveal_questions","survey-likert","215","937290","0.0-6.0-6.29","3095122","co38578","norming","","","{""aha"":4}","[0]","../img/tt/123tt.jpg","",""
"null","<div style=""font-size:60px;""> </div>","null","fixation","html-keyboard-response","216","937496","0.0-6.0-0.30","3095122","co38578","norming","","","","","","",""
"null","../img/tt/1232tt.jpg","null","mooney1","image-keyboard-response","217","940504","0.0-6.0-1.30","3095122","co38578","norming","","","","","","",""
"3344.1350000000093","","","post_mooney1_questions","survey-likert","218","943851","0.0-6.0-2.30","3095122","co38578","norming","","","{""curiosity"":6,""confidence"":1}","[0,1]","../img/tt/1232tt.jpg","",""
"10917.465000000084","","","recognition","survey-text","219","954764","0.0-6.0-3.30","3095122","co38578","norming","","","{""guess"":""crab""}","","../img/tt/1232tt.jpg","",""
"null","../img/gs/1232gs.jpg","null","reveal","image-keyboard-response","220","956768","0.0-6.0-4.30","3095122","co38578","norming","","","","","","",""
"null","../img/tt/1232tt.jpg","null","mooney2","image-keyboard-response","221","958771","0.0-6.0-5.30","3095122","co38578","norming","","","","","","",""
"2262.4499999999534","","","post_reveal_questions","survey-likert","222","961036","0.0-6.0-6.30","3095122","co38578","norming","","","{""aha"":5}","[0]","../img/tt/1232tt.jpg","",""
"null","<div style=""font-size:60px;""> </div>","null","fixation","html-keyboard-response","223","961237","0.0-6.0-0.31","3095122","co38578","norming","","","","","","",""
"null","../img/tt/1097tt.jpg","null","mooney1","image-keyboard-response","224","964241","0.0-6.0-1.31","3095122","co38578","norming","","","","","","",""
"2914.2099999999627","","","post_mooney1_questions","survey-likert","225","967156","0.0-6.0-2.31","3095122","co38578","norming","","","{""curiosity"":6,""confidence"":5}","[0,1]","../img/tt/1097tt.jpg","",""
"4021.994999999879","","","recognition","survey-text","226","971180","0.0-6.0-3.31","3095122","co38578","norming","","","{""guess"":""tennis""}","","../img/tt/1097tt.jpg","",""
"null","../img/gs/1097gs.jpg","null","reveal","image-keyboard-response","227","973189","0.0-6.0-4.31","3095122","co38578","norming","","","","","","",""
"null","../img/tt/1097tt.jpg","null","mooney2","image-keyboard-response","228","975191","0.0-6.0-5.31","3095122","co38578","norming","","","","","","",""
"3154.520000000135","","","post_reveal_questions","survey-likert","229","978348","0.0-6.0-6.31","3095122","co38578","norming","","","{""aha"":5}","[0]","../img/tt/1097tt.jpg","",""
"null","<div style=""font-size:60px;""> </div>","null","fixation","html-keyboard-response","230","978556","0.0-6.0-0.32","3095122","co38578","norming","","","","","","",""
"null","../img/tt/481tt.jpg","null","mooney1","image-keyboard-response","231","981558","0.0-6.0-1.32","3095122","co38578","norming","","","","","","",""
"2411.1300000000047","","","post_mooney1_questions","survey-likert","232","983972","0.0-6.0-2.32","3095122","co38578","norming","","","{""curiosity"":6,""confidence"":2}","[0,1]","../img/tt/481tt.jpg","",""
"3070.1099999998696","","","recognition","survey-text","233","987044","0.0-6.0-3.32","3095122","co38578","norming","","","{""guess"":""bread""}","","../img/tt/481tt.jpg","",""
"null","../img/gs/481gs.jpg","null","reveal","image-keyboard-response","234","989051","0.0-6.0-4.32","3095122","co38578","norming","","","","","","",""
"null","../img/tt/481tt.jpg","null","mooney2","image-keyboard-response","235","991053","0.0-6.0-5.32","3095122","co38578","norming","","","","","","",""
"2940.3850000000093","","","post_reveal_questions","survey-likert","236","993996","0.0-6.0-6.32","3095122","co38578","norming","","","{""aha"":2}","[0]","../img/tt/481tt.jpg","",""
"null","<div style=""font-size:60px;""> </div>","null","fixation","html-keyboard-response","237","994206","0.0-6.0-0.33","3095122","co38578","norming","","","","","","",""
"null","../img/tt/1228tt.jpg","null","mooney1","image-keyboard-response","238","997218","0.0-6.0-1.33","3095122","co38578","norming","","","","","","",""
"2718.460000000079","","","post_mooney1_questions","survey-likert","239","999940","0.0-6.0-2.33","3095122","co38578","norming","","","{""curiosity"":6,""confidence"":1}","[0,1]","../img/tt/1228tt.jpg","",""
"2838.3950000000186","","","recognition","survey-text","240","1002780","0.0-6.0-3.33","3095122","co38578","norming","","","{""guess"":""peacock""}","","../img/tt/1228tt.jpg","",""
"null","../img/gs/1228gs.jpg","null","reveal","image-keyboard-response","241","1004782","0.0-6.0-4.33","3095122","co38578","norming","","","","","","",""
"null","../img/tt/1228tt.jpg","null","mooney2","image-keyboard-response","242","1006792","0.0-6.0-5.33","3095122","co38578","norming","","","","","","",""
"3489.5000000001164","","","post_reveal_questions","survey-likert","243","1010284","0.0-6.0-6.33","3095122","co38578","norming","","","{""aha"":1}","[0]","../img/tt/1228tt.jpg","",""
"null","<div style=""font-size:60px;""> </div>","null","fixation","html-keyboard-response","244","1010487","0.0-6.0-0.34","3095122","co38578","norming","","","","","","",""
"null","../img/tt/442tt.jpg","null","mooney1","image-keyboard-response","245","1013493","0.0-6.0-1.34","3095122","co38578","norming","","","","","","",""
"2964.669999999809","","","post_mooney1_questions","survey-likert","246","1016460","0.0-6.0-2.34","3095122","co38578","norming","","","{""curiosity"":6,""confidence"":0}","[0,1]","../img/tt/442tt.jpg","",""
"742.2350000002189","","","recognition","survey-text","247","1017204","0.0-6.0-3.34","3095122","co38578","norming","","","{""guess"":""""}","","../img/tt/442tt.jpg","",""
"null","../img/gs/442gs.jpg","null","reveal","image-keyboard-response","248","1019208","0.0-6.0-4.34","3095122","co38578","norming","","","","","","",""
"null","../img/tt/442tt.jpg","null","mooney2","image-keyboard-response","249","1021210","0.0-6.0-5.34","3095122","co38578","norming","","","","","","",""
"2439.565000000177","","","post_reveal_questions","survey-likert","250","1023652","0.0-6.0-6.34","3095122","co38578","norming","","","{""aha"":2}","[0]","../img/tt/442tt.jpg","",""
"null","<div style=""font-size:60px;""> </div>","null","fixation","html-keyboard-response","251","1023860","0.0-6.0-0.35","3095122","co38578","norming","","","","","","",""
"null","../img/tt/1086tt.jpg","null","mooney1","image-keyboard-response","252","1026868","0.0-6.0-1.35","3095122","co38578","norming","","","","","","",""
"2709.4799999999814","","","post_mooney1_questions","survey-likert","253","1029580","0.0-6.0-2.35","3095122","co38578","norming","","","{""curiosity"":6,""confidence"":4}","[0,1]","../img/tt/1086tt.jpg","",""
"3262.1299999998882","","","recognition","survey-text","254","1032844","0.0-6.0-3.35","3095122","co38578","norming","","","{""guess"":""husky""}","","../img/tt/1086tt.jpg","",""
"null","../img/gs/1086gs.jpg","null","reveal","image-keyboard-response","255","1034846","0.0-6.0-4.35","3095122","co38578","norming","","","","","","",""
"null","../img/tt/1086tt.jpg","null","mooney2","image-keyboard-response","256","1036851","0.0-6.0-5.35","3095122","co38578","norming","","","","","","",""
"5686.7799999999115","","","post_reveal_questions","survey-likert","257","1042540","0.0-6.0-6.35","3095122","co38578","norming","","","{""aha"":3}","[0]","../img/tt/1086tt.jpg","",""
"null","<div style=""font-size:60px;""> </div>","null","fixation","html-keyboard-response","258","1042745","0.0-6.0-0.36","3095122","co38578","norming","","","","","","",""
"null","../img/tt/1130tt.jpg","null","mooney1","image-keyboard-response","259","1045749","0.0-6.0-1.36","3095122","co38578","norming","","","","","","",""
"3076.3000000002794","","","post_mooney1_questions","survey-likert","260","1048829","0.0-6.0-2.36","3095122","co38578","norming","","","{""curiosity"":6,""confidence"":4}","[0,1]","../img/tt/1130tt.jpg","",""
"3606.1450000000186","","","recognition","survey-text","261","1052436","0.0-6.0-3.36","3095122","co38578","norming","","","{""guess"":""tennis""}","","../img/tt/1130tt.jpg","",""
"null","../img/gs/1130gs.jpg","null","reveal","image-keyboard-response","262","1054438","0.0-6.0-4.36","3095122","co38578","norming","","","","","","",""
"null","../img/tt/1130tt.jpg","null","mooney2","image-keyboard-response","263","1056440","0.0-6.0-5.36","3095122","co38578","norming","","","","","","",""
"2729.6750000000466","","","post_reveal_questions","survey-likert","264","1059172","0.0-6.0-6.36","3095122","co38578","norming","","","{""aha"":2}","[0]","../img/tt/1130tt.jpg","",""
"null","<div style=""font-size:60px;""> </div>","null","fixation","html-keyboard-response","265","1059373","0.0-6.0-0.37","3095122","co38578","norming","","","","","","",""
"null","../img/tt/1159tt.jpg","null","mooney1","image-keyboard-response","266","1062385","0.0-6.0-1.37","3095122","co38578","norming","","","","","","",""
"2760.9799999999814","","","post_mooney1_questions","survey-likert","267","1065148","0.0-6.0-2.37","3095122","co38578","norming","","","{""curiosity"":6,""confidence"":2}","[0,1]","../img/tt/1159tt.jpg","",""
"5894.189999999944","","","recognition","survey-text","268","1071041","0.0-6.0-3.37","3095122","co38578","norming","","","{""guess"":""train station""}","","../img/tt/1159tt.jpg","",""
"null","../img/gs/1159gs.jpg","null","reveal","image-keyboard-response","269","1073042","0.0-6.0-4.37","3095122","co38578","norming","","","","","","",""
"null","../img/tt/1159tt.jpg","null","mooney2","image-keyboard-response","270","1075046","0.0-6.0-5.37","3095122","co38578","norming","","","","","","",""
"3176.8050000001676","","","post_reveal_questions","survey-likert","271","1078225","0.0-6.0-6.37","3095122","co38578","norming","","","{""aha"":4}","[0]","../img/tt/1159tt.jpg","",""
"null","<div style=""font-size:60px;""> </div>","null","fixation","html-keyboard-response","272","1078426","0.0-6.0-0.38","3095122","co38578","norming","","","","","","",""
"null","../img/tt/1275tt.jpg","null","mooney1","image-keyboard-response","273","1081436","0.0-6.0-1.38","3095122","co38578","norming","","","","","","",""
"3281.875","","","post_mooney1_questions","survey-likert","274","1084721","0.0-6.0-2.38","3095122","co38578","norming","","","{""curiosity"":6,""confidence"":5}","[0,1]","../img/tt/1275tt.jpg","",""
"2485.875000000233","","","recognition","survey-text","275","1087209","0.0-6.0-3.38","3095122","co38578","norming","","","{""guess"":""pig""}","","../img/tt/1275tt.jpg","",""
"null","../img/gs/1275gs.jpg","null","reveal","image-keyboard-response","276","1089215","0.0-6.0-4.38","3095122","co38578","norming","","","","","","",""
"null","../img/tt/1275tt.jpg","null","mooney2","image-keyboard-response","277","1091226","0.0-6.0-5.38","3095122","co38578","norming","","","","","","",""
"3316.7650000001304","","","post_reveal_questions","survey-likert","278","1094545","0.0-6.0-6.38","3095122","co38578","norming","","","{""aha"":4}","[0]","../img/tt/1275tt.jpg","",""
"null","<div style=""font-size:60px;""> </div>","null","fixation","html-keyboard-response","279","1094746","0.0-6.0-0.39","3095122","co38578","norming","","","","","","",""
"null","../img/tt/118tt.jpg","null","mooney1","image-keyboard-response","280","1097751","0.0-6.0-1.39","3095122","co38578","norming","","","","","","",""
"2830.804999999935","","","post_mooney1_questions","survey-likert","281","1100585","0.0-6.0-2.39","3095122","co38578","norming","","","{""curiosity"":6,""confidence"":1}","[0,1]","../img/tt/118tt.jpg","",""
"3453.9500000001863","","","recognition","survey-text","282","1104041","0.0-6.0-3.39","3095122","co38578","norming","","","{""guess"":""stairs""}","","../img/tt/118tt.jpg","",""
"null","../img/gs/118gs.jpg","null","reveal","image-keyboard-response","283","1106042","0.0-6.0-4.39","3095122","co38578","norming","","","","","","",""
"null","../img/tt/118tt.jpg","null","mooney2","image-keyboard-response","284","1108044","0.0-6.0-5.39","3095122","co38578","norming","","","","","","",""
"3674.3349999999627","","","post_reveal_questions","survey-likert","285","1111721","0.0-6.0-6.39","3095122","co38578","norming","","","{""aha"":2}","[0]","../img/tt/118tt.jpg","",""
"null","<div style=""font-size:60px;""> </div>","null","fixation","html-keyboard-response","286","1111922","0.0-6.0-0.40","3095122","co38578","norming","","","","","","",""
"null","../img/tt/406tt.jpg","null","mooney1","image-keyboard-response","287","1114928","0.0-6.0-1.40","3095122","co38578","norming","","","","","","",""
"3262.244999999879","","","post_mooney1_questions","survey-likert","288","1118193","0.0-6.0-2.40","3095122","co38578","norming","","","{""curiosity"":5,""confidence"":0}","[0,1]","../img/tt/406tt.jpg","",""
"702.1400000001304","","","recognition","survey-text","289","1118897","0.0-6.0-3.40","3095122","co38578","norming","","","{""guess"":""""}","","../img/tt/406tt.jpg","",""
"null","../img/gs/406gs.jpg","null","reveal","image-keyboard-response","290","1120898","0.0-6.0-4.40","3095122","co38578","norming","","","","","","",""
"null","../img/tt/406tt.jpg","null","mooney2","image-keyboard-response","291","1122903","0.0-6.0-5.40","3095122","co38578","norming","","","","","","",""
"2495.5","","","post_reveal_questions","survey-likert","292","1125401","0.0-6.0-6.40","3095122","co38578","norming","","","{""aha"":5}","[0]","../img/tt/406tt.jpg","",""
"null","<div style=""font-size:60px;""> </div>","null","fixation","html-keyboard-response","293","1125602","0.0-6.0-0.41","3095122","co38578","norming","","","","","","",""
"null","../img/tt/412tt.jpg","null","mooney1","image-keyboard-response","294","1128612","0.0-6.0-1.41","3095122","co38578","norming","","","","","","",""
"4448.414999999804","","","post_mooney1_questions","survey-likert","295","1133063","0.0-6.0-2.41","3095122","co38578","norming","","","{""curiosity"":5,""confidence"":1}","[0,1]","../img/tt/412tt.jpg","",""
"2942.0499999998137","","","recognition","survey-text","296","1136007","0.0-6.0-3.41","3095122","co38578","norming","","","{""guess"":""bird""}","","../img/tt/412tt.jpg","",""
"null","../img/gs/412gs.jpg","null","reveal","image-keyboard-response","297","1138008","0.0-6.0-4.41","3095122","co38578","norming","","","","","","",""
"null","../img/tt/412tt.jpg","null","mooney2","image-keyboard-response","298","1140010","0.0-6.0-5.41","3095122","co38578","norming","","","","","","",""
"3491.029999999795","","","post_reveal_questions","survey-likert","299","1143503","0.0-6.0-6.41","3095122","co38578","norming","","","{""aha"":1}","[0]","../img/tt/412tt.jpg","",""
"null","<div style=""font-size:60px;""> </div>","null","fixation","html-keyboard-response","300","1143704","0.0-6.0-0.42","3095122","co38578","norming","","","","","","",""
"null","../img/tt/1002tt.jpg","null","mooney1","image-keyboard-response","301","1146708","0.0-6.0-1.42","3095122","co38578","norming","","","","","","",""
"2874.160000000149","","","post_mooney1_questions","survey-likert","302","1149583","0.0-6.0-2.42","3095122","co38578","norming","","","{""curiosity"":6,""confidence"":1}","[0,1]","../img/tt/1002tt.jpg","",""
"6973.979999999981","","","recognition","survey-text","303","1156559","0.0-6.0-3.42","3095122","co38578","norming","","","{""guess"":""cow""}","","../img/tt/1002tt.jpg","",""
"null","../img/gs/1002gs.jpg","null","reveal","image-keyboard-response","304","1158561","0.0-6.0-4.42","3095122","co38578","norming","","","","","","",""
"null","../img/tt/1002tt.jpg","null","mooney2","image-keyboard-response","305","1160563","0.0-6.0-5.42","3095122","co38578","norming","","","","","","",""
"2825.679999999935","","","post_reveal_questions","survey-likert","306","1163391","0.0-6.0-6.42","3095122","co38578","norming","","","{""aha"":6}","[0]","../img/tt/1002tt.jpg","",""
"null","<div style=""font-size:60px;""> </div>","null","fixation","html-keyboard-response","307","1163595","0.0-6.0-0.43","3095122","co38578","norming","","","","","","",""
"null","../img/tt/416tt.jpg","null","mooney1","image-keyboard-response","308","1166596","0.0-6.0-1.43","3095122","co38578","norming","","","","","","",""
"3258.0200000000186","","","post_mooney1_questions","survey-likert","309","1169855","0.0-6.0-2.43","3095122","co38578","norming","","","{""curiosity"":6,""confidence"":2}","[0,1]","../img/tt/416tt.jpg","",""
"3845.9549999998417","","","recognition","survey-text","310","1173703","0.0-6.0-3.43","3095122","co38578","norming","","","{""guess"":""flamingo""}","","../img/tt/416tt.jpg","",""
"null","../img/gs/416gs.jpg","null","reveal","image-keyboard-response","311","1175706","0.0-6.0-4.43","3095122","co38578","norming","","","","","","",""
"null","../img/tt/416tt.jpg","null","mooney2","image-keyboard-response","312","1177713","0.0-6.0-5.43","3095122","co38578","norming","","","","","","",""
"2893.1450000000186","","","post_reveal_questions","survey-likert","313","1180607","0.0-6.0-6.43","3095122","co38578","norming","","","{""aha"":5}","[0]","../img/tt/416tt.jpg","",""
"null","<div style=""font-size:60px;""> </div>","null","fixation","html-keyboard-response","314","1180817","0.0-6.0-0.44","3095122","co38578","norming","","","","","","",""
"null","../img/tt/507tt.jpg","null","mooney1","image-keyboard-response","315","1183824","0.0-6.0-1.44","3095122","co38578","norming","","","","","","",""
"4461.780000000028","","","post_mooney1_questions","survey-likert","316","1188287","0.0-6.0-2.44","3095122","co38578","norming","","","{""curiosity"":4,""confidence"":2}","[0,1]","../img/tt/507tt.jpg","",""
"3557.7649999998976","","","recognition","survey-text","317","1191845","0.0-6.0-3.44","3095122","co38578","norming","","","{""guess"":""dance""}","","../img/tt/507tt.jpg","",""
"null","../img/gs/507gs.jpg","null","reveal","image-keyboard-response","318","1193851","0.0-6.0-4.44","3095122","co38578","norming","","","","","","",""
"null","../img/tt/507tt.jpg","null","mooney2","image-keyboard-response","319","1195858","0.0-6.0-5.44","3095122","co38578","norming","","","","","","",""
"2674.564999999944","","","post_reveal_questions","survey-likert","320","1198533","0.0-6.0-6.44","3095122","co38578","norming","","","{""aha"":1}","[0]","../img/tt/507tt.jpg","",""
"null","<div style=""font-size:60px;""> </div>","null","fixation","html-keyboard-response","321","1198744","0.0-6.0-0.45","3095122","co38578","norming","","","","","","",""
"null","../img/tt/599tt.jpg","null","mooney1","image-keyboard-response","322","1201746","0.0-6.0-1.45","3095122","co38578","norming","","","","","","",""
"8002.060000000056","","","post_mooney1_questions","survey-likert","323","1209749","0.0-6.0-2.45","3095122","co38578","norming","","","{""curiosity"":5,""confidence"":5}","[0,1]","../img/tt/599tt.jpg","",""
"2678.0800000000745","","","recognition","survey-text","324","1212429","0.0-6.0-3.45","3095122","co38578","norming","","","{""guess"":""owl""}","","../img/tt/599tt.jpg","",""
"null","../img/gs/599gs.jpg","null","reveal","image-keyboard-response","325","1214434","0.0-6.0-4.45","3095122","co38578","norming","","","","","","",""
"null","../img/tt/599tt.jpg","null","mooney2","image-keyboard-response","326","1216442","0.0-6.0-5.45","3095122","co38578","norming","","","","","","",""
"2578.619999999879","","","post_reveal_questions","survey-likert","327","1219021","0.0-6.0-6.45","3095122","co38578","norming","","","{""aha"":2}","[0]","../img/tt/599tt.jpg","",""
"null","<div style=""font-size:60px;""> </div>","null","fixation","html-keyboard-response","328","1219231","0.0-6.0-0.46","3095122","co38578","norming","","","","","","",""
"null","../img/tt/111tt.jpg","null","mooney1","image-keyboard-response","329","1222237","0.0-6.0-1.46","3095122","co38578","norming","","","","","","",""
"4559.429999999935","","","post_mooney1_questions","survey-likert","330","1226797","0.0-6.0-2.46","3095122","co38578","norming","","","{""curiosity"":6,""confidence"":0}","[0,1]","../img/tt/111tt.jpg","",""
"693.8999999999069","","","recognition","survey-text","331","1227493","0.0-6.0-3.46","3095122","co38578","norming","","","{""guess"":""""}","","../img/tt/111tt.jpg","",""
"null","../img/gs/111gs.jpg","null","reveal","image-keyboard-response","332","1229494","0.0-6.0-4.46","3095122","co38578","norming","","","","","","",""
"null","../img/tt/111tt.jpg","null","mooney2","image-keyboard-response","333","1231503","0.0-6.0-5.46","3095122","co38578","norming","","","","","","",""
"2981.5749999999534","","","post_reveal_questions","survey-likert","334","1234485","0.0-6.0-6.46","3095122","co38578","norming","","","{""aha"":1}","[0]","../img/tt/111tt.jpg","",""
"null","<div style=""font-size:60px;""> </div>","null","fixation","html-keyboard-response","335","1234688","0.0-6.0-0.47","3095122","co38578","norming","","","","","","",""
"null","../img/tt/1122tt.jpg","null","mooney1","image-keyboard-response","336","1237698","0.0-6.0-1.47","3095122","co38578","norming","","","","","","",""
"3698.554999999935","","","post_mooney1_questions","survey-likert","337","1241397","0.0-6.0-2.47","3095122","co38578","norming","","","{""curiosity"":5,""confidence"":4}","[0,1]","../img/tt/1122tt.jpg","",""
"3925.3899999998976","","","recognition","survey-text","338","1245325","0.0-6.0-3.47","3095122","co38578","norming","","","{""guess"":""car race""}","","../img/tt/1122tt.jpg","",""
"null","../img/gs/1122gs.jpg","null","reveal","image-keyboard-response","339","1247333","0.0-6.0-4.47","3095122","co38578","norming","","","","","","",""
"null","../img/tt/1122tt.jpg","null","mooney2","image-keyboard-response","340","1249347","0.0-6.0-5.47","3095122","co38578","norming","","","","","","",""
"2925.2700000000186","","","post_reveal_questions","survey-likert","341","1252273","0.0-6.0-6.47","3095122","co38578","norming","","","{""aha"":2}","[0]","../img/tt/1122tt.jpg","",""
"null","<div style=""font-size:60px;""> </div>","null","fixation","html-keyboard-response","342","1252474","0.0-6.0-0.48","3095122","co38578","norming","","","","","","",""
"null","../img/tt/1363tt.jpg","null","mooney1","image-keyboard-response","343","1255482","0.0-6.0-1.48","3095122","co38578","norming","","","","","","",""
"3349.4300000001676","","","post_mooney1_questions","survey-likert","344","1258833","0.0-6.0-2.48","3095122","co38578","norming","","","{""curiosity"":5,""confidence"":1}","[0,1]","../img/tt/1363tt.jpg","",""
"4822.185000000056","","","recognition","survey-text","345","1263657","0.0-6.0-3.48","3095122","co38578","norming","","","{""guess"":""toilet seat""}","","../img/tt/1363tt.jpg","",""
"null","../img/gs/1363gs.jpg","null","reveal","image-keyboard-response","346","1265658","0.0-6.0-4.48","3095122","co38578","norming","","","","","","",""
"null","../img/tt/1363tt.jpg","null","mooney2","image-keyboard-response","347","1267666","0.0-6.0-5.48","3095122","co38578","norming","","","","","","",""
"2862.100000000093","","","post_reveal_questions","survey-likert","348","1270529","0.0-6.0-6.48","3095122","co38578","norming","","","{""aha"":4}","[0]","../img/tt/1363tt.jpg","",""
"null","<div style=""font-size:60px;""> </div>","null","fixation","html-keyboard-response","349","1270733","0.0-6.0-0.49","3095122","co38578","norming","","","","","","",""
"null","../img/tt/184tt.jpg","null","mooney1","image-keyboard-response","350","1273736","0.0-6.0-1.49","3095122","co38578","norming","","","","","","",""
"4088.3350000001956","","","post_mooney1_questions","survey-likert","351","1277825","0.0-6.0-2.49","3095122","co38578","norming","","","{""curiosity"":6,""confidence"":4}","[0,1]","../img/tt/184tt.jpg","",""
"2725.909999999916","","","recognition","survey-text","352","1280553","0.0-6.0-3.49","3095122","co38578","norming","","","{""guess"":""horse""}","","../img/tt/184tt.jpg","",""
"null","../img/gs/184gs.jpg","null","reveal","image-keyboard-response","353","1282563","0.0-6.0-4.49","3095122","co38578","norming","","","","","","",""
"null","../img/tt/184tt.jpg","null","mooney2","image-keyboard-response","354","1284567","0.0-6.0-5.49","3095122","co38578","norming","","","","","","",""
"6057.340000000084","","","post_reveal_questions","survey-likert","355","1290625","0.0-6.0-6.49","3095122","co38578","norming","","","{""aha"":2}","[0]","../img/tt/184tt.jpg","",""
"null","<div style=""font-size:60px;""> </div>","null","fixation","html-keyboard-response","356","1290829","0.0-6.0-0.50","3095122","co38578","norming","","","","","","",""
"null","../img/tt/517tt.jpg","null","mooney1","image-keyboard-response","357","1293833","0.0-6.0-1.50","3095122","co38578","norming","","","","","","",""
"4885.204999999842","","","post_mooney1_questions","survey-likert","358","1298721","0.0-6.0-2.50","3095122","co38578","norming","","","{""curiosity"":5,""confidence"":2}","[0,1]","../img/tt/517tt.jpg","",""
"2990.100000000093","","","recognition","survey-text","359","1301713","0.0-6.0-3.50","3095122","co38578","norming","","","{""guess"":""panda""}","","../img/tt/517tt.jpg","",""
"null","../img/gs/517gs.jpg","null","reveal","image-keyboard-response","360","1303714","0.0-6.0-4.50","3095122","co38578","norming","","","","","","",""
"null","../img/tt/517tt.jpg","null","mooney2","image-keyboard-response","361","1305716","0.0-6.0-5.50","3095122","co38578","norming","","","","","","",""
"2498.5","","","post_reveal_questions","survey-likert","362","1308217","0.0-6.0-6.50","3095122","co38578","norming","","","{""aha"":4}","[0]","../img/tt/517tt.jpg","",""
"null","<div style=""font-size:60px;""> </div>","null","fixation","html-keyboard-response","363","1308421","0.0-6.0-0.51","3095122","co38578","norming","","","","","","",""
"null","../img/tt/1227tt.jpg","null","mooney1","image-keyboard-response","364","1311431","0.0-6.0-1.51","3095122","co38578","norming","","","","","","",""
"2457.7399999999907","","","post_mooney1_questions","survey-likert","365","1313890","0.0-6.0-2.51","3095122","co38578","norming","","","{""curiosity"":6,""confidence"":0}","[0,1]","../img/tt/1227tt.jpg","",""
"534.2099999999627","","","recognition","survey-text","366","1314425","0.0-6.0-3.51","3095122","co38578","norming","","","{""guess"":""""}","","../img/tt/1227tt.jpg","",""
"null","../img/gs/1227gs.jpg","null","reveal","image-keyboard-response","367","1316435","0.0-6.0-4.51","3095122","co38578","norming","","","","","","",""
"null","../img/tt/1227tt.jpg","null","mooney2","image-keyboard-response","368","1318438","0.0-6.0-5.51","3095122","co38578","norming","","","","","","",""
"4560.600000000093","","","post_reveal_questions","survey-likert","369","1323001","0.0-6.0-6.51","3095122","co38578","norming","","","{""aha"":1}","[0]","../img/tt/1227tt.jpg","",""
"null","<div style=""font-size:60px;""> </div>","null","fixation","html-keyboard-response","370","1323212","0.0-6.0-0.52","3095122","co38578","norming","","","","","","",""
"null","../img/tt/552tt.jpg","null","mooney1","image-keyboard-response","371","1326220","0.0-6.0-1.52","3095122","co38578","norming","","","","","","",""
"3193.9550000000745","","","post_mooney1_questions","survey-likert","372","1329417","0.0-6.0-2.52","3095122","co38578","norming","","","{""curiosity"":5,""confidence"":1}","[0,1]","../img/tt/552tt.jpg","",""
"4542.064999999944","","","recognition","survey-text","373","1333961","0.0-6.0-3.52","3095122","co38578","norming","","","{""guess"":""toilet seat""}","","../img/tt/552tt.jpg","",""
"null","../img/gs/552gs.jpg","null","reveal","image-keyboard-response","374","1335963","0.0-6.0-4.52","3095122","co38578","norming","","","","","","",""
"null","../img/tt/552tt.jpg","null","mooney2","image-keyboard-response","375","1337972","0.0-6.0-5.52","3095122","co38578","norming","","","","","","",""
"4250.065000000177","","","post_reveal_questions","survey-likert","376","1342225","0.0-6.0-6.52","3095122","co38578","norming","","","{""aha"":2}","[0]","../img/tt/552tt.jpg","",""
"null","<div style=""font-size:60px;""> </div>","null","fixation","html-keyboard-response","377","1342431","0.0-6.0-0.53","3095122","co38578","norming","","","","","","",""
"null","../img/tt/1205tt.jpg","null","mooney1","image-keyboard-response","378","1345441","0.0-6.0-1.53","3095122","co38578","norming","","","","","","",""
"5221.479999999981","","","post_mooney1_questions","survey-likert","379","1350666","0.0-6.0-2.53","3095122","co38578","norming","","","{""curiosity"":5,""confidence"":0}","[0,1]","../img/tt/1205tt.jpg","",""
"12685.895000000019","","","recognition","survey-text","380","1363353","0.0-6.0-3.53","3095122","co38578","norming","","","{""guess"":""dance""}","","../img/tt/1205tt.jpg","",""
"null","../img/gs/1205gs.jpg","null","reveal","image-keyboard-response","381","1365354","0.0-6.0-4.53","3095122","co38578","norming","","","","","","",""
"null","../img/tt/1205tt.jpg","null","mooney2","image-keyboard-response","382","1367363","0.0-6.0-5.53","3095122","co38578","norming","","","","","","",""
"3403.3199999998324","","","post_reveal_questions","survey-likert","383","1370769","0.0-6.0-6.53","3095122","co38578","norming","","","{""aha"":4}","[0]","../img/tt/1205tt.jpg","",""
"null","<div style=""font-size:60px;""> </div>","null","fixation","html-keyboard-response","384","1370977","0.0-6.0-0.54","3095122","co38578","norming","","","","","","",""
"null","../img/tt/301tt.jpg","null","mooney1","image-keyboard-response","385","1373987","0.0-6.0-1.54","3095122","co38578","norming","","","","","","",""
"3835.2299999999814","","","post_mooney1_questions","survey-likert","386","1377825","0.0-6.0-2.54","3095122","co38578","norming","","","{""curiosity"":5,""confidence"":2}","[0,1]","../img/tt/301tt.jpg","",""
"6158.219999999972","","","recognition","survey-text","387","1383985","0.0-6.0-3.54","3095122","co38578","norming","","","{""guess"":""cinema""}","","../img/tt/301tt.jpg","",""
"null","../img/gs/301gs.jpg","null","reveal","image-keyboard-response","388","1385994","0.0-6.0-4.54","3095122","co38578","norming","","","","","","",""
"null","../img/tt/301tt.jpg","null","mooney2","image-keyboard-response","389","1387996","0.0-6.0-5.54","3095122","co38578","norming","","","","","","",""
"4785.985000000102","","","post_reveal_questions","survey-likert","390","1392785","0.0-6.0-6.54","3095122","co38578","norming","","","{""aha"":0}","[0]","../img/tt/301tt.jpg","",""
"null","<div style=""font-size:60px;""> </div>","null","fixation","html-keyboard-response","391","1392987","0.0-6.0-0.55","3095122","co38578","norming","","","","","","",""
"null","../img/tt/1037tt.jpg","null","mooney1","image-keyboard-response","392","1395991","0.0-6.0-1.55","3095122","co38578","norming","","","","","","",""
"5047.309999999823","","","post_mooney1_questions","survey-likert","393","1401041","0.0-6.0-2.55","3095122","co38578","norming","","","{""curiosity"":5,""confidence"":1}","[0,1]","../img/tt/1037tt.jpg","",""
"2726.220000000205","","","recognition","survey-text","394","1403769","0.0-6.0-3.55","3095122","co38578","norming","","","{""guess"":""fox""}","","../img/tt/1037tt.jpg","",""
"null","../img/gs/1037gs.jpg","null","reveal","image-keyboard-response","395","1405770","0.0-6.0-4.55","3095122","co38578","norming","","","","","","",""
"null","../img/tt/1037tt.jpg","null","mooney2","image-keyboard-response","396","1407772","0.0-6.0-5.55","3095122","co38578","norming","","","","","","",""
"2778.5200000000186","","","post_reveal_questions","survey-likert","397","1410553","0.0-6.0-6.55","3095122","co38578","norming","","","{""aha"":6}","[0]","../img/tt/1037tt.jpg","",""
"null","<div style=""font-size:60px;""> </div>","null","fixation","html-keyboard-response","398","1410755","0.0-6.0-0.56","3095122","co38578","norming","","","","","","",""
"null","../img/tt/1024tt.jpg","null","mooney1","image-keyboard-response","399","1413761","0.0-6.0-1.56","3095122","co38578","norming","","","","","","",""
"9549.284999999916","","","post_mooney1_questions","survey-likert","400","1423313","0.0-6.0-2.56","3095122","co38578","norming","","","{""curiosity"":4,""confidence"":1}","[0,1]","../img/tt/1024tt.jpg","",""
"15093.96999999974","","","recognition","survey-text","401","1438409","0.0-6.0-3.56","3095122","co38578","norming","","","{""guess"":""rowing""}","","../img/tt/1024tt.jpg","",""
"null","../img/gs/1024gs.jpg","null","reveal","image-keyboard-response","402","1440415","0.0-6.0-4.56","3095122","co38578","norming","","","","","","",""
"null","../img/tt/1024tt.jpg","null","mooney2","image-keyboard-response","403","1442422","0.0-6.0-5.56","3095122","co38578","norming","","","","","","",""
"1759.7299999999814","","","post_reveal_questions","survey-likert","404","1444185","0.0-6.0-6.56","3095122","co38578","norming","","","{""aha"":5}","[0]","../img/tt/1024tt.jpg","",""
"null","<div style=""font-size:60px;""> </div>","null","fixation","html-keyboard-response","405","1444388","0.0-6.0-0.57","3095122","co38578","norming","","","","","","",""
"null","../img/tt/1200tt.jpg","null","mooney1","image-keyboard-response","406","1447397","0.0-6.0-1.57","3095122","co38578","norming","","","","","","",""
"2728.445000000065","","","post_mooney1_questions","survey-likert","407","1450129","0.0-6.0-2.57","3095122","co38578","norming","","","{""curiosity"":6,""confidence"":2}","[0,1]","../img/tt/1200tt.jpg","",""
"3613.9899999999907","","","recognition","survey-text","408","1453745","0.0-6.0-3.57","3095122","co38578","norming","","","{""guess"":""rowing""}","","../img/tt/1200tt.jpg","",""
"null","../img/gs/1200gs.jpg","null","reveal","image-keyboard-response","409","1455748","0.0-6.0-4.57","3095122","co38578","norming","","","","","","",""
"null","../img/tt/1200tt.jpg","null","mooney2","image-keyboard-response","410","1457750","0.0-6.0-5.57","3095122","co38578","norming","","","","","","",""
"4153.589999999851","","","post_reveal_questions","survey-likert","411","1461904","0.0-6.0-6.57","3095122","co38578","norming","","","{""aha"":2}","[0]","../img/tt/1200tt.jpg","",""
"null","<div style=""font-size:60px;""> </div>","null","fixation","html-keyboard-response","412","1462115","0.0-6.0-0.58","3095122","co38578","norming","","","","","","",""
"null","../img/tt/1224tt.jpg","null","mooney1","image-keyboard-response","413","1465116","0.0-6.0-1.58","3095122","co38578","norming","","","","","","",""
"2705.345000000205","","","post_mooney1_questions","survey-likert","414","1467825","0.0-6.0-2.58","3095122","co38578","norming","","","{""curiosity"":6,""confidence"":4}","[0,1]","../img/tt/1224tt.jpg","",""
"7509.920000000158","","","recognition","survey-text","415","1475336","0.0-6.0-3.58","3095122","co38578","norming","","","{""guess"":""playing guitar""}","","../img/tt/1224tt.jpg","",""
"null","../img/gs/1224gs.jpg","null","reveal","image-keyboard-response","416","1477341","0.0-6.0-4.58","3095122","co38578","norming","","","","","","",""
"null","../img/tt/1224tt.jpg","null","mooney2","image-keyboard-response","417","1479343","0.0-6.0-5.58","3095122","co38578","norming","","","","","","",""
"3110.6299999998882","","","post_reveal_questions","survey-likert","418","1482457","0.0-6.0-6.58","3095122","co38578","norming","","","{""aha"":4}","[0]","../img/tt/1224tt.jpg","",""
"null","<div style=""font-size:60px;""> </div>","null","fixation","html-keyboard-response","419","1482658","0.0-6.0-0.59","3095122","co38578","norming","","","","","","",""
"null","../img/tt/079tt.jpg","null","mooney1","image-keyboard-response","420","1485663","0.0-6.0-1.59","3095122","co38578","norming","","","","","","",""
"5510.780000000028","","","post_mooney1_questions","survey-likert","421","1491177","0.0-6.0-2.59","3095122","co38578","norming","","","{""curiosity"":6,""confidence"":5}","[0,1]","../img/tt/079tt.jpg","",""
"2501.9150000000373","","","recognition","survey-text","422","1493681","0.0-6.0-3.59","3095122","co38578","norming","","","{""guess"":""bear""}","","../img/tt/079tt.jpg","",""
"null","../img/gs/079gs.jpg","null","reveal","image-keyboard-response","423","1495683","0.0-6.0-4.59","3095122","co38578","norming","","","","","","",""
"null","../img/tt/079tt.jpg","null","mooney2","image-keyboard-response","424","1497695","0.0-6.0-5.59","3095122","co38578","norming","","","","","","",""
"2767.280000000028","","","post_reveal_questions","survey-likert","425","1500465","0.0-6.0-6.59","3095122","co38578","norming","","","{""aha"":1}","[0]","../img/tt/079tt.jpg","",""
"null","<div style=""font-size:60px;""> </div>","null","fixation","html-keyboard-response","426","1500672","0.0-6.0-0.60","3095122","co38578","norming","","","","","","",""
"null","../img/tt/1261tt.jpg","null","mooney1","image-keyboard-response","427","1503677","0.0-6.0-1.60","3095122","co38578","norming","","","","","","",""
"2785.190000000177","","","post_mooney1_questions","survey-likert","428","1506465","0.0-6.0-2.60","3095122","co38578","norming","","","{""curiosity"":6,""confidence"":0}","[0,1]","../img/tt/1261tt.jpg","",""
"1229.6350000000093","","","recognition","survey-text","429","1507697","0.0-6.0-3.60","3095122","co38578","norming","","","{""guess"":""""}","","../img/tt/1261tt.jpg","",""
"null","../img/gs/1261gs.jpg","null","reveal","image-keyboard-response","430","1509698","0.0-6.0-4.60","3095122","co38578","norming","","","","","","",""
"null","../img/tt/1261tt.jpg","null","mooney2","image-keyboard-response","431","1511700","0.0-6.0-5.60","3095122","co38578","norming","","","","","","",""
"4306.574999999721","","","post_reveal_questions","survey-likert","432","1516009","0.0-6.0-6.60","3095122","co38578","norming","","","{""aha"":2}","[0]","../img/tt/1261tt.jpg","",""
"null","<div style=""font-size:60px;""> </div>","null","fixation","html-keyboard-response","433","1516219","0.0-6.0-0.61","3095122","co38578","norming","","","","","","",""
"null","../img/tt/013tt.jpg","null","mooney1","image-keyboard-response","434","1519223","0.0-6.0-1.61","3095122","co38578","norming","","","","","","",""
"3641.064999999944","","","post_mooney1_questions","survey-likert","435","1522865","0.0-6.0-2.61","3095122","co38578","norming","","","{""curiosity"":6,""confidence"":0}","[0,1]","../img/tt/013tt.jpg","",""
"1245.8950000000186","","","recognition","survey-text","436","1524113","0.0-6.0-3.61","3095122","co38578","norming","","","{""guess"":""""}","","../img/tt/013tt.jpg","",""
"null","../img/gs/013gs.jpg","null","reveal","image-keyboard-response","437","1526114","0.0-6.0-4.61","3095122","co38578","norming","","","","","","",""
"null","../img/tt/013tt.jpg","null","mooney2","image-keyboard-response","438","1528117","0.0-6.0-5.61","3095122","co38578","norming","","","","","","",""
"3105.3299999998417","","","post_reveal_questions","survey-likert","439","1531225","0.0-6.0-6.61","3095122","co38578","norming","","","{""aha"":5}","[0]","../img/tt/013tt.jpg","",""
"null","<div style=""font-size:60px;""> </div>","null","fixation","html-keyboard-response","440","1531435","0.0-6.0-0.62","3095122","co38578","norming","","","","","","",""
"null","../img/tt/440tt.jpg","null","mooney1","image-keyboard-response","441","1534438","0.0-6.0-1.62","3095122","co38578","norming","","","","","","",""
"3327.530000000028","","","post_mooney1_questions","survey-likert","442","1537769","0.0-6.0-2.62","3095122","co38578","norming","","","{""curiosity"":6,""confidence"":4}","[0,1]","../img/tt/440tt.jpg","",""
"3390.0149999998976","","","recognition","survey-text","443","1541161","0.0-6.0-3.62","3095122","co38578","norming","","","{""guess"":""boxing""}","","../img/tt/440tt.jpg","",""
"null","../img/gs/440gs.jpg","null","reveal","image-keyboard-response","444","1543168","0.0-6.0-4.62","3095122","co38578","norming","","","","","","",""
"null","../img/tt/440tt.jpg","null","mooney2","image-keyboard-response","445","1545179","0.0-6.0-5.62","3095122","co38578","norming","","","","","","",""
"3131.1999999999534","","","post_reveal_questions","survey-likert","446","1548313","0.0-6.0-6.62","3095122","co38578","norming","","","{""aha"":2}","[0]","../img/tt/440tt.jpg","",""
"null","<div style=""font-size:60px;""> </div>","null","fixation","html-keyboard-response","447","1548520","0.0-6.0-0.63","3095122","co38578","norming","","","","","","",""
"null","../img/tt/108tt.jpg","null","mooney1","image-keyboard-response","448","1551526","0.0-6.0-1.63","3095122","co38578","norming","","","","","","",""
"6847.2050000000745","","","post_mooney1_questions","survey-likert","449","1558372","0.0-6.0-2.63","3095122","co38578","norming","","","{""curiosity"":6,""confidence"":0}","[0,1]","../img/tt/108tt.jpg","",""
"7462.220000000205","","","recognition","survey-text","450","1565836","0.0-6.0-3.63","3095122","co38578","norming","","","{""guess"":""chicken""}","","../img/tt/108tt.jpg","",""
"null","../img/gs/108gs.jpg","null","reveal","image-keyboard-response","451","1567839","0.0-6.0-4.63","3095122","co38578","norming","","","","","","",""
"null","../img/tt/108tt.jpg","null","mooney2","image-keyboard-response","452","1569844","0.0-6.0-5.63","3095122","co38578","norming","","","","","","",""
"2764.8000000000466","","","post_reveal_questions","survey-likert","453","1572612","0.0-6.0-6.63","3095122","co38578","norming","","","{""aha"":2}","[0]","../img/tt/108tt.jpg","",""
"null","<div style=""font-size:60px;""> </div>","null","fixation","html-keyboard-response","454","1572820","0.0-6.0-0.64","3095122","co38578","norming","","","","","","",""
"null","../img/tt/1055tt.jpg","null","mooney1","image-keyboard-response","455","1575823","0.0-6.0-1.64","3095122","co38578","norming","","","","","","",""
"4475.135000000009","","","post_mooney1_questions","survey-likert","456","1580300","0.0-6.0-2.64","3095122","co38578","norming","","","{""curiosity"":6,""confidence"":2}","[0,1]","../img/tt/1055tt.jpg","",""
"2421.9850000001024","","","recognition","survey-text","457","1582724","0.0-6.0-3.64","3095122","co38578","norming","","","{""guess"":""river""}","","../img/tt/1055tt.jpg","",""
"null","../img/gs/1055gs.jpg","null","reveal","image-keyboard-response","458","1584732","0.0-6.0-4.64","3095122","co38578","norming","","","","","","",""
"null","../img/tt/1055tt.jpg","null","mooney2","image-keyboard-response","459","1586734","0.0-6.0-5.64","3095122","co38578","norming","","","","","","",""
"2867.655000000028","","","post_reveal_questions","survey-likert","460","1589604","0.0-6.0-6.64","3095122","co38578","norming","","","{""aha"":4}","[0]","../img/tt/1055tt.jpg","",""
"null","<div style=""font-size:60px;""> </div>","null","fixation","html-keyboard-response","461","1589806","0.0-6.0-0.65","3095122","co38578","norming","","","","","","",""
"null","../img/tt/456tt.jpg","null","mooney1","image-keyboard-response","462","1592813","0.0-6.0-1.65","3095122","co38578","norming","","","","","","",""
"2811.5400000000373","","","post_mooney1_questions","survey-likert","463","1595628","0.0-6.0-2.65","3095122","co38578","norming","","","{""curiosity"":5,""confidence"":2}","[0,1]","../img/tt/456tt.jpg","",""
"3214.155000000028","","","recognition","survey-text","464","1598844","0.0-6.0-3.65","3095122","co38578","norming","","","{""guess"":""snake""}","","../img/tt/456tt.jpg","",""
"null","../img/gs/456gs.jpg","null","reveal","image-keyboard-response","465","1600846","0.0-6.0-4.65","3095122","co38578","norming","","","","","","",""
"null","../img/tt/456tt.jpg","null","mooney2","image-keyboard-response","466","1602848","0.0-6.0-5.65","3095122","co38578","norming","","","","","","",""
"2145.059999999823","","","post_reveal_questions","survey-likert","467","1604996","0.0-6.0-6.65","3095122","co38578","norming","","","{""aha"":4}","[0]","../img/tt/456tt.jpg","",""
"null","<div style=""font-size:60px;""> </div>","null","fixation","html-keyboard-response","468","1605203","0.0-6.0-0.66","3095122","co38578","norming","","","","","","",""
"null","../img/tt/1089tt.jpg","null","mooney1","image-keyboard-response","469","1608210","0.0-6.0-1.66","3095122","co38578","norming","","","","","","",""
"3285.6949999998324","","","post_mooney1_questions","survey-likert","470","1611500","0.0-6.0-2.66","3095122","co38578","norming","","","{""curiosity"":6,""confidence"":5}","[0,1]","../img/tt/1089tt.jpg","",""
"6502.045000000158","","","recognition","survey-text","471","1618003","0.0-6.0-3.66","3095122","co38578","norming","","","{""guess"":""olifant""}","","../img/tt/1089tt.jpg","",""
"null","../img/gs/1089gs.jpg","null","reveal","image-keyboard-response","472","1620004","0.0-6.0-4.66","3095122","co38578","norming","","","","","","",""
"null","../img/tt/1089tt.jpg","null","mooney2","image-keyboard-response","473","1622007","0.0-6.0-5.66","3095122","co38578","norming","","","","","","",""
"1825.6049999999814","","","post_reveal_questions","survey-likert","474","1623835","0.0-6.0-6.66","3095122","co38578","norming","","","{""aha"":1}","[0]","../img/tt/1089tt.jpg","",""
"null","<div style=""font-size:60px;""> </div>","null","fixation","html-keyboard-response","475","1624038","0.0-6.0-0.67","3095122","co38578","norming","","","","","","",""
"null","../img/tt/1084tt.jpg","null","mooney1","image-keyboard-response","476","1627041","0.0-6.0-1.67","3095122","co38578","norming","","","","","","",""
"5614.949999999953","","","post_mooney1_questions","survey-likert","477","1632659","0.0-6.0-2.67","3095122","co38578","norming","","","{""curiosity"":6,""confidence"":5}","[0,1]","../img/tt/1084tt.jpg","",""
"2222.179999999935","","","recognition","survey-text","478","1634883","0.0-6.0-3.67","3095122","co38578","norming","","","{""guess"":""cake""}","","../img/tt/1084tt.jpg","",""
"null","../img/gs/1084gs.jpg","null","reveal","image-keyboard-response","479","1636887","0.0-6.0-4.67","3095122","co38578","norming","","","","","","",""
"null","../img/tt/1084tt.jpg","null","mooney2","image-keyboard-response","480","1638891","0.0-6.0-5.67","3095122","co38578","norming","","","","","","",""
"2197.530000000028","","","post_reveal_questions","survey-likert","481","1641091","0.0-6.0-6.67","3095122","co38578","norming","","","{""aha"":0}","[0]","../img/tt/1084tt.jpg","",""
"null","<div style=""font-size:60px;""> </div>","null","fixation","html-keyboard-response","482","1641293","0.0-6.0-0.68","3095122","co38578","norming","","","","","","",""
"null","../img/tt/1069tt.jpg","null","mooney1","image-keyboard-response","483","1644304","0.0-6.0-1.68","3095122","co38578","norming","","","","","","",""
"3402.344999999972","","","post_mooney1_questions","survey-likert","484","1647707","0.0-6.0-2.68","3095122","co38578","norming","","","{""curiosity"":6,""confidence"":5}","[0,1]","../img/tt/1069tt.jpg","",""
"7854.010000000009","","","recognition","survey-text","485","1655563","0.0-6.0-3.68","3095122","co38578","norming","","","{""guess"":""olifant""}","","../img/tt/1069tt.jpg","",""
"null","../img/gs/1069gs.jpg","null","reveal","image-keyboard-response","486","1657571","0.0-6.0-4.68","3095122","co38578","norming","","","","","","",""
"null","../img/tt/1069tt.jpg","null","mooney2","image-keyboard-response","487","1659576","0.0-6.0-5.68","3095122","co38578","norming","","","","","","",""
"2416.0850000001956","","","post_reveal_questions","survey-likert","488","1661995","0.0-6.0-6.68","3095122","co38578","norming","","","{""aha"":4}","[0]","../img/tt/1069tt.jpg","",""
"null","<div style=""font-size:60px;""> </div>","null","fixation","html-keyboard-response","489","1662198","0.0-6.0-0.69","3095122","co38578","norming","","","","","","",""
"null","../img/tt/031tt.jpg","null","mooney1","image-keyboard-response","490","1665205","0.0-6.0-1.69","3095122","co38578","norming","","","","","","",""
"7883.334999999963","","","post_mooney1_questions","survey-likert","491","1673091","0.0-6.0-2.69","3095122","co38578","norming","","","{""curiosity"":3,""confidence"":6}","[0,1]","../img/tt/031tt.jpg","",""
"3757.719999999972","","","recognition","survey-text","492","1676855","0.0-6.0-3.69","3095122","co38578","norming","","","{""guess"":""bear""}","","../img/tt/031tt.jpg","",""
"null","../img/gs/031gs.jpg","null","reveal","image-keyboard-response","493","1678862","0.0-6.0-4.69","3095122","co38578","norming","","","","","","",""
"null","../img/tt/031tt.jpg","null","mooney2","image-keyboard-response","494","1680865","0.0-6.0-5.69","3095122","co38578","norming","","","","","","",""
"2923.7900000000373","","","post_reveal_questions","survey-likert","495","1683791","0.0-6.0-6.69","3095122","co38578","norming","","","{""aha"":0}","[0]","../img/tt/031tt.jpg","",""
"null","<div style=""font-size:60px;""> </div>","null","fixation","html-keyboard-response","496","1683998","0.0-6.0-0.70","3095122","co38578","norming","","","","","","",""
"null","../img/tt/1243tt.jpg","null","mooney1","image-keyboard-response","497","1687001","0.0-6.0-1.70","3095122","co38578","norming","","","","","","",""
"5314.465000000317","","","post_mooney1_questions","survey-likert","498","1692319","0.0-6.0-2.70","3095122","co38578","norming","","","{""curiosity"":6,""confidence"":4}","[0,1]","../img/tt/1243tt.jpg","",""
"5654.230000000214","","","recognition","survey-text","499","1697975","0.0-6.0-3.70","3095122","co38578","norming","","","{""guess"":""caged lion""}","","../img/tt/1243tt.jpg","",""
"null","../img/gs/1243gs.jpg","null","reveal","image-keyboard-response","500","1699982","0.0-6.0-4.70","3095122","co38578","norming","","","","","","",""
"null","../img/tt/1243tt.jpg","null","mooney2","image-keyboard-response","501","1701985","0.0-6.0-5.70","3095122","co38578","norming","","","","","","",""
"4002.975000000093","","","post_reveal_questions","survey-likert","502","1705991","0.0-6.0-6.70","3095122","co38578","norming","","","{""aha"":2}","[0]","../img/tt/1243tt.jpg","",""
"null","<div style=""font-size:60px;""> </div>","null","fixation","html-keyboard-response","503","1706197","0.0-6.0-0.71","3095122","co38578","norming","","","","","","",""
"null","../img/tt/1270tt.jpg","null","mooney1","image-keyboard-response","504","1709201","0.0-6.0-1.71","3095122","co38578","norming","","","","","","",""
"4514.760000000242","","","post_mooney1_questions","survey-likert","505","1713719","0.0-6.0-2.71","3095122","co38578","norming","","","{""curiosity"":6,""confidence"":4}","[0,1]","../img/tt/1270tt.jpg","",""
"2478.1999999999534","","","recognition","survey-text","506","1716199","0.0-6.0-3.71","3095122","co38578","norming","","","{""guess"":""beaver""}","","../img/tt/1270tt.jpg","",""
"null","../img/gs/1270gs.jpg","null","reveal","image-keyboard-response","507","1718210","0.0-6.0-4.71","3095122","co38578","norming","","","","","","",""
"null","../img/tt/1270tt.jpg","null","mooney2","image-keyboard-response","508","1720212","0.0-6.0-5.71","3095122","co38578","norming","","","","","","",""
"1824.7100000001956","","","post_reveal_questions","survey-likert","509","1722039","0.0-6.0-6.71","3095122","co38578","norming","","","{""aha"":4}","[0]","../img/tt/1270tt.jpg","",""
"null","<div style=""font-size:60px;""> </div>","null","fixation","html-keyboard-response","510","1722245","0.0-6.0-0.72","3095122","co38578","norming","","","","","","",""
"null","../img/tt/1044tt.jpg","null","mooney1","image-keyboard-response","511","1725249","0.0-6.0-1.72","3095122","co38578","norming","","","","","","",""
"2883.5850000001956","","","post_mooney1_questions","survey-likert","512","1728136","0.0-6.0-2.72","3095122","co38578","norming","","","{""curiosity"":6,""confidence"":4}","[0,1]","../img/tt/1044tt.jpg","",""
"1885.8149999999441","","","recognition","survey-text","513","1730023","0.0-6.0-3.72","3095122","co38578","norming","","","{""guess"":""dog""}","","../img/tt/1044tt.jpg","",""
"null","../img/gs/1044gs.jpg","null","reveal","image-keyboard-response","514","1732030","0.0-6.0-4.72","3095122","co38578","norming","","","","","","",""
"null","../img/tt/1044tt.jpg","null","mooney2","image-keyboard-response","515","1734034","0.0-6.0-5.72","3095122","co38578","norming","","","","","","",""
"1666.530000000028","","","post_reveal_questions","survey-likert","516","1735703","0.0-6.0-6.72","3095122","co38578","norming","","","{""aha"":5}","[0]","../img/tt/1044tt.jpg","",""
"null","<div style=""font-size:60px;""> </div>","null","fixation","html-keyboard-response","517","1735906","0.0-6.0-0.73","3095122","co38578","norming","","","","","","",""
"null","../img/tt/1107tt.jpg","null","mooney1","image-keyboard-response","518","1738918","0.0-6.0-1.73","3095122","co38578","norming","","","","","","",""
"5511.530000000028","","","post_mooney1_questions","survey-likert","519","1744433","0.0-6.0-2.73","3095122","co38578","norming","","","{""curiosity"":4,""confidence"":6}","[0,1]","../img/tt/1107tt.jpg","",""
"2209.314999999944","","","recognition","survey-text","520","1746648","0.0-6.0-3.73","3095122","co38578","norming","","","{""guess"":""cat""}","","../img/tt/1107tt.jpg","",""
"null","../img/gs/1107gs.jpg","null","reveal","image-keyboard-response","521","1748657","0.0-6.0-4.73","3095122","co38578","norming","","","","","","",""
"null","../img/tt/1107tt.jpg","null","mooney2","image-keyboard-response","522","1750658","0.0-6.0-5.73","3095122","co38578","norming","","","","","","",""
"2411.3000000000466","","","post_reveal_questions","survey-likert","523","1753073","0.0-6.0-6.73","3095122","co38578","norming","","","{""aha"":0}","[0]","../img/tt/1107tt.jpg","",""
"null","<div style=""font-size:60px;""> </div>","null","fixation","html-keyboard-response","524","1753278","0.0-6.0-0.74","3095122","co38578","norming","","","","","","",""
"null","../img/tt/1199tt.jpg","null","mooney1","image-keyboard-response","525","1756288","0.0-6.0-1.74","3095122","co38578","norming","","","","","","",""
"4701.174999999814","","","post_mooney1_questions","survey-likert","526","1760993","0.0-6.0-2.74","3095122","co38578","norming","","","{""curiosity"":6,""confidence"":4}","[0,1]","../img/tt/1199tt.jpg","",""
"2886.0999999998603","","","recognition","survey-text","527","1763881","0.0-6.0-3.74","3095122","co38578","norming","","","{""guess"":""dance""}","","../img/tt/1199tt.jpg","",""
"null","../img/gs/1199gs.jpg","null","reveal","image-keyboard-response","528","1765890","0.0-6.0-4.74","3095122","co38578","norming","","","","","","",""
"null","../img/tt/1199tt.jpg","null","mooney2","image-keyboard-response","529","1767892","0.0-6.0-5.74","3095122","co38578","norming","","","","","","",""
"3393.5200000002515","","","post_reveal_questions","survey-likert","530","1771289","0.0-6.0-6.74","3095122","co38578","norming","","","{""aha"":4}","[0]","../img/tt/1199tt.jpg","",""
"null","<div style=""font-size:60px;""> </div>","null","fixation","html-keyboard-response","531","1771490","0.0-6.0-0.75","3095122","co38578","norming","","","","","","",""
"null","../img/tt/1175tt.jpg","null","mooney1","image-keyboard-response","532","1774500","0.0-6.0-1.75","3095122","co38578","norming","","","","","","",""
"4049.9849999998696","","","post_mooney1_questions","survey-likert","533","1778553","0.0-6.0-2.75","3095122","co38578","norming","","","{""curiosity"":6,""confidence"":2}","[0,1]","../img/tt/1175tt.jpg","",""
"9541.795000000158","","","recognition","survey-text","534","1788096","0.0-6.0-3.75","3095122","co38578","norming","","","{""guess"":""dirigent""}","","../img/tt/1175tt.jpg","",""
"null","../img/gs/1175gs.jpg","null","reveal","image-keyboard-response","535","1790098","0.0-6.0-4.75","3095122","co38578","norming","","","","","","",""
"null","../img/tt/1175tt.jpg","null","mooney2","image-keyboard-response","536","1792100","0.0-6.0-5.75","3095122","co38578","norming","","","","","","",""
"3801.7650000001304","","","post_reveal_questions","survey-likert","537","1795904","0.0-6.0-6.75","3095122","co38578","norming","","","{""aha"":4}","[0]","../img/tt/1175tt.jpg","",""
"null","<div style=""font-size:60px;""> </div>","null","fixation","html-keyboard-response","538","1796115","0.0-6.0-0.76","3095122","co38578","norming","","","","","","",""
"null","../img/tt/300tt.jpg","null","mooney1","image-keyboard-response","539","1799127","0.0-6.0-1.76","3095122","co38578","norming","","","","","","",""
"5470.904999999795","","","post_mooney1_questions","survey-likert","540","1804601","0.0-6.0-2.76","3095122","co38578","norming","","","{""curiosity"":6,""confidence"":4}","[0,1]","../img/tt/300tt.jpg","",""
"3501.9000000001397","","","recognition","survey-text","541","1808105","0.0-6.0-3.76","3095122","co38578","norming","","","{""guess"":""baseball""}","","../img/tt/300tt.jpg","",""
"null","../img/gs/300gs.jpg","null","reveal","image-keyboard-response","542","1810110","0.0-6.0-4.76","3095122","co38578","norming","","","","","","",""
"null","../img/tt/300tt.jpg","null","mooney2","image-keyboard-response","543","1812111","0.0-6.0-5.76","3095122","co38578","norming","","","","","","",""
"2279.494999999879","","","post_reveal_questions","survey-likert","544","1814393","0.0-6.0-6.76","3095122","co38578","norming","","","{""aha"":4}","[0]","../img/tt/300tt.jpg","",""
"null","<div style=""font-size:60px;""> </div>","null","fixation","html-keyboard-response","545","1814596","0.0-6.0-0.77","3095122","co38578","norming","","","","","","",""
"null","../img/tt/418tt.jpg","null","mooney1","image-keyboard-response","546","1817607","0.0-6.0-1.77","3095122","co38578","norming","","","","","","",""
"3942.5","","","post_mooney1_questions","survey-likert","547","1821553","0.0-6.0-2.77","3095122","co38578","norming","","","{""curiosity"":5,""confidence"":2}","[0,1]","../img/tt/418tt.jpg","",""
"3702.2549999998882","","","recognition","survey-text","548","1825257","0.0-6.0-3.77","3095122","co38578","norming","","","{""guess"":""strawberry""}","","../img/tt/418tt.jpg","",""
"null","../img/gs/418gs.jpg","null","reveal","image-keyboard-response","549","1827264","0.0-6.0-4.77","3095122","co38578","norming","","","","","","",""
"null","../img/tt/418tt.jpg","null","mooney2","image-keyboard-response","550","1829273","0.0-6.0-5.77","3095122","co38578","norming","","","","","","",""
"2597.2649999998976","","","post_reveal_questions","survey-likert","551","1831873","0.0-6.0-6.77","3095122","co38578","norming","","","{""aha"":4}","[0]","../img/tt/418tt.jpg","",""
