"rt","stimulus","key_press","test_part","trial_type","trial_index","time_elapsed","internal_node_id","totalTime","subject","experiment_name","button_pressed","success","responses","question_order","currentStim","old","correct"
"10310.72000000131","Welcome to the experiment. This is an online experiment so please don't close the tab/window until we say goodbye.  Press any key to begin.","75","instructions","html-keyboard-response","0","10321","0.0-0.0","2885521","co38395","norming","","","","","","",""
"30495.92499999926","<div style='word-wrap: break-word; width: 900px'><h3>Please consider this information carefully before deciding whether to participate in this research</h3><ul style='text-align: left; font-size: .8em;'><li><b>Purpose of the research</b>: To examine how people process images.</li><li><b>What you will do in this research</b>:  Stimuli (images) will be presented on the computer and you will be asked different questions about them.</li><li><b>Time required</b>: Participation will take between 45 and 60 minutes to complete.</li><li><b>Risks</b>:  There are no anticipated risks associated with participating in this study. The effects of participating should be comparable to those you would experience from viewing a computer monitor for 30 minutes and using a mouse or keyboard.</li><li><b>Benefits</b>:  This study provides no benefits to you individually except for the credit. The study provides important information about the nature of perception and learning.</li><li><b>Confidentiality</b>:  Your participation in this study will remain confidential. No personally identifiable information will be associated with your data. Your de-identified data may be shared with other researchers and used in future projects.</li><li><b>Participation and withdrawal</b>:  Your participation in this study is completely voluntary and you may refuse to participate or you may choose to withdraw at any time without penalty.</li><li><b>How to contact the researchers</b>: If you have questions or concerns about your participation or payment, or want to request a summary of research findings, please contact Sander Van de Cruys (KU Leuven), at sander.vandecruys@kuleuven.be.</li></ul><p>The nature and purpose of this research have been sufficiently explained and I agree to participate in this study.  I understand that I am free to withdraw at any time without incurring any penalty.</p><p>Please consent by clicking the button below to continue. Otherwise, please exit the study at this time.</p></div>","","instructions","html-button-response","1","40820","0.0-1.0","2885521","co38395","norming","0","","","","","",""
"","","","instructions","fullscreen","2","43729","0.0-2.0","2885521","co38395","norming","","true","","","","",""
"175224.99000000244","","","sona","survey-html-form","3","218965","0.0-3.0","2885521","co38395","norming","","","[{""name"":""sonaid"",""value"":""38395""},{""name"":""debrief"",""value"":""no""},{""name"":""datajoin"",""value"":""no""}]","","","",""
"3451.5250000004016","<div style='word-wrap: break-word; width: 900px'><h3>Instructions</h3><p>This experiment will have 3 parts. In the first part you will see a series of distorted images like the one below on the left. As you can see in the righthand image, the distorted images are derived from actual photographs. In what follows, you will <strong>briefly</strong> be presented with <strong>only</strong> the distorted image.</p> <div style='float: left; margin-right: 20px;'><img src='../img/018tt.jpg' height='250' width='250'></img></div><div style='float: right; margin-left: 20px;'><img src='../img/018gs.jpg' height='250' width='250'></img></div><p>Subsequently you will be asked a few questions about the image: One question on how <strong>curious</strong> you are about the solution and one on how <strong>confident</strong> you are that you know the solution.</p>Next, we ask you to make a guess on what is in the image. Note that it is OK to name just the <strong>basic level category</strong>. For example when you see a parrot in the image, 'parrot' will obviously be a correct answer but also correct is 'bird'. However, 'animal' will <strong>not</strong> be counted as a correct response. For the example above, 'rose' would be correct or 'flower', but not 'plant'. When soccer players are depicted, 'soccer', 'football', 'soccer players' will be correct, but not 'humans', 'outdoors', or 'sports'. You do not need to describe the image in full, just name the main object in it <strong>in one or two words</strong>. All images depict objects from one of the following broad level categories: animals, inanimate objects, plants, sports, vehicles, and food. Recognizing means knowing <strong>more</strong> than these broad labels for a given image. But we always encourage you to <strong>make a guess</strong> if you can. Note that you are allowed to use <strong>Dutch and English</strong> in your answers, whatever comes easiest for you.</p><p>Press any key to continue.</p></div>","101","instructions","html-keyboard-response","4","222418","0.0-4.0","2885521","co38395","norming","","","","","","",""
"18382.965000000695","<div style='word-wrap: break-word; width: 900px'><h3>Instructions</h3> <p>Next, the solution image will be revealed to you and you'll be asked to indicate how strong your <strong>aha-experience</strong> was after seeing the solution. This describes the positive feeling of the 'click' you sometimes experience, when the pieces of the 'puzzle' fall together and you suddenly have 'insight' in the image.</p><img src='aha.jpg' height='188' width='250'></img><p>Note that there are no right or wrong answers. We are interested in what <strong>you</strong> see in the image and how <strong>you</strong> feel about it.</p><p>Press any key to start the experiment.</p></div>","38","instructions","html-keyboard-response","5","240803","0.0-5.0","2885521","co38395","norming","","","","","","",""
"null","<div style=""font-size:60px;""> </div>","null","fixation","html-keyboard-response","6","241012","0.0-6.0-0.0","2885521","co38395","norming","","","","","","",""
"null","../img/tt/580tt.jpg","null","mooney1","image-keyboard-response","7","244024","0.0-6.0-1.0","2885521","co38395","norming","","","","","","",""
"11189.695000000938","","","post_mooney1_questions","survey-likert","8","255218","0.0-6.0-2.0","2885521","co38395","norming","","","{""curiosity"":3,""confidence"":1}","[0,1]","../img/tt/580tt.jpg","",""
"4829.565000000002","","","recognition","survey-text","9","260040","0.0-6.0-3.0","2885521","co38395","norming","","","{""guess"":""face""}","","../img/tt/580tt.jpg","",""
"null","../img/gs/580gs.jpg","null","reveal","image-keyboard-response","10","262051","0.0-6.0-4.0","2885521","co38395","norming","","","","","","",""
"null","../img/tt/580tt.jpg","null","mooney2","image-keyboard-response","11","264055","0.0-6.0-5.0","2885521","co38395","norming","","","","","","",""
"7936.119999998482","","","post_reveal_questions","survey-likert","12","271992","0.0-6.0-6.0","2885521","co38395","norming","","","{""aha"":3}","[0]","../img/tt/580tt.jpg","",""
"null","<div style=""font-size:60px;""> </div>","null","fixation","html-keyboard-response","13","272200","0.0-6.0-0.1","2885521","co38395","norming","","","","","","",""
"null","../img/tt/1159tt.jpg","null","mooney1","image-keyboard-response","14","275206","0.0-6.0-1.1","2885521","co38395","norming","","","","","","",""
"6736.464999998163","","","post_mooney1_questions","survey-likert","15","281944","0.0-6.0-2.1","2885521","co38395","norming","","","{""curiosity"":4,""confidence"":3}","[0,1]","../img/tt/1159tt.jpg","",""
"3302.12499999837","","","recognition","survey-text","16","285248","0.0-6.0-3.1","2885521","co38395","norming","","","{""guess"":""road""}","","../img/tt/1159tt.jpg","",""
"null","../img/gs/1159gs.jpg","null","reveal","image-keyboard-response","17","287251","0.0-6.0-4.1","2885521","co38395","norming","","","","","","",""
"null","../img/tt/1159tt.jpg","null","mooney2","image-keyboard-response","18","289252","0.0-6.0-5.1","2885521","co38395","norming","","","","","","",""
"1953.6150000022026","","","post_reveal_questions","survey-likert","19","291208","0.0-6.0-6.1","2885521","co38395","norming","","","{""aha"":5}","[0]","../img/tt/1159tt.jpg","",""
"null","<div style=""font-size:60px;""> </div>","null","fixation","html-keyboard-response","20","291418","0.0-6.0-0.2","2885521","co38395","norming","","","","","","",""
"null","../img/tt/477tt.jpg","null","mooney1","image-keyboard-response","21","294422","0.0-6.0-1.2","2885521","co38395","norming","","","","","","",""
"3664.875000002212","","","post_mooney1_questions","survey-likert","22","298089","0.0-6.0-2.2","2885521","co38395","norming","","","{""curiosity"":4,""confidence"":2}","[0,1]","../img/tt/477tt.jpg","",""
"2286.3499999985215","","","recognition","survey-text","23","300376","0.0-6.0-3.2","2885521","co38395","norming","","","{""guess"":""bear""}","","../img/tt/477tt.jpg","",""
"null","../img/gs/477gs.jpg","null","reveal","image-keyboard-response","24","302382","0.0-6.0-4.2","2885521","co38395","norming","","","","","","",""
"null","../img/tt/477tt.jpg","null","mooney2","image-keyboard-response","25","304391","0.0-6.0-5.2","2885521","co38395","norming","","","","","","",""
"2262.284999997064","","","post_reveal_questions","survey-likert","26","306656","0.0-6.0-6.2","2885521","co38395","norming","","","{""aha"":4}","[0]","../img/tt/477tt.jpg","",""
"null","<div style=""font-size:60px;""> </div>","null","fixation","html-keyboard-response","27","306858","0.0-6.0-0.3","2885521","co38395","norming","","","","","","",""
"null","../img/tt/118tt.jpg","null","mooney1","image-keyboard-response","28","309870","0.0-6.0-1.3","2885521","co38395","norming","","","","","","",""
"3849.125000000582","","","post_mooney1_questions","survey-likert","29","313720","0.0-6.0-2.3","2885521","co38395","norming","","","{""curiosity"":0,""confidence"":0}","[0,1]","../img/tt/118tt.jpg","",""
"5662.219999998342","","","recognition","survey-text","30","319384","0.0-6.0-3.3","2885521","co38395","norming","","","{""guess"":""instrument""}","","../img/tt/118tt.jpg","",""
"null","../img/gs/118gs.jpg","null","reveal","image-keyboard-response","31","321395","0.0-6.0-4.3","2885521","co38395","norming","","","","","","",""
"null","../img/tt/118tt.jpg","null","mooney2","image-keyboard-response","32","323405","0.0-6.0-5.3","2885521","co38395","norming","","","","","","",""
"1979.8399999999674","","","post_reveal_questions","survey-likert","33","325386","0.0-6.0-6.3","2885521","co38395","norming","","","{""aha"":4}","[0]","../img/tt/118tt.jpg","",""
"null","<div style=""font-size:60px;""> </div>","null","fixation","html-keyboard-response","34","325595","0.0-6.0-0.4","2885521","co38395","norming","","","","","","",""
"null","../img/tt/1101tt.jpg","null","mooney1","image-keyboard-response","35","328604","0.0-6.0-1.4","2885521","co38395","norming","","","","","","",""
"4050.8350000018254","","","post_mooney1_questions","survey-likert","36","332658","0.0-6.0-2.4","2885521","co38395","norming","","","{""curiosity"":5,""confidence"":4}","[0,1]","../img/tt/1101tt.jpg","",""
"3982.130000000354","","","recognition","survey-text","37","336642","0.0-6.0-3.4","2885521","co38395","norming","","","{""guess"":""person""}","","../img/tt/1101tt.jpg","",""
"null","../img/gs/1101gs.jpg","null","reveal","image-keyboard-response","38","338644","0.0-6.0-4.4","2885521","co38395","norming","","","","","","",""
"null","../img/tt/1101tt.jpg","null","mooney2","image-keyboard-response","39","340658","0.0-6.0-5.4","2885521","co38395","norming","","","","","","",""
"4398.5499999980675","","","post_reveal_questions","survey-likert","40","345058","0.0-6.0-6.4","2885521","co38395","norming","","","{""aha"":0}","[0]","../img/tt/1101tt.jpg","",""
"null","<div style=""font-size:60px;""> </div>","null","fixation","html-keyboard-response","41","345265","0.0-6.0-0.5","2885521","co38395","norming","","","","","","",""
"null","../img/tt/1227tt.jpg","null","mooney1","image-keyboard-response","42","348270","0.0-6.0-1.5","2885521","co38395","norming","","","","","","",""
"3920.6500000000233","","","post_mooney1_questions","survey-likert","43","352194","0.0-6.0-2.5","2885521","co38395","norming","","","{""curiosity"":1,""confidence"":0}","[0,1]","../img/tt/1227tt.jpg","",""
"2862.3049999987124","","","recognition","survey-text","44","355058","0.0-6.0-3.5","2885521","co38395","norming","","","{""guess"":""animal""}","","../img/tt/1227tt.jpg","",""
"null","../img/gs/1227gs.jpg","null","reveal","image-keyboard-response","45","357059","0.0-6.0-4.5","2885521","co38395","norming","","","","","","",""
"null","../img/tt/1227tt.jpg","null","mooney2","image-keyboard-response","46","359061","0.0-6.0-5.5","2885521","co38395","norming","","","","","","",""
"1507.914999998291","","","post_reveal_questions","survey-likert","47","360570","0.0-6.0-6.5","2885521","co38395","norming","","","{""aha"":1}","[0]","../img/tt/1227tt.jpg","",""
"null","<div style=""font-size:60px;""> </div>","null","fixation","html-keyboard-response","48","360771","0.0-6.0-0.6","2885521","co38395","norming","","","","","","",""
"null","../img/tt/1156tt.jpg","null","mooney1","image-keyboard-response","49","363781","0.0-6.0-1.6","2885521","co38395","norming","","","","","","",""
"4041.7499999967404","","","post_mooney1_questions","survey-likert","50","367826","0.0-6.0-2.6","2885521","co38395","norming","","","{""curiosity"":4,""confidence"":1}","[0,1]","../img/tt/1156tt.jpg","",""
"2558.2400000021444","","","recognition","survey-text","51","370386","0.0-6.0-3.6","2885521","co38395","norming","","","{""guess"":""swimmer""}","","../img/tt/1156tt.jpg","",""
"null","../img/gs/1156gs.jpg","null","reveal","image-keyboard-response","52","372388","0.0-6.0-4.6","2885521","co38395","norming","","","","","","",""
"null","../img/tt/1156tt.jpg","null","mooney2","image-keyboard-response","53","374393","0.0-6.0-5.6","2885521","co38395","norming","","","","","","",""
"2134.3850000012317","","","post_reveal_questions","survey-likert","54","376529","0.0-6.0-6.6","2885521","co38395","norming","","","{""aha"":0}","[0]","../img/tt/1156tt.jpg","",""
"null","<div style=""font-size:60px;""> </div>","null","fixation","html-keyboard-response","55","376730","0.0-6.0-0.7","2885521","co38395","norming","","","","","","",""
"null","../img/tt/1130tt.jpg","null","mooney1","image-keyboard-response","56","379740","0.0-6.0-1.7","2885521","co38395","norming","","","","","","",""
"6059.514999997162","","","post_mooney1_questions","survey-likert","57","385800","0.0-6.0-2.7","2885521","co38395","norming","","","{""curiosity"":5,""confidence"":5}","[0,1]","../img/tt/1130tt.jpg","",""
"3245.985000001383","","","recognition","survey-text","58","389048","0.0-6.0-3.7","2885521","co38395","norming","","","{""guess"":""biker""}","","../img/tt/1130tt.jpg","",""
"null","../img/gs/1130gs.jpg","null","reveal","image-keyboard-response","59","391049","0.0-6.0-4.7","2885521","co38395","norming","","","","","","",""
"null","../img/tt/1130tt.jpg","null","mooney2","image-keyboard-response","60","393057","0.0-6.0-5.7","2885521","co38395","norming","","","","","","",""
"2532.6849999983096","","","post_reveal_questions","survey-likert","61","395592","0.0-6.0-6.7","2885521","co38395","norming","","","{""aha"":0}","[0]","../img/tt/1130tt.jpg","",""
"null","<div style=""font-size:60px;""> </div>","null","fixation","html-keyboard-response","62","395793","0.0-6.0-0.8","2885521","co38395","norming","","","","","","",""
"null","../img/tt/1363tt.jpg","null","mooney1","image-keyboard-response","63","398802","0.0-6.0-1.8","2885521","co38395","norming","","","","","","",""
"4163.19999999908","","","post_mooney1_questions","survey-likert","64","402968","0.0-6.0-2.8","2885521","co38395","norming","","","{""curiosity"":5,""confidence"":5}","[0,1]","../img/tt/1363tt.jpg","",""
"2942.5850000007194","","","recognition","survey-text","65","405912","0.0-6.0-3.8","2885521","co38395","norming","","","{""guess"":""sauce""}","","../img/tt/1363tt.jpg","",""
"null","../img/gs/1363gs.jpg","null","reveal","image-keyboard-response","66","407918","0.0-6.0-4.8","2885521","co38395","norming","","","","","","",""
"null","../img/tt/1363tt.jpg","null","mooney2","image-keyboard-response","67","409919","0.0-6.0-5.8","2885521","co38395","norming","","","","","","",""
"1894.7899999984656","","","post_reveal_questions","survey-likert","68","411816","0.0-6.0-6.8","2885521","co38395","norming","","","{""aha"":0}","[0]","../img/tt/1363tt.jpg","",""
"null","<div style=""font-size:60px;""> </div>","null","fixation","html-keyboard-response","69","412017","0.0-6.0-0.9","2885521","co38395","norming","","","","","","",""
"null","../img/tt/1107tt.jpg","null","mooney1","image-keyboard-response","70","415020","0.0-6.0-1.9","2885521","co38395","norming","","","","","","",""
"4873.569999999716","","","post_mooney1_questions","survey-likert","71","419896","0.0-6.0-2.9","2885521","co38395","norming","","","{""curiosity"":0,""confidence"":6}","[0,1]","../img/tt/1107tt.jpg","",""
"2661.854999998468","","","recognition","survey-text","72","422559","0.0-6.0-3.9","2885521","co38395","norming","","","{""guess"":""cat""}","","../img/tt/1107tt.jpg","",""
"null","../img/gs/1107gs.jpg","null","reveal","image-keyboard-response","73","424560","0.0-6.0-4.9","2885521","co38395","norming","","","","","","",""
"null","../img/tt/1107tt.jpg","null","mooney2","image-keyboard-response","74","426562","0.0-6.0-5.9","2885521","co38395","norming","","","","","","",""
"2283.5200000008335","","","post_reveal_questions","survey-likert","75","428848","0.0-6.0-6.9","2885521","co38395","norming","","","{""aha"":0}","[0]","../img/tt/1107tt.jpg","",""
"null","<div style=""font-size:60px;""> </div>","null","fixation","html-keyboard-response","76","429049","0.0-6.0-0.10","2885521","co38395","norming","","","","","","",""
"null","../img/tt/496tt.jpg","null","mooney1","image-keyboard-response","77","432058","0.0-6.0-1.10","2885521","co38395","norming","","","","","","",""
"4730.715000001481","","","post_mooney1_questions","survey-likert","78","436792","0.0-6.0-2.10","2885521","co38395","norming","","","{""curiosity"":2,""confidence"":1}","[0,1]","../img/tt/496tt.jpg","",""
"6252.994999998889","","","recognition","survey-text","79","443048","0.0-6.0-3.10","2885521","co38395","norming","","","{""guess"":""bucket""}","","../img/tt/496tt.jpg","",""
"null","../img/gs/496gs.jpg","null","reveal","image-keyboard-response","80","445056","0.0-6.0-4.10","2885521","co38395","norming","","","","","","",""
"null","../img/tt/496tt.jpg","null","mooney2","image-keyboard-response","81","447059","0.0-6.0-5.10","2885521","co38395","norming","","","","","","",""
"2516.0200000027544","","","post_reveal_questions","survey-likert","82","449577","0.0-6.0-6.10","2885521","co38395","norming","","","{""aha"":5}","[0]","../img/tt/496tt.jpg","",""
"null","<div style=""font-size:60px;""> </div>","null","fixation","html-keyboard-response","83","449778","0.0-6.0-0.11","2885521","co38395","norming","","","","","","",""
"null","../img/tt/1217tt.jpg","null","mooney1","image-keyboard-response","84","452785","0.0-6.0-1.11","2885521","co38395","norming","","","","","","",""
"4005.679999998363","","","post_mooney1_questions","survey-likert","85","456794","0.0-6.0-2.11","2885521","co38395","norming","","","{""curiosity"":4,""confidence"":5}","[0,1]","../img/tt/1217tt.jpg","",""
"4214.049999998708","","","recognition","survey-text","86","461010","0.0-6.0-3.11","2885521","co38395","norming","","","{""guess"":""soccer player""}","","../img/tt/1217tt.jpg","",""
"null","../img/gs/1217gs.jpg","null","reveal","image-keyboard-response","87","463010","0.0-6.0-4.11","2885521","co38395","norming","","","","","","",""
"null","../img/tt/1217tt.jpg","null","mooney2","image-keyboard-response","88","465019","0.0-6.0-5.11","2885521","co38395","norming","","","","","","",""
"3092.2949999985285","","","post_reveal_questions","survey-likert","89","468114","0.0-6.0-6.11","2885521","co38395","norming","","","{""aha"":2}","[0]","../img/tt/1217tt.jpg","",""
"null","<div style=""font-size:60px;""> </div>","null","fixation","html-keyboard-response","90","468315","0.0-6.0-0.12","2885521","co38395","norming","","","","","","",""
"null","../img/tt/079tt.jpg","null","mooney1","image-keyboard-response","91","471318","0.0-6.0-1.12","2885521","co38395","norming","","","","","","",""
"3994.0250000000233","","","post_mooney1_questions","survey-likert","92","475313","0.0-6.0-2.12","2885521","co38395","norming","","","{""curiosity"":5,""confidence"":5}","[0,1]","../img/tt/079tt.jpg","",""
"2726.5599999991246","","","recognition","survey-text","93","478041","0.0-6.0-3.12","2885521","co38395","norming","","","{""guess"":""bear""}","","../img/tt/079tt.jpg","",""
"null","../img/gs/079gs.jpg","null","reveal","image-keyboard-response","94","480044","0.0-6.0-4.12","2885521","co38395","norming","","","","","","",""
"null","../img/tt/079tt.jpg","null","mooney2","image-keyboard-response","95","482052","0.0-6.0-5.12","2885521","co38395","norming","","","","","","",""
"1836.6399999977439","","","post_reveal_questions","survey-likert","96","483889","0.0-6.0-6.12","2885521","co38395","norming","","","{""aha"":0}","[0]","../img/tt/079tt.jpg","",""
"null","<div style=""font-size:60px;""> </div>","null","fixation","html-keyboard-response","97","484091","0.0-6.0-0.13","2885521","co38395","norming","","","","","","",""
"null","../img/tt/049tt.jpg","null","mooney1","image-keyboard-response","98","487096","0.0-6.0-1.13","2885521","co38395","norming","","","","","","",""
"3919.630000000354","","","post_mooney1_questions","survey-likert","99","491018","0.0-6.0-2.13","2885521","co38395","norming","","","{""curiosity"":4,""confidence"":4}","[0,1]","../img/tt/049tt.jpg","",""
"2518.2650000024005","","","recognition","survey-text","100","493538","0.0-6.0-3.13","2885521","co38395","norming","","","{""guess"":""lobster""}","","../img/tt/049tt.jpg","",""
"null","../img/gs/049gs.jpg","null","reveal","image-keyboard-response","101","495542","0.0-6.0-4.13","2885521","co38395","norming","","","","","","",""
"null","../img/tt/049tt.jpg","null","mooney2","image-keyboard-response","102","497544","0.0-6.0-5.13","2885521","co38395","norming","","","","","","",""
"3158.9750000021304","","","post_reveal_questions","survey-likert","103","500705","0.0-6.0-6.13","2885521","co38395","norming","","","{""aha"":2}","[0]","../img/tt/049tt.jpg","",""
"null","<div style=""font-size:60px;""> </div>","null","fixation","html-keyboard-response","104","500907","0.0-6.0-0.14","2885521","co38395","norming","","","","","","",""
"null","../img/tt/406tt.jpg","null","mooney1","image-keyboard-response","105","503908","0.0-6.0-1.14","2885521","co38395","norming","","","","","","",""
"4754.525000000314","","","post_mooney1_questions","survey-likert","106","508665","0.0-6.0-2.14","2885521","co38395","norming","","","{""curiosity"":4,""confidence"":2}","[0,1]","../img/tt/406tt.jpg","",""
"1830.2400000029593","","","recognition","survey-text","107","510497","0.0-6.0-3.14","2885521","co38395","norming","","","{""guess"":""bat""}","","../img/tt/406tt.jpg","",""
"null","../img/gs/406gs.jpg","null","reveal","image-keyboard-response","108","512501","0.0-6.0-4.14","2885521","co38395","norming","","","","","","",""
"null","../img/tt/406tt.jpg","null","mooney2","image-keyboard-response","109","514504","0.0-6.0-5.14","2885521","co38395","norming","","","","","","",""
"3199.870000000403","","","post_reveal_questions","survey-likert","110","517705","0.0-6.0-6.14","2885521","co38395","norming","","","{""aha"":0}","[0]","../img/tt/406tt.jpg","",""
"null","<div style=""font-size:60px;""> </div>","null","fixation","html-keyboard-response","111","517907","0.0-6.0-0.15","2885521","co38395","norming","","","","","","",""
"null","../img/tt/552tt.jpg","null","mooney1","image-keyboard-response","112","520910","0.0-6.0-1.15","2885521","co38395","norming","","","","","","",""
"4921.2249999982305","","","post_mooney1_questions","survey-likert","113","525833","0.0-6.0-2.15","2885521","co38395","norming","","","{""curiosity"":3,""confidence"":5}","[0,1]","../img/tt/552tt.jpg","",""
"4878.160000000265","","","recognition","survey-text","114","530713","0.0-6.0-3.15","2885521","co38395","norming","","","{""guess"":""animal""}","","../img/tt/552tt.jpg","",""
"null","../img/gs/552gs.jpg","null","reveal","image-keyboard-response","115","532715","0.0-6.0-4.15","2885521","co38395","norming","","","","","","",""
"null","../img/tt/552tt.jpg","null","mooney2","image-keyboard-response","116","534717","0.0-6.0-5.15","2885521","co38395","norming","","","","","","",""
"2642.01999999932","","","post_reveal_questions","survey-likert","117","537361","0.0-6.0-6.15","2885521","co38395","norming","","","{""aha"":0}","[0]","../img/tt/552tt.jpg","",""
"null","<div style=""font-size:60px;""> </div>","null","fixation","html-keyboard-response","118","537562","0.0-6.0-0.16","2885521","co38395","norming","","","","","","",""
"null","../img/tt/358tt.jpg","null","mooney1","image-keyboard-response","119","540568","0.0-6.0-1.16","2885521","co38395","norming","","","","","","",""
"4222.219999999623","","","post_mooney1_questions","survey-likert","120","544793","0.0-6.0-2.16","2885521","co38395","norming","","","{""curiosity"":2,""confidence"":0}","[0,1]","../img/tt/358tt.jpg","",""
"3189.800000000163","","","recognition","survey-text","121","547985","0.0-6.0-3.16","2885521","co38395","norming","","","{""guess"":""no clue""}","","../img/tt/358tt.jpg","",""
"null","../img/gs/358gs.jpg","null","reveal","image-keyboard-response","122","549993","0.0-6.0-4.16","2885521","co38395","norming","","","","","","",""
"null","../img/tt/358tt.jpg","null","mooney2","image-keyboard-response","123","551996","0.0-6.0-5.16","2885521","co38395","norming","","","","","","",""
"1818.6749999986496","","","post_reveal_questions","survey-likert","124","553817","0.0-6.0-6.16","2885521","co38395","norming","","","{""aha"":4}","[0]","../img/tt/358tt.jpg","",""
"null","<div style=""font-size:60px;""> </div>","null","fixation","html-keyboard-response","125","554022","0.0-6.0-0.17","2885521","co38395","norming","","","","","","",""
"null","../img/tt/296tt.jpg","null","mooney1","image-keyboard-response","126","557025","0.0-6.0-1.17","2885521","co38395","norming","","","","","","",""
"3677.370000001276","","","post_mooney1_questions","survey-likert","127","560705","0.0-6.0-2.17","2885521","co38395","norming","","","{""curiosity"":2,""confidence"":1}","[0,1]","../img/tt/296tt.jpg","",""
"3078.1999999999534","","","recognition","survey-text","128","563785","0.0-6.0-3.17","2885521","co38395","norming","","","{""guess"":""boat""}","","../img/tt/296tt.jpg","",""
"null","../img/gs/296gs.jpg","null","reveal","image-keyboard-response","129","565794","0.0-6.0-4.17","2885521","co38395","norming","","","","","","",""
"null","../img/tt/296tt.jpg","null","mooney2","image-keyboard-response","130","567797","0.0-6.0-5.17","2885521","co38395","norming","","","","","","",""
"2306.44000000041","","","post_reveal_questions","survey-likert","131","570105","0.0-6.0-6.17","2885521","co38395","norming","","","{""aha"":5}","[0]","../img/tt/296tt.jpg","",""
"null","<div style=""font-size:60px;""> </div>","null","fixation","html-keyboard-response","132","570307","0.0-6.0-0.18","2885521","co38395","norming","","","","","","",""
"null","../img/tt/357tt.jpg","null","mooney1","image-keyboard-response","133","573312","0.0-6.0-1.18","2885521","co38395","norming","","","","","","",""
"7256.894999998622","","","post_mooney1_questions","survey-likert","134","580570","0.0-6.0-2.18","2885521","co38395","norming","","","{""curiosity"":4,""confidence"":5}","[0,1]","../img/tt/357tt.jpg","",""
"2486.0700000026263","","","recognition","survey-text","135","583058","0.0-6.0-3.18","2885521","co38395","norming","","","{""guess"":""egel""}","","../img/tt/357tt.jpg","",""
"null","../img/gs/357gs.jpg","null","reveal","image-keyboard-response","136","585060","0.0-6.0-4.18","2885521","co38395","norming","","","","","","",""
"null","../img/tt/357tt.jpg","null","mooney2","image-keyboard-response","137","587062","0.0-6.0-5.18","2885521","co38395","norming","","","","","","",""
"1408.9199999979464","","","post_reveal_questions","survey-likert","138","588473","0.0-6.0-6.18","2885521","co38395","norming","","","{""aha"":0}","[0]","../img/tt/357tt.jpg","",""
"null","<div style=""font-size:60px;""> </div>","null","fixation","html-keyboard-response","139","588679","0.0-6.0-0.19","2885521","co38395","norming","","","","","","",""
"null","../img/tt/020tt.jpg","null","mooney1","image-keyboard-response","140","591682","0.0-6.0-1.19","2885521","co38395","norming","","","","","","",""
"3421.364999998361","","","post_mooney1_questions","survey-likert","141","595106","0.0-6.0-2.19","2885521","co38395","norming","","","{""curiosity"":2,""confidence"":0}","[0,1]","../img/tt/020tt.jpg","",""
"3886.130000002682","","","recognition","survey-text","142","598994","0.0-6.0-3.19","2885521","co38395","norming","","","{""guess"":""/""}","","../img/tt/020tt.jpg","",""
"null","../img/gs/020gs.jpg","null","reveal","image-keyboard-response","143","600997","0.0-6.0-4.19","2885521","co38395","norming","","","","","","",""
"null","../img/tt/020tt.jpg","null","mooney2","image-keyboard-response","144","603000","0.0-6.0-5.19","2885521","co38395","norming","","","","","","",""
"1519.420000000624","","","post_reveal_questions","survey-likert","145","604522","0.0-6.0-6.19","2885521","co38395","norming","","","{""aha"":5}","[0]","../img/tt/020tt.jpg","",""
"null","<div style=""font-size:60px;""> </div>","null","fixation","html-keyboard-response","146","604723","0.0-6.0-0.20","2885521","co38395","norming","","","","","","",""
"null","../img/tt/442tt.jpg","null","mooney1","image-keyboard-response","147","607732","0.0-6.0-1.20","2885521","co38395","norming","","","","","","",""
"3794.129999998375","","","post_mooney1_questions","survey-likert","148","611530","0.0-6.0-2.20","2885521","co38395","norming","","","{""curiosity"":5,""confidence"":6}","[0,1]","../img/tt/442tt.jpg","",""
"4502.409999997355","","","recognition","survey-text","149","616034","0.0-6.0-3.20","2885521","co38395","norming","","","{""guess"":""cactus""}","","../img/tt/442tt.jpg","",""
"null","../img/gs/442gs.jpg","null","reveal","image-keyboard-response","150","618037","0.0-6.0-4.20","2885521","co38395","norming","","","","","","",""
"null","../img/tt/442tt.jpg","null","mooney2","image-keyboard-response","151","620039","0.0-6.0-5.20","2885521","co38395","norming","","","","","","",""
"1896.4099999974715","","","post_reveal_questions","survey-likert","152","621937","0.0-6.0-6.20","2885521","co38395","norming","","","{""aha"":0}","[0]","../img/tt/442tt.jpg","",""
"null","<div style=""font-size:60px;""> </div>","null","fixation","html-keyboard-response","153","622139","0.0-6.0-0.21","2885521","co38395","norming","","","","","","",""
"null","../img/tt/1089tt.jpg","null","mooney1","image-keyboard-response","154","625145","0.0-6.0-1.21","2885521","co38395","norming","","","","","","",""
"4653.859999998473","","","post_mooney1_questions","survey-likert","155","629796","0.0-6.0-2.21","2885521","co38395","norming","","","{""curiosity"":5,""confidence"":2}","[0,1]","../img/tt/1089tt.jpg","",""
"2310.1800000004005","","","recognition","survey-text","156","632108","0.0-6.0-3.21","2885521","co38395","norming","","","{""guess"":""barn""}","","../img/tt/1089tt.jpg","",""
"null","../img/gs/1089gs.jpg","null","reveal","image-keyboard-response","157","634110","0.0-6.0-4.21","2885521","co38395","norming","","","","","","",""
"null","../img/tt/1089tt.jpg","null","mooney2","image-keyboard-response","158","636116","0.0-6.0-5.21","2885521","co38395","norming","","","","","","",""
"3885.3649999982445","","","post_reveal_questions","survey-likert","159","640004","0.0-6.0-6.21","2885521","co38395","norming","","","{""aha"":4}","[0]","../img/tt/1089tt.jpg","",""
"null","<div style=""font-size:60px;""> </div>","null","fixation","html-keyboard-response","160","640205","0.0-6.0-0.22","2885521","co38395","norming","","","","","","",""
"null","../img/tt/1151tt.jpg","null","mooney1","image-keyboard-response","161","643212","0.0-6.0-1.22","2885521","co38395","norming","","","","","","",""
"6285.129999996512","","","post_mooney1_questions","survey-likert","162","649500","0.0-6.0-2.22","2885521","co38395","norming","","","{""curiosity"":4,""confidence"":2}","[0,1]","../img/tt/1151tt.jpg","",""
"1966.2499999976717","","","recognition","survey-text","163","651468","0.0-6.0-3.22","2885521","co38395","norming","","","{""guess"":""bird""}","","../img/tt/1151tt.jpg","",""
"null","../img/gs/1151gs.jpg","null","reveal","image-keyboard-response","164","653470","0.0-6.0-4.22","2885521","co38395","norming","","","","","","",""
"null","../img/tt/1151tt.jpg","null","mooney2","image-keyboard-response","165","655471","0.0-6.0-5.22","2885521","co38395","norming","","","","","","",""
"1882.3800000026822","","","post_reveal_questions","survey-likert","166","657356","0.0-6.0-6.22","2885521","co38395","norming","","","{""aha"":5}","[0]","../img/tt/1151tt.jpg","",""
"null","<div style=""font-size:60px;""> </div>","null","fixation","html-keyboard-response","167","657563","0.0-6.0-0.23","2885521","co38395","norming","","","","","","",""
"null","../img/tt/060tt.jpg","null","mooney1","image-keyboard-response","168","660573","0.0-6.0-1.23","2885521","co38395","norming","","","","","","",""
"4939.925000002375","","","post_mooney1_questions","survey-likert","169","665516","0.0-6.0-2.23","2885521","co38395","norming","","","{""curiosity"":3,""confidence"":2}","[0,1]","../img/tt/060tt.jpg","",""
"2270.1100000012666","","","recognition","survey-text","170","667788","0.0-6.0-3.23","2885521","co38395","norming","","","{""guess"":""beatle""}","","../img/tt/060tt.jpg","",""
"null","../img/gs/060gs.jpg","null","reveal","image-keyboard-response","171","669790","0.0-6.0-4.23","2885521","co38395","norming","","","","","","",""
"null","../img/tt/060tt.jpg","null","mooney2","image-keyboard-response","172","671792","0.0-6.0-5.23","2885521","co38395","norming","","","","","","",""
"1969.6550000007264","","","post_reveal_questions","survey-likert","173","673764","0.0-6.0-6.23","2885521","co38395","norming","","","{""aha"":5}","[0]","../img/tt/060tt.jpg","",""
"null","<div style=""font-size:60px;""> </div>","null","fixation","html-keyboard-response","174","673965","0.0-6.0-0.24","2885521","co38395","norming","","","","","","",""
"null","../img/tt/055tt.jpg","null","mooney1","image-keyboard-response","175","676968","0.0-6.0-1.24","2885521","co38395","norming","","","","","","",""
"3728.23000000068","","","post_mooney1_questions","survey-likert","176","680700","0.0-6.0-2.24","2885521","co38395","norming","","","{""curiosity"":4,""confidence"":3}","[0,1]","../img/tt/055tt.jpg","",""
"2190.130000002682","","","recognition","survey-text","177","682892","0.0-6.0-3.24","2885521","co38395","norming","","","{""guess"":""drink""}","","../img/tt/055tt.jpg","",""
"null","../img/gs/055gs.jpg","null","reveal","image-keyboard-response","178","684893","0.0-6.0-4.24","2885521","co38395","norming","","","","","","",""
"null","../img/tt/055tt.jpg","null","mooney2","image-keyboard-response","179","686897","0.0-6.0-5.24","2885521","co38395","norming","","","","","","",""
"2330.4449999995995","","","post_reveal_questions","survey-likert","180","689227","0.0-6.0-6.24","2885521","co38395","norming","","","{""aha"":4}","[0]","../img/tt/055tt.jpg","",""
"null","<div style=""font-size:60px;""> </div>","null","fixation","html-keyboard-response","181","689429","0.0-6.0-0.25","2885521","co38395","norming","","","","","","",""
"null","../img/tt/1236tt.jpg","null","mooney1","image-keyboard-response","182","692434","0.0-6.0-1.25","2885521","co38395","norming","","","","","","",""
"4368.269999998971","","","post_mooney1_questions","survey-likert","183","696803","0.0-6.0-2.25","2885521","co38395","norming","","","{""curiosity"":3,""confidence"":1}","[0,1]","../img/tt/1236tt.jpg","",""
"2230.224999999278","","","recognition","survey-text","184","699035","0.0-6.0-3.25","2885521","co38395","norming","","","{""guess"":""person""}","","../img/tt/1236tt.jpg","",""
"null","../img/gs/1236gs.jpg","null","reveal","image-keyboard-response","185","701037","0.0-6.0-4.25","2885521","co38395","norming","","","","","","",""
"null","../img/tt/1236tt.jpg","null","mooney2","image-keyboard-response","186","703039","0.0-6.0-5.25","2885521","co38395","norming","","","","","","",""
"1753.5349999997998","","","post_reveal_questions","survey-likert","187","704795","0.0-6.0-6.25","2885521","co38395","norming","","","{""aha"":4}","[0]","../img/tt/1236tt.jpg","",""
"null","<div style=""font-size:60px;""> </div>","null","fixation","html-keyboard-response","188","705005","0.0-6.0-0.26","2885521","co38395","norming","","","","","","",""
"null","../img/tt/1127tt.jpg","null","mooney1","image-keyboard-response","189","708011","0.0-6.0-1.26","2885521","co38395","norming","","","","","","",""
"3565.644999998738","","","post_mooney1_questions","survey-likert","190","711579","0.0-6.0-2.26","2885521","co38395","norming","","","{""curiosity"":3,""confidence"":3}","[0,1]","../img/tt/1127tt.jpg","",""
"3214.319999999134","","","recognition","survey-text","191","714795","0.0-6.0-3.26","2885521","co38395","norming","","","{""guess"":""people inside""}","","../img/tt/1127tt.jpg","",""
"null","../img/gs/1127gs.jpg","null","reveal","image-keyboard-response","192","716803","0.0-6.0-4.26","2885521","co38395","norming","","","","","","",""
"null","../img/tt/1127tt.jpg","null","mooney2","image-keyboard-response","193","718805","0.0-6.0-5.26","2885521","co38395","norming","","","","","","",""
"1755.574999999255","","","post_reveal_questions","survey-likert","194","720563","0.0-6.0-6.26","2885521","co38395","norming","","","{""aha"":5}","[0]","../img/tt/1127tt.jpg","",""
"null","<div style=""font-size:60px;""> </div>","null","fixation","html-keyboard-response","195","720765","0.0-6.0-0.27","2885521","co38395","norming","","","","","","",""
"null","../img/tt/319tt.jpg","null","mooney1","image-keyboard-response","196","723772","0.0-6.0-1.27","2885521","co38395","norming","","","","","","",""
"5860.03500000143","","","post_mooney1_questions","survey-likert","197","729635","0.0-6.0-2.27","2885521","co38395","norming","","","{""curiosity"":4,""confidence"":2}","[0,1]","../img/tt/319tt.jpg","",""
"2070.2799999999115","","","recognition","survey-text","198","731707","0.0-6.0-3.27","2885521","co38395","norming","","","{""guess"":""animal""}","","../img/tt/319tt.jpg","",""
"null","../img/gs/319gs.jpg","null","reveal","image-keyboard-response","199","733709","0.0-6.0-4.27","2885521","co38395","norming","","","","","","",""
"null","../img/tt/319tt.jpg","null","mooney2","image-keyboard-response","200","735711","0.0-6.0-5.27","2885521","co38395","norming","","","","","","",""
"1674.055000003078","","","post_reveal_questions","survey-likert","201","737387","0.0-6.0-6.27","2885521","co38395","norming","","","{""aha"":5}","[0]","../img/tt/319tt.jpg","",""
"null","<div style=""font-size:60px;""> </div>","null","fixation","html-keyboard-response","202","737589","0.0-6.0-0.28","2885521","co38395","norming","","","","","","",""
"null","../img/tt/008tt.jpg","null","mooney1","image-keyboard-response","203","740592","0.0-6.0-1.28","2885521","co38395","norming","","","","","","",""
"4552.814999999129","","","post_mooney1_questions","survey-likert","204","745147","0.0-6.0-2.28","2885521","co38395","norming","","","{""curiosity"":5,""confidence"":0}","[0,1]","../img/tt/008tt.jpg","",""
"3454.1749999988824","","","recognition","survey-text","205","748603","0.0-6.0-3.28","2885521","co38395","norming","","","{""guess"":""map""}","","../img/tt/008tt.jpg","",""
"null","../img/gs/008gs.jpg","null","reveal","image-keyboard-response","206","750614","0.0-6.0-4.28","2885521","co38395","norming","","","","","","",""
"null","../img/tt/008tt.jpg","null","mooney2","image-keyboard-response","207","752616","0.0-6.0-5.28","2885521","co38395","norming","","","","","","",""
"2094.424999999348","","","post_reveal_questions","survey-likert","208","754711","0.0-6.0-6.28","2885521","co38395","norming","","","{""aha"":6}","[0]","../img/tt/008tt.jpg","",""
"null","<div style=""font-size:60px;""> </div>","null","fixation","html-keyboard-response","209","754913","0.0-6.0-0.29","2885521","co38395","norming","","","","","","",""
"null","../img/tt/1199tt.jpg","null","mooney1","image-keyboard-response","210","757924","0.0-6.0-1.29","2885521","co38395","norming","","","","","","",""
"6441.25999999966","","","post_mooney1_questions","survey-likert","211","764368","0.0-6.0-2.29","2885521","co38395","norming","","","{""curiosity"":4,""confidence"":4}","[0,1]","../img/tt/1199tt.jpg","",""
"4270.010000000126","","","recognition","survey-text","212","768640","0.0-6.0-3.29","2885521","co38395","norming","","","{""guess"":""gymnastics""}","","../img/tt/1199tt.jpg","",""
"null","../img/gs/1199gs.jpg","null","reveal","image-keyboard-response","213","770641","0.0-6.0-4.29","2885521","co38395","norming","","","","","","",""
"null","../img/tt/1199tt.jpg","null","mooney2","image-keyboard-response","214","772649","0.0-6.0-5.29","2885521","co38395","norming","","","","","","",""
"1813.0700000001816","","","post_reveal_questions","survey-likert","215","774464","0.0-6.0-6.29","2885521","co38395","norming","","","{""aha"":3}","[0]","../img/tt/1199tt.jpg","",""
"null","<div style=""font-size:60px;""> </div>","null","fixation","html-keyboard-response","216","774666","0.0-6.0-0.30","2885521","co38395","norming","","","","","","",""
"null","../img/tt/1211tt.jpg","null","mooney1","image-keyboard-response","217","777669","0.0-6.0-1.30","2885521","co38395","norming","","","","","","",""
"5808.629999999655","","","post_mooney1_questions","survey-likert","218","783480","0.0-6.0-2.30","2885521","co38395","norming","","","{""curiosity"":4,""confidence"":2}","[0,1]","../img/tt/1211tt.jpg","",""
"2630.0850000007777","","","recognition","survey-text","219","786112","0.0-6.0-3.30","2885521","co38395","norming","","","{""guess"":""fisherman""}","","../img/tt/1211tt.jpg","",""
"null","../img/gs/1211gs.jpg","null","reveal","image-keyboard-response","220","788113","0.0-6.0-4.30","2885521","co38395","norming","","","","","","",""
"null","../img/tt/1211tt.jpg","null","mooney2","image-keyboard-response","221","790115","0.0-6.0-5.30","2885521","co38395","norming","","","","","","",""
"1818.834999998333","","","post_reveal_questions","survey-likert","222","791936","0.0-6.0-6.30","2885521","co38395","norming","","","{""aha"":4}","[0]","../img/tt/1211tt.jpg","",""
"null","<div style=""font-size:60px;""> </div>","null","fixation","html-keyboard-response","223","792137","0.0-6.0-0.31","2885521","co38395","norming","","","","","","",""
"null","../img/tt/1070tt.jpg","null","mooney1","image-keyboard-response","224","795149","0.0-6.0-1.31","2885521","co38395","norming","","","","","","",""
"3512.494999999064","","","post_mooney1_questions","survey-likert","225","798664","0.0-6.0-2.31","2885521","co38395","norming","","","{""curiosity"":4,""confidence"":3}","[0,1]","../img/tt/1070tt.jpg","",""
"2470.010000000824","","","recognition","survey-text","226","801136","0.0-6.0-3.31","2885521","co38395","norming","","","{""guess"":""bread""}","","../img/tt/1070tt.jpg","",""
"null","../img/gs/1070gs.jpg","null","reveal","image-keyboard-response","227","803138","0.0-6.0-4.31","2885521","co38395","norming","","","","","","",""
"null","../img/tt/1070tt.jpg","null","mooney2","image-keyboard-response","228","805143","0.0-6.0-5.31","2885521","co38395","norming","","","","","","",""
"1382.680000002496","","","post_reveal_questions","survey-likert","229","806528","0.0-6.0-6.31","2885521","co38395","norming","","","{""aha"":4}","[0]","../img/tt/1070tt.jpg","",""
"null","<div style=""font-size:60px;""> </div>","null","fixation","html-keyboard-response","230","806732","0.0-6.0-0.32","2885521","co38395","norming","","","","","","",""
"null","../img/tt/1078tt.jpg","null","mooney1","image-keyboard-response","231","809741","0.0-6.0-1.32","2885521","co38395","norming","","","","","","",""
"4097.364999997779","","","post_mooney1_questions","survey-likert","232","813842","0.0-6.0-2.32","2885521","co38395","norming","","","{""curiosity"":4,""confidence"":3}","[0,1]","../img/tt/1078tt.jpg","",""
"4318.080000001006","","","recognition","survey-text","233","818161","0.0-6.0-3.32","2885521","co38395","norming","","","{""guess"":""athlete""}","","../img/tt/1078tt.jpg","",""
"null","../img/gs/1078gs.jpg","null","reveal","image-keyboard-response","234","820166","0.0-6.0-4.32","2885521","co38395","norming","","","","","","",""
"null","../img/tt/1078tt.jpg","null","mooney2","image-keyboard-response","235","822175","0.0-6.0-5.32","2885521","co38395","norming","","","","","","",""
"1352.6950000014622","","","post_reveal_questions","survey-likert","236","823530","0.0-6.0-6.32","2885521","co38395","norming","","","{""aha"":4}","[0]","../img/tt/1078tt.jpg","",""
"null","<div style=""font-size:60px;""> </div>","null","fixation","html-keyboard-response","237","823731","0.0-6.0-0.33","2885521","co38395","norming","","","","","","",""
"null","../img/tt/091tt.jpg","null","mooney1","image-keyboard-response","238","826733","0.0-6.0-1.33","2885521","co38395","norming","","","","","","",""
"4657.579999999143","","","post_mooney1_questions","survey-likert","239","831394","0.0-6.0-2.33","2885521","co38395","norming","","","{""curiosity"":2,""confidence"":1}","[0,1]","../img/tt/091tt.jpg","",""
"2830.3899999990826","","","recognition","survey-text","240","834226","0.0-6.0-3.33","2885521","co38395","norming","","","{""guess"":""chicken""}","","../img/tt/091tt.jpg","",""
"null","../img/gs/091gs.jpg","null","reveal","image-keyboard-response","241","836228","0.0-6.0-4.33","2885521","co38395","norming","","","","","","",""
"null","../img/tt/091tt.jpg","null","mooney2","image-keyboard-response","242","838230","0.0-6.0-5.33","2885521","co38395","norming","","","","","","",""
"1753.2700000010664","","","post_reveal_questions","survey-likert","243","839986","0.0-6.0-6.33","2885521","co38395","norming","","","{""aha"":5}","[0]","../img/tt/091tt.jpg","",""
"null","<div style=""font-size:60px;""> </div>","null","fixation","html-keyboard-response","244","840187","0.0-6.0-0.34","2885521","co38395","norming","","","","","","",""
"null","../img/tt/078tt.jpg","null","mooney1","image-keyboard-response","245","843190","0.0-6.0-1.34","2885521","co38395","norming","","","","","","",""
"2609.085000000079","","","post_mooney1_questions","survey-likert","246","845802","0.0-6.0-2.34","2885521","co38395","norming","","","{""curiosity"":0,""confidence"":6}","[0,1]","../img/tt/078tt.jpg","",""
"2757.9100000002654","","","recognition","survey-text","247","848562","0.0-6.0-3.34","2885521","co38395","norming","","","{""guess"":""grapes""}","","../img/tt/078tt.jpg","",""
"null","../img/gs/078gs.jpg","null","reveal","image-keyboard-response","248","850563","0.0-6.0-4.34","2885521","co38395","norming","","","","","","",""
"null","../img/tt/078tt.jpg","null","mooney2","image-keyboard-response","249","852565","0.0-6.0-5.34","2885521","co38395","norming","","","","","","",""
"2018.2700000004843","","","post_reveal_questions","survey-likert","250","854586","0.0-6.0-6.34","2885521","co38395","norming","","","{""aha"":0}","[0]","../img/tt/078tt.jpg","",""
"null","<div style=""font-size:60px;""> </div>","null","fixation","html-keyboard-response","251","854787","0.0-6.0-0.35","2885521","co38395","norming","","","","","","",""
"null","../img/tt/524tt.jpg","null","mooney1","image-keyboard-response","252","857790","0.0-6.0-1.35","2885521","co38395","norming","","","","","","",""
"5114.059999999823","","","post_mooney1_questions","survey-likert","253","862906","0.0-6.0-2.35","2885521","co38395","norming","","","{""curiosity"":3,""confidence"":2}","[0,1]","../img/tt/524tt.jpg","",""
"2870.1399999990826","","","recognition","survey-text","254","865778","0.0-6.0-3.35","2885521","co38395","norming","","","{""guess"":""elephant""}","","../img/tt/524tt.jpg","",""
"null","../img/gs/524gs.jpg","null","reveal","image-keyboard-response","255","867781","0.0-6.0-4.35","2885521","co38395","norming","","","","","","",""
"null","../img/tt/524tt.jpg","null","mooney2","image-keyboard-response","256","869783","0.0-6.0-5.35","2885521","co38395","norming","","","","","","",""
"3160.695000002277","","","post_reveal_questions","survey-likert","257","872946","0.0-6.0-6.35","2885521","co38395","norming","","","{""aha"":5}","[0]","../img/tt/524tt.jpg","",""
"null","<div style=""font-size:60px;""> </div>","null","fixation","html-keyboard-response","258","873147","0.0-6.0-0.36","2885521","co38395","norming","","","","","","",""
"null","../img/tt/163tt.jpg","null","mooney1","image-keyboard-response","259","876151","0.0-6.0-1.36","2885521","co38395","norming","","","","","","",""
"3641.6900000002934","","","post_mooney1_questions","survey-likert","260","879794","0.0-6.0-2.36","2885521","co38395","norming","","","{""curiosity"":5,""confidence"":4}","[0,1]","../img/tt/163tt.jpg","",""
"2142.1349999981467","","","recognition","survey-text","261","881938","0.0-6.0-3.36","2885521","co38395","norming","","","{""guess"":""leaf""}","","../img/tt/163tt.jpg","",""
"null","../img/gs/163gs.jpg","null","reveal","image-keyboard-response","262","883940","0.0-6.0-4.36","2885521","co38395","norming","","","","","","",""
"null","../img/tt/163tt.jpg","null","mooney2","image-keyboard-response","263","885942","0.0-6.0-5.36","2885521","co38395","norming","","","","","","",""
"1595.0450000017881","","","post_reveal_questions","survey-likert","264","887538","0.0-6.0-6.36","2885521","co38395","norming","","","{""aha"":6}","[0]","../img/tt/163tt.jpg","",""
"null","<div style=""font-size:60px;""> </div>","null","fixation","html-keyboard-response","265","887740","0.0-6.0-0.37","2885521","co38395","norming","","","","","","",""
"null","../img/tt/184tt.jpg","null","mooney1","image-keyboard-response","266","890742","0.0-6.0-1.37","2885521","co38395","norming","","","","","","",""
"5457.435000000289","","","post_mooney1_questions","survey-likert","267","896202","0.0-6.0-2.37","2885521","co38395","norming","","","{""curiosity"":5,""confidence"":2}","[0,1]","../img/tt/184tt.jpg","",""
"1909.634999999893","","","recognition","survey-text","268","898113","0.0-6.0-3.37","2885521","co38395","norming","","","{""guess"":""otter""}","","../img/tt/184tt.jpg","",""
"null","../img/gs/184gs.jpg","null","reveal","image-keyboard-response","269","900120","0.0-6.0-4.37","2885521","co38395","norming","","","","","","",""
"null","../img/tt/184tt.jpg","null","mooney2","image-keyboard-response","270","902121","0.0-6.0-5.37","2885521","co38395","norming","","","","","","",""
"1519.8300000011222","","","post_reveal_questions","survey-likert","271","903641","0.0-6.0-6.37","2885521","co38395","norming","","","{""aha"":5}","[0]","../img/tt/184tt.jpg","",""
"null","<div style=""font-size:60px;""> </div>","null","fixation","html-keyboard-response","272","903842","0.0-6.0-0.38","2885521","co38395","norming","","","","","","",""
"null","../img/tt/1228tt.jpg","null","mooney1","image-keyboard-response","273","906851","0.0-6.0-1.38","2885521","co38395","norming","","","","","","",""
"3525.0500000002794","","","post_mooney1_questions","survey-likert","274","910378","0.0-6.0-2.38","2885521","co38395","norming","","","{""curiosity"":6,""confidence"":3}","[0,1]","../img/tt/1228tt.jpg","",""
"1862.3149999984307","","","recognition","survey-text","275","912241","0.0-6.0-3.38","2885521","co38395","norming","","","{""guess"":""bird""}","","../img/tt/1228tt.jpg","",""
"null","../img/gs/1228gs.jpg","null","reveal","image-keyboard-response","276","914244","0.0-6.0-4.38","2885521","co38395","norming","","","","","","",""
"null","../img/tt/1228tt.jpg","null","mooney2","image-keyboard-response","277","916247","0.0-6.0-5.38","2885521","co38395","norming","","","","","","",""
"2729.5449999982957","","","post_reveal_questions","survey-likert","278","918978","0.0-6.0-6.38","2885521","co38395","norming","","","{""aha"":5}","[0]","../img/tt/1228tt.jpg","",""
"null","<div style=""font-size:60px;""> </div>","null","fixation","html-keyboard-response","279","919185","0.0-6.0-0.39","2885521","co38395","norming","","","","","","",""
"null","../img/tt/1272tt.jpg","null","mooney1","image-keyboard-response","280","922191","0.0-6.0-1.39","2885521","co38395","norming","","","","","","",""
"3712.1299999998882","","","post_mooney1_questions","survey-likert","281","925906","0.0-6.0-2.39","2885521","co38395","norming","","","{""curiosity"":4,""confidence"":3}","[0,1]","../img/tt/1272tt.jpg","",""
"4398.140000001178","","","recognition","survey-text","282","930304","0.0-6.0-3.39","2885521","co38395","norming","","","{""guess"":""baseball""}","","../img/tt/1272tt.jpg","",""
"null","../img/gs/1272gs.jpg","null","reveal","image-keyboard-response","283","932305","0.0-6.0-4.39","2885521","co38395","norming","","","","","","",""
"null","../img/tt/1272tt.jpg","null","mooney2","image-keyboard-response","284","934315","0.0-6.0-5.39","2885521","co38395","norming","","","","","","",""
"2459.0449999995762","","","post_reveal_questions","survey-likert","285","936776","0.0-6.0-6.39","2885521","co38395","norming","","","{""aha"":6}","[0]","../img/tt/1272tt.jpg","",""
"null","<div style=""font-size:60px;""> </div>","null","fixation","html-keyboard-response","286","936977","0.0-6.0-0.40","2885521","co38395","norming","","","","","","",""
"null","../img/tt/1123tt.jpg","null","mooney1","image-keyboard-response","287","939981","0.0-6.0-1.40","2885521","co38395","norming","","","","","","",""
"3663.4200000007404","","","post_mooney1_questions","survey-likert","288","943648","0.0-6.0-2.40","2885521","co38395","norming","","","{""curiosity"":5,""confidence"":1}","[0,1]","../img/tt/1123tt.jpg","",""
"2173.9650000017136","","","recognition","survey-text","289","945824","0.0-6.0-3.40","2885521","co38395","norming","","","{""guess"":""ball""}","","../img/tt/1123tt.jpg","",""
"null","../img/gs/1123gs.jpg","null","reveal","image-keyboard-response","290","947831","0.0-6.0-4.40","2885521","co38395","norming","","","","","","",""
"null","../img/tt/1123tt.jpg","null","mooney2","image-keyboard-response","291","949834","0.0-6.0-5.40","2885521","co38395","norming","","","","","","",""
"1492.5249999978114","","","post_reveal_questions","survey-likert","292","951328","0.0-6.0-6.40","2885521","co38395","norming","","","{""aha"":5}","[0]","../img/tt/1123tt.jpg","",""
"null","<div style=""font-size:60px;""> </div>","null","fixation","html-keyboard-response","293","951529","0.0-6.0-0.41","2885521","co38395","norming","","","","","","",""
"null","../img/tt/1084tt.jpg","null","mooney1","image-keyboard-response","294","954533","0.0-6.0-1.41","2885521","co38395","norming","","","","","","",""
"5543.839999998454","","","post_mooney1_questions","survey-likert","295","960080","0.0-6.0-2.41","2885521","co38395","norming","","","{""curiosity"":1,""confidence"":0}","[0,1]","../img/tt/1084tt.jpg","",""
"4350.11999999918","","","recognition","survey-text","296","964432","0.0-6.0-3.41","2885521","co38395","norming","","","{""guess"":""bread""}","","../img/tt/1084tt.jpg","",""
"null","../img/gs/1084gs.jpg","null","reveal","image-keyboard-response","297","966434","0.0-6.0-4.41","2885521","co38395","norming","","","","","","",""
"null","../img/tt/1084tt.jpg","null","mooney2","image-keyboard-response","298","968437","0.0-6.0-5.41","2885521","co38395","norming","","","","","","",""
"2232.7100000001956","","","post_reveal_questions","survey-likert","299","970672","0.0-6.0-6.41","2885521","co38395","norming","","","{""aha"":2}","[0]","../img/tt/1084tt.jpg","",""
"null","<div style=""font-size:60px;""> </div>","null","fixation","html-keyboard-response","300","970873","0.0-6.0-0.42","2885521","co38395","norming","","","","","","",""
"null","../img/tt/1096tt.jpg","null","mooney1","image-keyboard-response","301","973882","0.0-6.0-1.42","2885521","co38395","norming","","","","","","",""
"5826.610000000102","","","post_mooney1_questions","survey-likert","302","979712","0.0-6.0-2.42","2885521","co38395","norming","","","{""curiosity"":3,""confidence"":1}","[0,1]","../img/tt/1096tt.jpg","",""
"2382.0900000027614","","","recognition","survey-text","303","982096","0.0-6.0-3.42","2885521","co38395","norming","","","{""guess"":""stairs""}","","../img/tt/1096tt.jpg","",""
"null","../img/gs/1096gs.jpg","null","reveal","image-keyboard-response","304","984099","0.0-6.0-4.42","2885521","co38395","norming","","","","","","",""
"null","../img/tt/1096tt.jpg","null","mooney2","image-keyboard-response","305","986100","0.0-6.0-5.42","2885521","co38395","norming","","","","","","",""
"2134.430000001914","","","post_reveal_questions","survey-likert","306","988240","0.0-6.0-6.42","2885521","co38395","norming","","","{""aha"":2}","[0]","../img/tt/1096tt.jpg","",""
"null","<div style=""font-size:60px;""> </div>","null","fixation","html-keyboard-response","307","988451","0.0-6.0-0.43","2885521","co38395","norming","","","","","","",""
"null","../img/tt/1241tt.jpg","null","mooney1","image-keyboard-response","308","991465","0.0-6.0-1.43","2885521","co38395","norming","","","","","","",""
"4711.40000000014","","","post_mooney1_questions","survey-likert","309","996178","0.0-6.0-2.43","2885521","co38395","norming","","","{""curiosity"":2,""confidence"":3}","[0,1]","../img/tt/1241tt.jpg","",""
"1901.9299999999348","","","recognition","survey-text","310","998082","0.0-6.0-3.43","2885521","co38395","norming","","","{""guess"":""dog""}","","../img/tt/1241tt.jpg","",""
"null","../img/gs/1241gs.jpg","null","reveal","image-keyboard-response","311","1000083","0.0-6.0-4.43","2885521","co38395","norming","","","","","","",""
"null","../img/tt/1241tt.jpg","null","mooney2","image-keyboard-response","312","1002085","0.0-6.0-5.43","2885521","co38395","norming","","","","","","",""
"1794.2999999977183","","","post_reveal_questions","survey-likert","313","1003882","0.0-6.0-6.43","2885521","co38395","norming","","","{""aha"":3}","[0]","../img/tt/1241tt.jpg","",""
"null","<div style=""font-size:60px;""> </div>","null","fixation","html-keyboard-response","314","1004084","0.0-6.0-0.44","2885521","co38395","norming","","","","","","",""
"null","../img/tt/1033tt.jpg","null","mooney1","image-keyboard-response","315","1007088","0.0-6.0-1.44","2885521","co38395","norming","","","","","","",""
"5853.33499999973","","","post_mooney1_questions","survey-likert","316","1012946","0.0-6.0-2.44","2885521","co38395","norming","","","{""curiosity"":6,""confidence"":3}","[0,1]","../img/tt/1033tt.jpg","",""
"4638.245000001974","","","recognition","survey-text","317","1017586","0.0-6.0-3.44","2885521","co38395","norming","","","{""guess"":""hockey""}","","../img/tt/1033tt.jpg","",""
"null","../img/gs/1033gs.jpg","null","reveal","image-keyboard-response","318","1019587","0.0-6.0-4.44","2885521","co38395","norming","","","","","","",""
"null","../img/tt/1033tt.jpg","null","mooney2","image-keyboard-response","319","1021590","0.0-6.0-5.44","2885521","co38395","norming","","","","","","",""
"5025.530000002589","","","post_reveal_questions","survey-likert","320","1026618","0.0-6.0-6.44","2885521","co38395","norming","","","{""aha"":3}","[0]","../img/tt/1033tt.jpg","",""
"null","<div style=""font-size:60px;""> </div>","null","fixation","html-keyboard-response","321","1026827","0.0-6.0-0.45","2885521","co38395","norming","","","","","","",""
"null","../img/tt/1260tt.jpg","null","mooney1","image-keyboard-response","322","1029831","0.0-6.0-1.45","2885521","co38395","norming","","","","","","",""
"4200.430000000866","","","post_mooney1_questions","survey-likert","323","1034034","0.0-6.0-2.45","2885521","co38395","norming","","","{""curiosity"":2,""confidence"":0}","[0,1]","../img/tt/1260tt.jpg","",""
"2749.8750000012806","","","recognition","survey-text","324","1036786","0.0-6.0-3.45","2885521","co38395","norming","","","{""guess"":""mountains""}","","../img/tt/1260tt.jpg","",""
"null","../img/gs/1260gs.jpg","null","reveal","image-keyboard-response","325","1038789","0.0-6.0-4.45","2885521","co38395","norming","","","","","","",""
"null","../img/tt/1260tt.jpg","null","mooney2","image-keyboard-response","326","1040790","0.0-6.0-5.45","2885521","co38395","norming","","","","","","",""
"3929.065000000177","","","post_reveal_questions","survey-likert","327","1044722","0.0-6.0-6.45","2885521","co38395","norming","","","{""aha"":5}","[0]","../img/tt/1260tt.jpg","",""
"null","<div style=""font-size:60px;""> </div>","null","fixation","html-keyboard-response","328","1044924","0.0-6.0-0.46","2885521","co38395","norming","","","","","","",""
"null","../img/tt/315tt.jpg","null","mooney1","image-keyboard-response","329","1047927","0.0-6.0-1.46","2885521","co38395","norming","","","","","","",""
"3383.570000001695","","","post_mooney1_questions","survey-likert","330","1051314","0.0-6.0-2.46","2885521","co38395","norming","","","{""curiosity"":3,""confidence"":2}","[0,1]","../img/tt/315tt.jpg","",""
"3262.130000002915","","","recognition","survey-text","331","1054571","0.0-6.0-3.46","2885521","co38395","norming","","","{""guess"":""chicken""}","","../img/tt/315tt.jpg","",""
"null","../img/gs/315gs.jpg","null","reveal","image-keyboard-response","332","1056572","0.0-6.0-4.46","2885521","co38395","norming","","","","","","",""
"null","../img/tt/315tt.jpg","null","mooney2","image-keyboard-response","333","1058574","0.0-6.0-5.46","2885521","co38395","norming","","","","","","",""
"1746.2149999993853","","","post_reveal_questions","survey-likert","334","1060323","0.0-6.0-6.46","2885521","co38395","norming","","","{""aha"":5}","[0]","../img/tt/315tt.jpg","",""
"null","<div style=""font-size:60px;""> </div>","null","fixation","html-keyboard-response","335","1060524","0.0-6.0-0.47","2885521","co38395","norming","","","","","","",""
"null","../img/tt/273tt.jpg","null","mooney1","image-keyboard-response","336","1063528","0.0-6.0-1.47","2885521","co38395","norming","","","","","","",""
"4111.379999998491","","","post_mooney1_questions","survey-likert","337","1067643","0.0-6.0-2.47","2885521","co38395","norming","","","{""curiosity"":2,""confidence"":6}","[0,1]","../img/tt/273tt.jpg","",""
"4621.220000000903","","","recognition","survey-text","338","1072266","0.0-6.0-3.47","2885521","co38395","norming","","","{""guess"":""teeth""}","","../img/tt/273tt.jpg","",""
"null","../img/gs/273gs.jpg","null","reveal","image-keyboard-response","339","1074273","0.0-6.0-4.47","2885521","co38395","norming","","","","","","",""
"null","../img/tt/273tt.jpg","null","mooney2","image-keyboard-response","340","1076275","0.0-6.0-5.47","2885521","co38395","norming","","","","","","",""
"1372.9999999995343","","","post_reveal_questions","survey-likert","341","1077651","0.0-6.0-6.47","2885521","co38395","norming","","","{""aha"":0}","[0]","../img/tt/273tt.jpg","",""
"null","<div style=""font-size:60px;""> </div>","null","fixation","html-keyboard-response","342","1077852","0.0-6.0-0.48","2885521","co38395","norming","","","","","","",""
"null","../img/tt/1004tt.jpg","null","mooney1","image-keyboard-response","343","1080859","0.0-6.0-1.48","2885521","co38395","norming","","","","","","",""
"3156.179999998305","","","post_mooney1_questions","survey-likert","344","1084018","0.0-6.0-2.48","2885521","co38395","norming","","","{""curiosity"":0,""confidence"":6}","[0,1]","../img/tt/1004tt.jpg","",""
"5958.504999998724","","","recognition","survey-text","345","1089979","0.0-6.0-3.48","2885521","co38395","norming","","","{""guess"":""elephant""}","","../img/tt/1004tt.jpg","",""
"null","../img/gs/1004gs.jpg","null","reveal","image-keyboard-response","346","1091981","0.0-6.0-4.48","2885521","co38395","norming","","","","","","",""
"null","../img/tt/1004tt.jpg","null","mooney2","image-keyboard-response","347","1093984","0.0-6.0-5.48","2885521","co38395","norming","","","","","","",""
"1352.3700000003446","","","post_reveal_questions","survey-likert","348","1095339","0.0-6.0-6.48","2885521","co38395","norming","","","{""aha"":1}","[0]","../img/tt/1004tt.jpg","",""
"null","<div style=""font-size:60px;""> </div>","null","fixation","html-keyboard-response","349","1095540","0.0-6.0-0.49","2885521","co38395","norming","","","","","","",""
"null","../img/tt/1044tt.jpg","null","mooney1","image-keyboard-response","350","1098546","0.0-6.0-1.49","2885521","co38395","norming","","","","","","",""
"4757.54999999865","","","post_mooney1_questions","survey-likert","351","1103307","0.0-6.0-2.49","2885521","co38395","norming","","","{""curiosity"":4,""confidence"":0}","[0,1]","../img/tt/1044tt.jpg","",""
"2878.3149999980815","","","recognition","survey-text","352","1106187","0.0-6.0-3.49","2885521","co38395","norming","","","{""guess"":""champagne""}","","../img/tt/1044tt.jpg","",""
"null","../img/gs/1044gs.jpg","null","reveal","image-keyboard-response","353","1108188","0.0-6.0-4.49","2885521","co38395","norming","","","","","","",""
"null","../img/tt/1044tt.jpg","null","mooney2","image-keyboard-response","354","1110192","0.0-6.0-5.49","2885521","co38395","norming","","","","","","",""
"6544.469999997178","","","post_reveal_questions","survey-likert","355","1116745","0.0-6.0-6.49","2885521","co38395","norming","","","{""aha"":5}","[0]","../img/tt/1044tt.jpg","",""
"null","<div style=""font-size:60px;""> </div>","null","fixation","html-keyboard-response","356","1116948","0.0-6.0-0.50","2885521","co38395","norming","","","","","","",""
"null","../img/tt/1037tt.jpg","null","mooney1","image-keyboard-response","357","1119955","0.0-6.0-1.50","2885521","co38395","norming","","","","","","",""
"4403.510000000242","","","post_mooney1_questions","survey-likert","358","1124362","0.0-6.0-2.50","2885521","co38395","norming","","","{""curiosity"":3,""confidence"":2}","[0,1]","../img/tt/1037tt.jpg","",""
"3078.085000001127","","","recognition","survey-text","359","1127441","0.0-6.0-3.50","2885521","co38395","norming","","","{""guess"":""squirrel""}","","../img/tt/1037tt.jpg","",""
"null","../img/gs/1037gs.jpg","null","reveal","image-keyboard-response","360","1129443","0.0-6.0-4.50","2885521","co38395","norming","","","","","","",""
"null","../img/tt/1037tt.jpg","null","mooney2","image-keyboard-response","361","1131444","0.0-6.0-5.50","2885521","co38395","norming","","","","","","",""
"1732.1200000005774","","","post_reveal_questions","survey-likert","362","1133177","0.0-6.0-6.50","2885521","co38395","norming","","","{""aha"":5}","[0]","../img/tt/1037tt.jpg","",""
"null","<div style=""font-size:60px;""> </div>","null","fixation","html-keyboard-response","363","1133380","0.0-6.0-0.51","2885521","co38395","norming","","","","","","",""
"null","../img/tt/416tt.jpg","null","mooney1","image-keyboard-response","364","1136380","0.0-6.0-1.51","2885521","co38395","norming","","","","","","",""
"8409.975000002421","","","post_mooney1_questions","survey-likert","365","1144794","0.0-6.0-2.51","2885521","co38395","norming","","","{""curiosity"":1,""confidence"":6}","[0,1]","../img/tt/416tt.jpg","",""
"3238.070000003092","","","recognition","survey-text","366","1148033","0.0-6.0-3.51","2885521","co38395","norming","","","{""guess"":""ostrich""}","","../img/tt/416tt.jpg","",""
"null","../img/gs/416gs.jpg","null","reveal","image-keyboard-response","367","1150039","0.0-6.0-4.51","2885521","co38395","norming","","","","","","",""
"null","../img/tt/416tt.jpg","null","mooney2","image-keyboard-response","368","1152042","0.0-6.0-5.51","2885521","co38395","norming","","","","","","",""
"1957.744999999879","","","post_reveal_questions","survey-likert","369","1154002","0.0-6.0-6.51","2885521","co38395","norming","","","{""aha"":0}","[0]","../img/tt/416tt.jpg","",""
"null","<div style=""font-size:60px;""> </div>","null","fixation","html-keyboard-response","370","1154203","0.0-6.0-0.52","2885521","co38395","norming","","","","","","",""
"null","../img/tt/515tt.jpg","null","mooney1","image-keyboard-response","371","1157214","0.0-6.0-1.52","2885521","co38395","norming","","","","","","",""
"8080.545000000624","","","post_mooney1_questions","survey-likert","372","1165298","0.0-6.0-2.52","2885521","co38395","norming","","","{""curiosity"":1,""confidence"":4}","[0,1]","../img/tt/515tt.jpg","",""
"1934.2100000029895","","","recognition","survey-text","373","1167233","0.0-6.0-3.52","2885521","co38395","norming","","","{""guess"":""bird""}","","../img/tt/515tt.jpg","",""
"null","../img/gs/515gs.jpg","null","reveal","image-keyboard-response","374","1169242","0.0-6.0-4.52","2885521","co38395","norming","","","","","","",""
"null","../img/tt/515tt.jpg","null","mooney2","image-keyboard-response","375","1171245","0.0-6.0-5.52","2885521","co38395","norming","","","","","","",""
"1177.9299999978393","","","post_reveal_questions","survey-likert","376","1172425","0.0-6.0-6.52","2885521","co38395","norming","","","{""aha"":1}","[0]","../img/tt/515tt.jpg","",""
"null","<div style=""font-size:60px;""> </div>","null","fixation","html-keyboard-response","377","1172631","0.0-6.0-0.53","2885521","co38395","norming","","","","","","",""
"null","../img/tt/085tt.jpg","null","mooney1","image-keyboard-response","378","1175634","0.0-6.0-1.53","2885521","co38395","norming","","","","","","",""
"8454.205000001937","","","post_mooney1_questions","survey-likert","379","1184093","0.0-6.0-2.53","2885521","co38395","norming","","","{""curiosity"":1,""confidence"":6}","[0,1]","../img/tt/085tt.jpg","",""
"3749.81000000122","","","recognition","survey-text","380","1187844","0.0-6.0-3.53","2885521","co38395","norming","","","{""guess"":""krekel""}","","../img/tt/085tt.jpg","",""
"null","../img/gs/085gs.jpg","null","reveal","image-keyboard-response","381","1189846","0.0-6.0-4.53","2885521","co38395","norming","","","","","","",""
"null","../img/tt/085tt.jpg","null","mooney2","image-keyboard-response","382","1191848","0.0-6.0-5.53","2885521","co38395","norming","","","","","","",""
"2609.349999998696","","","post_reveal_questions","survey-likert","383","1194461","0.0-6.0-6.53","2885521","co38395","norming","","","{""aha"":0}","[0]","../img/tt/085tt.jpg","",""
"null","<div style=""font-size:60px;""> </div>","null","fixation","html-keyboard-response","384","1194662","0.0-6.0-0.54","2885521","co38395","norming","","","","","","",""
"null","../img/tt/1307tt.jpg","null","mooney1","image-keyboard-response","385","1197667","0.0-6.0-1.54","2885521","co38395","norming","","","","","","",""
"3846.04000000027","","","post_mooney1_questions","survey-likert","386","1201516","0.0-6.0-2.54","2885521","co38395","norming","","","{""curiosity"":0,""confidence"":5}","[0,1]","../img/tt/1307tt.jpg","",""
"7894.324999997392","","","recognition","survey-text","387","1209413","0.0-6.0-3.54","2885521","co38395","norming","","","{""guess"":""farris wheel""}","","../img/tt/1307tt.jpg","",""
"null","../img/gs/1307gs.jpg","null","reveal","image-keyboard-response","388","1211414","0.0-6.0-4.54","2885521","co38395","norming","","","","","","",""
"null","../img/tt/1307tt.jpg","null","mooney2","image-keyboard-response","389","1213415","0.0-6.0-5.54","2885521","co38395","norming","","","","","","",""
"2265.7650000001304","","","post_reveal_questions","survey-likert","390","1215684","0.0-6.0-6.54","2885521","co38395","norming","","","{""aha"":5}","[0]","../img/tt/1307tt.jpg","",""
"null","<div style=""font-size:60px;""> </div>","null","fixation","html-keyboard-response","391","1215886","0.0-6.0-0.55","2885521","co38395","norming","","","","","","",""
"null","../img/tt/329tt.jpg","null","mooney1","image-keyboard-response","392","1218891","0.0-6.0-1.55","2885521","co38395","norming","","","","","","",""
"4998.060000001686","","","post_mooney1_questions","survey-likert","393","1223893","0.0-6.0-2.55","2885521","co38395","norming","","","{""curiosity"":0,""confidence"":0}","[0,1]","../img/tt/329tt.jpg","",""
"7485.775000001071","","","recognition","survey-text","394","1231380","0.0-6.0-3.55","2885521","co38395","norming","","","{""guess"":""holiday""}","","../img/tt/329tt.jpg","",""
"null","../img/gs/329gs.jpg","null","reveal","image-keyboard-response","395","1233388","0.0-6.0-4.55","2885521","co38395","norming","","","","","","",""
"null","../img/tt/329tt.jpg","null","mooney2","image-keyboard-response","396","1235390","0.0-6.0-5.55","2885521","co38395","norming","","","","","","",""
"1997.985000001965","","","post_reveal_questions","survey-likert","397","1237388","0.0-6.0-6.55","2885521","co38395","norming","","","{""aha"":6}","[0]","../img/tt/329tt.jpg","",""
"null","<div style=""font-size:60px;""> </div>","null","fixation","html-keyboard-response","398","1237589","0.0-6.0-0.56","2885521","co38395","norming","","","","","","",""
"null","../img/tt/1186tt.jpg","null","mooney1","image-keyboard-response","399","1240593","0.0-6.0-1.56","2885521","co38395","norming","","","","","","",""
"5408.4000000003725","","","post_mooney1_questions","survey-likert","400","1246002","0.0-6.0-2.56","2885521","co38395","norming","","","{""curiosity"":4,""confidence"":2}","[0,1]","../img/tt/1186tt.jpg","",""
"3566.015000000363","","","recognition","survey-text","401","1249570","0.0-6.0-3.56","2885521","co38395","norming","","","{""guess"":""cowboy""}","","../img/tt/1186tt.jpg","",""
"null","../img/gs/1186gs.jpg","null","reveal","image-keyboard-response","402","1251572","0.0-6.0-4.56","2885521","co38395","norming","","","","","","",""
"null","../img/tt/1186tt.jpg","null","mooney2","image-keyboard-response","403","1253582","0.0-6.0-5.56","2885521","co38395","norming","","","","","","",""
"1794.2800000021234","","","post_reveal_questions","survey-likert","404","1255377","0.0-6.0-6.56","2885521","co38395","norming","","","{""aha"":5}","[0]","../img/tt/1186tt.jpg","",""
"null","<div style=""font-size:60px;""> </div>","null","fixation","html-keyboard-response","405","1255580","0.0-6.0-0.57","2885521","co38395","norming","","","","","","",""
"null","../img/tt/412tt.jpg","null","mooney1","image-keyboard-response","406","1258592","0.0-6.0-1.57","2885521","co38395","norming","","","","","","",""
"4166.805000000633","","","post_mooney1_questions","survey-likert","407","1262762","0.0-6.0-2.57","2885521","co38395","norming","","","{""curiosity"":0,""confidence"":3}","[0,1]","../img/tt/412tt.jpg","",""
"2086.119999999879","","","recognition","survey-text","408","1264850","0.0-6.0-3.57","2885521","co38395","norming","","","{""guess"":""drink""}","","../img/tt/412tt.jpg","",""
"null","../img/gs/412gs.jpg","null","reveal","image-keyboard-response","409","1266852","0.0-6.0-4.57","2885521","co38395","norming","","","","","","",""
"null","../img/tt/412tt.jpg","null","mooney2","image-keyboard-response","410","1268857","0.0-6.0-5.57","2885521","co38395","norming","","","","","","",""
"1576.1449999990873","","","post_reveal_questions","survey-likert","411","1270434","0.0-6.0-6.57","2885521","co38395","norming","","","{""aha"":3}","[0]","../img/tt/412tt.jpg","",""
"null","<div style=""font-size:60px;""> </div>","null","fixation","html-keyboard-response","412","1270635","0.0-6.0-0.58","2885521","co38395","norming","","","","","","",""
"null","../img/tt/378tt.jpg","null","mooney1","image-keyboard-response","413","1273644","0.0-6.0-1.58","2885521","co38395","norming","","","","","","",""
"3674.1400000026915","","","post_mooney1_questions","survey-likert","414","1277322","0.0-6.0-2.58","2885521","co38395","norming","","","{""curiosity"":1,""confidence"":0}","[0,1]","../img/tt/378tt.jpg","",""
"2278.300000001909","","","recognition","survey-text","415","1279601","0.0-6.0-3.58","2885521","co38395","norming","","","{""guess"":""crab""}","","../img/tt/378tt.jpg","",""
"null","../img/gs/378gs.jpg","null","reveal","image-keyboard-response","416","1281604","0.0-6.0-4.58","2885521","co38395","norming","","","","","","",""
"null","../img/tt/378tt.jpg","null","mooney2","image-keyboard-response","417","1283606","0.0-6.0-5.58","2885521","co38395","norming","","","","","","",""
"1681.4849999973085","","","post_reveal_questions","survey-likert","418","1285289","0.0-6.0-6.58","2885521","co38395","norming","","","{""aha"":5}","[0]","../img/tt/378tt.jpg","",""
"null","<div style=""font-size:60px;""> </div>","null","fixation","html-keyboard-response","419","1285491","0.0-6.0-0.59","2885521","co38395","norming","","","","","","",""
"null","../img/tt/1234tt.jpg","null","mooney1","image-keyboard-response","420","1288496","0.0-6.0-1.59","2885521","co38395","norming","","","","","","",""
"3711.9000000020023","","","post_mooney1_questions","survey-likert","421","1292210","0.0-6.0-2.59","2885521","co38395","norming","","","{""curiosity"":2,""confidence"":1}","[0,1]","../img/tt/1234tt.jpg","",""
"2478.41999999946","","","recognition","survey-text","422","1294690","0.0-6.0-3.59","2885521","co38395","norming","","","{""guess"":""water""}","","../img/tt/1234tt.jpg","",""
"null","../img/gs/1234gs.jpg","null","reveal","image-keyboard-response","423","1296691","0.0-6.0-4.59","2885521","co38395","norming","","","","","","",""
"null","../img/tt/1234tt.jpg","null","mooney2","image-keyboard-response","424","1298694","0.0-6.0-5.59","2885521","co38395","norming","","","","","","",""
"2224.9750000010245","","","post_reveal_questions","survey-likert","425","1300921","0.0-6.0-6.59","2885521","co38395","norming","","","{""aha"":3}","[0]","../img/tt/1234tt.jpg","",""
"null","<div style=""font-size:60px;""> </div>","null","fixation","html-keyboard-response","426","1301123","0.0-6.0-0.60","2885521","co38395","norming","","","","","","",""
"null","../img/tt/105tt.jpg","null","mooney1","image-keyboard-response","427","1304135","0.0-6.0-1.60","2885521","co38395","norming","","","","","","",""
"4199.610000003129","","","post_mooney1_questions","survey-likert","428","1308338","0.0-6.0-2.60","2885521","co38395","norming","","","{""curiosity"":2,""confidence"":4}","[0,1]","../img/tt/105tt.jpg","",""
"3509.9950000005774","","","recognition","survey-text","429","1311850","0.0-6.0-3.60","2885521","co38395","norming","","","{""guess"":""paperclips""}","","../img/tt/105tt.jpg","",""
"null","../img/gs/105gs.jpg","null","reveal","image-keyboard-response","430","1313856","0.0-6.0-4.60","2885521","co38395","norming","","","","","","",""
"null","../img/tt/105tt.jpg","null","mooney2","image-keyboard-response","431","1315860","0.0-6.0-5.60","2885521","co38395","norming","","","","","","",""
"1859.7699999990873","","","post_reveal_questions","survey-likert","432","1317722","0.0-6.0-6.60","2885521","co38395","norming","","","{""aha"":0}","[0]","../img/tt/105tt.jpg","",""
"null","<div style=""font-size:60px;""> </div>","null","fixation","html-keyboard-response","433","1317924","0.0-6.0-0.61","2885521","co38395","norming","","","","","","",""
"null","../img/tt/056tt.jpg","null","mooney1","image-keyboard-response","434","1320927","0.0-6.0-1.61","2885521","co38395","norming","","","","","","",""
"4162.210000002291","","","post_mooney1_questions","survey-likert","435","1325090","0.0-6.0-2.61","2885521","co38395","norming","","","{""curiosity"":5,""confidence"":0}","[0,1]","../img/tt/056tt.jpg","",""
"1670.0549999985378","","","recognition","survey-text","436","1326762","0.0-6.0-3.61","2885521","co38395","norming","","","{""guess"":""face""}","","../img/tt/056tt.jpg","",""
"null","../img/gs/056gs.jpg","null","reveal","image-keyboard-response","437","1328764","0.0-6.0-4.61","2885521","co38395","norming","","","","","","",""
"null","../img/tt/056tt.jpg","null","mooney2","image-keyboard-response","438","1330767","0.0-6.0-5.61","2885521","co38395","norming","","","","","","",""
"1753.035000001546","","","post_reveal_questions","survey-likert","439","1332522","0.0-6.0-6.61","2885521","co38395","norming","","","{""aha"":5}","[0]","../img/tt/056tt.jpg","",""
"null","<div style=""font-size:60px;""> </div>","null","fixation","html-keyboard-response","440","1332724","0.0-6.0-0.62","2885521","co38395","norming","","","","","","",""
"null","../img/tt/1046tt.jpg","null","mooney1","image-keyboard-response","441","1335726","0.0-6.0-1.62","2885521","co38395","norming","","","","","","",""
"5000.724999997998","","","post_mooney1_questions","survey-likert","442","1340730","0.0-6.0-2.62","2885521","co38395","norming","","","{""curiosity"":1,""confidence"":4}","[0,1]","../img/tt/1046tt.jpg","",""
"2205.9350000016857","","","recognition","survey-text","443","1342938","0.0-6.0-3.62","2885521","co38395","norming","","","{""guess"":""salad""}","","../img/tt/1046tt.jpg","",""
"null","../img/gs/1046gs.jpg","null","reveal","image-keyboard-response","444","1344946","0.0-6.0-4.62","2885521","co38395","norming","","","","","","",""
"null","../img/tt/1046tt.jpg","null","mooney2","image-keyboard-response","445","1346949","0.0-6.0-5.62","2885521","co38395","norming","","","","","","",""
"1940.084999998333","","","post_reveal_questions","survey-likert","446","1348890","0.0-6.0-6.62","2885521","co38395","norming","","","{""aha"":3}","[0]","../img/tt/1046tt.jpg","",""
"null","<div style=""font-size:60px;""> </div>","null","fixation","html-keyboard-response","447","1349091","0.0-6.0-0.63","2885521","co38395","norming","","","","","","",""
"null","../img/tt/590tt.jpg","null","mooney1","image-keyboard-response","448","1352104","0.0-6.0-1.63","2885521","co38395","norming","","","","","","",""
"4606.909999998519","","","post_mooney1_questions","survey-likert","449","1356714","0.0-6.0-2.63","2885521","co38395","norming","","","{""curiosity"":4,""confidence"":1}","[0,1]","../img/tt/590tt.jpg","",""
"2461.939999997383","","","recognition","survey-text","450","1359178","0.0-6.0-3.63","2885521","co38395","norming","","","{""guess"":""cannon""}","","../img/tt/590tt.jpg","",""
"null","../img/gs/590gs.jpg","null","reveal","image-keyboard-response","451","1361182","0.0-6.0-4.63","2885521","co38395","norming","","","","","","",""
"null","../img/tt/590tt.jpg","null","mooney2","image-keyboard-response","452","1363184","0.0-6.0-5.63","2885521","co38395","norming","","","","","","",""
"1455.494999998249","","","post_reveal_questions","survey-likert","453","1364644","0.0-6.0-6.63","2885521","co38395","norming","","","{""aha"":0}","[0]","../img/tt/590tt.jpg","",""
"null","<div style=""font-size:60px;""> </div>","null","fixation","html-keyboard-response","454","1364845","0.0-6.0-0.64","2885521","co38395","norming","","","","","","",""
"null","../img/tt/603tt.jpg","null","mooney1","image-keyboard-response","455","1367850","0.0-6.0-1.64","2885521","co38395","norming","","","","","","",""
"5046.469999997411","","","post_mooney1_questions","survey-likert","456","1372900","0.0-6.0-2.64","2885521","co38395","norming","","","{""curiosity"":1,""confidence"":3}","[0,1]","../img/tt/603tt.jpg","",""
"2998.1399999996647","","","recognition","survey-text","457","1375900","0.0-6.0-3.64","2885521","co38395","norming","","","{""guess"":""cat""}","","../img/tt/603tt.jpg","",""
"null","../img/gs/603gs.jpg","null","reveal","image-keyboard-response","458","1377902","0.0-6.0-4.64","2885521","co38395","norming","","","","","","",""
"null","../img/tt/603tt.jpg","null","mooney2","image-keyboard-response","459","1379904","0.0-6.0-5.64","2885521","co38395","norming","","","","","","",""
"2792.3499999996275","","","post_reveal_questions","survey-likert","460","1382700","0.0-6.0-6.64","2885521","co38395","norming","","","{""aha"":0}","[0]","../img/tt/603tt.jpg","",""
"null","<div style=""font-size:60px;""> </div>","null","fixation","html-keyboard-response","461","1382901","0.0-6.0-0.65","2885521","co38395","norming","","","","","","",""
"null","../img/tt/096tt.jpg","null","mooney1","image-keyboard-response","462","1385904","0.0-6.0-1.65","2885521","co38395","norming","","","","","","",""
"2608.005000001751","","","post_mooney1_questions","survey-likert","463","1388516","0.0-6.0-2.65","2885521","co38395","norming","","","{""curiosity"":0,""confidence"":6}","[0,1]","../img/tt/096tt.jpg","",""
"2310.3649999976624","","","recognition","survey-text","464","1390828","0.0-6.0-3.65","2885521","co38395","norming","","","{""guess"":""piano""}","","../img/tt/096tt.jpg","",""
"null","../img/gs/096gs.jpg","null","reveal","image-keyboard-response","465","1392836","0.0-6.0-4.65","2885521","co38395","norming","","","","","","",""
"null","../img/tt/096tt.jpg","null","mooney2","image-keyboard-response","466","1394839","0.0-6.0-5.65","2885521","co38395","norming","","","","","","",""
"1489.9250000016764","","","post_reveal_questions","survey-likert","467","1396332","0.0-6.0-6.65","2885521","co38395","norming","","","{""aha"":0}","[0]","../img/tt/096tt.jpg","",""
"null","<div style=""font-size:60px;""> </div>","null","fixation","html-keyboard-response","468","1396534","0.0-6.0-0.66","2885521","co38395","norming","","","","","","",""
"null","../img/tt/1226tt.jpg","null","mooney1","image-keyboard-response","469","1399538","0.0-6.0-1.66","2885521","co38395","norming","","","","","","",""
"5046.064999998547","","","post_mooney1_questions","survey-likert","470","1404588","0.0-6.0-2.66","2885521","co38395","norming","","","{""curiosity"":1,""confidence"":5}","[0,1]","../img/tt/1226tt.jpg","",""
"2974.149999998044","","","recognition","survey-text","471","1407564","0.0-6.0-3.66","2885521","co38395","norming","","","{""guess"":""chicken""}","","../img/tt/1226tt.jpg","",""
"null","../img/gs/1226gs.jpg","null","reveal","image-keyboard-response","472","1409571","0.0-6.0-4.66","2885521","co38395","norming","","","","","","",""
"null","../img/tt/1226tt.jpg","null","mooney2","image-keyboard-response","473","1411574","0.0-6.0-5.66","2885521","co38395","norming","","","","","","",""
"1493.044999999227","","","post_reveal_questions","survey-likert","474","1413068","0.0-6.0-6.66","2885521","co38395","norming","","","{""aha"":1}","[0]","../img/tt/1226tt.jpg","",""
"null","<div style=""font-size:60px;""> </div>","null","fixation","html-keyboard-response","475","1413268","0.0-6.0-0.67","2885521","co38395","norming","","","","","","",""
"null","../img/tt/1262tt.jpg","null","mooney1","image-keyboard-response","476","1416271","0.0-6.0-1.67","2885521","co38395","norming","","","","","","",""
"3683.5550000031944","","","post_mooney1_questions","survey-likert","477","1419956","0.0-6.0-2.67","2885521","co38395","norming","","","{""curiosity"":5,""confidence"":1}","[0,1]","../img/tt/1262tt.jpg","",""
"3094.1199999980163","","","recognition","survey-text","478","1423052","0.0-6.0-3.67","2885521","co38395","norming","","","{""guess"":""gecko""}","","../img/tt/1262tt.jpg","",""
"null","../img/gs/1262gs.jpg","null","reveal","image-keyboard-response","479","1425054","0.0-6.0-4.67","2885521","co38395","norming","","","","","","",""
"null","../img/tt/1262tt.jpg","null","mooney2","image-keyboard-response","480","1427059","0.0-6.0-5.67","2885521","co38395","norming","","","","","","",""
"2263.3050000004005","","","post_reveal_questions","survey-likert","481","1429325","0.0-6.0-6.67","2885521","co38395","norming","","","{""aha"":4}","[0]","../img/tt/1262tt.jpg","",""
"null","<div style=""font-size:60px;""> </div>","null","fixation","html-keyboard-response","482","1429531","0.0-6.0-0.68","2885521","co38395","norming","","","","","","",""
"null","../img/tt/1275tt.jpg","null","mooney1","image-keyboard-response","483","1432542","0.0-6.0-1.68","2885521","co38395","norming","","","","","","",""
"4195.530000000726","","","post_mooney1_questions","survey-likert","484","1436742","0.0-6.0-2.68","2885521","co38395","norming","","","{""curiosity"":1,""confidence"":6}","[0,1]","../img/tt/1275tt.jpg","",""
"3797.835000001127","","","recognition","survey-text","485","1440541","0.0-6.0-3.68","2885521","co38395","norming","","","{""guess"":""pig""}","","../img/tt/1275tt.jpg","",""
"null","../img/gs/1275gs.jpg","null","reveal","image-keyboard-response","486","1442547","0.0-6.0-4.68","2885521","co38395","norming","","","","","","",""
"null","../img/tt/1275tt.jpg","null","mooney2","image-keyboard-response","487","1444556","0.0-6.0-5.68","2885521","co38395","norming","","","","","","",""
"3670.56500000041","","","post_reveal_questions","survey-likert","488","1448229","0.0-6.0-6.68","2885521","co38395","norming","","","{""aha"":0}","[0]","../img/tt/1275tt.jpg","",""
"null","<div style=""font-size:60px;""> </div>","null","fixation","html-keyboard-response","489","1448431","0.0-6.0-0.69","2885521","co38395","norming","","","","","","",""
"null","../img/tt/1066tt.jpg","null","mooney1","image-keyboard-response","490","1451440","0.0-6.0-1.69","2885521","co38395","norming","","","","","","",""
"4060.464999998454","","","post_mooney1_questions","survey-likert","491","1455501","0.0-6.0-2.69","2885521","co38395","norming","","","{""curiosity"":0,""confidence"":6}","[0,1]","../img/tt/1066tt.jpg","",""
"1758.1299999984913","","","recognition","survey-text","492","1457261","0.0-6.0-3.69","2885521","co38395","norming","","","{""guess"":""bus""}","","../img/tt/1066tt.jpg","",""
"null","../img/gs/1066gs.jpg","null","reveal","image-keyboard-response","493","1459263","0.0-6.0-4.69","2885521","co38395","norming","","","","","","",""
"null","../img/tt/1066tt.jpg","null","mooney2","image-keyboard-response","494","1461265","0.0-6.0-5.69","2885521","co38395","norming","","","","","","",""
"1561.3450000020675","","","post_reveal_questions","survey-likert","495","1462830","0.0-6.0-6.69","2885521","co38395","norming","","","{""aha"":0}","[0]","../img/tt/1066tt.jpg","",""
"null","<div style=""font-size:60px;""> </div>","null","fixation","html-keyboard-response","496","1463031","0.0-6.0-0.70","2885521","co38395","norming","","","","","","",""
"null","../img/tt/1366tt.jpg","null","mooney1","image-keyboard-response","497","1466043","0.0-6.0-1.70","2885521","co38395","norming","","","","","","",""
"4526.935000001686","","","post_mooney1_questions","survey-likert","498","1470573","0.0-6.0-2.70","2885521","co38395","norming","","","{""curiosity"":0,""confidence"":4}","[0,1]","../img/tt/1366tt.jpg","",""
"1582.4050000009593","","","recognition","survey-text","499","1472157","0.0-6.0-3.70","2885521","co38395","norming","","","{""guess"":""food""}","","../img/tt/1366tt.jpg","",""
"null","../img/gs/1366gs.jpg","null","reveal","image-keyboard-response","500","1474159","0.0-6.0-4.70","2885521","co38395","norming","","","","","","",""
"null","../img/tt/1366tt.jpg","null","mooney2","image-keyboard-response","501","1476161","0.0-6.0-5.70","2885521","co38395","norming","","","","","","",""
"3265.619999998482","","","post_reveal_questions","survey-likert","502","1479429","0.0-6.0-6.70","2885521","co38395","norming","","","{""aha"":1}","[0]","../img/tt/1366tt.jpg","",""
"null","<div style=""font-size:60px;""> </div>","null","fixation","html-keyboard-response","503","1479637","0.0-6.0-0.71","2885521","co38395","norming","","","","","","",""
"null","../img/tt/1255tt.jpg","null","mooney1","image-keyboard-response","504","1482646","0.0-6.0-1.71","2885521","co38395","norming","","","","","","",""
"4339.9449999995995","","","post_mooney1_questions","survey-likert","505","1486990","0.0-6.0-2.71","2885521","co38395","norming","","","{""curiosity"":5,""confidence"":3}","[0,1]","../img/tt/1255tt.jpg","",""
"2910.1599999994505","","","recognition","survey-text","506","1489902","0.0-6.0-3.71","2885521","co38395","norming","","","{""guess"":""ostrich""}","","../img/tt/1255tt.jpg","",""
"null","../img/gs/1255gs.jpg","null","reveal","image-keyboard-response","507","1491903","0.0-6.0-4.71","2885521","co38395","norming","","","","","","",""
"null","../img/tt/1255tt.jpg","null","mooney2","image-keyboard-response","508","1493905","0.0-6.0-5.71","2885521","co38395","norming","","","","","","",""
"1706.0549999985378","","","post_reveal_questions","survey-likert","509","1495614","0.0-6.0-6.71","2885521","co38395","norming","","","{""aha"":6}","[0]","../img/tt/1255tt.jpg","",""
"null","<div style=""font-size:60px;""> </div>","null","fixation","html-keyboard-response","510","1495815","0.0-6.0-0.72","2885521","co38395","norming","","","","","","",""
"null","../img/tt/279tt.jpg","null","mooney1","image-keyboard-response","511","1498819","0.0-6.0-1.72","2885521","co38395","norming","","","","","","",""
"4958.555000000866","","","post_mooney1_questions","survey-likert","512","1503782","0.0-6.0-2.72","2885521","co38395","norming","","","{""curiosity"":4,""confidence"":5}","[0,1]","../img/tt/279tt.jpg","",""
"2069.5699999998324","","","recognition","survey-text","513","1505854","0.0-6.0-3.72","2885521","co38395","norming","","","{""guess"":""koala""}","","../img/tt/279tt.jpg","",""
"null","../img/gs/279gs.jpg","null","reveal","image-keyboard-response","514","1507857","0.0-6.0-4.72","2885521","co38395","norming","","","","","","",""
"null","../img/tt/279tt.jpg","null","mooney2","image-keyboard-response","515","1509865","0.0-6.0-5.72","2885521","co38395","norming","","","","","","",""
"3801.729999999283","","","post_reveal_questions","survey-likert","516","1513670","0.0-6.0-6.72","2885521","co38395","norming","","","{""aha"":0}","[0]","../img/tt/279tt.jpg","",""
"null","<div style=""font-size:60px;""> </div>","null","fixation","html-keyboard-response","517","1513871","0.0-6.0-0.73","2885521","co38395","norming","","","","","","",""
"null","../img/tt/1063tt.jpg","null","mooney1","image-keyboard-response","518","1516875","0.0-6.0-1.73","2885521","co38395","norming","","","","","","",""
"3895.759999999311","","","post_mooney1_questions","survey-likert","519","1520774","0.0-6.0-2.73","2885521","co38395","norming","","","{""curiosity"":1,""confidence"":5}","[0,1]","../img/tt/1063tt.jpg","",""
"1990.5550000004005","","","recognition","survey-text","520","1522766","0.0-6.0-3.73","2885521","co38395","norming","","","{""guess"":""horse""}","","../img/tt/1063tt.jpg","",""
"null","../img/gs/1063gs.jpg","null","reveal","image-keyboard-response","521","1524770","0.0-6.0-4.73","2885521","co38395","norming","","","","","","",""
"null","../img/tt/1063tt.jpg","null","mooney2","image-keyboard-response","522","1526777","0.0-6.0-5.73","2885521","co38395","norming","","","","","","",""
"2489.255000000354","","","post_reveal_questions","survey-likert","523","1529270","0.0-6.0-6.73","2885521","co38395","norming","","","{""aha"":1}","[0]","../img/tt/1063tt.jpg","",""
"null","<div style=""font-size:60px;""> </div>","null","fixation","html-keyboard-response","524","1529472","0.0-6.0-0.74","2885521","co38395","norming","","","","","","",""
"null","../img/tt/497tt.jpg","null","mooney1","image-keyboard-response","525","1532473","0.0-6.0-1.74","2885521","co38395","norming","","","","","","",""
"6224.844999996945","","","post_mooney1_questions","survey-likert","526","1538702","0.0-6.0-2.74","2885521","co38395","norming","","","{""curiosity"":6,""confidence"":1}","[0,1]","../img/tt/497tt.jpg","",""
"1805.8049999999348","","","recognition","survey-text","527","1540510","0.0-6.0-3.74","2885521","co38395","norming","","","{""guess"":""wheel""}","","../img/tt/497tt.jpg","",""
"null","../img/gs/497gs.jpg","null","reveal","image-keyboard-response","528","1542511","0.0-6.0-4.74","2885521","co38395","norming","","","","","","",""
"null","../img/tt/497tt.jpg","null","mooney2","image-keyboard-response","529","1544513","0.0-6.0-5.74","2885521","co38395","norming","","","","","","",""
"2835.8750000006985","","","post_reveal_questions","survey-likert","530","1547352","0.0-6.0-6.74","2885521","co38395","norming","","","{""aha"":2}","[0]","../img/tt/497tt.jpg","",""
"null","<div style=""font-size:60px;""> </div>","null","fixation","html-keyboard-response","531","1547555","0.0-6.0-0.75","2885521","co38395","norming","","","","","","",""
"null","../img/tt/076tt.jpg","null","mooney1","image-keyboard-response","532","1550561","0.0-6.0-1.75","2885521","co38395","norming","","","","","","",""
"3083.779999997234","","","post_mooney1_questions","survey-likert","533","1553649","0.0-6.0-2.75","2885521","co38395","norming","","","{""curiosity"":0,""confidence"":6}","[0,1]","../img/tt/076tt.jpg","",""
"4494.129999998957","","","recognition","survey-text","534","1558145","0.0-6.0-3.75","2885521","co38395","norming","","","{""guess"":""rollerskate""}","","../img/tt/076tt.jpg","",""
"null","../img/gs/076gs.jpg","null","reveal","image-keyboard-response","535","1560151","0.0-6.0-4.75","2885521","co38395","norming","","","","","","",""
"null","../img/tt/076tt.jpg","null","mooney2","image-keyboard-response","536","1562153","0.0-6.0-5.75","2885521","co38395","norming","","","","","","",""
"1709.2799999990966","","","post_reveal_questions","survey-likert","537","1563865","0.0-6.0-6.75","2885521","co38395","norming","","","{""aha"":0}","[0]","../img/tt/076tt.jpg","",""
"null","<div style=""font-size:60px;""> </div>","null","fixation","html-keyboard-response","538","1564066","0.0-6.0-0.76","2885521","co38395","norming","","","","","","",""
"null","../img/tt/300tt.jpg","null","mooney1","image-keyboard-response","539","1567073","0.0-6.0-1.76","2885521","co38395","norming","","","","","","",""
"3659.6099999987055","","","post_mooney1_questions","survey-likert","540","1570737","0.0-6.0-2.76","2885521","co38395","norming","","","{""curiosity"":0,""confidence"":6}","[0,1]","../img/tt/300tt.jpg","",""
"5405.794999998761","","","recognition","survey-text","541","1576145","0.0-6.0-3.76","2885521","co38395","norming","","","{""guess"":""sitting person""}","","../img/tt/300tt.jpg","",""
"null","../img/gs/300gs.jpg","null","reveal","image-keyboard-response","542","1578147","0.0-6.0-4.76","2885521","co38395","norming","","","","","","",""
"null","../img/tt/300tt.jpg","null","mooney2","image-keyboard-response","543","1580150","0.0-6.0-5.76","2885521","co38395","norming","","","","","","",""
"2111.960000002058","","","post_reveal_questions","survey-likert","544","1582265","0.0-6.0-6.76","2885521","co38395","norming","","","{""aha"":1}","[0]","../img/tt/300tt.jpg","",""
"null","<div style=""font-size:60px;""> </div>","null","fixation","html-keyboard-response","545","1582466","0.0-6.0-0.77","2885521","co38395","norming","","","","","","",""
"null","../img/tt/436tt.jpg","null","mooney1","image-keyboard-response","546","1585468","0.0-6.0-1.77","2885521","co38395","norming","","","","","","",""
"5307.175000001909","","","post_mooney1_questions","survey-likert","547","1590777","0.0-6.0-2.77","2885521","co38395","norming","","","{""curiosity"":5,""confidence"":2}","[0,1]","../img/tt/436tt.jpg","",""
"3718.030000000028","","","recognition","survey-text","548","1594497","0.0-6.0-3.77","2885521","co38395","norming","","","{""guess"":""hand""}","","../img/tt/436tt.jpg","",""
"null","../img/gs/436gs.jpg","null","reveal","image-keyboard-response","549","1596499","0.0-6.0-4.77","2885521","co38395","norming","","","","","","",""
"null","../img/tt/436tt.jpg","null","mooney2","image-keyboard-response","550","1598502","0.0-6.0-5.77","2885521","co38395","norming","","","","","","",""
"2232.1450000016484","","","post_reveal_questions","survey-likert","551","1600737","0.0-6.0-6.77","2885521","co38395","norming","","","{""aha"":5}","[0]","../img/tt/436tt.jpg","",""
