"rt","stimulus","key_press","test_part","trial_type","trial_index","time_elapsed","internal_node_id","totalTime","subject","experiment_name","button_pressed","success","responses","question_order","currentStim","old","correct"
"11082.060000000638","Welcome to the experiment. This is an online experiment so please don't close the tab/window until we say goodbye.  Press any key to begin.","32","instructions","html-keyboard-response","0","11122","0.0-0.0","2291533","co38083","norming","","","","","","",""
"28070.15500000125","<div style='word-wrap: break-word; width: 900px'><h3>Please consider this information carefully before deciding whether to participate in this research</h3><ul style='text-align: left; font-size: .8em;'><li><b>Purpose of the research</b>: To examine how people process images.</li><li><b>What you will do in this research</b>:  Stimuli (images) will be presented on the computer and you will be asked different questions about them.</li><li><b>Time required</b>: Participation will take between 45 and 60 minutes to complete.</li><li><b>Risks</b>:  There are no anticipated risks associated with participating in this study. The effects of participating should be comparable to those you would experience from viewing a computer monitor for 30 minutes and using a mouse or keyboard.</li><li><b>Benefits</b>:  This study provides no benefits to you individually except for the credit. The study provides important information about the nature of perception and learning.</li><li><b>Confidentiality</b>:  Your participation in this study will remain confidential. No personally identifiable information will be associated with your data. Your de-identified data may be shared with other researchers and used in future projects.</li><li><b>Participation and withdrawal</b>:  Your participation in this study is completely voluntary and you may refuse to participate or you may choose to withdraw at any time without penalty.</li><li><b>How to contact the researchers</b>: If you have questions or concerns about your participation or payment, or want to request a summary of research findings, please contact Sander Van de Cruys (KU Leuven), at sander.vandecruys@kuleuven.be.</li></ul><p>The nature and purpose of this research have been sufficiently explained and I agree to participate in this study.  I understand that I am free to withdraw at any time without incurring any penalty.</p><p>Please consent by clicking the button below to continue. Otherwise, please exit the study at this time.</p></div>","","instructions","html-button-response","1","39201","0.0-1.0","2291533","co38083","norming","0","","","","","",""
"","","","instructions","fullscreen","2","44199","0.0-2.0","2291533","co38083","norming","","true","","","","",""
"28479.105000002164","","","sona","survey-html-form","3","72681","0.0-3.0","2291533","co38083","norming","","","[{""name"":""sonaid"",""value"":""38083""},{""name"":""debrief"",""value"":""yes""},{""name"":""datajoin"",""value"":""yes""}]","","","",""
"71547.69500000111","<div style='word-wrap: break-word; width: 900px'><h3>Instructions</h3><p>This experiment will have 3 parts. In the first part you will see a series of distorted images like the one below on the left. As you can see in the righthand image, the distorted images are derived from actual photographs. In what follows, you will <strong>briefly</strong> be presented with <strong>only</strong> the distorted image.</p> <div style='float: left; margin-right: 20px;'><img src='../img/018tt.jpg' height='250' width='250'></img></div><div style='float: right; margin-left: 20px;'><img src='../img/018gs.jpg' height='250' width='250'></img></div><p>Subsequently you will be asked a few questions about the image: One question on how <strong>curious</strong> you are about the solution and one on how <strong>confident</strong> you are that you know the solution.</p>Next, we ask you to make a guess on what is in the image. Note that it is OK to name just the <strong>basic level category</strong>. For example when you see a parrot in the image, 'parrot' will obviously be a correct answer but also correct is 'bird'. However, 'animal' will <strong>not</strong> be counted as a correct response. For the example above, 'rose' would be correct or 'flower', but not 'plant'. When soccer players are depicted, 'soccer', 'football', 'soccer players' will be correct, but not 'humans', 'outdoors', or 'sports'. You do not need to describe the image in full, just name the main object in it <strong>in one or two words</strong>. All images depict objects from one of the following broad level categories: animals, inanimate objects, plants, sports, vehicles, and food. Recognizing means knowing <strong>more</strong> than these broad labels for a given image. But we always encourage you to <strong>make a guess</strong> if you can. Note that you are allowed to use <strong>Dutch and English</strong> in your answers, whatever comes easiest for you.</p><p>Press any key to continue.</p></div>","32","instructions","html-keyboard-response","4","144234","0.0-4.0","2291533","co38083","norming","","","","","","",""
"51022.07999999882","<div style='word-wrap: break-word; width: 900px'><h3>Instructions</h3> <p>Next, the solution image will be revealed to you and you'll be asked to indicate how strong your <strong>aha-experience</strong> was after seeing the solution. This describes the positive feeling of the 'click' you sometimes experience, when the pieces of the 'puzzle' fall together and you suddenly have 'insight' in the image.</p><img src='aha.jpg' height='188' width='250'></img><p>Note that there are no right or wrong answers. We are interested in what <strong>you</strong> see in the image and how <strong>you</strong> feel about it.</p><p>Press any key to start the experiment.</p></div>","32","instructions","html-keyboard-response","5","195257","0.0-5.0","2291533","co38083","norming","","","","","","",""
"null","<div style=""font-size:60px;""> </div>","null","fixation","html-keyboard-response","6","195459","0.0-6.0-0.0","2291533","co38083","norming","","","","","","",""
"null","../img/tt/001tt.jpg","null","mooney1","image-keyboard-response","7","198467","0.0-6.0-1.0","2291533","co38083","norming","","","","","","",""
"4825.990000001184","","","post_mooney1_questions","survey-likert","8","203297","0.0-6.0-2.0","2291533","co38083","norming","","","{""curiosity"":5,""confidence"":1}","[0,1]","../img/tt/001tt.jpg","",""
"2589.6150000007765","","","recognition","survey-text","9","205891","0.0-6.0-3.0","2291533","co38083","norming","","","{""guess"":""""}","","../img/tt/001tt.jpg","",""
"null","../img/gs/001gs.jpg","null","reveal","image-keyboard-response","10","207899","0.0-6.0-4.0","2291533","co38083","norming","","","","","","",""
"null","../img/tt/001tt.jpg","null","mooney2","image-keyboard-response","11","209905","0.0-6.0-5.0","2291533","co38083","norming","","","","","","",""
"3615.845000000263","","","post_reveal_questions","survey-likert","12","213523","0.0-6.0-6.0","2291533","co38083","norming","","","{""aha"":3}","[0]","../img/tt/001tt.jpg","",""
"null","<div style=""font-size:60px;""> </div>","null","fixation","html-keyboard-response","13","213732","0.0-6.0-0.1","2291533","co38083","norming","","","","","","",""
"null","../img/tt/1063tt.jpg","null","mooney1","image-keyboard-response","14","216740","0.0-6.0-1.1","2291533","co38083","norming","","","","","","",""
"4780.5349999980535","","","post_mooney1_questions","survey-likert","15","221523","0.0-6.0-2.1","2291533","co38083","norming","","","{""curiosity"":4,""confidence"":1}","[0,1]","../img/tt/1063tt.jpg","",""
"822.0849999997881","","","recognition","survey-text","16","222347","0.0-6.0-3.1","2291533","co38083","norming","","","{""guess"":""""}","","../img/tt/1063tt.jpg","",""
"null","../img/gs/1063gs.jpg","null","reveal","image-keyboard-response","17","224352","0.0-6.0-4.1","2291533","co38083","norming","","","","","","",""
"null","../img/tt/1063tt.jpg","null","mooney2","image-keyboard-response","18","226354","0.0-6.0-5.1","2291533","co38083","norming","","","","","","",""
"2110.805000000255","","","post_reveal_questions","survey-likert","19","228467","0.0-6.0-6.1","2291533","co38083","norming","","","{""aha"":5}","[0]","../img/tt/1063tt.jpg","",""
"null","<div style=""font-size:60px;""> </div>","null","fixation","html-keyboard-response","20","228670","0.0-6.0-0.2","2291533","co38083","norming","","","","","","",""
"null","../img/tt/096tt.jpg","null","mooney1","image-keyboard-response","21","231673","0.0-6.0-1.2","2291533","co38083","norming","","","","","","",""
"2719.1449999991164","","","post_mooney1_questions","survey-likert","22","234395","0.0-6.0-2.2","2291533","co38083","norming","","","{""curiosity"":4,""confidence"":1}","[0,1]","../img/tt/096tt.jpg","",""
"3470.470000000205","","","recognition","survey-text","23","237867","0.0-6.0-3.2","2291533","co38083","norming","","","{""guess"":""piano""}","","../img/tt/096tt.jpg","",""
"null","../img/gs/096gs.jpg","null","reveal","image-keyboard-response","24","239876","0.0-6.0-4.2","2291533","co38083","norming","","","","","","",""
"null","../img/tt/096tt.jpg","null","mooney2","image-keyboard-response","25","241878","0.0-6.0-5.2","2291533","co38083","norming","","","","","","",""
"1418.7399999973422","","","post_reveal_questions","survey-likert","26","243299","0.0-6.0-6.2","2291533","co38083","norming","","","{""aha"":4}","[0]","../img/tt/096tt.jpg","",""
"null","<div style=""font-size:60px;""> </div>","null","fixation","html-keyboard-response","27","243502","0.0-6.0-0.3","2291533","co38083","norming","","","","","","",""
"null","../img/tt/1181tt.jpg","null","mooney1","image-keyboard-response","28","246506","0.0-6.0-1.3","2291533","co38083","norming","","","","","","",""
"4606.529999997292","","","post_mooney1_questions","survey-likert","29","251115","0.0-6.0-2.3","2291533","co38083","norming","","","{""curiosity"":6,""confidence"":0}","[0,1]","../img/tt/1181tt.jpg","",""
"670.1050000010582","","","recognition","survey-text","30","251787","0.0-6.0-3.3","2291533","co38083","norming","","","{""guess"":""""}","","../img/tt/1181tt.jpg","",""
"null","../img/gs/1181gs.jpg","null","reveal","image-keyboard-response","31","253788","0.0-6.0-4.3","2291533","co38083","norming","","","","","","",""
"null","../img/tt/1181tt.jpg","null","mooney2","image-keyboard-response","32","255790","0.0-6.0-5.3","2291533","co38083","norming","","","","","","",""
"1626.299999999901","","","post_reveal_questions","survey-likert","33","257419","0.0-6.0-6.3","2291533","co38083","norming","","","{""aha"":4}","[0]","../img/tt/1181tt.jpg","",""
"null","<div style=""font-size:60px;""> </div>","null","fixation","html-keyboard-response","34","257622","0.0-6.0-0.4","2291533","co38083","norming","","","","","","",""
"null","../img/tt/1261tt.jpg","null","mooney1","image-keyboard-response","35","260624","0.0-6.0-1.4","2291533","co38083","norming","","","","","","",""
"4415.374999996857","","","post_mooney1_questions","survey-likert","36","265042","0.0-6.0-2.4","2291533","co38083","norming","","","{""curiosity"":5,""confidence"":2}","[0,1]","../img/tt/1261tt.jpg","",""
"2854.5999999987544","","","recognition","survey-text","37","267894","0.0-6.0-3.4","2291533","co38083","norming","","","{""guess"":""window""}","","../img/tt/1261tt.jpg","",""
"null","../img/gs/1261gs.jpg","null","reveal","image-keyboard-response","38","269903","0.0-6.0-4.4","2291533","co38083","norming","","","","","","",""
"null","../img/tt/1261tt.jpg","null","mooney2","image-keyboard-response","39","271912","0.0-6.0-5.4","2291533","co38083","norming","","","","","","",""
"2635.839999998978","","","post_reveal_questions","survey-likert","40","274550","0.0-6.0-6.4","2291533","co38083","norming","","","{""aha"":5}","[0]","../img/tt/1261tt.jpg","",""
"null","<div style=""font-size:60px;""> </div>","null","fixation","html-keyboard-response","41","274760","0.0-6.0-0.5","2291533","co38083","norming","","","","","","",""
"null","../img/tt/1122tt.jpg","null","mooney1","image-keyboard-response","42","277764","0.0-6.0-1.5","2291533","co38083","norming","","","","","","",""
"3799.680000000051","","","post_mooney1_questions","survey-likert","43","281566","0.0-6.0-2.5","2291533","co38083","norming","","","{""curiosity"":3,""confidence"":2}","[0,1]","../img/tt/1122tt.jpg","",""
"2006.274999999674","","","recognition","survey-text","44","283574","0.0-6.0-3.5","2291533","co38083","norming","","","{""guess"":""cars""}","","../img/tt/1122tt.jpg","",""
"null","../img/gs/1122gs.jpg","null","reveal","image-keyboard-response","45","285579","0.0-6.0-4.5","2291533","co38083","norming","","","","","","",""
"null","../img/tt/1122tt.jpg","null","mooney2","image-keyboard-response","46","287581","0.0-6.0-5.5","2291533","co38083","norming","","","","","","",""
"2606.195000000298","","","post_reveal_questions","survey-likert","47","290190","0.0-6.0-6.5","2291533","co38083","norming","","","{""aha"":5}","[0]","../img/tt/1122tt.jpg","",""
"null","<div style=""font-size:60px;""> </div>","null","fixation","html-keyboard-response","48","290399","0.0-6.0-0.6","2291533","co38083","norming","","","","","","",""
"null","../img/tt/222tt.jpg","null","mooney1","image-keyboard-response","49","293410","0.0-6.0-1.6","2291533","co38083","norming","","","","","","",""
"3498.2750000017695","","","post_mooney1_questions","survey-likert","50","296910","0.0-6.0-2.6","2291533","co38083","norming","","","{""curiosity"":5,""confidence"":1}","[0,1]","../img/tt/222tt.jpg","",""
"926.3700000010431","","","recognition","survey-text","51","297838","0.0-6.0-3.6","2291533","co38083","norming","","","{""guess"":""""}","","../img/tt/222tt.jpg","",""
"null","../img/gs/222gs.jpg","null","reveal","image-keyboard-response","52","299846","0.0-6.0-4.6","2291533","co38083","norming","","","","","","",""
"null","../img/tt/222tt.jpg","null","mooney2","image-keyboard-response","53","301850","0.0-6.0-5.6","2291533","co38083","norming","","","","","","",""
"2137.814999998198","","","post_reveal_questions","survey-likert","54","303990","0.0-6.0-6.6","2291533","co38083","norming","","","{""aha"":4}","[0]","../img/tt/222tt.jpg","",""
"null","<div style=""font-size:60px;""> </div>","null","fixation","html-keyboard-response","55","304200","0.0-6.0-0.7","2291533","co38083","norming","","","","","","",""
"null","../img/tt/111tt.jpg","null","mooney1","image-keyboard-response","56","307204","0.0-6.0-1.7","2291533","co38083","norming","","","","","","",""
"3367.7600000009406","","","post_mooney1_questions","survey-likert","57","310574","0.0-6.0-2.7","2291533","co38083","norming","","","{""curiosity"":4,""confidence"":1}","[0,1]","../img/tt/111tt.jpg","",""
"734.6250000009313","","","recognition","survey-text","58","311310","0.0-6.0-3.7","2291533","co38083","norming","","","{""guess"":""""}","","../img/tt/111tt.jpg","",""
"null","../img/gs/111gs.jpg","null","reveal","image-keyboard-response","59","313311","0.0-6.0-4.7","2291533","co38083","norming","","","","","","",""
"null","../img/tt/111tt.jpg","null","mooney2","image-keyboard-response","60","315313","0.0-6.0-5.7","2291533","co38083","norming","","","","","","",""
"2050.250000000233","","","post_reveal_questions","survey-likert","61","317366","0.0-6.0-6.7","2291533","co38083","norming","","","{""aha"":5}","[0]","../img/tt/111tt.jpg","",""
"null","<div style=""font-size:60px;""> </div>","null","fixation","html-keyboard-response","62","317570","0.0-6.0-0.8","2291533","co38083","norming","","","","","","",""
"null","../img/tt/524tt.jpg","null","mooney1","image-keyboard-response","63","320573","0.0-6.0-1.8","2291533","co38083","norming","","","","","","",""
"4814.840000002761","","","post_mooney1_questions","survey-likert","64","325390","0.0-6.0-2.8","2291533","co38083","norming","","","{""curiosity"":4,""confidence"":2}","[0,1]","../img/tt/524tt.jpg","",""
"1926.1550000010175","","","recognition","survey-text","65","327314","0.0-6.0-3.8","2291533","co38083","norming","","","{""guess"":""horse""}","","../img/tt/524tt.jpg","",""
"null","../img/gs/524gs.jpg","null","reveal","image-keyboard-response","66","329321","0.0-6.0-4.8","2291533","co38083","norming","","","","","","",""
"null","../img/tt/524tt.jpg","null","mooney2","image-keyboard-response","67","331323","0.0-6.0-5.8","2291533","co38083","norming","","","","","","",""
"1621.8950000001932","","","post_reveal_questions","survey-likert","68","332946","0.0-6.0-6.8","2291533","co38083","norming","","","{""aha"":4}","[0]","../img/tt/524tt.jpg","",""
"null","<div style=""font-size:60px;""> </div>","null","fixation","html-keyboard-response","69","333155","0.0-6.0-0.9","2291533","co38083","norming","","","","","","",""
"null","../img/tt/296tt.jpg","null","mooney1","image-keyboard-response","70","336157","0.0-6.0-1.9","2291533","co38083","norming","","","","","","",""
"3362.9150000015507","","","post_mooney1_questions","survey-likert","71","339523","0.0-6.0-2.9","2291533","co38083","norming","","","{""curiosity"":4,""confidence"":1}","[0,1]","../img/tt/296tt.jpg","",""
"2462.1750000006286","","","recognition","survey-text","72","341986","0.0-6.0-3.9","2291533","co38083","norming","","","{""guess"":""room""}","","../img/tt/296tt.jpg","",""
"null","../img/gs/296gs.jpg","null","reveal","image-keyboard-response","73","343991","0.0-6.0-4.9","2291533","co38083","norming","","","","","","",""
"null","../img/tt/296tt.jpg","null","mooney2","image-keyboard-response","74","345993","0.0-6.0-5.9","2291533","co38083","norming","","","","","","",""
"2239.5500000020256","","","post_reveal_questions","survey-likert","75","348234","0.0-6.0-6.9","2291533","co38083","norming","","","{""aha"":3}","[0]","../img/tt/296tt.jpg","",""
"null","<div style=""font-size:60px;""> </div>","null","fixation","html-keyboard-response","76","348436","0.0-6.0-0.10","2291533","co38083","norming","","","","","","",""
"null","../img/tt/163tt.jpg","null","mooney1","image-keyboard-response","77","351445","0.0-6.0-1.10","2291533","co38083","norming","","","","","","",""
"2994.735000000219","","","post_mooney1_questions","survey-likert","78","354443","0.0-6.0-2.10","2291533","co38083","norming","","","{""curiosity"":5,""confidence"":2}","[0,1]","../img/tt/163tt.jpg","",""
"806.1799999995856","","","recognition","survey-text","79","355250","0.0-6.0-3.10","2291533","co38083","norming","","","{""guess"":""""}","","../img/tt/163tt.jpg","",""
"null","../img/gs/163gs.jpg","null","reveal","image-keyboard-response","80","357252","0.0-6.0-4.10","2291533","co38083","norming","","","","","","",""
"null","../img/tt/163tt.jpg","null","mooney2","image-keyboard-response","81","359255","0.0-6.0-5.10","2291533","co38083","norming","","","","","","",""
"1713.0549999965006","","","post_reveal_questions","survey-likert","82","360971","0.0-6.0-6.10","2291533","co38083","norming","","","{""aha"":5}","[0]","../img/tt/163tt.jpg","",""
"null","<div style=""font-size:60px;""> </div>","null","fixation","html-keyboard-response","83","361175","0.0-6.0-0.11","2291533","co38083","norming","","","","","","",""
"null","../img/tt/007tt.jpg","null","mooney1","image-keyboard-response","84","364181","0.0-6.0-1.11","2291533","co38083","norming","","","","","","",""
"2890.595000000787","","","post_mooney1_questions","survey-likert","85","367074","0.0-6.0-2.11","2291533","co38083","norming","","","{""curiosity"":5,""confidence"":0}","[0,1]","../img/tt/007tt.jpg","",""
"550.4250000013271","","","recognition","survey-text","86","367626","0.0-6.0-3.11","2291533","co38083","norming","","","{""guess"":""""}","","../img/tt/007tt.jpg","",""
"null","../img/gs/007gs.jpg","null","reveal","image-keyboard-response","87","369633","0.0-6.0-4.11","2291533","co38083","norming","","","","","","",""
"null","../img/tt/007tt.jpg","null","mooney2","image-keyboard-response","88","371635","0.0-6.0-5.11","2291533","co38083","norming","","","","","","",""
"2357.6350000003004","","","post_reveal_questions","survey-likert","89","373994","0.0-6.0-6.11","2291533","co38083","norming","","","{""aha"":5}","[0]","../img/tt/007tt.jpg","",""
"null","<div style=""font-size:60px;""> </div>","null","fixation","html-keyboard-response","90","374197","0.0-6.0-0.12","2291533","co38083","norming","","","","","","",""
"null","../img/tt/1269tt.jpg","null","mooney1","image-keyboard-response","91","377198","0.0-6.0-1.12","2291533","co38083","norming","","","","","","",""
"2921.8849999997765","","","post_mooney1_questions","survey-likert","92","380123","0.0-6.0-2.12","2291533","co38083","norming","","","{""curiosity"":5,""confidence"":2}","[0,1]","../img/tt/1269tt.jpg","",""
"1894.09500000329","","","recognition","survey-text","93","382018","0.0-6.0-3.12","2291533","co38083","norming","","","{""guess"":""cat""}","","../img/tt/1269tt.jpg","",""
"null","../img/gs/1269gs.jpg","null","reveal","image-keyboard-response","94","384020","0.0-6.0-4.12","2291533","co38083","norming","","","","","","",""
"null","../img/tt/1269tt.jpg","null","mooney2","image-keyboard-response","95","386024","0.0-6.0-5.12","2291533","co38083","norming","","","","","","",""
"2279.8450000009616","","","post_reveal_questions","survey-likert","96","388311","0.0-6.0-6.12","2291533","co38083","norming","","","{""aha"":3}","[0]","../img/tt/1269tt.jpg","",""
"null","<div style=""font-size:60px;""> </div>","null","fixation","html-keyboard-response","97","388513","0.0-6.0-0.13","2291533","co38083","norming","","","","","","",""
"null","../img/tt/040tt.jpg","null","mooney1","image-keyboard-response","98","391517","0.0-6.0-1.13","2291533","co38083","norming","","","","","","",""
"3728.339999997872","","","post_mooney1_questions","survey-likert","99","395248","0.0-6.0-2.13","2291533","co38083","norming","","","{""curiosity"":4,""confidence"":1}","[0,1]","../img/tt/040tt.jpg","",""
"1478.1800000018557","","","recognition","survey-text","100","396728","0.0-6.0-3.13","2291533","co38083","norming","","","{""guess"":""dog""}","","../img/tt/040tt.jpg","",""
"null","../img/gs/040gs.jpg","null","reveal","image-keyboard-response","101","398738","0.0-6.0-4.13","2291533","co38083","norming","","","","","","",""
"null","../img/tt/040tt.jpg","null","mooney2","image-keyboard-response","102","400740","0.0-6.0-5.13","2291533","co38083","norming","","","","","","",""
"2313.4499999977998","","","post_reveal_questions","survey-likert","103","403055","0.0-6.0-6.13","2291533","co38083","norming","","","{""aha"":5}","[0]","../img/tt/040tt.jpg","",""
"null","<div style=""font-size:60px;""> </div>","null","fixation","html-keyboard-response","104","403263","0.0-6.0-0.14","2291533","co38083","norming","","","","","","",""
"null","../img/tt/1307tt.jpg","null","mooney1","image-keyboard-response","105","406275","0.0-6.0-1.14","2291533","co38083","norming","","","","","","",""
"3378.3499999990454","","","post_mooney1_questions","survey-likert","106","409656","0.0-6.0-2.14","2291533","co38083","norming","","","{""curiosity"":5,""confidence"":1}","[0,1]","../img/tt/1307tt.jpg","",""
"1710.2599999998347","","","recognition","survey-text","107","411367","0.0-6.0-3.14","2291533","co38083","norming","","","{""guess"":""pauw""}","","../img/tt/1307tt.jpg","",""
"null","../img/gs/1307gs.jpg","null","reveal","image-keyboard-response","108","413369","0.0-6.0-4.14","2291533","co38083","norming","","","","","","",""
"null","../img/tt/1307tt.jpg","null","mooney2","image-keyboard-response","109","415370","0.0-6.0-5.14","2291533","co38083","norming","","","","","","",""
"1698.710000000603","","","post_reveal_questions","survey-likert","110","417071","0.0-6.0-6.14","2291533","co38083","norming","","","{""aha"":3}","[0]","../img/tt/1307tt.jpg","",""
"null","<div style=""font-size:60px;""> </div>","null","fixation","html-keyboard-response","111","417277","0.0-6.0-0.15","2291533","co38083","norming","","","","","","",""
"null","../img/tt/270tt.jpg","null","mooney1","image-keyboard-response","112","420287","0.0-6.0-1.15","2291533","co38083","norming","","","","","","",""
"3095.335000001767","","","post_mooney1_questions","survey-likert","113","423384","0.0-6.0-2.15","2291533","co38083","norming","","","{""curiosity"":5,""confidence"":0}","[0,1]","../img/tt/270tt.jpg","",""
"2590.2099999985076","","","recognition","survey-text","114","425976","0.0-6.0-3.15","2291533","co38083","norming","","","{""guess"":""bestek""}","","../img/tt/270tt.jpg","",""
"null","../img/gs/270gs.jpg","null","reveal","image-keyboard-response","115","427978","0.0-6.0-4.15","2291533","co38083","norming","","","","","","",""
"null","../img/tt/270tt.jpg","null","mooney2","image-keyboard-response","116","429980","0.0-6.0-5.15","2291533","co38083","norming","","","","","","",""
"1888.985000001383","","","post_reveal_questions","survey-likert","117","431871","0.0-6.0-6.15","2291533","co38083","norming","","","{""aha"":5}","[0]","../img/tt/270tt.jpg","",""
"null","<div style=""font-size:60px;""> </div>","null","fixation","html-keyboard-response","118","432077","0.0-6.0-0.16","2291533","co38083","norming","","","","","","",""
"null","../img/tt/1143tt.jpg","null","mooney1","image-keyboard-response","119","435078","0.0-6.0-1.16","2291533","co38083","norming","","","","","","",""
"2632.470000000496","","","post_mooney1_questions","survey-likert","120","437712","0.0-6.0-2.16","2291533","co38083","norming","","","{""curiosity"":5,""confidence"":0}","[0,1]","../img/tt/1143tt.jpg","",""
"1181.3900000015856","","","recognition","survey-text","121","438895","0.0-6.0-3.16","2291533","co38083","norming","","","{""guess"":""""}","","../img/tt/1143tt.jpg","",""
"null","../img/gs/1143gs.jpg","null","reveal","image-keyboard-response","122","440901","0.0-6.0-4.16","2291533","co38083","norming","","","","","","",""
"null","../img/tt/1143tt.jpg","null","mooney2","image-keyboard-response","123","442903","0.0-6.0-5.16","2291533","co38083","norming","","","","","","",""
"2614.800000002957","","","post_reveal_questions","survey-likert","124","445520","0.0-6.0-6.16","2291533","co38083","norming","","","{""aha"":2}","[0]","../img/tt/1143tt.jpg","",""
"null","<div style=""font-size:60px;""> </div>","null","fixation","html-keyboard-response","125","445721","0.0-6.0-0.17","2291533","co38083","norming","","","","","","",""
"null","../img/tt/1234tt.jpg","null","mooney1","image-keyboard-response","126","448730","0.0-6.0-1.17","2291533","co38083","norming","","","","","","",""
"3056.4049999993877","","","post_mooney1_questions","survey-likert","127","451789","0.0-6.0-2.17","2291533","co38083","norming","","","{""curiosity"":4,""confidence"":1}","[0,1]","../img/tt/1234tt.jpg","",""
"2014.325000000128","","","recognition","survey-text","128","453805","0.0-6.0-3.17","2291533","co38083","norming","","","{""guess"":""strans""}","","../img/tt/1234tt.jpg","",""
"null","../img/gs/1234gs.jpg","null","reveal","image-keyboard-response","129","455812","0.0-6.0-4.17","2291533","co38083","norming","","","","","","",""
"null","../img/tt/1234tt.jpg","null","mooney2","image-keyboard-response","130","457820","0.0-6.0-5.17","2291533","co38083","norming","","","","","","",""
"2038.3199999996577","","","post_reveal_questions","survey-likert","131","459861","0.0-6.0-6.17","2291533","co38083","norming","","","{""aha"":4}","[0]","../img/tt/1234tt.jpg","",""
"null","<div style=""font-size:60px;""> </div>","null","fixation","html-keyboard-response","132","460067","0.0-6.0-0.18","2291533","co38083","norming","","","","","","",""
"null","../img/tt/1142tt.jpg","null","mooney1","image-keyboard-response","133","463073","0.0-6.0-1.18","2291533","co38083","norming","","","","","","",""
"4875.240000001155","","","post_mooney1_questions","survey-likert","134","467949","0.0-6.0-2.18","2291533","co38083","norming","","","{""curiosity"":4,""confidence"":2}","[0,1]","../img/tt/1142tt.jpg","",""
"1901.959999999206","","","recognition","survey-text","135","469853","0.0-6.0-3.18","2291533","co38083","norming","","","{""guess"":""bomes""}","","../img/tt/1142tt.jpg","",""
"null","../img/gs/1142gs.jpg","null","reveal","image-keyboard-response","136","471861","0.0-6.0-4.18","2291533","co38083","norming","","","","","","",""
"null","../img/tt/1142tt.jpg","null","mooney2","image-keyboard-response","137","473866","0.0-6.0-5.18","2291533","co38083","norming","","","","","","",""
"1905.2999999985332","","","post_reveal_questions","survey-likert","138","475773","0.0-6.0-6.18","2291533","co38083","norming","","","{""aha"":0}","[0]","../img/tt/1142tt.jpg","",""
"null","<div style=""font-size:60px;""> </div>","null","fixation","html-keyboard-response","139","475977","0.0-6.0-0.19","2291533","co38083","norming","","","","","","",""
"null","../img/tt/315tt.jpg","null","mooney1","image-keyboard-response","140","478981","0.0-6.0-1.19","2291533","co38083","norming","","","","","","",""
"2733.834999999148","","","post_mooney1_questions","survey-likert","141","481717","0.0-6.0-2.19","2291533","co38083","norming","","","{""curiosity"":4,""confidence"":0}","[0,1]","../img/tt/315tt.jpg","",""
"630.315000002156","","","recognition","survey-text","142","482349","0.0-6.0-3.19","2291533","co38083","norming","","","{""guess"":""""}","","../img/tt/315tt.jpg","",""
"null","../img/gs/315gs.jpg","null","reveal","image-keyboard-response","143","484350","0.0-6.0-4.19","2291533","co38083","norming","","","","","","",""
"null","../img/tt/315tt.jpg","null","mooney2","image-keyboard-response","144","486361","0.0-6.0-5.19","2291533","co38083","norming","","","","","","",""
"3626.039999999164","","","post_reveal_questions","survey-likert","145","489989","0.0-6.0-6.19","2291533","co38083","norming","","","{""aha"":1}","[0]","../img/tt/315tt.jpg","",""
"null","<div style=""font-size:60px;""> </div>","null","fixation","html-keyboard-response","146","490197","0.0-6.0-0.20","2291533","co38083","norming","","","","","","",""
"null","../img/tt/1260tt.jpg","null","mooney1","image-keyboard-response","147","493209","0.0-6.0-1.20","2291533","co38083","norming","","","","","","",""
"3393.6950000024517","","","post_mooney1_questions","survey-likert","148","496605","0.0-6.0-2.20","2291533","co38083","norming","","","{""curiosity"":4,""confidence"":3}","[0,1]","../img/tt/1260tt.jpg","",""
"1886.114999997546","","","recognition","survey-text","149","498493","0.0-6.0-3.20","2291533","co38083","norming","","","{""guess"":""egel""}","","../img/tt/1260tt.jpg","",""
"null","../img/gs/1260gs.jpg","null","reveal","image-keyboard-response","150","500494","0.0-6.0-4.20","2291533","co38083","norming","","","","","","",""
"null","../img/tt/1260tt.jpg","null","mooney2","image-keyboard-response","151","502495","0.0-6.0-5.20","2291533","co38083","norming","","","","","","",""
"2412.3600000020815","","","post_reveal_questions","survey-likert","152","504909","0.0-6.0-6.20","2291533","co38083","norming","","","{""aha"":4}","[0]","../img/tt/1260tt.jpg","",""
"null","<div style=""font-size:60px;""> </div>","null","fixation","html-keyboard-response","153","505112","0.0-6.0-0.21","2291533","co38083","norming","","","","","","",""
"null","../img/tt/301tt.jpg","null","mooney1","image-keyboard-response","154","508113","0.0-6.0-1.21","2291533","co38083","norming","","","","","","",""
"3121.6349999994854","","","post_mooney1_questions","survey-likert","155","511229","0.0-6.0-2.21","2291533","co38083","norming","","","{""curiosity"":4,""confidence"":2}","[0,1]","../img/tt/301tt.jpg","",""
"2294.159999997588","","","recognition","survey-text","156","513525","0.0-6.0-3.21","2291533","co38083","norming","","","{""guess"":""geweer""}","","../img/tt/301tt.jpg","",""
"null","../img/gs/301gs.jpg","null","reveal","image-keyboard-response","157","515534","0.0-6.0-4.21","2291533","co38083","norming","","","","","","",""
"null","../img/tt/301tt.jpg","null","mooney2","image-keyboard-response","158","517537","0.0-6.0-5.21","2291533","co38083","norming","","","","","","",""
"1721.719999997702","","","post_reveal_questions","survey-likert","159","519261","0.0-6.0-6.21","2291533","co38083","norming","","","{""aha"":2}","[0]","../img/tt/301tt.jpg","",""
"null","<div style=""font-size:60px;""> </div>","null","fixation","html-keyboard-response","160","519468","0.0-6.0-0.22","2291533","co38083","norming","","","","","","",""
"null","../img/tt/436tt.jpg","null","mooney1","image-keyboard-response","161","522473","0.0-6.0-1.22","2291533","co38083","norming","","","","","","",""
"6441.5549999976065","","","post_mooney1_questions","survey-likert","162","528917","0.0-6.0-2.22","2291533","co38083","norming","","","{""curiosity"":4,""confidence"":0}","[0,1]","../img/tt/436tt.jpg","",""
"893.9949999985984","","","recognition","survey-text","163","529813","0.0-6.0-3.22","2291533","co38083","norming","","","{""guess"":""""}","","../img/tt/436tt.jpg","",""
"null","../img/gs/436gs.jpg","null","reveal","image-keyboard-response","164","531820","0.0-6.0-4.22","2291533","co38083","norming","","","","","","",""
"null","../img/tt/436tt.jpg","null","mooney2","image-keyboard-response","165","533826","0.0-6.0-5.22","2291533","co38083","norming","","","","","","",""
"2744.4149999973597","","","post_reveal_questions","survey-likert","166","536572","0.0-6.0-6.22","2291533","co38083","norming","","","{""aha"":2}","[0]","../img/tt/436tt.jpg","",""
"null","<div style=""font-size:60px;""> </div>","null","fixation","html-keyboard-response","167","536775","0.0-6.0-0.23","2291533","co38083","norming","","","","","","",""
"null","../img/tt/1205tt.jpg","null","mooney1","image-keyboard-response","168","539778","0.0-6.0-1.23","2291533","co38083","norming","","","","","","",""
"4063.8099999997066","","","post_mooney1_questions","survey-likert","169","543845","0.0-6.0-2.23","2291533","co38083","norming","","","{""curiosity"":4,""confidence"":0}","[0,1]","../img/tt/1205tt.jpg","",""
"622.1000000004424","","","recognition","survey-text","170","544469","0.0-6.0-3.23","2291533","co38083","norming","","","{""guess"":""""}","","../img/tt/1205tt.jpg","",""
"null","../img/gs/1205gs.jpg","null","reveal","image-keyboard-response","171","546471","0.0-6.0-4.23","2291533","co38083","norming","","","","","","",""
"null","../img/tt/1205tt.jpg","null","mooney2","image-keyboard-response","172","548473","0.0-6.0-5.23","2291533","co38083","norming","","","","","","",""
"2361.1149999996414","","","post_reveal_questions","survey-likert","173","550837","0.0-6.0-6.23","2291533","co38083","norming","","","{""aha"":0}","[0]","../img/tt/1205tt.jpg","",""
"null","<div style=""font-size:60px;""> </div>","null","fixation","html-keyboard-response","174","551038","0.0-6.0-0.24","2291533","co38083","norming","","","","","","",""
"null","../img/tt/507tt.jpg","null","mooney1","image-keyboard-response","175","554041","0.0-6.0-1.24","2291533","co38083","norming","","","","","","",""
"3921.494999998715","","","post_mooney1_questions","survey-likert","176","557965","0.0-6.0-2.24","2291533","co38083","norming","","","{""curiosity"":4,""confidence"":0}","[0,1]","../img/tt/507tt.jpg","",""
"478.07000000111293","","","recognition","survey-text","177","558444","0.0-6.0-3.24","2291533","co38083","norming","","","{""guess"":""""}","","../img/tt/507tt.jpg","",""
"null","../img/gs/507gs.jpg","null","reveal","image-keyboard-response","178","560454","0.0-6.0-4.24","2291533","co38083","norming","","","","","","",""
"null","../img/tt/507tt.jpg","null","mooney2","image-keyboard-response","179","562457","0.0-6.0-5.24","2291533","co38083","norming","","","","","","",""
"1785.214999999851","","","post_reveal_questions","survey-likert","180","564245","0.0-6.0-6.24","2291533","co38083","norming","","","{""aha"":3}","[0]","../img/tt/507tt.jpg","",""
"null","<div style=""font-size:60px;""> </div>","null","fixation","html-keyboard-response","181","564452","0.0-6.0-0.25","2291533","co38083","norming","","","","","","",""
"null","../img/tt/442tt.jpg","null","mooney1","image-keyboard-response","182","567466","0.0-6.0-1.25","2291533","co38083","norming","","","","","","",""
"3008.1499999978114","","","post_mooney1_questions","survey-likert","183","570477","0.0-6.0-2.25","2291533","co38083","norming","","","{""curiosity"":4,""confidence"":1}","[0,1]","../img/tt/442tt.jpg","",""
"2102.145000000717","","","recognition","survey-text","184","572581","0.0-6.0-3.25","2291533","co38083","norming","","","{""guess"":""slang""}","","../img/tt/442tt.jpg","",""
"null","../img/gs/442gs.jpg","null","reveal","image-keyboard-response","185","574588","0.0-6.0-4.25","2291533","co38083","norming","","","","","","",""
"null","../img/tt/442tt.jpg","null","mooney2","image-keyboard-response","186","576589","0.0-6.0-5.25","2291533","co38083","norming","","","","","","",""
"1781.8149999985471","","","post_reveal_questions","survey-likert","187","578373","0.0-6.0-6.25","2291533","co38083","norming","","","{""aha"":0}","[0]","../img/tt/442tt.jpg","",""
"null","<div style=""font-size:60px;""> </div>","null","fixation","html-keyboard-response","188","578580","0.0-6.0-0.26","2291533","co38083","norming","","","","","","",""
"null","../img/tt/1200tt.jpg","null","mooney1","image-keyboard-response","189","581582","0.0-6.0-1.26","2291533","co38083","norming","","","","","","",""
"4532.620000001742","","","post_mooney1_questions","survey-likert","190","586117","0.0-6.0-2.26","2291533","co38083","norming","","","{""curiosity"":5,""confidence"":0}","[0,1]","../img/tt/1200tt.jpg","",""
"925.8799999988405","","","recognition","survey-text","191","587045","0.0-6.0-3.26","2291533","co38083","norming","","","{""guess"":""""}","","../img/tt/1200tt.jpg","",""
"null","../img/gs/1200gs.jpg","null","reveal","image-keyboard-response","192","589053","0.0-6.0-4.26","2291533","co38083","norming","","","","","","",""
"null","../img/tt/1200tt.jpg","null","mooney2","image-keyboard-response","193","591055","0.0-6.0-5.26","2291533","co38083","norming","","","","","","",""
"1877.3499999988126","","","post_reveal_questions","survey-likert","194","592933","0.0-6.0-6.26","2291533","co38083","norming","","","{""aha"":0}","[0]","../img/tt/1200tt.jpg","",""
"null","<div style=""font-size:60px;""> </div>","null","fixation","html-keyboard-response","195","593141","0.0-6.0-0.27","2291533","co38083","norming","","","","","","",""
"null","../img/tt/552tt.jpg","null","mooney1","image-keyboard-response","196","596150","0.0-6.0-1.27","2291533","co38083","norming","","","","","","",""
"3101.184999999474","","","post_mooney1_questions","survey-likert","197","599254","0.0-6.0-2.27","2291533","co38083","norming","","","{""curiosity"":5,""confidence"":1}","[0,1]","../img/tt/552tt.jpg","",""
"797.9350000022678","","","recognition","survey-text","198","600053","0.0-6.0-3.27","2291533","co38083","norming","","","{""guess"":""""}","","../img/tt/552tt.jpg","",""
"null","../img/gs/552gs.jpg","null","reveal","image-keyboard-response","199","602055","0.0-6.0-4.27","2291533","co38083","norming","","","","","","",""
"null","../img/tt/552tt.jpg","null","mooney2","image-keyboard-response","200","604057","0.0-6.0-5.27","2291533","co38083","norming","","","","","","",""
"1362.4799999997485","","","post_reveal_questions","survey-likert","201","605421","0.0-6.0-6.27","2291533","co38083","norming","","","{""aha"":3}","[0]","../img/tt/552tt.jpg","",""
"null","<div style=""font-size:60px;""> </div>","null","fixation","html-keyboard-response","202","605627","0.0-6.0-0.28","2291533","co38083","norming","","","","","","",""
"null","../img/tt/496tt.jpg","null","mooney1","image-keyboard-response","203","608633","0.0-6.0-1.28","2291533","co38083","norming","","","","","","",""
"2737.5649999994785","","","post_mooney1_questions","survey-likert","204","611373","0.0-6.0-2.28","2291533","co38083","norming","","","{""curiosity"":4,""confidence"":1}","[0,1]","../img/tt/496tt.jpg","",""
"1526.1400000017602","","","recognition","survey-text","205","612901","0.0-6.0-3.28","2291533","co38083","norming","","","{""guess"":""koala""}","","../img/tt/496tt.jpg","",""
"null","../img/gs/496gs.jpg","null","reveal","image-keyboard-response","206","614912","0.0-6.0-4.28","2291533","co38083","norming","","","","","","",""
"null","../img/tt/496tt.jpg","null","mooney2","image-keyboard-response","207","616923","0.0-6.0-5.28","2291533","co38083","norming","","","","","","",""
"3615.7100000018254","","","post_reveal_questions","survey-likert","208","620541","0.0-6.0-6.28","2291533","co38083","norming","","","{""aha"":5}","[0]","../img/tt/496tt.jpg","",""
"null","<div style=""font-size:60px;""> </div>","null","fixation","html-keyboard-response","209","620742","0.0-6.0-0.29","2291533","co38083","norming","","","","","","",""
"null","../img/tt/112tt.jpg","null","mooney1","image-keyboard-response","210","623746","0.0-6.0-1.29","2291533","co38083","norming","","","","","","",""
"3248.2700000000186","","","post_mooney1_questions","survey-likert","211","626997","0.0-6.0-2.29","2291533","co38083","norming","","","{""curiosity"":5,""confidence"":0}","[0,1]","../img/tt/112tt.jpg","",""
"638.1600000022445","","","recognition","survey-text","212","627637","0.0-6.0-3.29","2291533","co38083","norming","","","{""guess"":""""}","","../img/tt/112tt.jpg","",""
"null","../img/gs/112gs.jpg","null","reveal","image-keyboard-response","213","629654","0.0-6.0-4.29","2291533","co38083","norming","","","","","","",""
"null","../img/tt/112tt.jpg","null","mooney2","image-keyboard-response","214","631665","0.0-6.0-5.29","2291533","co38083","norming","","","","","","",""
"1539.7549999979092","","","post_reveal_questions","survey-likert","215","633207","0.0-6.0-6.29","2291533","co38083","norming","","","{""aha"":5}","[0]","../img/tt/112tt.jpg","",""
"null","<div style=""font-size:60px;""> </div>","null","fixation","html-keyboard-response","216","633413","0.0-6.0-0.30","2291533","co38083","norming","","","","","","",""
"null","../img/tt/1002tt.jpg","null","mooney1","image-keyboard-response","217","636424","0.0-6.0-1.30","2291533","co38083","norming","","","","","","",""
"3379.9550000004238","","","post_mooney1_questions","survey-likert","218","639807","0.0-6.0-2.30","2291533","co38083","norming","","","{""curiosity"":4,""confidence"":1}","[0,1]","../img/tt/1002tt.jpg","",""
"4590.165000001434","","","recognition","survey-text","219","644399","0.0-6.0-3.30","2291533","co38083","norming","","","{""guess"":""""}","","../img/tt/1002tt.jpg","",""
"null","../img/gs/1002gs.jpg","null","reveal","image-keyboard-response","220","646401","0.0-6.0-4.30","2291533","co38083","norming","","","","","","",""
"null","../img/tt/1002tt.jpg","null","mooney2","image-keyboard-response","221","648403","0.0-6.0-5.30","2291533","co38083","norming","","","","","","",""
"1401.9350000016857","","","post_reveal_questions","survey-likert","222","649807","0.0-6.0-6.30","2291533","co38083","norming","","","{""aha"":6}","[0]","../img/tt/1002tt.jpg","",""
"null","<div style=""font-size:60px;""> </div>","null","fixation","html-keyboard-response","223","650017","0.0-6.0-0.31","2291533","co38083","norming","","","","","","",""
"null","../img/tt/1127tt.jpg","null","mooney1","image-keyboard-response","224","653019","0.0-6.0-1.31","2291533","co38083","norming","","","","","","",""
"2992.8749999998836","","","post_mooney1_questions","survey-likert","225","656015","0.0-6.0-2.31","2291533","co38083","norming","","","{""curiosity"":5,""confidence"":1}","[0,1]","../img/tt/1127tt.jpg","",""
"3006.2499999984866","","","recognition","survey-text","226","659023","0.0-6.0-3.31","2291533","co38083","norming","","","{""guess"":""schermen""}","","../img/tt/1127tt.jpg","",""
"null","../img/gs/1127gs.jpg","null","reveal","image-keyboard-response","227","661032","0.0-6.0-4.31","2291533","co38083","norming","","","","","","",""
"null","../img/tt/1127tt.jpg","null","mooney2","image-keyboard-response","228","663034","0.0-6.0-5.31","2291533","co38083","norming","","","","","","",""
"2530.4700000014855","","","post_reveal_questions","survey-likert","229","665567","0.0-6.0-6.31","2291533","co38083","norming","","","{""aha"":5}","[0]","../img/tt/1127tt.jpg","",""
"null","<div style=""font-size:60px;""> </div>","null","fixation","html-keyboard-response","230","665776","0.0-6.0-0.32","2291533","co38083","norming","","","","","","",""
"null","../img/tt/091tt.jpg","null","mooney1","image-keyboard-response","231","668783","0.0-6.0-1.32","2291533","co38083","norming","","","","","","",""
"2877.1950000009965","","","post_mooney1_questions","survey-likert","232","671663","0.0-6.0-2.32","2291533","co38083","norming","","","{""curiosity"":4,""confidence"":1}","[0,1]","../img/tt/091tt.jpg","",""
"3229.7450000005774","","","recognition","survey-text","233","674895","0.0-6.0-3.32","2291533","co38083","norming","","","{""guess"":""pinguïn""}","","../img/tt/091tt.jpg","",""
"null","../img/gs/091gs.jpg","null","reveal","image-keyboard-response","234","676902","0.0-6.0-4.32","2291533","co38083","norming","","","","","","",""
"null","../img/tt/091tt.jpg","null","mooney2","image-keyboard-response","235","678911","0.0-6.0-5.32","2291533","co38083","norming","","","","","","",""
"1997.3150000005262","","","post_reveal_questions","survey-likert","236","680911","0.0-6.0-6.32","2291533","co38083","norming","","","{""aha"":5}","[0]","../img/tt/091tt.jpg","",""
"null","<div style=""font-size:60px;""> </div>","null","fixation","html-keyboard-response","237","681112","0.0-6.0-0.33","2291533","co38083","norming","","","","","","",""
"null","../img/tt/358tt.jpg","null","mooney1","image-keyboard-response","238","684113","0.0-6.0-1.33","2291533","co38083","norming","","","","","","",""
"3355.195000000065","","","post_mooney1_questions","survey-likert","239","687471","0.0-6.0-2.33","2291533","co38083","norming","","","{""curiosity"":4,""confidence"":1}","[0,1]","../img/tt/358tt.jpg","",""
"2174.0299999982817","","","recognition","survey-text","240","689647","0.0-6.0-3.33","2291533","co38083","norming","","","{""guess"":""aap""}","","../img/tt/358tt.jpg","",""
"null","../img/gs/358gs.jpg","null","reveal","image-keyboard-response","241","691649","0.0-6.0-4.33","2291533","co38083","norming","","","","","","",""
"null","../img/tt/358tt.jpg","null","mooney2","image-keyboard-response","242","693652","0.0-6.0-5.33","2291533","co38083","norming","","","","","","",""
"1625.2050000003073","","","post_reveal_questions","survey-likert","243","695280","0.0-6.0-6.33","2291533","co38083","norming","","","{""aha"":5}","[0]","../img/tt/358tt.jpg","",""
"null","<div style=""font-size:60px;""> </div>","null","fixation","html-keyboard-response","244","695482","0.0-6.0-0.34","2291533","co38083","norming","","","","","","",""
"null","../img/tt/1247tt.jpg","null","mooney1","image-keyboard-response","245","698486","0.0-6.0-1.34","2291533","co38083","norming","","","","","","",""
"5199.349999998929","","","post_mooney1_questions","survey-likert","246","703688","0.0-6.0-2.34","2291533","co38083","norming","","","{""curiosity"":3,""confidence"":5}","[0,1]","../img/tt/1247tt.jpg","",""
"4166.184999998193","","","recognition","survey-text","247","707855","0.0-6.0-3.34","2291533","co38083","norming","","","{""guess"":""tijger""}","","../img/tt/1247tt.jpg","",""
"null","../img/gs/1247gs.jpg","null","reveal","image-keyboard-response","248","709856","0.0-6.0-4.34","2291533","co38083","norming","","","","","","",""
"null","../img/tt/1247tt.jpg","null","mooney2","image-keyboard-response","249","711860","0.0-6.0-5.34","2291533","co38083","norming","","","","","","",""
"3985.1549999985145","","","post_reveal_questions","survey-likert","250","715848","0.0-6.0-6.34","2291533","co38083","norming","","","{""aha"":4}","[0]","../img/tt/1247tt.jpg","",""
"null","<div style=""font-size:60px;""> </div>","null","fixation","html-keyboard-response","251","716056","0.0-6.0-0.35","2291533","co38083","norming","","","","","","",""
"null","../img/tt/1262tt.jpg","null","mooney1","image-keyboard-response","252","719059","0.0-6.0-1.35","2291533","co38083","norming","","","","","","",""
"2819.6099999987055","","","post_mooney1_questions","survey-likert","253","721880","0.0-6.0-2.35","2291533","co38083","norming","","","{""curiosity"":5,""confidence"":0}","[0,1]","../img/tt/1262tt.jpg","",""
"694.0700000013458","","","recognition","survey-text","254","722575","0.0-6.0-3.35","2291533","co38083","norming","","","{""guess"":""""}","","../img/tt/1262tt.jpg","",""
"null","../img/gs/1262gs.jpg","null","reveal","image-keyboard-response","255","724577","0.0-6.0-4.35","2291533","co38083","norming","","","","","","",""
"null","../img/tt/1262tt.jpg","null","mooney2","image-keyboard-response","256","726579","0.0-6.0-5.35","2291533","co38083","norming","","","","","","",""
"1658.1250000017462","","","post_reveal_questions","survey-likert","257","728240","0.0-6.0-6.35","2291533","co38083","norming","","","{""aha"":4}","[0]","../img/tt/1262tt.jpg","",""
"null","<div style=""font-size:60px;""> </div>","null","fixation","html-keyboard-response","258","728442","0.0-6.0-0.36","2291533","co38083","norming","","","","","","",""
"null","../img/tt/477tt.jpg","null","mooney1","image-keyboard-response","259","731446","0.0-6.0-1.36","2291533","co38083","norming","","","","","","",""
"4014.9149999998044","","","post_mooney1_questions","survey-likert","260","735463","0.0-6.0-2.36","2291533","co38083","norming","","","{""curiosity"":4,""confidence"":0}","[0,1]","../img/tt/477tt.jpg","",""
"533.9500000008848","","","recognition","survey-text","261","735999","0.0-6.0-3.36","2291533","co38083","norming","","","{""guess"":""""}","","../img/tt/477tt.jpg","",""
"null","../img/gs/477gs.jpg","null","reveal","image-keyboard-response","262","738004","0.0-6.0-4.36","2291533","co38083","norming","","","","","","",""
"null","../img/tt/477tt.jpg","null","mooney2","image-keyboard-response","263","740008","0.0-6.0-5.36","2291533","co38083","norming","","","","","","",""
"2445.2349999992875","","","post_reveal_questions","survey-likert","264","742456","0.0-6.0-6.36","2291533","co38083","norming","","","{""aha"":2}","[0]","../img/tt/477tt.jpg","",""
"null","<div style=""font-size:60px;""> </div>","null","fixation","html-keyboard-response","265","742657","0.0-6.0-0.37","2291533","co38083","norming","","","","","","",""
"null","../img/tt/1275tt.jpg","null","mooney1","image-keyboard-response","266","745662","0.0-6.0-1.37","2291533","co38083","norming","","","","","","",""
"3438.0550000023795","","","post_mooney1_questions","survey-likert","267","749104","0.0-6.0-2.37","2291533","co38083","norming","","","{""curiosity"":5,""confidence"":1}","[0,1]","../img/tt/1275tt.jpg","",""
"4590.394999999204","","","recognition","survey-text","268","753687","0.0-6.0-3.37","2291533","co38083","norming","","","{""guess"":""hond""}","","../img/tt/1275tt.jpg","",""
"null","../img/gs/1275gs.jpg","null","reveal","image-keyboard-response","269","755692","0.0-6.0-4.37","2291533","co38083","norming","","","","","","",""
"null","../img/tt/1275tt.jpg","null","mooney2","image-keyboard-response","270","757694","0.0-6.0-5.37","2291533","co38083","norming","","","","","","",""
"4208.370000000345","","","post_reveal_questions","survey-likert","271","761904","0.0-6.0-6.37","2291533","co38083","norming","","","{""aha"":0}","[0]","../img/tt/1275tt.jpg","",""
"null","<div style=""font-size:60px;""> </div>","null","fixation","html-keyboard-response","272","762105","0.0-6.0-0.38","2291533","co38083","norming","","","","","","",""
"null","../img/tt/1078tt.jpg","null","mooney1","image-keyboard-response","273","765112","0.0-6.0-1.38","2291533","co38083","norming","","","","","","",""
"4214.9499999977415","","","post_mooney1_questions","survey-likert","274","769328","0.0-6.0-2.38","2291533","co38083","norming","","","{""curiosity"":5,""confidence"":1}","[0,1]","../img/tt/1078tt.jpg","",""
"877.9250000006286","","","recognition","survey-text","275","770207","0.0-6.0-3.38","2291533","co38083","norming","","","{""guess"":""""}","","../img/tt/1078tt.jpg","",""
"null","../img/gs/1078gs.jpg","null","reveal","image-keyboard-response","276","772212","0.0-6.0-4.38","2291533","co38083","norming","","","","","","",""
"null","../img/tt/1078tt.jpg","null","mooney2","image-keyboard-response","277","774215","0.0-6.0-5.38","2291533","co38083","norming","","","","","","",""
"3246.430000002845","","","post_reveal_questions","survey-likert","278","777463","0.0-6.0-6.38","2291533","co38083","norming","","","{""aha"":2}","[0]","../img/tt/1078tt.jpg","",""
"null","<div style=""font-size:60px;""> </div>","null","fixation","html-keyboard-response","279","777665","0.0-6.0-0.39","2291533","co38083","norming","","","","","","",""
"null","../img/tt/053tt.jpg","null","mooney1","image-keyboard-response","280","780669","0.0-6.0-1.39","2291533","co38083","norming","","","","","","",""
"4152.294999999809","","","post_mooney1_questions","survey-likert","281","784824","0.0-6.0-2.39","2291533","co38083","norming","","","{""curiosity"":5,""confidence"":2}","[0,1]","../img/tt/053tt.jpg","",""
"2734.0750000003027","","","recognition","survey-text","282","787559","0.0-6.0-3.39","2291533","co38083","norming","","","{""guess"":""waterval""}","","../img/tt/053tt.jpg","",""
"null","../img/gs/053gs.jpg","null","reveal","image-keyboard-response","283","789569","0.0-6.0-4.39","2291533","co38083","norming","","","","","","",""
"null","../img/tt/053tt.jpg","null","mooney2","image-keyboard-response","284","791571","0.0-6.0-5.39","2291533","co38083","norming","","","","","","",""
"3641.734999997425","","","post_reveal_questions","survey-likert","285","795215","0.0-6.0-6.39","2291533","co38083","norming","","","{""aha"":3}","[0]","../img/tt/053tt.jpg","",""
"null","<div style=""font-size:60px;""> </div>","null","fixation","html-keyboard-response","286","795417","0.0-6.0-0.40","2291533","co38083","norming","","","","","","",""
"null","../img/tt/1118tt.jpg","null","mooney1","image-keyboard-response","287","798429","0.0-6.0-1.40","2291533","co38083","norming","","","","","","",""
"3351.585000000312","","","post_mooney1_questions","survey-likert","288","801784","0.0-6.0-2.40","2291533","co38083","norming","","","{""curiosity"":5,""confidence"":3}","[0,1]","../img/tt/1118tt.jpg","",""
"1822.4150000023656","","","recognition","survey-text","289","803608","0.0-6.0-3.40","2291533","co38083","norming","","","{""guess"":""bootje""}","","../img/tt/1118tt.jpg","",""
"null","../img/gs/1118gs.jpg","null","reveal","image-keyboard-response","290","805609","0.0-6.0-4.40","2291533","co38083","norming","","","","","","",""
"null","../img/tt/1118tt.jpg","null","mooney2","image-keyboard-response","291","807612","0.0-6.0-5.40","2291533","co38083","norming","","","","","","",""
"1425.5900000025285","","","post_reveal_questions","survey-likert","292","809039","0.0-6.0-6.40","2291533","co38083","norming","","","{""aha"":5}","[0]","../img/tt/1118tt.jpg","",""
"null","<div style=""font-size:60px;""> </div>","null","fixation","html-keyboard-response","293","809250","0.0-6.0-0.41","2291533","co38083","norming","","","","","","",""
"null","../img/tt/1126tt.jpg","null","mooney1","image-keyboard-response","294","812254","0.0-6.0-1.41","2291533","co38083","norming","","","","","","",""
"4351.070000000531","","","post_mooney1_questions","survey-likert","295","816616","0.0-6.0-2.41","2291533","co38083","norming","","","{""curiosity"":5,""confidence"":2}","[0,1]","../img/tt/1126tt.jpg","",""
"2069.88999999885","","","recognition","survey-text","296","818687","0.0-6.0-3.41","2291533","co38083","norming","","","{""guess"":""kliff""}","","../img/tt/1126tt.jpg","",""
"null","../img/gs/1126gs.jpg","null","reveal","image-keyboard-response","297","820695","0.0-6.0-4.41","2291533","co38083","norming","","","","","","",""
"null","../img/tt/1126tt.jpg","null","mooney2","image-keyboard-response","298","822704","0.0-6.0-5.41","2291533","co38083","norming","","","","","","",""
"2533.025000000722","","","post_reveal_questions","survey-likert","299","825239","0.0-6.0-6.41","2291533","co38083","norming","","","{""aha"":5}","[0]","../img/tt/1126tt.jpg","",""
"null","<div style=""font-size:60px;""> </div>","null","fixation","html-keyboard-response","300","825441","0.0-6.0-0.42","2291533","co38083","norming","","","","","","",""
"null","../img/tt/435tt.jpg","null","mooney1","image-keyboard-response","301","828445","0.0-6.0-1.42","2291533","co38083","norming","","","","","","",""
"5551.76500000013","","","post_mooney1_questions","survey-likert","302","834000","0.0-6.0-2.42","2291533","co38083","norming","","","{""curiosity"":4,""confidence"":1}","[0,1]","../img/tt/435tt.jpg","",""
"2830.1800000007497","","","recognition","survey-text","303","836831","0.0-6.0-3.42","2291533","co38083","norming","","","{""guess"":""bureau""}","","../img/tt/435tt.jpg","",""
"null","../img/gs/435gs.jpg","null","reveal","image-keyboard-response","304","838841","0.0-6.0-4.42","2291533","co38083","norming","","","","","","",""
"null","../img/tt/435tt.jpg","null","mooney2","image-keyboard-response","305","840849","0.0-6.0-5.42","2291533","co38083","norming","","","","","","",""
"1985.4249999989988","","","post_reveal_questions","survey-likert","306","842840","0.0-6.0-6.42","2291533","co38083","norming","","","{""aha"":4}","[0]","../img/tt/435tt.jpg","",""
"null","<div style=""font-size:60px;""> </div>","null","fixation","html-keyboard-response","307","843048","0.0-6.0-0.43","2291533","co38083","norming","","","","","","",""
"null","../img/tt/078tt.jpg","null","mooney1","image-keyboard-response","308","846050","0.0-6.0-1.43","2291533","co38083","norming","","","","","","",""
"2890.4199999996927","","","post_mooney1_questions","survey-likert","309","848944","0.0-6.0-2.43","2291533","co38083","norming","","","{""curiosity"":4,""confidence"":1}","[0,1]","../img/tt/078tt.jpg","",""
"2926.2549999984913","","","recognition","survey-text","310","851871","0.0-6.0-3.43","2291533","co38083","norming","","","{""guess"":""vlinder""}","","../img/tt/078tt.jpg","",""
"null","../img/gs/078gs.jpg","null","reveal","image-keyboard-response","311","853882","0.0-6.0-4.43","2291533","co38083","norming","","","","","","",""
"null","../img/tt/078tt.jpg","null","mooney2","image-keyboard-response","312","855884","0.0-6.0-5.43","2291533","co38083","norming","","","","","","",""
"1256.919999999809","","","post_reveal_questions","survey-likert","313","857143","0.0-6.0-6.43","2291533","co38083","norming","","","{""aha"":1}","[0]","../img/tt/078tt.jpg","",""
"null","<div style=""font-size:60px;""> </div>","null","fixation","html-keyboard-response","314","857352","0.0-6.0-0.44","2291533","co38083","norming","","","","","","",""
"null","../img/tt/1084tt.jpg","null","mooney1","image-keyboard-response","315","860362","0.0-6.0-1.44","2291533","co38083","norming","","","","","","",""
"5026.764999998733","","","post_mooney1_questions","survey-likert","316","865392","0.0-6.0-2.44","2291533","co38083","norming","","","{""curiosity"":3,""confidence"":3}","[0,1]","../img/tt/1084tt.jpg","",""
"1981.785000003525","","","recognition","survey-text","317","867375","0.0-6.0-3.44","2291533","co38083","norming","","","{""guess"":""tafel""}","","../img/tt/1084tt.jpg","",""
"null","../img/gs/1084gs.jpg","null","reveal","image-keyboard-response","318","869377","0.0-6.0-4.44","2291533","co38083","norming","","","","","","",""
"null","../img/tt/1084tt.jpg","null","mooney2","image-keyboard-response","319","871380","0.0-6.0-5.44","2291533","co38083","norming","","","","","","",""
"2904.2200000003213","","","post_reveal_questions","survey-likert","320","874285","0.0-6.0-6.44","2291533","co38083","norming","","","{""aha"":4}","[0]","../img/tt/1084tt.jpg","",""
"null","<div style=""font-size:60px;""> </div>","null","fixation","html-keyboard-response","321","874493","0.0-6.0-0.45","2291533","co38083","norming","","","","","","",""
"null","../img/tt/549tt.jpg","null","mooney1","image-keyboard-response","322","877497","0.0-6.0-1.45","2291533","co38083","norming","","","","","","",""
"2657.3700000008103","","","post_mooney1_questions","survey-likert","323","880157","0.0-6.0-2.45","2291533","co38083","norming","","","{""curiosity"":5,""confidence"":2}","[0,1]","../img/tt/549tt.jpg","",""
"3326.2049999975134","","","recognition","survey-text","324","883485","0.0-6.0-3.45","2291533","co38083","norming","","","{""guess"":""bergtop""}","","../img/tt/549tt.jpg","",""
"null","../img/gs/549gs.jpg","null","reveal","image-keyboard-response","325","885493","0.0-6.0-4.45","2291533","co38083","norming","","","","","","",""
"null","../img/tt/549tt.jpg","null","mooney2","image-keyboard-response","326","887494","0.0-6.0-5.45","2291533","co38083","norming","","","","","","",""
"1828.3150000023888","","","post_reveal_questions","survey-likert","327","889325","0.0-6.0-6.45","2291533","co38083","norming","","","{""aha"":5}","[0]","../img/tt/549tt.jpg","",""
"null","<div style=""font-size:60px;""> </div>","null","fixation","html-keyboard-response","328","889528","0.0-6.0-0.46","2291533","co38083","norming","","","","","","",""
"null","../img/tt/584tt.jpg","null","mooney1","image-keyboard-response","329","892530","0.0-6.0-1.46","2291533","co38083","norming","","","","","","",""
"3218.1050000035902","","","post_mooney1_questions","survey-likert","330","895749","0.0-6.0-2.46","2291533","co38083","norming","","","{""curiosity"":5,""confidence"":3}","[0,1]","../img/tt/584tt.jpg","",""
"2918.1500000014203","","","recognition","survey-text","331","898669","0.0-6.0-3.46","2291533","co38083","norming","","","{""guess"":""bloem""}","","../img/tt/584tt.jpg","",""
"null","../img/gs/584gs.jpg","null","reveal","image-keyboard-response","332","900674","0.0-6.0-4.46","2291533","co38083","norming","","","","","","",""
"null","../img/tt/584tt.jpg","null","mooney2","image-keyboard-response","333","902685","0.0-6.0-5.46","2291533","co38083","norming","","","","","","",""
"2228.9999999993015","","","post_reveal_questions","survey-likert","334","904917","0.0-6.0-6.46","2291533","co38083","norming","","","{""aha"":4}","[0]","../img/tt/584tt.jpg","",""
"null","<div style=""font-size:60px;""> </div>","null","fixation","html-keyboard-response","335","905120","0.0-6.0-0.47","2291533","co38083","norming","","","","","","",""
"null","../img/tt/306tt.jpg","null","mooney1","image-keyboard-response","336","908122","0.0-6.0-1.47","2291533","co38083","norming","","","","","","",""
"2536.07500000007","","","post_mooney1_questions","survey-likert","337","910661","0.0-6.0-2.47","2291533","co38083","norming","","","{""curiosity"":4,""confidence"":1}","[0,1]","../img/tt/306tt.jpg","",""
"3413.700000001001","","","recognition","survey-text","338","914077","0.0-6.0-3.47","2291533","co38083","norming","","","{""guess"":"" vlinder""}","","../img/tt/306tt.jpg","",""
"null","../img/gs/306gs.jpg","null","reveal","image-keyboard-response","339","916084","0.0-6.0-4.47","2291533","co38083","norming","","","","","","",""
"null","../img/tt/306tt.jpg","null","mooney2","image-keyboard-response","340","918086","0.0-6.0-5.47","2291533","co38083","norming","","","","","","",""
"2948.679999997723","","","post_reveal_questions","survey-likert","341","921037","0.0-6.0-6.47","2291533","co38083","norming","","","{""aha"":5}","[0]","../img/tt/306tt.jpg","",""
"null","<div style=""font-size:60px;""> </div>","null","fixation","html-keyboard-response","342","921239","0.0-6.0-0.48","2291533","co38083","norming","","","","","","",""
"null","../img/tt/590tt.jpg","null","mooney1","image-keyboard-response","343","924242","0.0-6.0-1.48","2291533","co38083","norming","","","","","","",""
"4761.799999996554","","","post_mooney1_questions","survey-likert","344","929005","0.0-6.0-2.48","2291533","co38083","norming","","","{""curiosity"":5,""confidence"":0}","[0,1]","../img/tt/590tt.jpg","",""
"701.5649999994785","","","recognition","survey-text","345","929708","0.0-6.0-3.48","2291533","co38083","norming","","","{""guess"":""""}","","../img/tt/590tt.jpg","",""
"null","../img/gs/590gs.jpg","null","reveal","image-keyboard-response","346","931714","0.0-6.0-4.48","2291533","co38083","norming","","","","","","",""
"null","../img/tt/590tt.jpg","null","mooney2","image-keyboard-response","347","933715","0.0-6.0-5.48","2291533","co38083","norming","","","","","","",""
"1848.2650000004796","","","post_reveal_questions","survey-likert","348","935569","0.0-6.0-6.48","2291533","co38083","norming","","","{""aha"":1}","[0]","../img/tt/590tt.jpg","",""
"null","<div style=""font-size:60px;""> </div>","null","fixation","html-keyboard-response","349","935778","0.0-6.0-0.49","2291533","co38083","norming","","","","","","",""
"null","../img/tt/123tt.jpg","null","mooney1","image-keyboard-response","350","938778","0.0-6.0-1.49","2291533","co38083","norming","","","","","","",""
"3173.6149999996414","","","post_mooney1_questions","survey-likert","351","941953","0.0-6.0-2.49","2291533","co38083","norming","","","{""curiosity"":5,""confidence"":0}","[0,1]","../img/tt/123tt.jpg","",""
"493.3000000019092","","","recognition","survey-text","352","942449","0.0-6.0-3.49","2291533","co38083","norming","","","{""guess"":""""}","","../img/tt/123tt.jpg","",""
"null","../img/gs/123gs.jpg","null","reveal","image-keyboard-response","353","944454","0.0-6.0-4.49","2291533","co38083","norming","","","","","","",""
"null","../img/tt/123tt.jpg","null","mooney2","image-keyboard-response","354","946456","0.0-6.0-5.49","2291533","co38083","norming","","","","","","",""
"1847.8199999991339","","","post_reveal_questions","survey-likert","355","948305","0.0-6.0-6.49","2291533","co38083","norming","","","{""aha"":4}","[0]","../img/tt/123tt.jpg","",""
"null","<div style=""font-size:60px;""> </div>","null","fixation","html-keyboard-response","356","948506","0.0-6.0-0.50","2291533","co38083","norming","","","","","","",""
"null","../img/tt/1362tt.jpg","null","mooney1","image-keyboard-response","357","951510","0.0-6.0-1.50","2291533","co38083","norming","","","","","","",""
"2974.590000001597","","","post_mooney1_questions","survey-likert","358","954490","0.0-6.0-2.50","2291533","co38083","norming","","","{""curiosity"":5,""confidence"":0}","[0,1]","../img/tt/1362tt.jpg","",""
"3334.0549999993527","","","recognition","survey-text","359","957825","0.0-6.0-3.50","2291533","co38083","norming","","","{""guess"":""violen""}","","../img/tt/1362tt.jpg","",""
"null","../img/gs/1362gs.jpg","null","reveal","image-keyboard-response","360","959830","0.0-6.0-4.50","2291533","co38083","norming","","","","","","",""
"null","../img/tt/1362tt.jpg","null","mooney2","image-keyboard-response","361","961838","0.0-6.0-5.50","2291533","co38083","norming","","","","","","",""
"6208.5000000006985","","","post_reveal_questions","survey-likert","362","968049","0.0-6.0-6.50","2291533","co38083","norming","","","{""aha"":1}","[0]","../img/tt/1362tt.jpg","",""
"null","<div style=""font-size:60px;""> </div>","null","fixation","html-keyboard-response","363","968257","0.0-6.0-0.51","2291533","co38083","norming","","","","","","",""
"null","../img/tt/405tt.jpg","null","mooney1","image-keyboard-response","364","971260","0.0-6.0-1.51","2291533","co38083","norming","","","","","","",""
"3610.3949999996694","","","post_mooney1_questions","survey-likert","365","974874","0.0-6.0-2.51","2291533","co38083","norming","","","{""curiosity"":6,""confidence"":2}","[0,1]","../img/tt/405tt.jpg","",""
"2550.1350000014063","","","recognition","survey-text","366","977425","0.0-6.0-3.51","2291533","co38083","norming","","","{""guess"":""koala""}","","../img/tt/405tt.jpg","",""
"null","../img/gs/405gs.jpg","null","reveal","image-keyboard-response","367","979431","0.0-6.0-4.51","2291533","co38083","norming","","","","","","",""
"null","../img/tt/405tt.jpg","null","mooney2","image-keyboard-response","368","981433","0.0-6.0-5.51","2291533","co38083","norming","","","","","","",""
"1669.2500000026776","","","post_reveal_questions","survey-likert","369","983105","0.0-6.0-6.51","2291533","co38083","norming","","","{""aha"":4}","[0]","../img/tt/405tt.jpg","",""
"null","<div style=""font-size:60px;""> </div>","null","fixation","html-keyboard-response","370","983309","0.0-6.0-0.52","2291533","co38083","norming","","","","","","",""
"null","../img/tt/353tt.jpg","null","mooney1","image-keyboard-response","371","986315","0.0-6.0-1.52","2291533","co38083","norming","","","","","","",""
"2651.630000000354","","","post_mooney1_questions","survey-likert","372","988970","0.0-6.0-2.52","2291533","co38083","norming","","","{""curiosity"":5,""confidence"":0}","[0,1]","../img/tt/353tt.jpg","",""
"1053.9800000005635","","","recognition","survey-text","373","990025","0.0-6.0-3.52","2291533","co38083","norming","","","{""guess"":""""}","","../img/tt/353tt.jpg","",""
"null","../img/gs/353gs.jpg","null","reveal","image-keyboard-response","374","992036","0.0-6.0-4.52","2291533","co38083","norming","","","","","","",""
"null","../img/tt/353tt.jpg","null","mooney2","image-keyboard-response","375","994042","0.0-6.0-5.52","2291533","co38083","norming","","","","","","",""
"2092.5699999970384","","","post_reveal_questions","survey-likert","376","996137","0.0-6.0-6.52","2291533","co38083","norming","","","{""aha"":4}","[0]","../img/tt/353tt.jpg","",""
"null","<div style=""font-size:60px;""> </div>","null","fixation","html-keyboard-response","377","996338","0.0-6.0-0.53","2291533","co38083","norming","","","","","","",""
"null","../img/tt/1228tt.jpg","null","mooney1","image-keyboard-response","378","999342","0.0-6.0-1.53","2291533","co38083","norming","","","","","","",""
"3248.0949999990407","","","post_mooney1_questions","survey-likert","379","1002593","0.0-6.0-2.53","2291533","co38083","norming","","","{""curiosity"":5,""confidence"":0}","[0,1]","../img/tt/1228tt.jpg","",""
"509.8199999993667","","","recognition","survey-text","380","1003104","0.0-6.0-3.53","2291533","co38083","norming","","","{""guess"":""""}","","../img/tt/1228tt.jpg","",""
"null","../img/gs/1228gs.jpg","null","reveal","image-keyboard-response","381","1005112","0.0-6.0-4.53","2291533","co38083","norming","","","","","","",""
"null","../img/tt/1228tt.jpg","null","mooney2","image-keyboard-response","382","1007113","0.0-6.0-5.53","2291533","co38083","norming","","","","","","",""
"3319.1100000004517","","","post_reveal_questions","survey-likert","383","1010433","0.0-6.0-6.53","2291533","co38083","norming","","","{""aha"":3}","[0]","../img/tt/1228tt.jpg","",""
"null","<div style=""font-size:60px;""> </div>","null","fixation","html-keyboard-response","384","1010641","0.0-6.0-0.54","2291533","co38083","norming","","","","","","",""
"null","../img/tt/1154tt.jpg","null","mooney1","image-keyboard-response","385","1013645","0.0-6.0-1.54","2291533","co38083","norming","","","","","","",""
"2665.2049999975134","","","post_mooney1_questions","survey-likert","386","1016313","0.0-6.0-2.54","2291533","co38083","norming","","","{""curiosity"":5,""confidence"":0}","[0,1]","../img/tt/1154tt.jpg","",""
"566.0949999983422","","","recognition","survey-text","387","1016881","0.0-6.0-3.54","2291533","co38083","norming","","","{""guess"":""""}","","../img/tt/1154tt.jpg","",""
"null","../img/gs/1154gs.jpg","null","reveal","image-keyboard-response","388","1018883","0.0-6.0-4.54","2291533","co38083","norming","","","","","","",""
"null","../img/tt/1154tt.jpg","null","mooney2","image-keyboard-response","389","1020886","0.0-6.0-5.54","2291533","co38083","norming","","","","","","",""
"2568.314999996801","","","post_reveal_questions","survey-likert","390","1023457","0.0-6.0-6.54","2291533","co38083","norming","","","{""aha"":4}","[0]","../img/tt/1154tt.jpg","",""
"null","<div style=""font-size:60px;""> </div>","null","fixation","html-keyboard-response","391","1023661","0.0-6.0-0.55","2291533","co38083","norming","","","","","","",""
"null","../img/tt/1055tt.jpg","null","mooney1","image-keyboard-response","392","1026664","0.0-6.0-1.55","2291533","co38083","norming","","","","","","",""
"3668.6100000006845","","","post_mooney1_questions","survey-likert","393","1030337","0.0-6.0-2.55","2291533","co38083","norming","","","{""curiosity"":5,""confidence"":1}","[0,1]","../img/tt/1055tt.jpg","",""
"3662.355000000447","","","recognition","survey-text","394","1034001","0.0-6.0-3.55","2291533","co38083","norming","","","{""guess"":""op water""}","","../img/tt/1055tt.jpg","",""
"null","../img/gs/1055gs.jpg","null","reveal","image-keyboard-response","395","1036002","0.0-6.0-4.55","2291533","co38083","norming","","","","","","",""
"null","../img/tt/1055tt.jpg","null","mooney2","image-keyboard-response","396","1038005","0.0-6.0-5.55","2291533","co38083","norming","","","","","","",""
"3545.7099999984493","","","post_reveal_questions","survey-likert","397","1041553","0.0-6.0-6.55","2291533","co38083","norming","","","{""aha"":2}","[0]","../img/tt/1055tt.jpg","",""
"null","<div style=""font-size:60px;""> </div>","null","fixation","html-keyboard-response","398","1041754","0.0-6.0-0.56","2291533","co38083","norming","","","","","","",""
"null","../img/tt/357tt.jpg","null","mooney1","image-keyboard-response","399","1044765","0.0-6.0-1.56","2291533","co38083","norming","","","","","","",""
"12673.064999999013","","","post_mooney1_questions","survey-likert","400","1057437","0.0-6.0-2.56","2291533","co38083","norming","","","{""curiosity"":5,""confidence"":0}","[0,1]","../img/tt/357tt.jpg","",""
"1653.889999997802","","","recognition","survey-text","401","1059092","0.0-6.0-3.56","2291533","co38083","norming","","","{""guess"":""""}","","../img/tt/357tt.jpg","",""
"null","../img/gs/357gs.jpg","null","reveal","image-keyboard-response","402","1061095","0.0-6.0-4.56","2291533","co38083","norming","","","","","","",""
"null","../img/tt/357tt.jpg","null","mooney2","image-keyboard-response","403","1063098","0.0-6.0-5.56","2291533","co38083","norming","","","","","","",""
"1017.875000001397","","","post_reveal_questions","survey-likert","404","1064116","0.0-6.0-6.56","2291533","co38083","norming","","","{""aha"":2}","[0]","../img/tt/357tt.jpg","",""
"null","<div style=""font-size:60px;""> </div>","null","fixation","html-keyboard-response","405","1064320","0.0-6.0-0.57","2291533","co38083","norming","","","","","","",""
"null","../img/tt/1255tt.jpg","null","mooney1","image-keyboard-response","406","1067323","0.0-6.0-1.57","2291533","co38083","norming","","","","","","",""
"3566.275000001071","","","post_mooney1_questions","survey-likert","407","1070893","0.0-6.0-2.57","2291533","co38083","norming","","","{""curiosity"":5,""confidence"":0}","[0,1]","../img/tt/1255tt.jpg","",""
"2029.7299999983516","","","recognition","survey-text","408","1072925","0.0-6.0-3.57","2291533","co38083","norming","","","{""guess"":""haas""}","","../img/tt/1255tt.jpg","",""
"null","../img/gs/1255gs.jpg","null","reveal","image-keyboard-response","409","1074926","0.0-6.0-4.57","2291533","co38083","norming","","","","","","",""
"null","../img/tt/1255tt.jpg","null","mooney2","image-keyboard-response","410","1076935","0.0-6.0-5.57","2291533","co38083","norming","","","","","","",""
"1395.0049999984913","","","post_reveal_questions","survey-likert","411","1078333","0.0-6.0-6.57","2291533","co38083","norming","","","{""aha"":6}","[0]","../img/tt/1255tt.jpg","",""
"null","<div style=""font-size:60px;""> </div>","null","fixation","html-keyboard-response","412","1078534","0.0-6.0-0.58","2291533","co38083","norming","","","","","","",""
"null","../img/tt/1202tt.jpg","null","mooney1","image-keyboard-response","413","1081542","0.0-6.0-1.58","2291533","co38083","norming","","","","","","",""
"3795.18999999715","","","post_mooney1_questions","survey-likert","414","1085341","0.0-6.0-2.58","2291533","co38083","norming","","","{""curiosity"":5,""confidence"":0}","[0,1]","../img/tt/1202tt.jpg","",""
"2878.199999999255","","","recognition","survey-text","415","1088221","0.0-6.0-3.58","2291533","co38083","norming","","","{""guess"":""benen""}","","../img/tt/1202tt.jpg","",""
"null","../img/gs/1202gs.jpg","null","reveal","image-keyboard-response","416","1090225","0.0-6.0-4.58","2291533","co38083","norming","","","","","","",""
"null","../img/tt/1202tt.jpg","null","mooney2","image-keyboard-response","417","1092227","0.0-6.0-5.58","2291533","co38083","norming","","","","","","",""
"1239.255000000354","","","post_reveal_questions","survey-likert","418","1093469","0.0-6.0-6.58","2291533","co38083","norming","","","{""aha"":5}","[0]","../img/tt/1202tt.jpg","",""
"null","<div style=""font-size:60px;""> </div>","null","fixation","html-keyboard-response","419","1093670","0.0-6.0-0.59","2291533","co38083","norming","","","","","","",""
"null","../img/tt/307tt.jpg","null","mooney1","image-keyboard-response","420","1096673","0.0-6.0-1.59","2291533","co38083","norming","","","","","","",""
"2840.660000001779","","","post_mooney1_questions","survey-likert","421","1099517","0.0-6.0-2.59","2291533","co38083","norming","","","{""curiosity"":5,""confidence"":0}","[0,1]","../img/tt/307tt.jpg","",""
"470.249999998603","","","recognition","survey-text","422","1099988","0.0-6.0-3.59","2291533","co38083","norming","","","{""guess"":""""}","","../img/tt/307tt.jpg","",""
"null","../img/gs/307gs.jpg","null","reveal","image-keyboard-response","423","1101994","0.0-6.0-4.59","2291533","co38083","norming","","","","","","",""
"null","../img/tt/307tt.jpg","null","mooney2","image-keyboard-response","424","1104002","0.0-6.0-5.59","2291533","co38083","norming","","","","","","",""
"1935.379999998957","","","post_reveal_questions","survey-likert","425","1105940","0.0-6.0-6.59","2291533","co38083","norming","","","{""aha"":4}","[0]","../img/tt/307tt.jpg","",""
"null","<div style=""font-size:60px;""> </div>","null","fixation","html-keyboard-response","426","1106142","0.0-6.0-0.60","2291533","co38083","norming","","","","","","",""
"null","../img/tt/105tt.jpg","null","mooney1","image-keyboard-response","427","1109150","0.0-6.0-1.60","2291533","co38083","norming","","","","","","",""
"4533.820000000531","","","post_mooney1_questions","survey-likert","428","1113685","0.0-6.0-2.60","2291533","co38083","norming","","","{""curiosity"":5,""confidence"":3}","[0,1]","../img/tt/105tt.jpg","",""
"3062.3000000012107","","","recognition","survey-text","429","1116749","0.0-6.0-3.60","2291533","co38083","norming","","","{""guess"":""paperclips""}","","../img/tt/105tt.jpg","",""
"null","../img/gs/105gs.jpg","null","reveal","image-keyboard-response","430","1118765","0.0-6.0-4.60","2291533","co38083","norming","","","","","","",""
"null","../img/tt/105tt.jpg","null","mooney2","image-keyboard-response","431","1120773","0.0-6.0-5.60","2291533","co38083","norming","","","","","","",""
"3234.709999997169","","","post_reveal_questions","survey-likert","432","1124011","0.0-6.0-6.60","2291533","co38083","norming","","","{""aha"":3}","[0]","../img/tt/105tt.jpg","",""
"null","<div style=""font-size:60px;""> </div>","null","fixation","html-keyboard-response","433","1124218","0.0-6.0-0.61","2291533","co38083","norming","","","","","","",""
"null","../img/tt/497tt.jpg","null","mooney1","image-keyboard-response","434","1127221","0.0-6.0-1.61","2291533","co38083","norming","","","","","","",""
"3419.494999998249","","","post_mooney1_questions","survey-likert","435","1130643","0.0-6.0-2.61","2291533","co38083","norming","","","{""curiosity"":5,""confidence"":3}","[0,1]","../img/tt/497tt.jpg","",""
"2749.8799999994226","","","recognition","survey-text","436","1133395","0.0-6.0-3.61","2291533","co38083","norming","","","{""guess"":""kookvuur""}","","../img/tt/497tt.jpg","",""
"null","../img/gs/497gs.jpg","null","reveal","image-keyboard-response","437","1135404","0.0-6.0-4.61","2291533","co38083","norming","","","","","","",""
"null","../img/tt/497tt.jpg","null","mooney2","image-keyboard-response","438","1137407","0.0-6.0-5.61","2291533","co38083","norming","","","","","","",""
"1369.360000000568","","","post_reveal_questions","survey-likert","439","1138779","0.0-6.0-6.61","2291533","co38083","norming","","","{""aha"":4}","[0]","../img/tt/497tt.jpg","",""
"null","<div style=""font-size:60px;""> </div>","null","fixation","html-keyboard-response","440","1138983","0.0-6.0-0.62","2291533","co38083","norming","","","","","","",""
"null","../img/tt/019tt.jpg","null","mooney1","image-keyboard-response","441","1141989","0.0-6.0-1.62","2291533","co38083","norming","","","","","","",""
"5370.654999998631","","","post_mooney1_questions","survey-likert","442","1147363","0.0-6.0-2.62","2291533","co38083","norming","","","{""curiosity"":4,""confidence"":1}","[0,1]","../img/tt/019tt.jpg","",""
"2077.7899999993388","","","recognition","survey-text","443","1149442","0.0-6.0-3.62","2291533","co38083","norming","","","{""guess"":""""}","","../img/tt/019tt.jpg","",""
"null","../img/gs/019gs.jpg","null","reveal","image-keyboard-response","444","1151449","0.0-6.0-4.62","2291533","co38083","norming","","","","","","",""
"null","../img/tt/019tt.jpg","null","mooney2","image-keyboard-response","445","1153452","0.0-6.0-5.62","2291533","co38083","norming","","","","","","",""
"8660.150000003166","","","post_reveal_questions","survey-likert","446","1162115","0.0-6.0-6.62","2291533","co38083","norming","","","{""aha"":3}","[0]","../img/tt/019tt.jpg","",""
"null","<div style=""font-size:60px;""> </div>","null","fixation","html-keyboard-response","447","1162323","0.0-6.0-0.63","2291533","co38083","norming","","","","","","",""
"null","../img/tt/1161tt.jpg","null","mooney1","image-keyboard-response","448","1165326","0.0-6.0-1.63","2291533","co38083","norming","","","","","","",""
"2249.404999998631","","","post_mooney1_questions","survey-likert","449","1167579","0.0-6.0-2.63","2291533","co38083","norming","","","{""curiosity"":4,""confidence"":0}","[0,1]","../img/tt/1161tt.jpg","",""
"718.0750000006519","","","recognition","survey-text","450","1168298","0.0-6.0-3.63","2291533","co38083","norming","","","{""guess"":""""}","","../img/tt/1161tt.jpg","",""
"null","../img/gs/1161gs.jpg","null","reveal","image-keyboard-response","451","1170307","0.0-6.0-4.63","2291533","co38083","norming","","","","","","",""
"null","../img/tt/1161tt.jpg","null","mooney2","image-keyboard-response","452","1172309","0.0-6.0-5.63","2291533","co38083","norming","","","","","","",""
"1498.6050000006799","","","post_reveal_questions","survey-likert","453","1173810","0.0-6.0-6.63","2291533","co38083","norming","","","{""aha"":4}","[0]","../img/tt/1161tt.jpg","",""
"null","<div style=""font-size:60px;""> </div>","null","fixation","html-keyboard-response","454","1174012","0.0-6.0-0.64","2291533","co38083","norming","","","","","","",""
"null","../img/tt/184tt.jpg","null","mooney1","image-keyboard-response","455","1177015","0.0-6.0-1.64","2291533","co38083","norming","","","","","","",""
"2984.5400000014342","","","post_mooney1_questions","survey-likert","456","1180000","0.0-6.0-2.64","2291533","co38083","norming","","","{""curiosity"":5,""confidence"":1}","[0,1]","../img/tt/184tt.jpg","",""
"6110.230000002077","","","recognition","survey-text","457","1186112","0.0-6.0-3.64","2291533","co38083","norming","","","{""guess"":""lizard""}","","../img/tt/184tt.jpg","",""
"null","../img/gs/184gs.jpg","null","reveal","image-keyboard-response","458","1188114","0.0-6.0-4.64","2291533","co38083","norming","","","","","","",""
"null","../img/tt/184tt.jpg","null","mooney2","image-keyboard-response","459","1190125","0.0-6.0-5.64","2291533","co38083","norming","","","","","","",""
"1744.8650000004563","","","post_reveal_questions","survey-likert","460","1191872","0.0-6.0-6.64","2291533","co38083","norming","","","{""aha"":2}","[0]","../img/tt/184tt.jpg","",""
"null","<div style=""font-size:60px;""> </div>","null","fixation","html-keyboard-response","461","1192073","0.0-6.0-0.65","2291533","co38083","norming","","","","","","",""
"null","../img/tt/1061tt.jpg","null","mooney1","image-keyboard-response","462","1195075","0.0-6.0-1.65","2291533","co38083","norming","","","","","","",""
"2794.31000000122","","","post_mooney1_questions","survey-likert","463","1197872","0.0-6.0-2.65","2291533","co38083","norming","","","{""curiosity"":5,""confidence"":1}","[0,1]","../img/tt/1061tt.jpg","",""
"1918.0799999996088","","","recognition","survey-text","464","1199792","0.0-6.0-3.65","2291533","co38083","norming","","","{""guess"":""man""}","","../img/tt/1061tt.jpg","",""
"null","../img/gs/1061gs.jpg","null","reveal","image-keyboard-response","465","1201800","0.0-6.0-4.65","2291533","co38083","norming","","","","","","",""
"null","../img/tt/1061tt.jpg","null","mooney2","image-keyboard-response","466","1203802","0.0-6.0-5.65","2291533","co38083","norming","","","","","","",""
"3723.6599999996834","","","post_reveal_questions","survey-likert","467","1207528","0.0-6.0-6.65","2291533","co38083","norming","","","{""aha"":1}","[0]","../img/tt/1061tt.jpg","",""
"null","<div style=""font-size:60px;""> </div>","null","fixation","html-keyboard-response","468","1207736","0.0-6.0-0.66","2291533","co38083","norming","","","","","","",""
"null","../img/tt/082tt.jpg","null","mooney1","image-keyboard-response","469","1210741","0.0-6.0-1.66","2291533","co38083","norming","","","","","","",""
"3375.9649999993853","","","post_mooney1_questions","survey-likert","470","1214120","0.0-6.0-2.66","2291533","co38083","norming","","","{""curiosity"":5,""confidence"":5}","[0,1]","../img/tt/082tt.jpg","",""
"2469.699999997858","","","recognition","survey-text","471","1216592","0.0-6.0-3.66","2291533","co38083","norming","","","{""guess"":""papegaai""}","","../img/tt/082tt.jpg","",""
"null","../img/gs/082gs.jpg","null","reveal","image-keyboard-response","472","1218600","0.0-6.0-4.66","2291533","co38083","norming","","","","","","",""
"null","../img/tt/082tt.jpg","null","mooney2","image-keyboard-response","473","1220602","0.0-6.0-5.66","2291533","co38083","norming","","","","","","",""
"1795.4300000020303","","","post_reveal_questions","survey-likert","474","1222400","0.0-6.0-6.66","2291533","co38083","norming","","","{""aha"":4}","[0]","../img/tt/082tt.jpg","",""
"null","<div style=""font-size:60px;""> </div>","null","fixation","html-keyboard-response","475","1222607","0.0-6.0-0.67","2291533","co38083","norming","","","","","","",""
"null","../img/tt/055tt.jpg","null","mooney1","image-keyboard-response","476","1225613","0.0-6.0-1.67","2291533","co38083","norming","","","","","","",""
"4559.809999998892","","","post_mooney1_questions","survey-likert","477","1230176","0.0-6.0-2.67","2291533","co38083","norming","","","{""curiosity"":5,""confidence"":0}","[0,1]","../img/tt/055tt.jpg","",""
"981.7949999996927","","","recognition","survey-text","478","1231160","0.0-6.0-3.67","2291533","co38083","norming","","","{""guess"":""""}","","../img/tt/055tt.jpg","",""
"null","../img/gs/055gs.jpg","null","reveal","image-keyboard-response","479","1233163","0.0-6.0-4.67","2291533","co38083","norming","","","","","","",""
"null","../img/tt/055tt.jpg","null","mooney2","image-keyboard-response","480","1235164","0.0-6.0-5.67","2291533","co38083","norming","","","","","","",""
"1866.369999999879","","","post_reveal_questions","survey-likert","481","1237032","0.0-6.0-6.67","2291533","co38083","norming","","","{""aha"":0}","[0]","../img/tt/055tt.jpg","",""
"null","<div style=""font-size:60px;""> </div>","null","fixation","html-keyboard-response","482","1237237","0.0-6.0-0.68","2291533","co38083","norming","","","","","","",""
"null","../img/tt/1353tt.jpg","null","mooney1","image-keyboard-response","483","1240243","0.0-6.0-1.68","2291533","co38083","norming","","","","","","",""
"3828.5399999986403","","","post_mooney1_questions","survey-likert","484","1244075","0.0-6.0-2.68","2291533","co38083","norming","","","{""curiosity"":5,""confidence"":1}","[0,1]","../img/tt/1353tt.jpg","",""
"2758.19000000041","","","recognition","survey-text","485","1246835","0.0-6.0-3.68","2291533","co38083","norming","","","{""guess"":""doosje""}","","../img/tt/1353tt.jpg","",""
"null","../img/gs/1353gs.jpg","null","reveal","image-keyboard-response","486","1248842","0.0-6.0-4.68","2291533","co38083","norming","","","","","","",""
"null","../img/tt/1353tt.jpg","null","mooney2","image-keyboard-response","487","1250844","0.0-6.0-5.68","2291533","co38083","norming","","","","","","",""
"2283.755000000354","","","post_reveal_questions","survey-likert","488","1253131","0.0-6.0-6.68","2291533","co38083","norming","","","{""aha"":1}","[0]","../img/tt/1353tt.jpg","",""
"null","<div style=""font-size:60px;""> </div>","null","fixation","html-keyboard-response","489","1253332","0.0-6.0-0.69","2291533","co38083","norming","","","","","","",""
"null","../img/tt/1006tt.jpg","null","mooney1","image-keyboard-response","490","1256338","0.0-6.0-1.69","2291533","co38083","norming","","","","","","",""
"3869.1699999982957","","","post_mooney1_questions","survey-likert","491","1260211","0.0-6.0-2.69","2291533","co38083","norming","","","{""curiosity"":5,""confidence"":0}","[0,1]","../img/tt/1006tt.jpg","",""
"510.4700000009034","","","recognition","survey-text","492","1260723","0.0-6.0-3.69","2291533","co38083","norming","","","{""guess"":""""}","","../img/tt/1006tt.jpg","",""
"null","../img/gs/1006gs.jpg","null","reveal","image-keyboard-response","493","1262729","0.0-6.0-4.69","2291533","co38083","norming","","","","","","",""
"null","../img/tt/1006tt.jpg","null","mooney2","image-keyboard-response","494","1264732","0.0-6.0-5.69","2291533","co38083","norming","","","","","","",""
"2612.37000000244","","","post_reveal_questions","survey-likert","495","1267347","0.0-6.0-6.69","2291533","co38083","norming","","","{""aha"":4}","[0]","../img/tt/1006tt.jpg","",""
"null","<div style=""font-size:60px;""> </div>","null","fixation","html-keyboard-response","496","1267549","0.0-6.0-0.70","2291533","co38083","norming","","","","","","",""
"null","../img/tt/1278tt.jpg","null","mooney1","image-keyboard-response","497","1270556","0.0-6.0-1.70","2291533","co38083","norming","","","","","","",""
"3939.49500000244","","","post_mooney1_questions","survey-likert","498","1274499","0.0-6.0-2.70","2291533","co38083","norming","","","{""curiosity"":5,""confidence"":2}","[0,1]","../img/tt/1278tt.jpg","",""
"2334.144999996992","","","recognition","survey-text","499","1276835","0.0-6.0-3.70","2291533","co38083","norming","","","{""guess"":""vogels""}","","../img/tt/1278tt.jpg","",""
"null","../img/gs/1278gs.jpg","null","reveal","image-keyboard-response","500","1278837","0.0-6.0-4.70","2291533","co38083","norming","","","","","","",""
"null","../img/tt/1278tt.jpg","null","mooney2","image-keyboard-response","501","1280843","0.0-6.0-5.70","2291533","co38083","norming","","","","","","",""
"2717.299999996554","","","post_reveal_questions","survey-likert","502","1283563","0.0-6.0-6.70","2291533","co38083","norming","","","{""aha"":4}","[0]","../img/tt/1278tt.jpg","",""
"null","<div style=""font-size:60px;""> </div>","null","fixation","html-keyboard-response","503","1283764","0.0-6.0-0.71","2291533","co38083","norming","","","","","","",""
"null","../img/tt/1270tt.jpg","null","mooney1","image-keyboard-response","504","1286767","0.0-6.0-1.71","2291533","co38083","norming","","","","","","",""
"4449.905000001425","","","post_mooney1_questions","survey-likert","505","1291219","0.0-6.0-2.71","2291533","co38083","norming","","","{""curiosity"":5,""confidence"":0}","[0,1]","../img/tt/1270tt.jpg","",""
"414.5549999992363","","","recognition","survey-text","506","1291635","0.0-6.0-3.71","2291533","co38083","norming","","","{""guess"":""""}","","../img/tt/1270tt.jpg","",""
"null","../img/gs/1270gs.jpg","null","reveal","image-keyboard-response","507","1293643","0.0-6.0-4.71","2291533","co38083","norming","","","","","","",""
"null","../img/tt/1270tt.jpg","null","mooney2","image-keyboard-response","508","1295644","0.0-6.0-5.71","2291533","co38083","norming","","","","","","",""
"1772.0350000017788","","","post_reveal_questions","survey-likert","509","1297419","0.0-6.0-6.71","2291533","co38083","norming","","","{""aha"":3}","[0]","../img/tt/1270tt.jpg","",""
"null","<div style=""font-size:60px;""> </div>","null","fixation","html-keyboard-response","510","1297626","0.0-6.0-0.72","2291533","co38083","norming","","","","","","",""
"null","../img/tt/1175tt.jpg","null","mooney1","image-keyboard-response","511","1300630","0.0-6.0-1.72","2291533","co38083","norming","","","","","","",""
"5482.850000000326","","","post_mooney1_questions","survey-likert","512","1306116","0.0-6.0-2.72","2291533","co38083","norming","","","{""curiosity"":5,""confidence"":0}","[0,1]","../img/tt/1175tt.jpg","",""
"958.0949999981094","","","recognition","survey-text","513","1307076","0.0-6.0-3.72","2291533","co38083","norming","","","{""guess"":""""}","","../img/tt/1175tt.jpg","",""
"null","../img/gs/1175gs.jpg","null","reveal","image-keyboard-response","514","1309087","0.0-6.0-4.72","2291533","co38083","norming","","","","","","",""
"null","../img/tt/1175tt.jpg","null","mooney2","image-keyboard-response","515","1311090","0.0-6.0-5.72","2291533","co38083","norming","","","","","","",""
"1535.5600000002887","","","post_reveal_questions","survey-likert","516","1312628","0.0-6.0-6.72","2291533","co38083","norming","","","{""aha"":2}","[0]","../img/tt/1175tt.jpg","",""
"null","<div style=""font-size:60px;""> </div>","null","fixation","html-keyboard-response","517","1312835","0.0-6.0-0.73","2291533","co38083","norming","","","","","","",""
"null","../img/tt/1366tt.jpg","null","mooney1","image-keyboard-response","518","1315839","0.0-6.0-1.73","2291533","co38083","norming","","","","","","",""
"3674.0649999992456","","","post_mooney1_questions","survey-likert","519","1319516","0.0-6.0-2.73","2291533","co38083","norming","","","{""curiosity"":5,""confidence"":0}","[0,1]","../img/tt/1366tt.jpg","",""
"2662.099999997765","","","recognition","survey-text","520","1322180","0.0-6.0-3.73","2291533","co38083","norming","","","{""guess"":""bootje""}","","../img/tt/1366tt.jpg","",""
"null","../img/gs/1366gs.jpg","null","reveal","image-keyboard-response","521","1324183","0.0-6.0-4.73","2291533","co38083","norming","","","","","","",""
"null","../img/tt/1366tt.jpg","null","mooney2","image-keyboard-response","522","1326185","0.0-6.0-5.73","2291533","co38083","norming","","","","","","",""
"2383.8949999988545","","","post_reveal_questions","survey-likert","523","1328572","0.0-6.0-6.73","2291533","co38083","norming","","","{""aha"":0}","[0]","../img/tt/1366tt.jpg","",""
"null","<div style=""font-size:60px;""> </div>","null","fixation","html-keyboard-response","524","1328778","0.0-6.0-0.74","2291533","co38083","norming","","","","","","",""
"null","../img/tt/079tt.jpg","null","mooney1","image-keyboard-response","525","1331782","0.0-6.0-1.74","2291533","co38083","norming","","","","","","",""
"3651.2549999970943","","","post_mooney1_questions","survey-likert","526","1335436","0.0-6.0-2.74","2291533","co38083","norming","","","{""curiosity"":5,""confidence"":2}","[0,1]","../img/tt/079tt.jpg","",""
"1862.0850000006612","","","recognition","survey-text","527","1337300","0.0-6.0-3.74","2291533","co38083","norming","","","{""guess"":""beer""}","","../img/tt/079tt.jpg","",""
"null","../img/gs/079gs.jpg","null","reveal","image-keyboard-response","528","1339302","0.0-6.0-4.74","2291533","co38083","norming","","","","","","",""
"null","../img/tt/079tt.jpg","null","mooney2","image-keyboard-response","529","1341307","0.0-6.0-5.74","2291533","co38083","norming","","","","","","",""
"1758.3000000012107","","","post_reveal_questions","survey-likert","530","1343068","0.0-6.0-6.74","2291533","co38083","norming","","","{""aha"":2}","[0]","../img/tt/079tt.jpg","",""
"null","<div style=""font-size:60px;""> </div>","null","fixation","html-keyboard-response","531","1343269","0.0-6.0-0.75","2291533","co38083","norming","","","","","","",""
"null","../img/tt/468tt.jpg","null","mooney1","image-keyboard-response","532","1346272","0.0-6.0-1.75","2291533","co38083","norming","","","","","","",""
"3536.450000003213","","","post_mooney1_questions","survey-likert","533","1349812","0.0-6.0-2.75","2291533","co38083","norming","","","{""curiosity"":5,""confidence"":0}","[0,1]","../img/tt/468tt.jpg","",""
"557.9949999991804","","","recognition","survey-text","534","1350372","0.0-6.0-3.75","2291533","co38083","norming","","","{""guess"":""""}","","../img/tt/468tt.jpg","",""
"null","../img/gs/468gs.jpg","null","reveal","image-keyboard-response","535","1352373","0.0-6.0-4.75","2291533","co38083","norming","","","","","","",""
"null","../img/tt/468tt.jpg","null","mooney2","image-keyboard-response","536","1354376","0.0-6.0-5.75","2291533","co38083","norming","","","","","","",""
"6906.715000001015","","","post_reveal_questions","survey-likert","537","1361280","0.0-6.0-6.75","2291533","co38083","norming","","","{""aha"":3}","[0]","../img/tt/468tt.jpg","",""
"null","<div style=""font-size:60px;""> </div>","null","fixation","html-keyboard-response","538","1361483","0.0-6.0-0.76","2291533","co38083","norming","","","","","","",""
"null","../img/tt/1080tt.jpg","null","mooney1","image-keyboard-response","539","1364492","0.0-6.0-1.76","2291533","co38083","norming","","","","","","",""
"4176.664999999106","","","post_mooney1_questions","survey-likert","540","1368672","0.0-6.0-2.76","2291533","co38083","norming","","","{""curiosity"":5,""confidence"":0}","[0,1]","../img/tt/1080tt.jpg","",""
"461.5300000004936","","","recognition","survey-text","541","1369135","0.0-6.0-3.76","2291533","co38083","norming","","","{""guess"":""""}","","../img/tt/1080tt.jpg","",""
"null","../img/gs/1080gs.jpg","null","reveal","image-keyboard-response","542","1371138","0.0-6.0-4.76","2291533","co38083","norming","","","","","","",""
"null","../img/tt/1080tt.jpg","null","mooney2","image-keyboard-response","543","1373140","0.0-6.0-5.76","2291533","co38083","norming","","","","","","",""
"1426.0699999977369","","","post_reveal_questions","survey-likert","544","1374568","0.0-6.0-6.76","2291533","co38083","norming","","","{""aha"":5}","[0]","../img/tt/1080tt.jpg","",""
"null","<div style=""font-size:60px;""> </div>","null","fixation","html-keyboard-response","545","1374770","0.0-6.0-0.77","2291533","co38083","norming","","","","","","",""
"null","../img/tt/1279tt.jpg","null","mooney1","image-keyboard-response","546","1377782","0.0-6.0-1.77","2291533","co38083","norming","","","","","","",""
"3734.9099999992177","","","post_mooney1_questions","survey-likert","547","1381520","0.0-6.0-2.77","2291533","co38083","norming","","","{""curiosity"":5,""confidence"":0}","[0,1]","../img/tt/1279tt.jpg","",""
"1518.1200000005774","","","recognition","survey-text","548","1383040","0.0-6.0-3.77","2291533","co38083","norming","","","{""guess"":""""}","","../img/tt/1279tt.jpg","",""
"null","../img/gs/1279gs.jpg","null","reveal","image-keyboard-response","549","1385047","0.0-6.0-4.77","2291533","co38083","norming","","","","","","",""
"null","../img/tt/1279tt.jpg","null","mooney2","image-keyboard-response","550","1387055","0.0-6.0-5.77","2291533","co38083","norming","","","","","","",""
"1478.5699999993667","","","post_reveal_questions","survey-likert","551","1388536","0.0-6.0-6.77","2291533","co38083","norming","","","{""aha"":4}","[0]","../img/tt/1279tt.jpg","",""
"null","<div style=""font-size:60px;""> </div>","null","fixation","html-keyboard-response","552","1388738","0.0-6.0-0.78","2291533","co38083","norming","","","","","","",""
"null","../img/tt/1097tt.jpg","null","mooney1","image-keyboard-response","553","1391741","0.0-6.0-1.78","2291533","co38083","norming","","","","","","",""
