"rt","stimulus","key_press","test_part","trial_type","trial_index","time_elapsed","internal_node_id","totalTime","subject","experiment_name","button_pressed","success","responses","question_order","currentStim","old","correct"
"7898.4700000000885","Welcome to the experiment. This is an online experiment so please don't close the tab/window until we say goodbye.  Press any key to begin.","13","instructions","html-keyboard-response","0","7923","0.0-0.0","2309113","co38359","norming","","","","","","",""
"28646.555000000262","<div style='word-wrap: break-word; width: 900px'><h3>Please consider this information carefully before deciding whether to participate in this research</h3><ul style='text-align: left; font-size: .8em;'><li><b>Purpose of the research</b>: To examine how people process images.</li><li><b>What you will do in this research</b>:  Stimuli (images) will be presented on the computer and you will be asked different questions about them.</li><li><b>Time required</b>: Participation will take between 45 and 60 minutes to complete.</li><li><b>Risks</b>:  There are no anticipated risks associated with participating in this study. The effects of participating should be comparable to those you would experience from viewing a computer monitor for 30 minutes and using a mouse or keyboard.</li><li><b>Benefits</b>:  This study provides no benefits to you individually except for the credit. The study provides important information about the nature of perception and learning.</li><li><b>Confidentiality</b>:  Your participation in this study will remain confidential. No personally identifiable information will be associated with your data. Your de-identified data may be shared with other researchers and used in future projects.</li><li><b>Participation and withdrawal</b>:  Your participation in this study is completely voluntary and you may refuse to participate or you may choose to withdraw at any time without penalty.</li><li><b>How to contact the researchers</b>: If you have questions or concerns about your participation or payment, or want to request a summary of research findings, please contact Sander Van de Cruys (KU Leuven), at sander.vandecruys@kuleuven.be.</li></ul><p>The nature and purpose of this research have been sufficiently explained and I agree to participate in this study.  I understand that I am free to withdraw at any time without incurring any penalty.</p><p>Please consent by clicking the button below to continue. Otherwise, please exit the study at this time.</p></div>","","instructions","html-button-response","1","36573","0.0-1.0","2309113","co38359","norming","0","","","","","",""
"","","","instructions","fullscreen","2","41825","0.0-2.0","2309113","co38359","norming","","true","","","","",""
"15785.600000000159","","","sona","survey-html-form","3","57617","0.0-3.0","2309113","co38359","norming","","","[{""name"":""sonaid"",""value"":""38359""},{""name"":""debrief"",""value"":""yes""},{""name"":""datajoin"",""value"":""yes""}]","","","",""
"40995.750000000044","<div style='word-wrap: break-word; width: 900px'><h3>Instructions</h3><p>This experiment will have 3 parts. In the first part you will see a series of distorted images like the one below on the left. As you can see in the righthand image, the distorted images are derived from actual photographs. In what follows, you will <strong>briefly</strong> be presented with <strong>only</strong> the distorted image.</p> <div style='float: left; margin-right: 20px;'><img src='../img/018tt.jpg' height='250' width='250'></img></div><div style='float: right; margin-left: 20px;'><img src='../img/018gs.jpg' height='250' width='250'></img></div><p>Subsequently you will be asked a few questions about the image: One question on how <strong>curious</strong> you are about the solution and one on how <strong>confident</strong> you are that you know the solution.</p>Next, we ask you to make a guess on what is in the image. Note that it is OK to name just the <strong>basic level category</strong>. For example when you see a parrot in the image, 'parrot' will obviously be a correct answer but also correct is 'bird'. However, 'animal' will <strong>not</strong> be counted as a correct response. For the example above, 'rose' would be correct or 'flower', but not 'plant'. When soccer players are depicted, 'soccer', 'football', 'soccer players' will be correct, but not 'humans', 'outdoors', or 'sports'. You do not need to describe the image in full, just name the main object in it <strong>in one or two words</strong>. All images depict objects from one of the following broad level categories: animals, inanimate objects, plants, sports, vehicles, and food. Recognizing means knowing <strong>more</strong> than these broad labels for a given image. But we always encourage you to <strong>make a guess</strong> if you can. Note that you are allowed to use <strong>Dutch and English</strong> in your answers, whatever comes easiest for you.</p><p>Press any key to continue.</p></div>","73","instructions","html-keyboard-response","4","98615","0.0-4.0","2309113","co38359","norming","","","","","","",""
"174463.39999999967","<div style='word-wrap: break-word; width: 900px'><h3>Instructions</h3> <p>Next, the solution image will be revealed to you and you'll be asked to indicate how strong your <strong>aha-experience</strong> was after seeing the solution. This describes the positive feeling of the 'click' you sometimes experience, when the pieces of the 'puzzle' fall together and you suddenly have 'insight' in the image.</p><img src='aha.jpg' height='188' width='250'></img><p>Note that there are no right or wrong answers. We are interested in what <strong>you</strong> see in the image and how <strong>you</strong> feel about it.</p><p>Press any key to start the experiment.</p></div>","76","instructions","html-keyboard-response","5","273081","0.0-5.0","2309113","co38359","norming","","","","","","",""
"null","<div style=""font-size:60px;""> </div>","null","fixation","html-keyboard-response","6","273287","0.0-6.0-0.0","2309113","co38359","norming","","","","","","",""
"null","../img/tt/1043tt.jpg","null","mooney1","image-keyboard-response","7","276299","0.0-6.0-1.0","2309113","co38359","norming","","","","","","",""
"9297.92999999976","","","post_mooney1_questions","survey-likert","8","285599","0.0-6.0-2.0","2309113","co38359","norming","","","{""curiosity"":5,""confidence"":0}","[0,1]","../img/tt/1043tt.jpg","",""
"7405.389999999898","","","recognition","survey-text","9","293007","0.0-6.0-3.0","2309113","co38359","norming","","","{""guess"":""sled""}","","../img/tt/1043tt.jpg","",""
"null","../img/gs/1043gs.jpg","null","reveal","image-keyboard-response","10","295013","0.0-6.0-4.0","2309113","co38359","norming","","","","","","",""
"null","../img/tt/1043tt.jpg","null","mooney2","image-keyboard-response","11","297024","0.0-6.0-5.0","2309113","co38359","norming","","","","","","",""
"3348.299999999639","","","post_reveal_questions","survey-likert","12","300375","0.0-6.0-6.0","2309113","co38359","norming","","","{""aha"":5}","[0]","../img/tt/1043tt.jpg","",""
"null","<div style=""font-size:60px;""> </div>","null","fixation","html-keyboard-response","13","300580","0.0-6.0-0.1","2309113","co38359","norming","","","","","","",""
"null","../img/tt/1272tt.jpg","null","mooney1","image-keyboard-response","14","303582","0.0-6.0-1.1","2309113","co38359","norming","","","","","","",""
"4166.040000000037","","","post_mooney1_questions","survey-likert","15","307751","0.0-6.0-2.1","2309113","co38359","norming","","","{""curiosity"":4,""confidence"":0}","[0,1]","../img/tt/1272tt.jpg","",""
"2573.989999999816","","","recognition","survey-text","16","310327","0.0-6.0-3.1","2309113","co38359","norming","","","{""guess"":""goat""}","","../img/tt/1272tt.jpg","",""
"null","../img/gs/1272gs.jpg","null","reveal","image-keyboard-response","17","312328","0.0-6.0-4.1","2309113","co38359","norming","","","","","","",""
"null","../img/tt/1272tt.jpg","null","mooney2","image-keyboard-response","18","314339","0.0-6.0-5.1","2309113","co38359","norming","","","","","","",""
"2129.7549999999464","","","post_reveal_questions","survey-likert","19","316470","0.0-6.0-6.1","2309113","co38359","norming","","","{""aha"":5}","[0]","../img/tt/1272tt.jpg","",""
"null","<div style=""font-size:60px;""> </div>","null","fixation","html-keyboard-response","20","316678","0.0-6.0-0.2","2309113","co38359","norming","","","","","","",""
"null","../img/tt/1125tt.jpg","null","mooney1","image-keyboard-response","21","319690","0.0-6.0-1.2","2309113","co38359","norming","","","","","","",""
"3737.4999999992433","","","post_mooney1_questions","survey-likert","22","323431","0.0-6.0-2.2","2309113","co38359","norming","","","{""curiosity"":4,""confidence"":1}","[0,1]","../img/tt/1125tt.jpg","",""
"2254.429999999935","","","recognition","survey-text","23","325687","0.0-6.0-3.2","2309113","co38359","norming","","","{""guess"":""car""}","","../img/tt/1125tt.jpg","",""
"null","../img/gs/1125gs.jpg","null","reveal","image-keyboard-response","24","327689","0.0-6.0-4.2","2309113","co38359","norming","","","","","","",""
"null","../img/tt/1125tt.jpg","null","mooney2","image-keyboard-response","25","329698","0.0-6.0-5.2","2309113","co38359","norming","","","","","","",""
"3162.3049999998184","","","post_reveal_questions","survey-likert","26","332863","0.0-6.0-6.2","2309113","co38359","norming","","","{""aha"":4}","[0]","../img/tt/1125tt.jpg","",""
"null","<div style=""font-size:60px;""> </div>","null","fixation","html-keyboard-response","27","333070","0.0-6.0-0.3","2309113","co38359","norming","","","","","","",""
"null","../img/tt/081tt.jpg","null","mooney1","image-keyboard-response","28","336087","0.0-6.0-1.3","2309113","co38359","norming","","","","","","",""
"3467.8400000002584","","","post_mooney1_questions","survey-likert","29","339557","0.0-6.0-2.3","2309113","co38359","norming","","","{""curiosity"":4,""confidence"":0}","[0,1]","../img/tt/081tt.jpg","",""
"3462.2149999995017","","","recognition","survey-text","30","343021","0.0-6.0-3.3","2309113","co38359","norming","","","{""guess"":""""}","","../img/tt/081tt.jpg","",""
"null","../img/gs/081gs.jpg","null","reveal","image-keyboard-response","31","345022","0.0-6.0-4.3","2309113","co38359","norming","","","","","","",""
"null","../img/tt/081tt.jpg","null","mooney2","image-keyboard-response","32","347027","0.0-6.0-5.3","2309113","co38359","norming","","","","","","",""
"5167.654999999329","","","post_reveal_questions","survey-likert","33","352197","0.0-6.0-6.3","2309113","co38359","norming","","","{""aha"":2}","[0]","../img/tt/081tt.jpg","",""
"null","<div style=""font-size:60px;""> </div>","null","fixation","html-keyboard-response","34","352402","0.0-6.0-0.4","2309113","co38359","norming","","","","","","",""
"null","../img/tt/1307tt.jpg","null","mooney1","image-keyboard-response","35","355405","0.0-6.0-1.4","2309113","co38359","norming","","","","","","",""
"3717.8650000005146","","","post_mooney1_questions","survey-likert","36","359125","0.0-6.0-2.4","2309113","co38359","norming","","","{""curiosity"":4,""confidence"":2}","[0,1]","../img/tt/1307tt.jpg","",""
"5958.364999999525","","","recognition","survey-text","37","365085","0.0-6.0-3.4","2309113","co38359","norming","","","{""guess"":""pauw""}","","../img/tt/1307tt.jpg","",""
"null","../img/gs/1307gs.jpg","null","reveal","image-keyboard-response","38","367088","0.0-6.0-4.4","2309113","co38359","norming","","","","","","",""
"null","../img/tt/1307tt.jpg","null","mooney2","image-keyboard-response","39","369094","0.0-6.0-5.4","2309113","co38359","norming","","","","","","",""
"2716.914999999979","","","post_reveal_questions","survey-likert","40","371813","0.0-6.0-6.4","2309113","co38359","norming","","","{""aha"":1}","[0]","../img/tt/1307tt.jpg","",""
"null","<div style=""font-size:60px;""> </div>","null","fixation","html-keyboard-response","41","372021","0.0-6.0-0.5","2309113","co38359","norming","","","","","","",""
"null","../img/tt/1040tt.jpg","null","mooney1","image-keyboard-response","42","375028","0.0-6.0-1.5","2309113","co38359","norming","","","","","","",""
"3590.214999999269","","","post_mooney1_questions","survey-likert","43","378621","0.0-6.0-2.5","2309113","co38359","norming","","","{""curiosity"":4,""confidence"":0}","[0,1]","../img/tt/1040tt.jpg","",""
"621.9999999993597","","","recognition","survey-text","44","379245","0.0-6.0-3.5","2309113","co38359","norming","","","{""guess"":""""}","","../img/tt/1040tt.jpg","",""
"null","../img/gs/1040gs.jpg","null","reveal","image-keyboard-response","45","381246","0.0-6.0-4.5","2309113","co38359","norming","","","","","","",""
"null","../img/tt/1040tt.jpg","null","mooney2","image-keyboard-response","46","383249","0.0-6.0-5.5","2309113","co38359","norming","","","","","","",""
"2521.975000000617","","","post_reveal_questions","survey-likert","47","385773","0.0-6.0-6.5","2309113","co38359","norming","","","{""aha"":4}","[0]","../img/tt/1040tt.jpg","",""
"null","<div style=""font-size:60px;""> </div>","null","fixation","html-keyboard-response","48","385975","0.0-6.0-0.6","2309113","co38359","norming","","","","","","",""
"null","../img/tt/032tt.jpg","null","mooney1","image-keyboard-response","49","388982","0.0-6.0-1.6","2309113","co38359","norming","","","","","","",""
"3572.4950000003446","","","post_mooney1_questions","survey-likert","50","392557","0.0-6.0-2.6","2309113","co38359","norming","","","{""curiosity"":4,""confidence"":1}","[0,1]","../img/tt/032tt.jpg","",""
"3934.2749999995576","","","recognition","survey-text","51","396492","0.0-6.0-3.6","2309113","co38359","norming","","","{""guess"":""snake""}","","../img/tt/032tt.jpg","",""
"null","../img/gs/032gs.jpg","null","reveal","image-keyboard-response","52","398493","0.0-6.0-4.6","2309113","co38359","norming","","","","","","",""
"null","../img/tt/032tt.jpg","null","mooney2","image-keyboard-response","53","400495","0.0-6.0-5.6","2309113","co38359","norming","","","","","","",""
"1842.9299999998184","","","post_reveal_questions","survey-likert","54","402340","0.0-6.0-6.6","2309113","co38359","norming","","","{""aha"":1}","[0]","../img/tt/032tt.jpg","",""
"null","<div style=""font-size:60px;""> </div>","null","fixation","html-keyboard-response","55","402541","0.0-6.0-0.7","2309113","co38359","norming","","","","","","",""
"null","../img/tt/1107tt.jpg","null","mooney1","image-keyboard-response","56","405553","0.0-6.0-1.7","2309113","co38359","norming","","","","","","",""
"4184.920000000624","","","post_mooney1_questions","survey-likert","57","409740","0.0-6.0-2.7","2309113","co38359","norming","","","{""curiosity"":4,""confidence"":4}","[0,1]","../img/tt/1107tt.jpg","",""
"2798.3400000002584","","","recognition","survey-text","58","412540","0.0-6.0-3.7","2309113","co38359","norming","","","{""guess"":""cat""}","","../img/tt/1107tt.jpg","",""
"null","../img/gs/1107gs.jpg","null","reveal","image-keyboard-response","59","414542","0.0-6.0-4.7","2309113","co38359","norming","","","","","","",""
"null","../img/tt/1107tt.jpg","null","mooney2","image-keyboard-response","60","416546","0.0-6.0-5.7","2309113","co38359","norming","","","","","","",""
"3280.1049999998068","","","post_reveal_questions","survey-likert","61","419828","0.0-6.0-6.7","2309113","co38359","norming","","","{""aha"":1}","[0]","../img/tt/1107tt.jpg","",""
"null","<div style=""font-size:60px;""> </div>","null","fixation","html-keyboard-response","62","420029","0.0-6.0-0.8","2309113","co38359","norming","","","","","","",""
"null","../img/tt/1254tt.jpg","null","mooney1","image-keyboard-response","63","423040","0.0-6.0-1.8","2309113","co38359","norming","","","","","","",""
"3417.9000000003725","","","post_mooney1_questions","survey-likert","64","426460","0.0-6.0-2.8","2309113","co38359","norming","","","{""curiosity"":5,""confidence"":0}","[0,1]","../img/tt/1254tt.jpg","",""
"2493.975000000326","","","recognition","survey-text","65","428956","0.0-6.0-3.8","2309113","co38359","norming","","","{""guess"":""""}","","../img/tt/1254tt.jpg","",""
"null","../img/gs/1254gs.jpg","null","reveal","image-keyboard-response","66","430963","0.0-6.0-4.8","2309113","co38359","norming","","","","","","",""
"null","../img/tt/1254tt.jpg","null","mooney2","image-keyboard-response","67","432964","0.0-6.0-5.8","2309113","co38359","norming","","","","","","",""
"1478.5600000004633","","","post_reveal_questions","survey-likert","68","434444","0.0-6.0-6.8","2309113","co38359","norming","","","{""aha"":1}","[0]","../img/tt/1254tt.jpg","",""
"null","<div style=""font-size:60px;""> </div>","null","fixation","html-keyboard-response","69","434648","0.0-6.0-0.9","2309113","co38359","norming","","","","","","",""
"null","../img/tt/1175tt.jpg","null","mooney1","image-keyboard-response","70","437651","0.0-6.0-1.9","2309113","co38359","norming","","","","","","",""
"3990.9900000002235","","","post_mooney1_questions","survey-likert","71","441644","0.0-6.0-2.9","2309113","co38359","norming","","","{""curiosity"":4,""confidence"":0}","[0,1]","../img/tt/1175tt.jpg","",""
"702.0650000003516","","","recognition","survey-text","72","442348","0.0-6.0-3.9","2309113","co38359","norming","","","{""guess"":""""}","","../img/tt/1175tt.jpg","",""
"null","../img/gs/1175gs.jpg","null","reveal","image-keyboard-response","73","444352","0.0-6.0-4.9","2309113","co38359","norming","","","","","","",""
"null","../img/tt/1175tt.jpg","null","mooney2","image-keyboard-response","74","446354","0.0-6.0-5.9","2309113","co38359","norming","","","","","","",""
"2447.8049999998184","","","post_reveal_questions","survey-likert","75","448804","0.0-6.0-6.9","2309113","co38359","norming","","","{""aha"":1}","[0]","../img/tt/1175tt.jpg","",""
"null","<div style=""font-size:60px;""> </div>","null","fixation","html-keyboard-response","76","449005","0.0-6.0-0.10","2309113","co38359","norming","","","","","","",""
"null","../img/tt/357tt.jpg","null","mooney1","image-keyboard-response","77","452008","0.0-6.0-1.10","2309113","co38359","norming","","","","","","",""
"4129.530000000144","","","post_mooney1_questions","survey-likert","78","456140","0.0-6.0-2.10","2309113","co38359","norming","","","{""curiosity"":5,""confidence"":0}","[0,1]","../img/tt/357tt.jpg","",""
"709.9600000001374","","","recognition","survey-text","79","456853","0.0-6.0-3.10","2309113","co38359","norming","","","{""guess"":""""}","","../img/tt/357tt.jpg","",""
"null","../img/gs/357gs.jpg","null","reveal","image-keyboard-response","80","458861","0.0-6.0-4.10","2309113","co38359","norming","","","","","","",""
"null","../img/tt/357tt.jpg","null","mooney2","image-keyboard-response","81","460863","0.0-6.0-5.10","2309113","co38359","norming","","","","","","",""
"2086.365000000107","","","post_reveal_questions","survey-likert","82","462950","0.0-6.0-6.10","2309113","co38359","norming","","","{""aha"":0}","[0]","../img/tt/357tt.jpg","",""
"null","<div style=""font-size:60px;""> </div>","null","fixation","html-keyboard-response","83","463152","0.0-6.0-0.11","2309113","co38359","norming","","","","","","",""
"null","../img/tt/1102tt.jpg","null","mooney1","image-keyboard-response","84","466161","0.0-6.0-1.11","2309113","co38359","norming","","","","","","",""
"4314.38499999966","","","post_mooney1_questions","survey-likert","85","470478","0.0-6.0-2.11","2309113","co38359","norming","","","{""curiosity"":5,""confidence"":0}","[0,1]","../img/tt/1102tt.jpg","",""
"1022.050000000454","","","recognition","survey-text","86","471502","0.0-6.0-3.11","2309113","co38359","norming","","","{""guess"":""""}","","../img/tt/1102tt.jpg","",""
"null","../img/gs/1102gs.jpg","null","reveal","image-keyboard-response","87","473505","0.0-6.0-4.11","2309113","co38359","norming","","","","","","",""
"null","../img/tt/1102tt.jpg","null","mooney2","image-keyboard-response","88","475509","0.0-6.0-5.11","2309113","co38359","norming","","","","","","",""
"3534.6399999998976","","","post_reveal_questions","survey-likert","89","479046","0.0-6.0-6.11","2309113","co38359","norming","","","{""aha"":3}","[0]","../img/tt/1102tt.jpg","",""
"null","<div style=""font-size:60px;""> </div>","null","fixation","html-keyboard-response","90","479247","0.0-6.0-0.12","2309113","co38359","norming","","","","","","",""
"null","../img/tt/358tt.jpg","null","mooney1","image-keyboard-response","91","482255","0.0-6.0-1.12","2309113","co38359","norming","","","","","","",""
"4172.005000000354","","","post_mooney1_questions","survey-likert","92","486430","0.0-6.0-2.12","2309113","co38359","norming","","","{""curiosity"":5,""confidence"":0}","[0,1]","../img/tt/358tt.jpg","",""
"2478.0999999993364","","","recognition","survey-text","93","488910","0.0-6.0-3.12","2309113","co38359","norming","","","{""guess"":""bag""}","","../img/tt/358tt.jpg","",""
"null","../img/gs/358gs.jpg","null","reveal","image-keyboard-response","94","490917","0.0-6.0-4.12","2309113","co38359","norming","","","","","","",""
"null","../img/tt/358tt.jpg","null","mooney2","image-keyboard-response","95","492924","0.0-6.0-5.12","2309113","co38359","norming","","","","","","",""
"2361.0850000004866","","","post_reveal_questions","survey-likert","96","495286","0.0-6.0-6.12","2309113","co38359","norming","","","{""aha"":2}","[0]","../img/tt/358tt.jpg","",""
"null","<div style=""font-size:60px;""> </div>","null","fixation","html-keyboard-response","97","495490","0.0-6.0-0.13","2309113","co38359","norming","","","","","","",""
"null","../img/tt/436tt.jpg","null","mooney1","image-keyboard-response","98","498494","0.0-6.0-1.13","2309113","co38359","norming","","","","","","",""
"5829.229999999399","","","post_mooney1_questions","survey-likert","99","504326","0.0-6.0-2.13","2309113","co38359","norming","","","{""curiosity"":5,""confidence"":0}","[0,1]","../img/tt/436tt.jpg","",""
"1158.019999999844","","","recognition","survey-text","100","505486","0.0-6.0-3.13","2309113","co38359","norming","","","{""guess"":""""}","","../img/tt/436tt.jpg","",""
"null","../img/gs/436gs.jpg","null","reveal","image-keyboard-response","101","507496","0.0-6.0-4.13","2309113","co38359","norming","","","","","","",""
"null","../img/tt/436tt.jpg","null","mooney2","image-keyboard-response","102","509498","0.0-6.0-5.13","2309113","co38359","norming","","","","","","",""
"2137.8850000000675","","","post_reveal_questions","survey-likert","103","511638","0.0-6.0-6.13","2309113","co38359","norming","","","{""aha"":2}","[0]","../img/tt/436tt.jpg","",""
"null","<div style=""font-size:60px;""> </div>","null","fixation","html-keyboard-response","104","511839","0.0-6.0-0.14","2309113","co38359","norming","","","","","","",""
"null","../img/tt/1366tt.jpg","null","mooney1","image-keyboard-response","105","514848","0.0-6.0-1.14","2309113","co38359","norming","","","","","","",""
"3988.9099999991013","","","post_mooney1_questions","survey-likert","106","518836","0.0-6.0-2.14","2309113","co38359","norming","","","{""curiosity"":5,""confidence"":0}","[0,1]","../img/tt/1366tt.jpg","",""
"574.3299999994924","","","recognition","survey-text","107","519412","0.0-6.0-3.14","2309113","co38359","norming","","","{""guess"":""""}","","../img/tt/1366tt.jpg","",""
"null","../img/gs/1366gs.jpg","null","reveal","image-keyboard-response","108","521413","0.0-6.0-4.14","2309113","co38359","norming","","","","","","",""
"null","../img/tt/1366tt.jpg","null","mooney2","image-keyboard-response","109","523419","0.0-6.0-5.14","2309113","co38359","norming","","","","","","",""
"4503.050000000279","","","post_reveal_questions","survey-likert","110","527924","0.0-6.0-6.14","2309113","co38359","norming","","","{""aha"":3}","[0]","../img/tt/1366tt.jpg","",""
"null","<div style=""font-size:60px;""> </div>","null","fixation","html-keyboard-response","111","528125","0.0-6.0-0.15","2309113","co38359","norming","","","","","","",""
"null","../img/tt/307tt.jpg","null","mooney1","image-keyboard-response","112","531131","0.0-6.0-1.15","2309113","co38359","norming","","","","","","",""
"4463.464999999735","","","post_mooney1_questions","survey-likert","113","535596","0.0-6.0-2.15","2309113","co38359","norming","","","{""curiosity"":5,""confidence"":0}","[0,1]","../img/tt/307tt.jpg","",""
"4301.985000000102","","","recognition","survey-text","114","539900","0.0-6.0-3.15","2309113","co38359","norming","","","{""guess"":""trumpet""}","","../img/tt/307tt.jpg","",""
"null","../img/gs/307gs.jpg","null","reveal","image-keyboard-response","115","541907","0.0-6.0-4.15","2309113","co38359","norming","","","","","","",""
"null","../img/tt/307tt.jpg","null","mooney2","image-keyboard-response","116","543911","0.0-6.0-5.15","2309113","co38359","norming","","","","","","",""
"2203.1299999998882","","","post_reveal_questions","survey-likert","117","546116","0.0-6.0-6.15","2309113","co38359","norming","","","{""aha"":4}","[0]","../img/tt/307tt.jpg","",""
"null","<div style=""font-size:60px;""> </div>","null","fixation","html-keyboard-response","118","546317","0.0-6.0-0.16","2309113","co38359","norming","","","","","","",""
"null","../img/tt/1190tt.jpg","null","mooney1","image-keyboard-response","119","549322","0.0-6.0-1.16","2309113","co38359","norming","","","","","","",""
"4135.495000000461","","","post_mooney1_questions","survey-likert","120","553460","0.0-6.0-2.16","2309113","co38359","norming","","","{""curiosity"":6,""confidence"":0}","[0,1]","../img/tt/1190tt.jpg","",""
"902.3099999994738","","","recognition","survey-text","121","554364","0.0-6.0-3.16","2309113","co38359","norming","","","{""guess"":""""}","","../img/tt/1190tt.jpg","",""
"null","../img/gs/1190gs.jpg","null","reveal","image-keyboard-response","122","556373","0.0-6.0-4.16","2309113","co38359","norming","","","","","","",""
"null","../img/tt/1190tt.jpg","null","mooney2","image-keyboard-response","123","558376","0.0-6.0-5.16","2309113","co38359","norming","","","","","","",""
"2121.839999999851","","","post_reveal_questions","survey-likert","124","560500","0.0-6.0-6.16","2309113","co38359","norming","","","{""aha"":2}","[0]","../img/tt/1190tt.jpg","",""
"null","<div style=""font-size:60px;""> </div>","null","fixation","html-keyboard-response","125","560701","0.0-6.0-0.17","2309113","co38359","norming","","","","","","",""
"null","../img/tt/1080tt.jpg","null","mooney1","image-keyboard-response","126","563708","0.0-6.0-1.17","2309113","co38359","norming","","","","","","",""
"3942.6249999996508","","","post_mooney1_questions","survey-likert","127","567652","0.0-6.0-2.17","2309113","co38359","norming","","","{""curiosity"":6,""confidence"":1}","[0,1]","../img/tt/1080tt.jpg","",""
"4518.119999999646","","","recognition","survey-text","128","572172","0.0-6.0-3.17","2309113","co38359","norming","","","{""guess"":""fossil""}","","../img/tt/1080tt.jpg","",""
"null","../img/gs/1080gs.jpg","null","reveal","image-keyboard-response","129","574173","0.0-6.0-4.17","2309113","co38359","norming","","","","","","",""
"null","../img/tt/1080tt.jpg","null","mooney2","image-keyboard-response","130","576179","0.0-6.0-5.17","2309113","co38359","norming","","","","","","",""
"2087.3500000007916","","","post_reveal_questions","survey-likert","131","578269","0.0-6.0-6.17","2309113","co38359","norming","","","{""aha"":4}","[0]","../img/tt/1080tt.jpg","",""
"null","<div style=""font-size:60px;""> </div>","null","fixation","html-keyboard-response","132","578470","0.0-6.0-0.18","2309113","co38359","norming","","","","","","",""
"null","../img/tt/1089tt.jpg","null","mooney1","image-keyboard-response","133","581478","0.0-6.0-1.18","2309113","co38359","norming","","","","","","",""
"4324.979999999399","","","post_mooney1_questions","survey-likert","134","585805","0.0-6.0-2.18","2309113","co38359","norming","","","{""curiosity"":5,""confidence"":1}","[0,1]","../img/tt/1089tt.jpg","",""
"3838.150000000489","","","recognition","survey-text","135","589645","0.0-6.0-3.18","2309113","co38359","norming","","","{""guess"":""car""}","","../img/tt/1089tt.jpg","",""
"null","../img/gs/1089gs.jpg","null","reveal","image-keyboard-response","136","591652","0.0-6.0-4.18","2309113","co38359","norming","","","","","","",""
"null","../img/tt/1089tt.jpg","null","mooney2","image-keyboard-response","137","593656","0.0-6.0-5.18","2309113","co38359","norming","","","","","","",""
"1802.9550000000745","","","post_reveal_questions","survey-likert","138","595461","0.0-6.0-6.18","2309113","co38359","norming","","","{""aha"":4}","[0]","../img/tt/1089tt.jpg","",""
"null","<div style=""font-size:60px;""> </div>","null","fixation","html-keyboard-response","139","595662","0.0-6.0-0.19","2309113","co38359","norming","","","","","","",""
"null","../img/tt/1226tt.jpg","null","mooney1","image-keyboard-response","140","598671","0.0-6.0-1.19","2309113","co38359","norming","","","","","","",""
"3771.3850000000093","","","post_mooney1_questions","survey-likert","141","602445","0.0-6.0-2.19","2309113","co38359","norming","","","{""curiosity"":5,""confidence"":0}","[0,1]","../img/tt/1226tt.jpg","",""
"3982.380000000354","","","recognition","survey-text","142","606429","0.0-6.0-3.19","2309113","co38359","norming","","","{""guess"":""swimmer""}","","../img/tt/1226tt.jpg","",""
"null","../img/gs/1226gs.jpg","null","reveal","image-keyboard-response","143","608439","0.0-6.0-4.19","2309113","co38359","norming","","","","","","",""
"null","../img/tt/1226tt.jpg","null","mooney2","image-keyboard-response","144","610442","0.0-6.0-5.19","2309113","co38359","norming","","","","","","",""
"1656.924999999348","","","post_reveal_questions","survey-likert","145","612101","0.0-6.0-6.19","2309113","co38359","norming","","","{""aha"":2}","[0]","../img/tt/1226tt.jpg","",""
"null","<div style=""font-size:60px;""> </div>","null","fixation","html-keyboard-response","146","612302","0.0-6.0-0.20","2309113","co38359","norming","","","","","","",""
"null","../img/tt/189tt.jpg","null","mooney1","image-keyboard-response","147","615310","0.0-6.0-1.20","2309113","co38359","norming","","","","","","",""
"3204.9500000003027","","","post_mooney1_questions","survey-likert","148","618517","0.0-6.0-2.20","2309113","co38359","norming","","","{""curiosity"":6,""confidence"":0}","[0,1]","../img/tt/189tt.jpg","",""
"2470.180000000284","","","recognition","survey-text","149","620989","0.0-6.0-3.20","2309113","co38359","norming","","","{""guess"":""horse""}","","../img/tt/189tt.jpg","",""
"null","../img/gs/189gs.jpg","null","reveal","image-keyboard-response","150","622997","0.0-6.0-4.20","2309113","co38359","norming","","","","","","",""
"null","../img/tt/189tt.jpg","null","mooney2","image-keyboard-response","151","624999","0.0-6.0-5.20","2309113","co38359","norming","","","","","","",""
"1963.4049999994459","","","post_reveal_questions","survey-likert","152","626965","0.0-6.0-6.20","2309113","co38359","norming","","","{""aha"":2}","[0]","../img/tt/189tt.jpg","",""
"null","<div style=""font-size:60px;""> </div>","null","fixation","html-keyboard-response","153","627167","0.0-6.0-0.21","2309113","co38359","norming","","","","","","",""
"null","../img/tt/1004tt.jpg","null","mooney1","image-keyboard-response","154","630170","0.0-6.0-1.21","2309113","co38359","norming","","","","","","",""
"7104.715000000317","","","post_mooney1_questions","survey-likert","155","637277","0.0-6.0-2.21","2309113","co38359","norming","","","{""curiosity"":5,""confidence"":0}","[0,1]","../img/tt/1004tt.jpg","",""
"646.085000000312","","","recognition","survey-text","156","637928","0.0-6.0-3.21","2309113","co38359","norming","","","{""guess"":""""}","","../img/tt/1004tt.jpg","",""
"null","../img/gs/1004gs.jpg","null","reveal","image-keyboard-response","157","639937","0.0-6.0-4.21","2309113","co38359","norming","","","","","","",""
"null","../img/tt/1004tt.jpg","null","mooney2","image-keyboard-response","158","641940","0.0-6.0-5.21","2309113","co38359","norming","","","","","","",""
"3249.260000000475","","","post_reveal_questions","survey-likert","159","645192","0.0-6.0-6.21","2309113","co38359","norming","","","{""aha"":2}","[0]","../img/tt/1004tt.jpg","",""
"null","<div style=""font-size:60px;""> </div>","null","fixation","html-keyboard-response","160","645394","0.0-6.0-0.22","2309113","co38359","norming","","","","","","",""
"null","../img/tt/1353tt.jpg","null","mooney1","image-keyboard-response","161","648404","0.0-6.0-1.22","2309113","co38359","norming","","","","","","",""
"4217.93499999959","","","post_mooney1_questions","survey-likert","162","652624","0.0-6.0-2.22","2309113","co38359","norming","","","{""curiosity"":5,""confidence"":1}","[0,1]","../img/tt/1353tt.jpg","",""
"2541.9199999996927","","","recognition","survey-text","163","655168","0.0-6.0-3.22","2309113","co38359","norming","","","{""guess"":""bag""}","","../img/tt/1353tt.jpg","",""
"null","../img/gs/1353gs.jpg","null","reveal","image-keyboard-response","164","657178","0.0-6.0-4.22","2309113","co38359","norming","","","","","","",""
"null","../img/tt/1353tt.jpg","null","mooney2","image-keyboard-response","165","659180","0.0-6.0-5.22","2309113","co38359","norming","","","","","","",""
"2761.3199999995995","","","post_reveal_questions","survey-likert","166","661944","0.0-6.0-6.22","2309113","co38359","norming","","","{""aha"":5}","[0]","../img/tt/1353tt.jpg","",""
"null","<div style=""font-size:60px;""> </div>","null","fixation","html-keyboard-response","167","662151","0.0-6.0-0.23","2309113","co38359","norming","","","","","","",""
"null","../img/tt/380tt.jpg","null","mooney1","image-keyboard-response","168","665157","0.0-6.0-1.23","2309113","co38359","norming","","","","","","",""
"3360.225000000326","","","post_mooney1_questions","survey-likert","169","668520","0.0-6.0-2.23","2309113","co38359","norming","","","{""curiosity"":5,""confidence"":1}","[0,1]","../img/tt/380tt.jpg","",""
"3701.9149999995716","","","recognition","survey-text","170","672224","0.0-6.0-3.23","2309113","co38359","norming","","","{""guess"":""luiaard""}","","../img/tt/380tt.jpg","",""
"null","../img/gs/380gs.jpg","null","reveal","image-keyboard-response","171","674226","0.0-6.0-4.23","2309113","co38359","norming","","","","","","",""
"null","../img/tt/380tt.jpg","null","mooney2","image-keyboard-response","172","676228","0.0-6.0-5.23","2309113","co38359","norming","","","","","","",""
"3449.880000000121","","","post_reveal_questions","survey-likert","173","679680","0.0-6.0-6.23","2309113","co38359","norming","","","{""aha"":2}","[0]","../img/tt/380tt.jpg","",""
"null","<div style=""font-size:60px;""> </div>","null","fixation","html-keyboard-response","174","679882","0.0-6.0-0.24","2309113","co38359","norming","","","","","","",""
"null","../img/tt/319tt.jpg","null","mooney1","image-keyboard-response","175","682890","0.0-6.0-1.24","2309113","co38359","norming","","","","","","",""
"3148.79999999993","","","post_mooney1_questions","survey-likert","176","686040","0.0-6.0-2.24","2309113","co38359","norming","","","{""curiosity"":6,""confidence"":0}","[0,1]","../img/tt/319tt.jpg","",""
"813.5499999998137","","","recognition","survey-text","177","686856","0.0-6.0-3.24","2309113","co38359","norming","","","{""guess"":""""}","","../img/tt/319tt.jpg","",""
"null","../img/gs/319gs.jpg","null","reveal","image-keyboard-response","178","688856","0.0-6.0-4.24","2309113","co38359","norming","","","","","","",""
"null","../img/tt/319tt.jpg","null","mooney2","image-keyboard-response","179","690863","0.0-6.0-5.24","2309113","co38359","norming","","","","","","",""
"1816.2549999997718","","","post_reveal_questions","survey-likert","180","692680","0.0-6.0-6.24","2309113","co38359","norming","","","{""aha"":2}","[0]","../img/tt/319tt.jpg","",""
"null","<div style=""font-size:60px;""> </div>","null","fixation","html-keyboard-response","181","692882","0.0-6.0-0.25","2309113","co38359","norming","","","","","","",""
"null","../img/tt/1243tt.jpg","null","mooney1","image-keyboard-response","182","695889","0.0-6.0-1.25","2309113","co38359","norming","","","","","","",""
"3012.0149999993155","","","post_mooney1_questions","survey-likert","183","698898","0.0-6.0-2.25","2309113","co38359","norming","","","{""curiosity"":6,""confidence"":1}","[0,1]","../img/tt/1243tt.jpg","",""
"3478.3200000001816","","","recognition","survey-text","184","702378","0.0-6.0-3.25","2309113","co38359","norming","","","{""guess"":""monkey""}","","../img/tt/1243tt.jpg","",""
"null","../img/gs/1243gs.jpg","null","reveal","image-keyboard-response","185","704384","0.0-6.0-4.25","2309113","co38359","norming","","","","","","",""
"null","../img/tt/1243tt.jpg","null","mooney2","image-keyboard-response","186","706395","0.0-6.0-5.25","2309113","co38359","norming","","","","","","",""
"1724.8699999999953","","","post_reveal_questions","survey-likert","187","708122","0.0-6.0-6.25","2309113","co38359","norming","","","{""aha"":4}","[0]","../img/tt/1243tt.jpg","",""
"null","<div style=""font-size:60px;""> </div>","null","fixation","html-keyboard-response","188","708324","0.0-6.0-0.26","2309113","co38359","norming","","","","","","",""
"null","../img/tt/1118tt.jpg","null","mooney1","image-keyboard-response","189","711330","0.0-6.0-1.26","2309113","co38359","norming","","","","","","",""
"4165.8699999997625","","","post_mooney1_questions","survey-likert","190","715498","0.0-6.0-2.26","2309113","co38359","norming","","","{""curiosity"":5,""confidence"":0}","[0,1]","../img/tt/1118tt.jpg","",""
"3278.0150000007125","","","recognition","survey-text","191","718778","0.0-6.0-3.26","2309113","co38359","norming","","","{""guess"":""river""}","","../img/tt/1118tt.jpg","",""
"null","../img/gs/1118gs.jpg","null","reveal","image-keyboard-response","192","720783","0.0-6.0-4.26","2309113","co38359","norming","","","","","","",""
"null","../img/tt/1118tt.jpg","null","mooney2","image-keyboard-response","193","722786","0.0-6.0-5.26","2309113","co38359","norming","","","","","","",""
"2901.3850000001257","","","post_reveal_questions","survey-likert","194","725690","0.0-6.0-6.26","2309113","co38359","norming","","","{""aha"":2}","[0]","../img/tt/1118tt.jpg","",""
"null","<div style=""font-size:60px;""> </div>","null","fixation","html-keyboard-response","195","725891","0.0-6.0-0.27","2309113","co38359","norming","","","","","","",""
"null","../img/tt/438tt.jpg","null","mooney1","image-keyboard-response","196","728899","0.0-6.0-1.27","2309113","co38359","norming","","","","","","",""
"3718.014999999432","","","post_mooney1_questions","survey-likert","197","732618","0.0-6.0-2.27","2309113","co38359","norming","","","{""curiosity"":5,""confidence"":1}","[0,1]","../img/tt/438tt.jpg","",""
"3501.9700000003213","","","recognition","survey-text","198","736122","0.0-6.0-3.27","2309113","co38359","norming","","","{""guess"":""snake""}","","../img/tt/438tt.jpg","",""
"null","../img/gs/438gs.jpg","null","reveal","image-keyboard-response","199","738128","0.0-6.0-4.27","2309113","co38359","norming","","","","","","",""
"null","../img/tt/438tt.jpg","null","mooney2","image-keyboard-response","200","740135","0.0-6.0-5.27","2309113","co38359","norming","","","","","","",""
"2168.765000000363","","","post_reveal_questions","survey-likert","201","742306","0.0-6.0-6.27","2309113","co38359","norming","","","{""aha"":2}","[0]","../img/tt/438tt.jpg","",""
"null","<div style=""font-size:60px;""> </div>","null","fixation","html-keyboard-response","202","742508","0.0-6.0-0.28","2309113","co38359","norming","","","","","","",""
"null","../img/tt/1046tt.jpg","null","mooney1","image-keyboard-response","203","745511","0.0-6.0-1.28","2309113","co38359","norming","","","","","","",""
"3256.089999999851","","","post_mooney1_questions","survey-likert","204","748770","0.0-6.0-2.28","2309113","co38359","norming","","","{""curiosity"":5,""confidence"":0}","[0,1]","../img/tt/1046tt.jpg","",""
"2803.6700000002747","","","recognition","survey-text","205","751578","0.0-6.0-3.28","2309113","co38359","norming","","","{""guess"":""plate""}","","../img/tt/1046tt.jpg","",""
"null","../img/gs/1046gs.jpg","null","reveal","image-keyboard-response","206","753588","0.0-6.0-4.28","2309113","co38359","norming","","","","","","",""
"null","../img/tt/1046tt.jpg","null","mooney2","image-keyboard-response","207","755598","0.0-6.0-5.28","2309113","co38359","norming","","","","","","",""
"2297.1099999995204","","","post_reveal_questions","survey-likert","208","757898","0.0-6.0-6.28","2309113","co38359","norming","","","{""aha"":4}","[0]","../img/tt/1046tt.jpg","",""
"null","<div style=""font-size:60px;""> </div>","null","fixation","html-keyboard-response","209","758099","0.0-6.0-0.29","2309113","co38359","norming","","","","","","",""
"null","../img/tt/019tt.jpg","null","mooney1","image-keyboard-response","210","761113","0.0-6.0-1.29","2309113","co38359","norming","","","","","","",""
"3046.220000000205","","","post_mooney1_questions","survey-likert","211","764162","0.0-6.0-2.29","2309113","co38359","norming","","","{""curiosity"":5,""confidence"":0}","[0,1]","../img/tt/019tt.jpg","",""
"3166.16999999946","","","recognition","survey-text","212","767329","0.0-6.0-3.29","2309113","co38359","norming","","","{""guess"":""scissors""}","","../img/tt/019tt.jpg","",""
"null","../img/gs/019gs.jpg","null","reveal","image-keyboard-response","213","769337","0.0-6.0-4.29","2309113","co38359","norming","","","","","","",""
"null","../img/tt/019tt.jpg","null","mooney2","image-keyboard-response","214","771338","0.0-6.0-5.29","2309113","co38359","norming","","","","","","",""
"3221.244999999646","","","post_reveal_questions","survey-likert","215","774561","0.0-6.0-6.29","2309113","co38359","norming","","","{""aha"":3}","[0]","../img/tt/019tt.jpg","",""
"null","<div style=""font-size:60px;""> </div>","null","fixation","html-keyboard-response","216","774762","0.0-6.0-0.30","2309113","co38359","norming","","","","","","",""
"null","../img/tt/1066tt.jpg","null","mooney1","image-keyboard-response","217","777772","0.0-6.0-1.30","2309113","co38359","norming","","","","","","",""
"4274.520000000019","","","post_mooney1_questions","survey-likert","218","782049","0.0-6.0-2.30","2309113","co38359","norming","","","{""curiosity"":4,""confidence"":1}","[0,1]","../img/tt/1066tt.jpg","",""
"2366.5300000001444","","","recognition","survey-text","219","784418","0.0-6.0-3.30","2309113","co38359","norming","","","{""guess"":""bus""}","","../img/tt/1066tt.jpg","",""
"null","../img/gs/1066gs.jpg","null","reveal","image-keyboard-response","220","786426","0.0-6.0-4.30","2309113","co38359","norming","","","","","","",""
"null","../img/tt/1066tt.jpg","null","mooney2","image-keyboard-response","221","788438","0.0-6.0-5.30","2309113","co38359","norming","","","","","","",""
"2929.5499999998137","","","post_reveal_questions","survey-likert","222","791370","0.0-6.0-6.30","2309113","co38359","norming","","","{""aha"":1}","[0]","../img/tt/1066tt.jpg","",""
"null","<div style=""font-size:60px;""> </div>","null","fixation","html-keyboard-response","223","791571","0.0-6.0-0.31","2309113","co38359","norming","","","","","","",""
"null","../img/tt/580tt.jpg","null","mooney1","image-keyboard-response","224","794578","0.0-6.0-1.31","2309113","co38359","norming","","","","","","",""
"3908.695000000065","","","post_mooney1_questions","survey-likert","225","798490","0.0-6.0-2.31","2309113","co38359","norming","","","{""curiosity"":6,""confidence"":0}","[0,1]","../img/tt/580tt.jpg","",""
"1062.1250000003492","","","recognition","survey-text","226","799553","0.0-6.0-3.31","2309113","co38359","norming","","","{""guess"":""""}","","../img/tt/580tt.jpg","",""
"null","../img/gs/580gs.jpg","null","reveal","image-keyboard-response","227","801555","0.0-6.0-4.31","2309113","co38359","norming","","","","","","",""
"null","../img/tt/580tt.jpg","null","mooney2","image-keyboard-response","228","803560","0.0-6.0-5.31","2309113","co38359","norming","","","","","","",""
"2373.540000000503","","","post_reveal_questions","survey-likert","229","805937","0.0-6.0-6.31","2309113","co38359","norming","","","{""aha"":0}","[0]","../img/tt/580tt.jpg","",""
"null","<div style=""font-size:60px;""> </div>","null","fixation","html-keyboard-response","230","806139","0.0-6.0-0.32","2309113","co38359","norming","","","","","","",""
"null","../img/tt/522tt.jpg","null","mooney1","image-keyboard-response","231","809142","0.0-6.0-1.32","2309113","co38359","norming","","","","","","",""
"3769.385000000475","","","post_mooney1_questions","survey-likert","232","812914","0.0-6.0-2.32","2309113","co38359","norming","","","{""curiosity"":5,""confidence"":0}","[0,1]","../img/tt/522tt.jpg","",""
"534.2999999993481","","","recognition","survey-text","233","813449","0.0-6.0-3.32","2309113","co38359","norming","","","{""guess"":""""}","","../img/tt/522tt.jpg","",""
"null","../img/gs/522gs.jpg","null","reveal","image-keyboard-response","234","815450","0.0-6.0-4.32","2309113","co38359","norming","","","","","","",""
"null","../img/tt/522tt.jpg","null","mooney2","image-keyboard-response","235","817454","0.0-6.0-5.32","2309113","co38359","norming","","","","","","",""
"3129.0350000000326","","","post_reveal_questions","survey-likert","236","820586","0.0-6.0-6.32","2309113","co38359","norming","","","{""aha"":5}","[0]","../img/tt/522tt.jpg","",""
"null","<div style=""font-size:60px;""> </div>","null","fixation","html-keyboard-response","237","820786","0.0-6.0-0.33","2309113","co38359","norming","","","","","","",""
"null","../img/tt/1012tt.jpg","null","mooney1","image-keyboard-response","238","823799","0.0-6.0-1.33","2309113","co38359","norming","","","","","","",""
"3536.175000000163","","","post_mooney1_questions","survey-likert","239","827338","0.0-6.0-2.33","2309113","co38359","norming","","","{""curiosity"":5,""confidence"":0}","[0,1]","../img/tt/1012tt.jpg","",""
"2694.1649999998044","","","recognition","survey-text","240","830034","0.0-6.0-3.33","2309113","co38359","norming","","","{""guess"":""elephant""}","","../img/tt/1012tt.jpg","",""
"null","../img/gs/1012gs.jpg","null","reveal","image-keyboard-response","241","832043","0.0-6.0-4.33","2309113","co38359","norming","","","","","","",""
"null","../img/tt/1012tt.jpg","null","mooney2","image-keyboard-response","242","834046","0.0-6.0-5.33","2309113","co38359","norming","","","","","","",""
"1529.994999999879","","","post_reveal_questions","survey-likert","243","835578","0.0-6.0-6.33","2309113","co38359","norming","","","{""aha"":3}","[0]","../img/tt/1012tt.jpg","",""
"null","<div style=""font-size:60px;""> </div>","null","fixation","html-keyboard-response","244","835779","0.0-6.0-0.34","2309113","co38359","norming","","","","","","",""
"null","../img/tt/1148tt.jpg","null","mooney1","image-keyboard-response","245","838780","0.0-6.0-1.34","2309113","co38359","norming","","","","","","",""
"3122.8350000001956","","","post_mooney1_questions","survey-likert","246","841906","0.0-6.0-2.34","2309113","co38359","norming","","","{""curiosity"":5,""confidence"":0}","[0,1]","../img/tt/1148tt.jpg","",""
"3486.2199999998556","","","recognition","survey-text","247","845394","0.0-6.0-3.34","2309113","co38359","norming","","","{""guess"":""cattle""}","","../img/tt/1148tt.jpg","",""
"null","../img/gs/1148gs.jpg","null","reveal","image-keyboard-response","248","847399","0.0-6.0-4.34","2309113","co38359","norming","","","","","","",""
"null","../img/tt/1148tt.jpg","null","mooney2","image-keyboard-response","249","849401","0.0-6.0-5.34","2309113","co38359","norming","","","","","","",""
"2510.6050000003306","","","post_reveal_questions","survey-likert","250","851914","0.0-6.0-6.34","2309113","co38359","norming","","","{""aha"":4}","[0]","../img/tt/1148tt.jpg","",""
"null","<div style=""font-size:60px;""> </div>","null","fixation","html-keyboard-response","251","852116","0.0-6.0-0.35","2309113","co38359","norming","","","","","","",""
"null","../img/tt/1084tt.jpg","null","mooney1","image-keyboard-response","252","855124","0.0-6.0-1.35","2309113","co38359","norming","","","","","","",""
"4259.08499999973","","","post_mooney1_questions","survey-likert","253","859386","0.0-6.0-2.35","2309113","co38359","norming","","","{""curiosity"":5,""confidence"":1}","[0,1]","../img/tt/1084tt.jpg","",""
"2166.145000000135","","","recognition","survey-text","254","861554","0.0-6.0-3.35","2309113","co38359","norming","","","{""guess"":""cup""}","","../img/tt/1084tt.jpg","",""
"null","../img/gs/1084gs.jpg","null","reveal","image-keyboard-response","255","863555","0.0-6.0-4.35","2309113","co38359","norming","","","","","","",""
"null","../img/tt/1084tt.jpg","null","mooney2","image-keyboard-response","256","865557","0.0-6.0-5.35","2309113","co38359","norming","","","","","","",""
"3018.3299999998417","","","post_reveal_questions","survey-likert","257","868578","0.0-6.0-6.35","2309113","co38359","norming","","","{""aha"":4}","[0]","../img/tt/1084tt.jpg","",""
"null","<div style=""font-size:60px;""> </div>","null","fixation","html-keyboard-response","258","868779","0.0-6.0-0.36","2309113","co38359","norming","","","","","","",""
"null","../img/tt/1235tt.jpg","null","mooney1","image-keyboard-response","259","871780","0.0-6.0-1.36","2309113","co38359","norming","","","","","","",""
"3884.9700000000885","","","post_mooney1_questions","survey-likert","260","875666","0.0-6.0-2.36","2309113","co38359","norming","","","{""curiosity"":5,""confidence"":1}","[0,1]","../img/tt/1235tt.jpg","",""
"2925.7849999994505","","","recognition","survey-text","261","878593","0.0-6.0-3.36","2309113","co38359","norming","","","{""guess"":""horse""}","","../img/tt/1235tt.jpg","",""
"null","../img/gs/1235gs.jpg","null","reveal","image-keyboard-response","262","880599","0.0-6.0-4.36","2309113","co38359","norming","","","","","","",""
"null","../img/tt/1235tt.jpg","null","mooney2","image-keyboard-response","263","882601","0.0-6.0-5.36","2309113","co38359","norming","","","","","","",""
"1599.424999999348","","","post_reveal_questions","survey-likert","264","884202","0.0-6.0-6.36","2309113","co38359","norming","","","{""aha"":2}","[0]","../img/tt/1235tt.jpg","",""
"null","<div style=""font-size:60px;""> </div>","null","fixation","html-keyboard-response","265","884404","0.0-6.0-0.37","2309113","co38359","norming","","","","","","",""
"null","../img/tt/108tt.jpg","null","mooney1","image-keyboard-response","266","887405","0.0-6.0-1.37","2309113","co38359","norming","","","","","","",""
"3163.7099999998463","","","post_mooney1_questions","survey-likert","267","890570","0.0-6.0-2.37","2309113","co38359","norming","","","{""curiosity"":6,""confidence"":0}","[0,1]","../img/tt/108tt.jpg","",""
"509.99000000057276","","","recognition","survey-text","268","891082","0.0-6.0-3.37","2309113","co38359","norming","","","{""guess"":""""}","","../img/tt/108tt.jpg","",""
"null","../img/gs/108gs.jpg","null","reveal","image-keyboard-response","269","893084","0.0-6.0-4.37","2309113","co38359","norming","","","","","","",""
"null","../img/tt/108tt.jpg","null","mooney2","image-keyboard-response","270","895084","0.0-6.0-5.37","2309113","co38359","norming","","","","","","",""
"1693.0400000001537","","","post_reveal_questions","survey-likert","271","896778","0.0-6.0-6.37","2309113","co38359","norming","","","{""aha"":0}","[0]","../img/tt/108tt.jpg","",""
"null","<div style=""font-size:60px;""> </div>","null","fixation","html-keyboard-response","272","896979","0.0-6.0-0.38","2309113","co38359","norming","","","","","","",""
"null","../img/tt/085tt.jpg","null","mooney1","image-keyboard-response","273","899981","0.0-6.0-1.38","2309113","co38359","norming","","","","","","",""
"3316.125000000233","","","post_mooney1_questions","survey-likert","274","903298","0.0-6.0-2.38","2309113","co38359","norming","","","{""curiosity"":6,""confidence"":0}","[0,1]","../img/tt/085tt.jpg","",""
"645.6700000007404","","","recognition","survey-text","275","903946","0.0-6.0-3.38","2309113","co38359","norming","","","{""guess"":""""}","","../img/tt/085tt.jpg","",""
"null","../img/gs/085gs.jpg","null","reveal","image-keyboard-response","276","905957","0.0-6.0-4.38","2309113","co38359","norming","","","","","","",""
"null","../img/tt/085tt.jpg","null","mooney2","image-keyboard-response","277","907958","0.0-6.0-5.38","2309113","co38359","norming","","","","","","",""
"1754.4600000001956","","","post_reveal_questions","survey-likert","278","909714","0.0-6.0-6.38","2309113","co38359","norming","","","{""aha"":2}","[0]","../img/tt/085tt.jpg","",""
"null","<div style=""font-size:60px;""> </div>","null","fixation","html-keyboard-response","279","909915","0.0-6.0-0.39","2309113","co38359","norming","","","","","","",""
"null","../img/tt/1078tt.jpg","null","mooney1","image-keyboard-response","280","912922","0.0-6.0-1.39","2309113","co38359","norming","","","","","","",""
"4486.4749999996275","","","post_mooney1_questions","survey-likert","281","917410","0.0-6.0-2.39","2309113","co38359","norming","","","{""curiosity"":4,""confidence"":1}","[0,1]","../img/tt/1078tt.jpg","",""
"2997.8350000001956","","","recognition","survey-text","282","920410","0.0-6.0-3.39","2309113","co38359","norming","","","{""guess"":""caf""}","","../img/tt/1078tt.jpg","",""
"null","../img/gs/1078gs.jpg","null","reveal","image-keyboard-response","283","922412","0.0-6.0-4.39","2309113","co38359","norming","","","","","","",""
"null","../img/tt/1078tt.jpg","null","mooney2","image-keyboard-response","284","924414","0.0-6.0-5.39","2309113","co38359","norming","","","","","","",""
"3330.8749999996508","","","post_reveal_questions","survey-likert","285","927746","0.0-6.0-6.39","2309113","co38359","norming","","","{""aha"":3}","[0]","../img/tt/1078tt.jpg","",""
"null","<div style=""font-size:60px;""> </div>","null","fixation","html-keyboard-response","286","927948","0.0-6.0-0.40","2309113","co38359","norming","","","","","","",""
"null","../img/tt/040tt.jpg","null","mooney1","image-keyboard-response","287","930955","0.0-6.0-1.40","2309113","co38359","norming","","","","","","",""
"4453.534999999683","","","post_mooney1_questions","survey-likert","288","935410","0.0-6.0-2.40","2309113","co38359","norming","","","{""curiosity"":4,""confidence"":0}","[0,1]","../img/tt/040tt.jpg","",""
"1109.734999999986","","","recognition","survey-text","289","936522","0.0-6.0-3.40","2309113","co38359","norming","","","{""guess"":""""}","","../img/tt/040tt.jpg","",""
"null","../img/gs/040gs.jpg","null","reveal","image-keyboard-response","290","938529","0.0-6.0-4.40","2309113","co38359","norming","","","","","","",""
"null","../img/tt/040tt.jpg","null","mooney2","image-keyboard-response","291","940530","0.0-6.0-5.40","2309113","co38359","norming","","","","","","",""
"2455.045000000624","","","post_reveal_questions","survey-likert","292","942986","0.0-6.0-6.40","2309113","co38359","norming","","","{""aha"":1}","[0]","../img/tt/040tt.jpg","",""
"null","<div style=""font-size:60px;""> </div>","null","fixation","html-keyboard-response","293","943187","0.0-6.0-0.41","2309113","co38359","norming","","","","","","",""
"null","../img/tt/552tt.jpg","null","mooney1","image-keyboard-response","294","946193","0.0-6.0-1.41","2309113","co38359","norming","","","","","","",""
"3016.329999999376","","","post_mooney1_questions","survey-likert","295","949211","0.0-6.0-2.41","2309113","co38359","norming","","","{""curiosity"":6,""confidence"":0}","[0,1]","../img/tt/552tt.jpg","",""
"5222.370000000461","","","recognition","survey-text","296","954435","0.0-6.0-3.41","2309113","co38359","norming","","","{""guess"":""turtle""}","","../img/tt/552tt.jpg","",""
"null","../img/gs/552gs.jpg","null","reveal","image-keyboard-response","297","956436","0.0-6.0-4.41","2309113","co38359","norming","","","","","","",""
"null","../img/tt/552tt.jpg","null","mooney2","image-keyboard-response","298","958438","0.0-6.0-5.41","2309113","co38359","norming","","","","","","",""
"2148.3600000001024","","","post_reveal_questions","survey-likert","299","960587","0.0-6.0-6.41","2309113","co38359","norming","","","{""aha"":3}","[0]","../img/tt/552tt.jpg","",""
"null","<div style=""font-size:60px;""> </div>","null","fixation","html-keyboard-response","300","960788","0.0-6.0-0.42","2309113","co38359","norming","","","","","","",""
"null","../img/tt/007tt.jpg","null","mooney1","image-keyboard-response","301","963797","0.0-6.0-1.42","2309113","co38359","norming","","","","","","",""
"8028.4400000000605","","","post_mooney1_questions","survey-likert","302","971827","0.0-6.0-2.42","2309113","co38359","norming","","","{""curiosity"":5,""confidence"":0}","[0,1]","../img/tt/007tt.jpg","",""
"814.0050000001211","","","recognition","survey-text","303","972643","0.0-6.0-3.42","2309113","co38359","norming","","","{""guess"":""""}","","../img/tt/007tt.jpg","",""
"null","../img/gs/007gs.jpg","null","reveal","image-keyboard-response","304","974645","0.0-6.0-4.42","2309113","co38359","norming","","","","","","",""
"null","../img/tt/007tt.jpg","null","mooney2","image-keyboard-response","305","976647","0.0-6.0-5.42","2309113","co38359","norming","","","","","","",""
"1970.494999999646","","","post_reveal_questions","survey-likert","306","978619","0.0-6.0-6.42","2309113","co38359","norming","","","{""aha"":2}","[0]","../img/tt/007tt.jpg","",""
"null","<div style=""font-size:60px;""> </div>","null","fixation","html-keyboard-response","307","978820","0.0-6.0-0.43","2309113","co38359","norming","","","","","","",""
"null","../img/tt/135tt.jpg","null","mooney1","image-keyboard-response","308","981825","0.0-6.0-1.43","2309113","co38359","norming","","","","","","",""
"6008.420000000158","","","post_mooney1_questions","survey-likert","309","987835","0.0-6.0-2.43","2309113","co38359","norming","","","{""curiosity"":2,""confidence"":2}","[0,1]","../img/tt/135tt.jpg","",""
"3637.7449999999953","","","recognition","survey-text","310","991475","0.0-6.0-3.43","2309113","co38359","norming","","","{""guess"":""toilet""}","","../img/tt/135tt.jpg","",""
"null","../img/gs/135gs.jpg","null","reveal","image-keyboard-response","311","993483","0.0-6.0-4.43","2309113","co38359","norming","","","","","","",""
"null","../img/tt/135tt.jpg","null","mooney2","image-keyboard-response","312","995487","0.0-6.0-5.43","2309113","co38359","norming","","","","","","",""
"3379.0250000001397","","","post_reveal_questions","survey-likert","313","998867","0.0-6.0-6.43","2309113","co38359","norming","","","{""aha"":0}","[0]","../img/tt/135tt.jpg","",""
"null","<div style=""font-size:60px;""> </div>","null","fixation","html-keyboard-response","314","999069","0.0-6.0-0.44","2309113","co38359","norming","","","","","","",""
"null","../img/tt/060tt.jpg","null","mooney1","image-keyboard-response","315","1002072","0.0-6.0-1.44","2309113","co38359","norming","","","","","","",""
"3104.155000000028","","","post_mooney1_questions","survey-likert","316","1005179","0.0-6.0-2.44","2309113","co38359","norming","","","{""curiosity"":5,""confidence"":1}","[0,1]","../img/tt/060tt.jpg","",""
"3221.70000000007","","","recognition","survey-text","317","1008402","0.0-6.0-3.44","2309113","co38359","norming","","","{""guess"":""hotdog""}","","../img/tt/060tt.jpg","",""
"null","../img/gs/060gs.jpg","null","reveal","image-keyboard-response","318","1010408","0.0-6.0-4.44","2309113","co38359","norming","","","","","","",""
"null","../img/tt/060tt.jpg","null","mooney2","image-keyboard-response","319","1012419","0.0-6.0-5.44","2309113","co38359","norming","","","","","","",""
"1580.9949999994133","","","post_reveal_questions","survey-likert","320","1014002","0.0-6.0-6.44","2309113","co38359","norming","","","{""aha"":4}","[0]","../img/tt/060tt.jpg","",""
"null","<div style=""font-size:60px;""> </div>","null","fixation","html-keyboard-response","321","1014203","0.0-6.0-0.45","2309113","co38359","norming","","","","","","",""
"null","../img/tt/1116tt.jpg","null","mooney1","image-keyboard-response","322","1017206","0.0-6.0-1.45","2309113","co38359","norming","","","","","","",""
"3688.999999999418","","","post_mooney1_questions","survey-likert","323","1020898","0.0-6.0-2.45","2309113","co38359","norming","","","{""curiosity"":5,""confidence"":1}","[0,1]","../img/tt/1116tt.jpg","",""
"2030.3199999998324","","","recognition","survey-text","324","1022930","0.0-6.0-3.45","2309113","co38359","norming","","","{""guess"":""car""}","","../img/tt/1116tt.jpg","",""
"null","../img/gs/1116gs.jpg","null","reveal","image-keyboard-response","325","1024939","0.0-6.0-4.45","2309113","co38359","norming","","","","","","",""
"null","../img/tt/1116tt.jpg","null","mooney2","image-keyboard-response","326","1026940","0.0-6.0-5.45","2309113","co38359","norming","","","","","","",""
"1900.4350000004051","","","post_reveal_questions","survey-likert","327","1028842","0.0-6.0-6.45","2309113","co38359","norming","","","{""aha"":2}","[0]","../img/tt/1116tt.jpg","",""
"null","<div style=""font-size:60px;""> </div>","null","fixation","html-keyboard-response","328","1029043","0.0-6.0-0.46","2309113","co38359","norming","","","","","","",""
"null","../img/tt/603tt.jpg","null","mooney1","image-keyboard-response","329","1032047","0.0-6.0-1.46","2309113","co38359","norming","","","","","","",""
"3808.275000000256","","","post_mooney1_questions","survey-likert","330","1035858","0.0-6.0-2.46","2309113","co38359","norming","","","{""curiosity"":6,""confidence"":0}","[0,1]","../img/tt/603tt.jpg","",""
"630.1050000002142","","","recognition","survey-text","331","1036490","0.0-6.0-3.46","2309113","co38359","norming","","","{""guess"":""""}","","../img/tt/603tt.jpg","",""
"null","../img/gs/603gs.jpg","null","reveal","image-keyboard-response","332","1038493","0.0-6.0-4.46","2309113","co38359","norming","","","","","","",""
"null","../img/tt/603tt.jpg","null","mooney2","image-keyboard-response","333","1040495","0.0-6.0-5.46","2309113","co38359","norming","","","","","","",""
"2816.679999999935","","","post_reveal_questions","survey-likert","334","1043314","0.0-6.0-6.46","2309113","co38359","norming","","","{""aha"":4}","[0]","../img/tt/603tt.jpg","",""
"null","<div style=""font-size:60px;""> </div>","null","fixation","html-keyboard-response","335","1043515","0.0-6.0-0.47","2309113","co38359","norming","","","","","","",""
"null","../img/tt/1228tt.jpg","null","mooney1","image-keyboard-response","336","1046518","0.0-6.0-1.47","2309113","co38359","norming","","","","","","",""
"2969.219999999972","","","post_mooney1_questions","survey-likert","337","1049490","0.0-6.0-2.47","2309113","co38359","norming","","","{""curiosity"":5,""confidence"":0}","[0,1]","../img/tt/1228tt.jpg","",""
"2349.8199999993667","","","recognition","survey-text","338","1051842","0.0-6.0-3.47","2309113","co38359","norming","","","{""guess"":""skunk""}","","../img/tt/1228tt.jpg","",""
"null","../img/gs/1228gs.jpg","null","reveal","image-keyboard-response","339","1053847","0.0-6.0-4.47","2309113","co38359","norming","","","","","","",""
"null","../img/tt/1228tt.jpg","null","mooney2","image-keyboard-response","340","1055849","0.0-6.0-5.47","2309113","co38359","norming","","","","","","",""
"2790.2800000002608","","","post_reveal_questions","survey-likert","341","1058642","0.0-6.0-6.47","2309113","co38359","norming","","","{""aha"":3}","[0]","../img/tt/1228tt.jpg","",""
"null","<div style=""font-size:60px;""> </div>","null","fixation","html-keyboard-response","342","1058845","0.0-6.0-0.48","2309113","co38359","norming","","","","","","",""
"null","../img/tt/1049tt.jpg","null","mooney1","image-keyboard-response","343","1061846","0.0-6.0-1.48","2309113","co38359","norming","","","","","","",""
"2561.549999999581","","","post_mooney1_questions","survey-likert","344","1064410","0.0-6.0-2.48","2309113","co38359","norming","","","{""curiosity"":5,""confidence"":0}","[0,1]","../img/tt/1049tt.jpg","",""
"630.2150000000838","","","recognition","survey-text","345","1065042","0.0-6.0-3.48","2309113","co38359","norming","","","{""guess"":""""}","","../img/tt/1049tt.jpg","",""
"null","../img/gs/1049gs.jpg","null","reveal","image-keyboard-response","346","1067046","0.0-6.0-4.48","2309113","co38359","norming","","","","","","",""
"null","../img/tt/1049tt.jpg","null","mooney2","image-keyboard-response","347","1069049","0.0-6.0-5.48","2309113","co38359","norming","","","","","","",""
"5528.535000000382","","","post_reveal_questions","survey-likert","348","1074579","0.0-6.0-6.48","2309113","co38359","norming","","","{""aha"":2}","[0]","../img/tt/1049tt.jpg","",""
"null","<div style=""font-size:60px;""> </div>","null","fixation","html-keyboard-response","349","1074780","0.0-6.0-0.49","2309113","co38359","norming","","","","","","",""
"null","../img/tt/435tt.jpg","null","mooney1","image-keyboard-response","350","1077792","0.0-6.0-1.49","2309113","co38359","norming","","","","","","",""
"7096.135000000708","","","post_mooney1_questions","survey-likert","351","1084891","0.0-6.0-2.49","2309113","co38359","norming","","","{""curiosity"":5,""confidence"":1}","[0,1]","../img/tt/435tt.jpg","",""
"2774.3499999996275","","","recognition","survey-text","352","1087667","0.0-6.0-3.49","2309113","co38359","norming","","","{""guess"":""house""}","","../img/tt/435tt.jpg","",""
"null","../img/gs/435gs.jpg","null","reveal","image-keyboard-response","353","1089676","0.0-6.0-4.49","2309113","co38359","norming","","","","","","",""
"null","../img/tt/435tt.jpg","null","mooney2","image-keyboard-response","354","1091678","0.0-6.0-5.49","2309113","co38359","norming","","","","","","",""
"1681.2050000000745","","","post_reveal_questions","survey-likert","355","1093363","0.0-6.0-6.49","2309113","co38359","norming","","","{""aha"":4}","[0]","../img/tt/435tt.jpg","",""
"null","<div style=""font-size:60px;""> </div>","null","fixation","html-keyboard-response","356","1093564","0.0-6.0-0.50","2309113","co38359","norming","","","","","","",""
"null","../img/tt/1234tt.jpg","null","mooney1","image-keyboard-response","357","1096577","0.0-6.0-1.50","2309113","co38359","norming","","","","","","",""
"3703.6199999994133","","","post_mooney1_questions","survey-likert","358","1100283","0.0-6.0-2.50","2309113","co38359","norming","","","{""curiosity"":5,""confidence"":1}","[0,1]","../img/tt/1234tt.jpg","",""
"1925.8149999994785","","","recognition","survey-text","359","1102211","0.0-6.0-3.50","2309113","co38359","norming","","","{""guess"":""lake""}","","../img/tt/1234tt.jpg","",""
"null","../img/gs/1234gs.jpg","null","reveal","image-keyboard-response","360","1104213","0.0-6.0-4.50","2309113","co38359","norming","","","","","","",""
"null","../img/tt/1234tt.jpg","null","mooney2","image-keyboard-response","361","1106214","0.0-6.0-5.50","2309113","co38359","norming","","","","","","",""
"2162.5800000000745","","","post_reveal_questions","survey-likert","362","1108379","0.0-6.0-6.50","2309113","co38359","norming","","","{""aha"":5}","[0]","../img/tt/1234tt.jpg","",""
"null","<div style=""font-size:60px;""> </div>","null","fixation","html-keyboard-response","363","1108580","0.0-6.0-0.51","2309113","co38359","norming","","","","","","",""
"null","../img/tt/1236tt.jpg","null","mooney1","image-keyboard-response","364","1111593","0.0-6.0-1.51","2309113","co38359","norming","","","","","","",""
"2935.7399999999907","","","post_mooney1_questions","survey-likert","365","1114532","0.0-6.0-2.51","2309113","co38359","norming","","","{""curiosity"":5,""confidence"":1}","[0,1]","../img/tt/1236tt.jpg","",""
"1885.9899999997579","","","recognition","survey-text","366","1116419","0.0-6.0-3.51","2309113","co38359","norming","","","{""guess"":""tree""}","","../img/tt/1236tt.jpg","",""
"null","../img/gs/1236gs.jpg","null","reveal","image-keyboard-response","367","1118422","0.0-6.0-4.51","2309113","co38359","norming","","","","","","",""
"null","../img/tt/1236tt.jpg","null","mooney2","image-keyboard-response","368","1120424","0.0-6.0-5.51","2309113","co38359","norming","","","","","","",""
"1680.4750000000931","","","post_reveal_questions","survey-likert","369","1122107","0.0-6.0-6.51","2309113","co38359","norming","","","{""aha"":4}","[0]","../img/tt/1236tt.jpg","",""
"null","<div style=""font-size:60px;""> </div>","null","fixation","html-keyboard-response","370","1122309","0.0-6.0-0.52","2309113","co38359","norming","","","","","","",""
"null","../img/tt/1130tt.jpg","null","mooney1","image-keyboard-response","371","1125312","0.0-6.0-1.52","2309113","co38359","norming","","","","","","",""
"3400.230000000214","","","post_mooney1_questions","survey-likert","372","1128716","0.0-6.0-2.52","2309113","co38359","norming","","","{""curiosity"":5,""confidence"":0}","[0,1]","../img/tt/1130tt.jpg","",""
"3718.215000000084","","","recognition","survey-text","373","1132436","0.0-6.0-3.52","2309113","co38359","norming","","","{""guess"":""cycle""}","","../img/tt/1130tt.jpg","",""
"null","../img/gs/1130gs.jpg","null","reveal","image-keyboard-response","374","1134443","0.0-6.0-4.52","2309113","co38359","norming","","","","","","",""
"null","../img/tt/1130tt.jpg","null","mooney2","image-keyboard-response","375","1136445","0.0-6.0-5.52","2309113","co38359","norming","","","","","","",""
"1620.649999999674","","","post_reveal_questions","survey-likert","376","1138068","0.0-6.0-6.52","2309113","co38359","norming","","","{""aha"":3}","[0]","../img/tt/1130tt.jpg","",""
"null","<div style=""font-size:60px;""> </div>","null","fixation","html-keyboard-response","377","1138269","0.0-6.0-0.53","2309113","co38359","norming","","","","","","",""
"null","../img/tt/046tt.jpg","null","mooney1","image-keyboard-response","378","1141274","0.0-6.0-1.53","2309113","co38359","norming","","","","","","",""
"3463.2400000002235","","","post_mooney1_questions","survey-likert","379","1144740","0.0-6.0-2.53","2309113","co38359","norming","","","{""curiosity"":6,""confidence"":0}","[0,1]","../img/tt/046tt.jpg","",""
"1302.0000000004657","","","recognition","survey-text","380","1146044","0.0-6.0-3.53","2309113","co38359","norming","","","{""guess"":""""}","","../img/tt/046tt.jpg","",""
"null","../img/gs/046gs.jpg","null","reveal","image-keyboard-response","381","1148052","0.0-6.0-4.53","2309113","co38359","norming","","","","","","",""
"null","../img/tt/046tt.jpg","null","mooney2","image-keyboard-response","382","1150055","0.0-6.0-5.53","2309113","co38359","norming","","","","","","",""
"1930.529999999795","","","post_reveal_questions","survey-likert","383","1151988","0.0-6.0-6.53","2309113","co38359","norming","","","{""aha"":2}","[0]","../img/tt/046tt.jpg","",""
"null","<div style=""font-size:60px;""> </div>","null","fixation","html-keyboard-response","384","1152193","0.0-6.0-0.54","2309113","co38359","norming","","","","","","",""
"null","../img/tt/517tt.jpg","null","mooney1","image-keyboard-response","385","1155199","0.0-6.0-1.54","2309113","co38359","norming","","","","","","",""
"5617.909999999916","","","post_mooney1_questions","survey-likert","386","1160820","0.0-6.0-2.54","2309113","co38359","norming","","","{""curiosity"":5,""confidence"":1}","[0,1]","../img/tt/517tt.jpg","",""
"1966.0549999999348","","","recognition","survey-text","387","1162788","0.0-6.0-3.54","2309113","co38359","norming","","","{""guess"":""dog""}","","../img/tt/517tt.jpg","",""
"null","../img/gs/517gs.jpg","null","reveal","image-keyboard-response","388","1164796","0.0-6.0-4.54","2309113","co38359","norming","","","","","","",""
"null","../img/tt/517tt.jpg","null","mooney2","image-keyboard-response","389","1166806","0.0-6.0-5.54","2309113","co38359","norming","","","","","","",""
"2011.0849999999627","","","post_reveal_questions","survey-likert","390","1168820","0.0-6.0-6.54","2309113","co38359","norming","","","{""aha"":4}","[0]","../img/tt/517tt.jpg","",""
"null","<div style=""font-size:60px;""> </div>","null","fixation","html-keyboard-response","391","1169022","0.0-6.0-0.55","2309113","co38359","norming","","","","","","",""
"null","../img/tt/036tt.jpg","null","mooney1","image-keyboard-response","392","1172024","0.0-6.0-1.55","2309113","co38359","norming","","","","","","",""
"6735.970000000671","","","post_mooney1_questions","survey-likert","393","1178764","0.0-6.0-2.55","2309113","co38359","norming","","","{""curiosity"":6,""confidence"":1}","[0,1]","../img/tt/036tt.jpg","",""
"10518.254999999888","","","recognition","survey-text","394","1189277","0.0-6.0-3.55","2309113","co38359","norming","","","{""guess"":""paint splatters""}","","../img/tt/036tt.jpg","",""
"null","../img/gs/036gs.jpg","null","reveal","image-keyboard-response","395","1191282","0.0-6.0-4.55","2309113","co38359","norming","","","","","","",""
"null","../img/tt/036tt.jpg","null","mooney2","image-keyboard-response","396","1193290","0.0-6.0-5.55","2309113","co38359","norming","","","","","","",""
"1920.5200000004843","","","post_reveal_questions","survey-likert","397","1195213","0.0-6.0-6.55","2309113","co38359","norming","","","{""aha"":4}","[0]","../img/tt/036tt.jpg","",""
"null","<div style=""font-size:60px;""> </div>","null","fixation","html-keyboard-response","398","1195414","0.0-6.0-0.56","2309113","co38359","norming","","","","","","",""
"null","../img/tt/1143tt.jpg","null","mooney1","image-keyboard-response","399","1198417","0.0-6.0-1.56","2309113","co38359","norming","","","","","","",""
"3761.0150000001304","","","post_mooney1_questions","survey-likert","400","1202181","0.0-6.0-2.56","2309113","co38359","norming","","","{""curiosity"":5,""confidence"":0}","[0,1]","../img/tt/1143tt.jpg","",""
"4854.0449999999255","","","recognition","survey-text","401","1207037","0.0-6.0-3.56","2309113","co38359","norming","","","{""guess"":""classroom""}","","../img/tt/1143tt.jpg","",""
"null","../img/gs/1143gs.jpg","null","reveal","image-keyboard-response","402","1209038","0.0-6.0-4.56","2309113","co38359","norming","","","","","","",""
"null","../img/tt/1143tt.jpg","null","mooney2","image-keyboard-response","403","1211041","0.0-6.0-5.56","2309113","co38359","norming","","","","","","",""
"1841.5699999995995","","","post_reveal_questions","survey-likert","404","1212884","0.0-6.0-6.56","2309113","co38359","norming","","","{""aha"":4}","[0]","../img/tt/1143tt.jpg","",""
"null","<div style=""font-size:60px;""> </div>","null","fixation","html-keyboard-response","405","1213086","0.0-6.0-0.57","2309113","co38359","norming","","","","","","",""
"null","../img/tt/559tt.jpg","null","mooney1","image-keyboard-response","406","1216089","0.0-6.0-1.57","2309113","co38359","norming","","","","","","",""
"3297.0000000006985","","","post_mooney1_questions","survey-likert","407","1219389","0.0-6.0-2.57","2309113","co38359","norming","","","{""curiosity"":5,""confidence"":0}","[0,1]","../img/tt/559tt.jpg","",""
"533.9949999996461","","","recognition","survey-text","408","1219925","0.0-6.0-3.57","2309113","co38359","norming","","","{""guess"":""""}","","../img/tt/559tt.jpg","",""
"null","../img/gs/559gs.jpg","null","reveal","image-keyboard-response","409","1221934","0.0-6.0-4.57","2309113","co38359","norming","","","","","","",""
"null","../img/tt/559tt.jpg","null","mooney2","image-keyboard-response","410","1223937","0.0-6.0-5.57","2309113","co38359","norming","","","","","","",""
"1584.9200000001583","","","post_reveal_questions","survey-likert","411","1225525","0.0-6.0-6.57","2309113","co38359","norming","","","{""aha"":3}","[0]","../img/tt/559tt.jpg","",""
"null","<div style=""font-size:60px;""> </div>","null","fixation","html-keyboard-response","412","1225726","0.0-6.0-0.58","2309113","co38359","norming","","","","","","",""
"null","../img/tt/124tt.jpg","null","mooney1","image-keyboard-response","413","1228729","0.0-6.0-1.58","2309113","co38359","norming","","","","","","",""
"4360.589999999385","","","post_mooney1_questions","survey-likert","414","1233093","0.0-6.0-2.58","2309113","co38359","norming","","","{""curiosity"":5,""confidence"":1}","[0,1]","../img/tt/124tt.jpg","",""
"2486.114999999758","","","recognition","survey-text","415","1235581","0.0-6.0-3.58","2309113","co38359","norming","","","{""guess"":""monkey""}","","../img/tt/124tt.jpg","",""
"null","../img/gs/124gs.jpg","null","reveal","image-keyboard-response","416","1237587","0.0-6.0-4.58","2309113","co38359","norming","","","","","","",""
"null","../img/tt/124tt.jpg","null","mooney2","image-keyboard-response","417","1239588","0.0-6.0-5.58","2309113","co38359","norming","","","","","","",""
"3301.4149999998044","","","post_reveal_questions","survey-likert","418","1242892","0.0-6.0-6.58","2309113","co38359","norming","","","{""aha"":2}","[0]","../img/tt/124tt.jpg","",""
"null","<div style=""font-size:60px;""> </div>","null","fixation","html-keyboard-response","419","1243093","0.0-6.0-0.59","2309113","co38359","norming","","","","","","",""
"null","../img/tt/105tt.jpg","null","mooney1","image-keyboard-response","420","1246106","0.0-6.0-1.59","2309113","co38359","norming","","","","","","",""
"2871.3300000000745","","","post_mooney1_questions","survey-likert","421","1248988","0.0-6.0-2.59","2309113","co38359","norming","","","{""curiosity"":6,""confidence"":0}","[0,1]","../img/tt/105tt.jpg","",""
"742.375","","","recognition","survey-text","422","1249731","0.0-6.0-3.59","2309113","co38359","norming","","","{""guess"":""""}","","../img/tt/105tt.jpg","",""
"null","../img/gs/105gs.jpg","null","reveal","image-keyboard-response","423","1251737","0.0-6.0-4.59","2309113","co38359","norming","","","","","","",""
"null","../img/tt/105tt.jpg","null","mooney2","image-keyboard-response","424","1253740","0.0-6.0-5.59","2309113","co38359","norming","","","","","","",""
"1813.6100000001024","","","post_reveal_questions","survey-likert","425","1255556","0.0-6.0-6.59","2309113","co38359","norming","","","{""aha"":5}","[0]","../img/tt/105tt.jpg","",""
"null","<div style=""font-size:60px;""> </div>","null","fixation","html-keyboard-response","426","1255757","0.0-6.0-0.60","2309113","co38359","norming","","","","","","",""
"null","../img/tt/524tt.jpg","null","mooney1","image-keyboard-response","427","1258761","0.0-6.0-1.60","2309113","co38359","norming","","","","","","",""
"2735.684999999823","","","post_mooney1_questions","survey-likert","428","1261500","0.0-6.0-2.60","2309113","co38359","norming","","","{""curiosity"":5,""confidence"":1}","[0,1]","../img/tt/524tt.jpg","",""
"2438.3050000006333","","","recognition","survey-text","429","1263940","0.0-6.0-3.60","2309113","co38359","norming","","","{""guess"":""horse""}","","../img/tt/524tt.jpg","",""
"null","../img/gs/524gs.jpg","null","reveal","image-keyboard-response","430","1265949","0.0-6.0-4.60","2309113","co38359","norming","","","","","","",""
"null","../img/tt/524tt.jpg","null","mooney2","image-keyboard-response","431","1267952","0.0-6.0-5.60","2309113","co38359","norming","","","","","","",""
"1906.434999999823","","","post_reveal_questions","survey-likert","432","1269860","0.0-6.0-6.60","2309113","co38359","norming","","","{""aha"":4}","[0]","../img/tt/524tt.jpg","",""
"null","<div style=""font-size:60px;""> </div>","null","fixation","html-keyboard-response","433","1270061","0.0-6.0-0.61","2309113","co38359","norming","","","","","","",""
"null","../img/tt/1189tt.jpg","null","mooney1","image-keyboard-response","434","1273073","0.0-6.0-1.61","2309113","co38359","norming","","","","","","",""
"3791.500000000233","","","post_mooney1_questions","survey-likert","435","1276868","0.0-6.0-2.61","2309113","co38359","norming","","","{""curiosity"":5,""confidence"":1}","[0,1]","../img/tt/1189tt.jpg","",""
"3246.3249999999534","","","recognition","survey-text","436","1280116","0.0-6.0-3.61","2309113","co38359","norming","","","{""guess"":""river""}","","../img/tt/1189tt.jpg","",""
"null","../img/gs/1189gs.jpg","null","reveal","image-keyboard-response","437","1282117","0.0-6.0-4.61","2309113","co38359","norming","","","","","","",""
"null","../img/tt/1189tt.jpg","null","mooney2","image-keyboard-response","438","1284119","0.0-6.0-5.61","2309113","co38359","norming","","","","","","",""
"2546.220000000205","","","post_reveal_questions","survey-likert","439","1286668","0.0-6.0-6.61","2309113","co38359","norming","","","{""aha"":4}","[0]","../img/tt/1189tt.jpg","",""
"null","<div style=""font-size:60px;""> </div>","null","fixation","html-keyboard-response","440","1286870","0.0-6.0-0.62","2309113","co38359","norming","","","","","","",""
"null","../img/tt/1276tt.jpg","null","mooney1","image-keyboard-response","441","1289879","0.0-6.0-1.62","2309113","co38359","norming","","","","","","",""
"3329.314999999944","","","post_mooney1_questions","survey-likert","442","1293212","0.0-6.0-2.62","2309113","co38359","norming","","","{""curiosity"":6,""confidence"":0}","[0,1]","../img/tt/1276tt.jpg","",""
"525.7500000006985","","","recognition","survey-text","443","1293739","0.0-6.0-3.62","2309113","co38359","norming","","","{""guess"":""""}","","../img/tt/1276tt.jpg","",""
"null","../img/gs/1276gs.jpg","null","reveal","image-keyboard-response","444","1295750","0.0-6.0-4.62","2309113","co38359","norming","","","","","","",""
"null","../img/tt/1276tt.jpg","null","mooney2","image-keyboard-response","445","1297759","0.0-6.0-5.62","2309113","co38359","norming","","","","","","",""
"1185.7549999994226","","","post_reveal_questions","survey-likert","446","1298948","0.0-6.0-6.62","2309113","co38359","norming","","","{""aha"":2}","[0]","../img/tt/1276tt.jpg","",""
"null","<div style=""font-size:60px;""> </div>","null","fixation","html-keyboard-response","447","1299149","0.0-6.0-0.63","2309113","co38359","norming","","","","","","",""
"null","../img/tt/1037tt.jpg","null","mooney1","image-keyboard-response","448","1302155","0.0-6.0-1.63","2309113","co38359","norming","","","","","","",""
"4365.864999999758","","","post_mooney1_questions","survey-likert","449","1306524","0.0-6.0-2.63","2309113","co38359","norming","","","{""curiosity"":5,""confidence"":0}","[0,1]","../img/tt/1037tt.jpg","",""
"2166.200000000652","","","recognition","survey-text","450","1308687","0.0-6.0-3.63","2309113","co38359","norming","","","{""guess"":""tree""}","","../img/tt/1037tt.jpg","",""
"null","../img/gs/1037gs.jpg","null","reveal","image-keyboard-response","451","1310689","0.0-6.0-4.63","2309113","co38359","norming","","","","","","",""
"null","../img/tt/1037tt.jpg","null","mooney2","image-keyboard-response","452","1312694","0.0-6.0-5.63","2309113","co38359","norming","","","","","","",""
"2757.68499999959","","","post_reveal_questions","survey-likert","453","1315455","0.0-6.0-6.63","2309113","co38359","norming","","","{""aha"":6}","[0]","../img/tt/1037tt.jpg","",""
"null","<div style=""font-size:60px;""> </div>","null","fixation","html-keyboard-response","454","1315657","0.0-6.0-0.64","2309113","co38359","norming","","","","","","",""
"null","../img/tt/1200tt.jpg","null","mooney1","image-keyboard-response","455","1318663","0.0-6.0-1.64","2309113","co38359","norming","","","","","","",""
"3429.3199999993667","","","post_mooney1_questions","survey-likert","456","1322095","0.0-6.0-2.64","2309113","co38359","norming","","","{""curiosity"":5,""confidence"":1}","[0,1]","../img/tt/1200tt.jpg","",""
"2414.0050000005867","","","recognition","survey-text","457","1324511","0.0-6.0-3.64","2309113","co38359","norming","","","{""guess"":""bar""}","","../img/tt/1200tt.jpg","",""
"null","../img/gs/1200gs.jpg","null","reveal","image-keyboard-response","458","1326521","0.0-6.0-4.64","2309113","co38359","norming","","","","","","",""
"null","../img/tt/1200tt.jpg","null","mooney2","image-keyboard-response","459","1328524","0.0-6.0-5.64","2309113","co38359","norming","","","","","","",""
"1560.8700000003446","","","post_reveal_questions","survey-likert","460","1330087","0.0-6.0-6.64","2309113","co38359","norming","","","{""aha"":4}","[0]","../img/tt/1200tt.jpg","",""
"null","<div style=""font-size:60px;""> </div>","null","fixation","html-keyboard-response","461","1330289","0.0-6.0-0.65","2309113","co38359","norming","","","","","","",""
"null","../img/tt/1069tt.jpg","null","mooney1","image-keyboard-response","462","1333293","0.0-6.0-1.65","2309113","co38359","norming","","","","","","",""
"2998.79499999946","","","post_mooney1_questions","survey-likert","463","1336295","0.0-6.0-2.65","2309113","co38359","norming","","","{""curiosity"":6,""confidence"":0}","[0,1]","../img/tt/1069tt.jpg","",""
"2917.8850000000093","","","recognition","survey-text","464","1339215","0.0-6.0-3.65","2309113","co38359","norming","","","{""guess"":""palmtree""}","","../img/tt/1069tt.jpg","",""
"null","../img/gs/1069gs.jpg","null","reveal","image-keyboard-response","465","1341223","0.0-6.0-4.65","2309113","co38359","norming","","","","","","",""
"null","../img/tt/1069tt.jpg","null","mooney2","image-keyboard-response","466","1343224","0.0-6.0-5.65","2309113","co38359","norming","","","","","","",""
"1404.294999999227","","","post_reveal_questions","survey-likert","467","1344631","0.0-6.0-6.65","2309113","co38359","norming","","","{""aha"":3}","[0]","../img/tt/1069tt.jpg","",""
"null","<div style=""font-size:60px;""> </div>","null","fixation","html-keyboard-response","468","1344832","0.0-6.0-0.66","2309113","co38359","norming","","","","","","",""
"null","../img/tt/064tt.jpg","null","mooney1","image-keyboard-response","469","1347843","0.0-6.0-1.66","2309113","co38359","norming","","","","","","",""
"2968.8350000004284","","","post_mooney1_questions","survey-likert","470","1350815","0.0-6.0-2.66","2309113","co38359","norming","","","{""curiosity"":5,""confidence"":0}","[0,1]","../img/tt/064tt.jpg","",""
"3022.2899999998044","","","recognition","survey-text","471","1353839","0.0-6.0-3.66","2309113","co38359","norming","","","{""guess"":""turtle""}","","../img/tt/064tt.jpg","",""
"null","../img/gs/064gs.jpg","null","reveal","image-keyboard-response","472","1355845","0.0-6.0-4.66","2309113","co38359","norming","","","","","","",""
"null","../img/tt/064tt.jpg","null","mooney2","image-keyboard-response","473","1357846","0.0-6.0-5.66","2309113","co38359","norming","","","","","","",""
"1862.6149999999907","","","post_reveal_questions","survey-likert","474","1359711","0.0-6.0-6.66","2309113","co38359","norming","","","{""aha"":4}","[0]","../img/tt/064tt.jpg","",""
"null","<div style=""font-size:60px;""> </div>","null","fixation","html-keyboard-response","475","1359912","0.0-6.0-0.67","2309113","co38359","norming","","","","","","",""
"null","../img/tt/329tt.jpg","null","mooney1","image-keyboard-response","476","1362915","0.0-6.0-1.67","2309113","co38359","norming","","","","","","",""
"3843.0500000005122","","","post_mooney1_questions","survey-likert","477","1366759","0.0-6.0-2.67","2309113","co38359","norming","","","{""curiosity"":5,""confidence"":0}","[0,1]","../img/tt/329tt.jpg","",""
"1893.8349999999627","","","recognition","survey-text","478","1368655","0.0-6.0-3.67","2309113","co38359","norming","","","{""guess"":""rock""}","","../img/tt/329tt.jpg","",""
"null","../img/gs/329gs.jpg","null","reveal","image-keyboard-response","479","1370654","0.0-6.0-4.67","2309113","co38359","norming","","","","","","",""
"null","../img/tt/329tt.jpg","null","mooney2","image-keyboard-response","480","1372667","0.0-6.0-5.67","2309113","co38359","norming","","","","","","",""
"2134.7249999998603","","","post_reveal_questions","survey-likert","481","1374805","0.0-6.0-6.67","2309113","co38359","norming","","","{""aha"":4}","[0]","../img/tt/329tt.jpg","",""
"null","<div style=""font-size:60px;""> </div>","null","fixation","html-keyboard-response","482","1375006","0.0-6.0-0.68","2309113","co38359","norming","","","","","","",""
"null","../img/tt/1251tt.jpg","null","mooney1","image-keyboard-response","483","1378015","0.0-6.0-1.68","2309113","co38359","norming","","","","","","",""
"3825.8950000000186","","","post_mooney1_questions","survey-likert","484","1381845","0.0-6.0-2.68","2309113","co38359","norming","","","{""curiosity"":5,""confidence"":0}","[0,1]","../img/tt/1251tt.jpg","",""
"2742.2600000000093","","","recognition","survey-text","485","1384589","0.0-6.0-3.68","2309113","co38359","norming","","","{""guess"":""grot""}","","../img/tt/1251tt.jpg","",""
"null","../img/gs/1251gs.jpg","null","reveal","image-keyboard-response","486","1386597","0.0-6.0-4.68","2309113","co38359","norming","","","","","","",""
"null","../img/tt/1251tt.jpg","null","mooney2","image-keyboard-response","487","1388599","0.0-6.0-5.68","2309113","co38359","norming","","","","","","",""
"2114.594999999972","","","post_reveal_questions","survey-likert","488","1390717","0.0-6.0-6.68","2309113","co38359","norming","","","{""aha"":4}","[0]","../img/tt/1251tt.jpg","",""
"null","<div style=""font-size:60px;""> </div>","null","fixation","html-keyboard-response","489","1390918","0.0-6.0-0.69","2309113","co38359","norming","","","","","","",""
"null","../img/tt/273tt.jpg","null","mooney1","image-keyboard-response","490","1393920","0.0-6.0-1.69","2309113","co38359","norming","","","","","","",""
"5513.7299999997485","","","post_mooney1_questions","survey-likert","491","1399437","0.0-6.0-2.69","2309113","co38359","norming","","","{""curiosity"":1,""confidence"":4}","[0,1]","../img/tt/273tt.jpg","",""
"4317.850000000326","","","recognition","survey-text","492","1403757","0.0-6.0-3.69","2309113","co38359","norming","","","{""guess"":""tongue""}","","../img/tt/273tt.jpg","",""
"null","../img/gs/273gs.jpg","null","reveal","image-keyboard-response","493","1405761","0.0-6.0-4.69","2309113","co38359","norming","","","","","","",""
"null","../img/tt/273tt.jpg","null","mooney2","image-keyboard-response","494","1407772","0.0-6.0-5.69","2309113","co38359","norming","","","","","","",""
"2006.0299999995623","","","post_reveal_questions","survey-likert","495","1409781","0.0-6.0-6.69","2309113","co38359","norming","","","{""aha"":5}","[0]","../img/tt/273tt.jpg","",""
"null","<div style=""font-size:60px;""> </div>","null","fixation","html-keyboard-response","496","1409984","0.0-6.0-0.70","2309113","co38359","norming","","","","","","",""
"null","../img/tt/1101tt.jpg","null","mooney1","image-keyboard-response","497","1412988","0.0-6.0-1.70","2309113","co38359","norming","","","","","","",""
"2791.484999999637","","","post_mooney1_questions","survey-likert","498","1415781","0.0-6.0-2.70","2309113","co38359","norming","","","{""curiosity"":5,""confidence"":1}","[0,1]","../img/tt/1101tt.jpg","",""
"3366.3299999998417","","","recognition","survey-text","499","1419149","0.0-6.0-3.70","2309113","co38359","norming","","","{""guess"":""person""}","","../img/tt/1101tt.jpg","",""
"null","../img/gs/1101gs.jpg","null","reveal","image-keyboard-response","500","1421150","0.0-6.0-4.70","2309113","co38359","norming","","","","","","",""
"null","../img/tt/1101tt.jpg","null","mooney2","image-keyboard-response","501","1423155","0.0-6.0-5.70","2309113","co38359","norming","","","","","","",""
"1678.6400000001304","","","post_reveal_questions","survey-likert","502","1424837","0.0-6.0-6.70","2309113","co38359","norming","","","{""aha"":4}","[0]","../img/tt/1101tt.jpg","",""
"null","<div style=""font-size:60px;""> </div>","null","fixation","html-keyboard-response","503","1425038","0.0-6.0-0.71","2309113","co38359","norming","","","","","","",""
"null","../img/tt/121tt.jpg","null","mooney1","image-keyboard-response","504","1428041","0.0-6.0-1.71","2309113","co38359","norming","","","","","","",""
"2815.8850000000093","","","post_mooney1_questions","survey-likert","505","1430866","0.0-6.0-2.71","2309113","co38359","norming","","","{""curiosity"":5,""confidence"":0}","[0,1]","../img/tt/121tt.jpg","",""
"510.5400000002701","","","recognition","survey-text","506","1431379","0.0-6.0-3.71","2309113","co38359","norming","","","{""guess"":""""}","","../img/tt/121tt.jpg","",""
"null","../img/gs/121gs.jpg","null","reveal","image-keyboard-response","507","1433381","0.0-6.0-4.71","2309113","co38359","norming","","","","","","",""
"null","../img/tt/121tt.jpg","null","mooney2","image-keyboard-response","508","1435384","0.0-6.0-5.71","2309113","co38359","norming","","","","","","",""
"1703.9050000002608","","","post_reveal_questions","survey-likert","509","1437091","0.0-6.0-6.71","2309113","co38359","norming","","","{""aha"":2}","[0]","../img/tt/121tt.jpg","",""
"null","<div style=""font-size:60px;""> </div>","null","fixation","html-keyboard-response","510","1437293","0.0-6.0-0.72","2309113","co38359","norming","","","","","","",""
"null","../img/tt/416tt.jpg","null","mooney1","image-keyboard-response","511","1440297","0.0-6.0-1.72","2309113","co38359","norming","","","","","","",""
"3350.4250000005122","","","post_mooney1_questions","survey-likert","512","1443651","0.0-6.0-2.72","2309113","co38359","norming","","","{""curiosity"":5,""confidence"":1}","[0,1]","../img/tt/416tt.jpg","",""
"3005.855000000447","","","recognition","survey-text","513","1446658","0.0-6.0-3.72","2309113","co38359","norming","","","{""guess"":""ostrich""}","","../img/tt/416tt.jpg","",""
"null","../img/gs/416gs.jpg","null","reveal","image-keyboard-response","514","1448666","0.0-6.0-4.72","2309113","co38359","norming","","","","","","",""
"null","../img/tt/416tt.jpg","null","mooney2","image-keyboard-response","515","1450676","0.0-6.0-5.72","2309113","co38359","norming","","","","","","",""
"2452.265000000829","","","post_reveal_questions","survey-likert","516","1453131","0.0-6.0-6.72","2309113","co38359","norming","","","{""aha"":2}","[0]","../img/tt/416tt.jpg","",""
"null","<div style=""font-size:60px;""> </div>","null","fixation","html-keyboard-response","517","1453332","0.0-6.0-0.73","2309113","co38359","norming","","","","","","",""
"null","../img/tt/013tt.jpg","null","mooney1","image-keyboard-response","518","1456335","0.0-6.0-1.73","2309113","co38359","norming","","","","","","",""
"2840.989999999758","","","post_mooney1_questions","survey-likert","519","1459179","0.0-6.0-2.73","2309113","co38359","norming","","","{""curiosity"":5,""confidence"":1}","[0,1]","../img/tt/013tt.jpg","",""
"1989.7550000005867","","","recognition","survey-text","520","1461171","0.0-6.0-3.73","2309113","co38359","norming","","","{""guess"":""cat""}","","../img/tt/013tt.jpg","",""
"null","../img/gs/013gs.jpg","null","reveal","image-keyboard-response","521","1463176","0.0-6.0-4.73","2309113","co38359","norming","","","","","","",""
"null","../img/tt/013tt.jpg","null","mooney2","image-keyboard-response","522","1465181","0.0-6.0-5.73","2309113","co38359","norming","","","","","","",""
"1483.0999999993946","","","post_reveal_questions","survey-likert","523","1466667","0.0-6.0-6.73","2309113","co38359","norming","","","{""aha"":4}","[0]","../img/tt/013tt.jpg","",""
"null","<div style=""font-size:60px;""> </div>","null","fixation","html-keyboard-response","524","1466869","0.0-6.0-0.74","2309113","co38359","norming","","","","","","",""
"null","../img/tt/063tt.jpg","null","mooney1","image-keyboard-response","525","1469876","0.0-6.0-1.74","2309113","co38359","norming","","","","","","",""
"4028.149999999907","","","post_mooney1_questions","survey-likert","526","1473907","0.0-6.0-2.74","2309113","co38359","norming","","","{""curiosity"":6,""confidence"":1}","[0,1]","../img/tt/063tt.jpg","",""
"2797.945000000298","","","recognition","survey-text","527","1476707","0.0-6.0-3.74","2309113","co38359","norming","","","{""guess"":""snack""}","","../img/tt/063tt.jpg","",""
"null","../img/gs/063gs.jpg","null","reveal","image-keyboard-response","528","1478709","0.0-6.0-4.74","2309113","co38359","norming","","","","","","",""
"null","../img/tt/063tt.jpg","null","mooney2","image-keyboard-response","529","1480715","0.0-6.0-5.74","2309113","co38359","norming","","","","","","",""
"3397.0400000000373","","","post_reveal_questions","survey-likert","530","1484115","0.0-6.0-6.74","2309113","co38359","norming","","","{""aha"":1}","[0]","../img/tt/063tt.jpg","",""
"null","<div style=""font-size:60px;""> </div>","null","fixation","html-keyboard-response","531","1484316","0.0-6.0-0.75","2309113","co38359","norming","","","","","","",""
"null","../img/tt/1123tt.jpg","null","mooney1","image-keyboard-response","532","1487326","0.0-6.0-1.75","2309113","co38359","norming","","","","","","",""
"3336.8549999995157","","","post_mooney1_questions","survey-likert","533","1490668","0.0-6.0-2.75","2309113","co38359","norming","","","{""curiosity"":5,""confidence"":1}","[0,1]","../img/tt/1123tt.jpg","",""
"2469.954999999376","","","recognition","survey-text","534","1493139","0.0-6.0-3.75","2309113","co38359","norming","","","{""guess"":""ball""}","","../img/tt/1123tt.jpg","",""
"null","../img/gs/1123gs.jpg","null","reveal","image-keyboard-response","535","1495141","0.0-6.0-4.75","2309113","co38359","norming","","","","","","",""
"null","../img/tt/1123tt.jpg","null","mooney2","image-keyboard-response","536","1497144","0.0-6.0-5.75","2309113","co38359","norming","","","","","","",""
"1649.1250000009313","","","post_reveal_questions","survey-likert","537","1498796","0.0-6.0-6.75","2309113","co38359","norming","","","{""aha"":4}","[0]","../img/tt/1123tt.jpg","",""
"null","<div style=""font-size:60px;""> </div>","null","fixation","html-keyboard-response","538","1498997","0.0-6.0-0.76","2309113","co38359","norming","","","","","","",""
"null","../img/tt/405tt.jpg","null","mooney1","image-keyboard-response","539","1502005","0.0-6.0-1.76","2309113","co38359","norming","","","","","","",""
"2771.125000000233","","","post_mooney1_questions","survey-likert","540","1504780","0.0-6.0-2.76","2309113","co38359","norming","","","{""curiosity"":5,""confidence"":0}","[0,1]","../img/tt/405tt.jpg","",""
"2550.3499999993946","","","recognition","survey-text","541","1507332","0.0-6.0-3.76","2309113","co38359","norming","","","{""guess"":""food""}","","../img/tt/405tt.jpg","",""
"null","../img/gs/405gs.jpg","null","reveal","image-keyboard-response","542","1509335","0.0-6.0-4.76","2309113","co38359","norming","","","","","","",""
"null","../img/tt/405tt.jpg","null","mooney2","image-keyboard-response","543","1511343","0.0-6.0-5.76","2309113","co38359","norming","","","","","","",""
"1553.6050000002142","","","post_reveal_questions","survey-likert","544","1512899","0.0-6.0-6.76","2309113","co38359","norming","","","{""aha"":5}","[0]","../img/tt/405tt.jpg","",""
"null","<div style=""font-size:60px;""> </div>","null","fixation","html-keyboard-response","545","1513101","0.0-6.0-0.77","2309113","co38359","norming","","","","","","",""
"null","../img/tt/507tt.jpg","null","mooney1","image-keyboard-response","546","1516104","0.0-6.0-1.77","2309113","co38359","norming","","","","","","",""
"2560.9500000001863","","","post_mooney1_questions","survey-likert","547","1518668","0.0-6.0-2.77","2309113","co38359","norming","","","{""curiosity"":5,""confidence"":1}","[0,1]","../img/tt/507tt.jpg","",""
"2245.7649999996647","","","recognition","survey-text","548","1520915","0.0-6.0-3.77","2309113","co38359","norming","","","{""guess"":""dog""}","","../img/tt/507tt.jpg","",""
"null","../img/gs/507gs.jpg","null","reveal","image-keyboard-response","549","1522923","0.0-6.0-4.77","2309113","co38359","norming","","","","","","",""
"null","../img/tt/507tt.jpg","null","mooney2","image-keyboard-response","550","1524931","0.0-6.0-5.77","2309113","co38359","norming","","","","","","",""
"1735.094999999972","","","post_reveal_questions","survey-likert","551","1526668","0.0-6.0-6.77","2309113","co38359","norming","","","{""aha"":3}","[0]","../img/tt/507tt.jpg","",""
"null","<div style=""font-size:60px;""> </div>","null","fixation","html-keyboard-response","552","1526869","0.0-6.0-0.78","2309113","co38359","norming","","","","","","",""
