"rt","stimulus","key_press","test_part","trial_type","trial_index","time_elapsed","internal_node_id","totalTime","subject","experiment_name","button_pressed","success","responses","question_order","currentStim","old","correct"
"3763.8999999999214","Welcome to the experiment. This is an online experiment so please don't close the tab/window until we say goodbye.  Press any key to begin.","32","instructions","html-keyboard-response","0","3777","0.0-0.0","2586548","co38539","norming","","","","","","",""
"26310.72999999924","<div style='word-wrap: break-word; width: 900px'><h3>Please consider this information carefully before deciding whether to participate in this research</h3><ul style='text-align: left; font-size: .8em;'><li><b>Purpose of the research</b>: To examine how people process images.</li><li><b>What you will do in this research</b>:  Stimuli (images) will be presented on the computer and you will be asked different questions about them.</li><li><b>Time required</b>: Participation will take between 45 and 60 minutes to complete.</li><li><b>Risks</b>:  There are no anticipated risks associated with participating in this study. The effects of participating should be comparable to those you would experience from viewing a computer monitor for 30 minutes and using a mouse or keyboard.</li><li><b>Benefits</b>:  This study provides no benefits to you individually except for the credit. The study provides important information about the nature of perception and learning.</li><li><b>Confidentiality</b>:  Your participation in this study will remain confidential. No personally identifiable information will be associated with your data. Your de-identified data may be shared with other researchers and used in future projects.</li><li><b>Participation and withdrawal</b>:  Your participation in this study is completely voluntary and you may refuse to participate or you may choose to withdraw at any time without penalty.</li><li><b>How to contact the researchers</b>: If you have questions or concerns about your participation or payment, or want to request a summary of research findings, please contact Sander Van de Cruys (KU Leuven), at sander.vandecruys@kuleuven.be.</li></ul><p>The nature and purpose of this research have been sufficiently explained and I agree to participate in this study.  I understand that I am free to withdraw at any time without incurring any penalty.</p><p>Please consent by clicking the button below to continue. Otherwise, please exit the study at this time.</p></div>","","instructions","html-button-response","1","30089","0.0-1.0","2586548","co38539","norming","0","","","","","",""
"","","","instructions","fullscreen","2","34283","0.0-2.0","2586548","co38539","norming","","true","","","","",""
"33282.45000000061","","","sona","survey-html-form","3","67573","0.0-3.0","2586548","co38539","norming","","","[{""name"":""sonaid"",""value"":""38539""},{""name"":""debrief"",""value"":""no""},{""name"":""datajoin"",""value"":""yes""}]","","","",""
"43810.85499999972","<div style='word-wrap: break-word; width: 900px'><h3>Instructions</h3><p>This experiment will have 3 parts. In the first part you will see a series of distorted images like the one below on the left. As you can see in the righthand image, the distorted images are derived from actual photographs. In what follows, you will <strong>briefly</strong> be presented with <strong>only</strong> the distorted image.</p> <div style='float: left; margin-right: 20px;'><img src='../img/018tt.jpg' height='250' width='250'></img></div><div style='float: right; margin-left: 20px;'><img src='../img/018gs.jpg' height='250' width='250'></img></div><p>Subsequently you will be asked a few questions about the image: One question on how <strong>curious</strong> you are about the solution and one on how <strong>confident</strong> you are that you know the solution.</p>Next, we ask you to make a guess on what is in the image. Note that it is OK to name just the <strong>basic level category</strong>. For example when you see a parrot in the image, 'parrot' will obviously be a correct answer but also correct is 'bird'. However, 'animal' will <strong>not</strong> be counted as a correct response. For the example above, 'rose' would be correct or 'flower', but not 'plant'. When soccer players are depicted, 'soccer', 'football', 'soccer players' will be correct, but not 'humans', 'outdoors', or 'sports'. You do not need to describe the image in full, just name the main object in it <strong>in one or two words</strong>. All images depict objects from one of the following broad level categories: animals, inanimate objects, plants, sports, vehicles, and food. Recognizing means knowing <strong>more</strong> than these broad labels for a given image. But we always encourage you to <strong>make a guess</strong> if you can. Note that you are allowed to use <strong>Dutch and English</strong> in your answers, whatever comes easiest for you.</p><p>Press any key to continue.</p></div>","13","instructions","html-keyboard-response","4","111555","0.0-4.0","2586548","co38539","norming","","","","","","",""
"112527.3849999994","<div style='word-wrap: break-word; width: 900px'><h3>Instructions</h3> <p>Next, the solution image will be revealed to you and you'll be asked to indicate how strong your <strong>aha-experience</strong> was after seeing the solution. This describes the positive feeling of the 'click' you sometimes experience, when the pieces of the 'puzzle' fall together and you suddenly have 'insight' in the image.</p><img src='aha.jpg' height='188' width='250'></img><p>Note that there are no right or wrong answers. We are interested in what <strong>you</strong> see in the image and how <strong>you</strong> feel about it.</p><p>Press any key to start the experiment.</p></div>","13","instructions","html-keyboard-response","5","224323","0.0-5.0","2586548","co38539","norming","","","","","","",""
"null","<div style=""font-size:60px;""> </div>","null","fixation","html-keyboard-response","6","224525","0.0-6.0-0.0","2586548","co38539","norming","","","","","","",""
"null","../img/tt/1154tt.jpg","null","mooney1","image-keyboard-response","7","227536","0.0-6.0-1.0","2586548","co38539","norming","","","","","","",""
"11385.834999999148","","","post_mooney1_questions","survey-likert","8","238923","0.0-6.0-2.0","2586548","co38539","norming","","","{""curiosity"":3,""confidence"":1}","[0,1]","../img/tt/1154tt.jpg","",""
"3925.3899999985006","","","recognition","survey-text","9","242851","0.0-6.0-3.0","2586548","co38539","norming","","","{""guess"":""farmer""}","","../img/tt/1154tt.jpg","",""
"null","../img/gs/1154gs.jpg","null","reveal","image-keyboard-response","10","244859","0.0-6.0-4.0","2586548","co38539","norming","","","","","","",""
"null","../img/tt/1154tt.jpg","null","mooney2","image-keyboard-response","11","246869","0.0-6.0-5.0","2586548","co38539","norming","","","","","","",""
"4348.249999999098","","","post_reveal_questions","survey-likert","12","251219","0.0-6.0-6.0","2586548","co38539","norming","","","{""aha"":5}","[0]","../img/tt/1154tt.jpg","",""
"null","<div style=""font-size:60px;""> </div>","null","fixation","html-keyboard-response","13","251425","0.0-6.0-0.1","2586548","co38539","norming","","","","","","",""
"null","../img/tt/040tt.jpg","null","mooney1","image-keyboard-response","14","254428","0.0-6.0-1.1","2586548","co38539","norming","","","","","","",""
"5388.274999999354","","","post_mooney1_questions","survey-likert","15","259819","0.0-6.0-2.1","2586548","co38539","norming","","","{""curiosity"":4,""confidence"":1}","[0,1]","../img/tt/040tt.jpg","",""
"2230.0150000010035","","","recognition","survey-text","16","262051","0.0-6.0-3.1","2586548","co38539","norming","","","{""guess"":""dog""}","","../img/tt/040tt.jpg","",""
"null","../img/gs/040gs.jpg","null","reveal","image-keyboard-response","17","264061","0.0-6.0-4.1","2586548","co38539","norming","","","","","","",""
"null","../img/tt/040tt.jpg","null","mooney2","image-keyboard-response","18","266070","0.0-6.0-5.1","2586548","co38539","norming","","","","","","",""
"3490.370000001334","","","post_reveal_questions","survey-likert","19","269562","0.0-6.0-6.1","2586548","co38539","norming","","","{""aha"":1}","[0]","../img/tt/040tt.jpg","",""
"null","<div style=""font-size:60px;""> </div>","null","fixation","html-keyboard-response","20","269768","0.0-6.0-0.2","2586548","co38539","norming","","","","","","",""
"null","../img/tt/112tt.jpg","null","mooney1","image-keyboard-response","21","272775","0.0-6.0-1.2","2586548","co38539","norming","","","","","","",""
"8249.370000001334","","","post_mooney1_questions","survey-likert","22","281026","0.0-6.0-2.2","2586548","co38539","norming","","","{""curiosity"":2,""confidence"":1}","[0,1]","../img/tt/112tt.jpg","",""
"5630.0650000011665","","","recognition","survey-text","23","286799","0.0-6.0-3.2","2586548","co38539","norming","","","{""guess"":""car""}","","../img/tt/112tt.jpg","",""
"null","../img/gs/112gs.jpg","null","reveal","image-keyboard-response","24","288809","0.0-6.0-4.2","2586548","co38539","norming","","","","","","",""
"null","../img/tt/112tt.jpg","null","mooney2","image-keyboard-response","25","290812","0.0-6.0-5.2","2586548","co38539","norming","","","","","","",""
"3832.5050000002957","","","post_reveal_questions","survey-likert","26","294647","0.0-6.0-6.2","2586548","co38539","norming","","","{""aha"":3}","[0]","../img/tt/112tt.jpg","",""
"null","<div style=""font-size:60px;""> </div>","null","fixation","html-keyboard-response","27","294851","0.0-6.0-0.3","2586548","co38539","norming","","","","","","",""
"null","../img/tt/315tt.jpg","null","mooney1","image-keyboard-response","28","297857","0.0-6.0-1.3","2586548","co38539","norming","","","","","","",""
"6755.400000000023","","","post_mooney1_questions","survey-likert","29","304615","0.0-6.0-2.3","2586548","co38539","norming","","","{""curiosity"":5,""confidence"":1}","[0,1]","../img/tt/315tt.jpg","",""
"1878.0649999990128","","","recognition","survey-text","30","306495","0.0-6.0-3.3","2586548","co38539","norming","","","{""guess"":""parrot""}","","../img/tt/315tt.jpg","",""
"null","../img/gs/315gs.jpg","null","reveal","image-keyboard-response","31","308503","0.0-6.0-4.3","2586548","co38539","norming","","","","","","",""
"null","../img/tt/315tt.jpg","null","mooney2","image-keyboard-response","32","310514","0.0-6.0-5.3","2586548","co38539","norming","","","","","","",""
"3898.745000000461","","","post_reveal_questions","survey-likert","33","314415","0.0-6.0-6.3","2586548","co38539","norming","","","{""aha"":3}","[0]","../img/tt/315tt.jpg","",""
"null","<div style=""font-size:60px;""> </div>","null","fixation","html-keyboard-response","34","314620","0.0-6.0-0.4","2586548","co38539","norming","","","","","","",""
"null","../img/tt/477tt.jpg","null","mooney1","image-keyboard-response","35","317626","0.0-6.0-1.4","2586548","co38539","norming","","","","","","",""
"6154.565000000759","","","post_mooney1_questions","survey-likert","36","323783","0.0-6.0-2.4","2586548","co38539","norming","","","{""curiosity"":4,""confidence"":1}","[0,1]","../img/tt/477tt.jpg","",""
"3830.034999999043","","","recognition","survey-text","37","327615","0.0-6.0-3.4","2586548","co38539","norming","","","{""guess"":""""}","","../img/tt/477tt.jpg","",""
"null","../img/gs/477gs.jpg","null","reveal","image-keyboard-response","38","329625","0.0-6.0-4.4","2586548","co38539","norming","","","","","","",""
"null","../img/tt/477tt.jpg","null","mooney2","image-keyboard-response","39","331633","0.0-6.0-5.4","2586548","co38539","norming","","","","","","",""
"3652.80999999959","","","post_reveal_questions","survey-likert","40","335287","0.0-6.0-6.4","2586548","co38539","norming","","","{""aha"":4}","[0]","../img/tt/477tt.jpg","",""
"null","<div style=""font-size:60px;""> </div>","null","fixation","html-keyboard-response","41","335490","0.0-6.0-0.5","2586548","co38539","norming","","","","","","",""
"null","../img/tt/118tt.jpg","null","mooney1","image-keyboard-response","42","338493","0.0-6.0-1.5","2586548","co38539","norming","","","","","","",""
"3951.044999999809","","","post_mooney1_questions","survey-likert","43","342447","0.0-6.0-2.5","2586548","co38539","norming","","","{""curiosity"":5,""confidence"":1}","[0,1]","../img/tt/118tt.jpg","",""
"3358.1750000012107","","","recognition","survey-text","44","345807","0.0-6.0-3.5","2586548","co38539","norming","","","{""guess"":""wheel""}","","../img/tt/118tt.jpg","",""
"null","../img/gs/118gs.jpg","null","reveal","image-keyboard-response","45","347832","0.0-6.0-4.5","2586548","co38539","norming","","","","","","",""
"null","../img/tt/118tt.jpg","null","mooney2","image-keyboard-response","46","349842","0.0-6.0-5.5","2586548","co38539","norming","","","","","","",""
"3379.0750000007683","","","post_reveal_questions","survey-likert","47","353223","0.0-6.0-6.5","2586548","co38539","norming","","","{""aha"":6}","[0]","../img/tt/118tt.jpg","",""
"null","<div style=""font-size:60px;""> </div>","null","fixation","html-keyboard-response","48","353426","0.0-6.0-0.6","2586548","co38539","norming","","","","","","",""
"null","../img/tt/296tt.jpg","null","mooney1","image-keyboard-response","49","356438","0.0-6.0-1.6","2586548","co38539","norming","","","","","","",""
"4238.965000000433","","","post_mooney1_questions","survey-likert","50","360679","0.0-6.0-2.6","2586548","co38539","norming","","","{""curiosity"":3,""confidence"":2}","[0,1]","../img/tt/296tt.jpg","",""
"3678.2199999997974","","","recognition","survey-text","51","364359","0.0-6.0-3.6","2586548","co38539","norming","","","{""guess"":""bank""}","","../img/tt/296tt.jpg","",""
"null","../img/gs/296gs.jpg","null","reveal","image-keyboard-response","52","366368","0.0-6.0-4.6","2586548","co38539","norming","","","","","","",""
"null","../img/tt/296tt.jpg","null","mooney2","image-keyboard-response","53","368378","0.0-6.0-5.6","2586548","co38539","norming","","","","","","",""
"3252.6150000012713","","","post_reveal_questions","survey-likert","54","371631","0.0-6.0-6.6","2586548","co38539","norming","","","{""aha"":4}","[0]","../img/tt/296tt.jpg","",""
"null","<div style=""font-size:60px;""> </div>","null","fixation","html-keyboard-response","55","371833","0.0-6.0-0.7","2586548","co38539","norming","","","","","","",""
"null","../img/tt/1089tt.jpg","null","mooney1","image-keyboard-response","56","374834","0.0-6.0-1.7","2586548","co38539","norming","","","","","","",""
"6218.600000000151","","","post_mooney1_questions","survey-likert","57","381055","0.0-6.0-2.7","2586548","co38539","norming","","","{""curiosity"":4,""confidence"":1}","[0,1]","../img/tt/1089tt.jpg","",""
"1542.2049999997253","","","recognition","survey-text","58","382599","0.0-6.0-3.7","2586548","co38539","norming","","","{""guess"":""field""}","","../img/tt/1089tt.jpg","",""
"null","../img/gs/1089gs.jpg","null","reveal","image-keyboard-response","59","384602","0.0-6.0-4.7","2586548","co38539","norming","","","","","","",""
"null","../img/tt/1089tt.jpg","null","mooney2","image-keyboard-response","60","386603","0.0-6.0-5.7","2586548","co38539","norming","","","","","","",""
"3281.9450000006473","","","post_reveal_questions","survey-likert","61","389887","0.0-6.0-6.7","2586548","co38539","norming","","","{""aha"":6}","[0]","../img/tt/1089tt.jpg","",""
"null","<div style=""font-size:60px;""> </div>","null","fixation","html-keyboard-response","62","390092","0.0-6.0-0.8","2586548","co38539","norming","","","","","","",""
"null","../img/tt/440tt.jpg","null","mooney1","image-keyboard-response","63","393098","0.0-6.0-1.8","2586548","co38539","norming","","","","","","",""
"5586.540000000212","","","post_mooney1_questions","survey-likert","64","398687","0.0-6.0-2.8","2586548","co38539","norming","","","{""curiosity"":5,""confidence"":2}","[0,1]","../img/tt/440tt.jpg","",""
"1670.0249999994412","","","recognition","survey-text","65","400359","0.0-6.0-3.8","2586548","co38539","norming","","","{""guess"":""horse""}","","../img/tt/440tt.jpg","",""
"null","../img/gs/440gs.jpg","null","reveal","image-keyboard-response","66","402368","0.0-6.0-4.8","2586548","co38539","norming","","","","","","",""
"null","../img/tt/440tt.jpg","null","mooney2","image-keyboard-response","67","404371","0.0-6.0-5.8","2586548","co38539","norming","","","","","","",""
"4402.479999998817","","","post_reveal_questions","survey-likert","68","408774","0.0-6.0-6.8","2586548","co38539","norming","","","{""aha"":2}","[0]","../img/tt/440tt.jpg","",""
"null","<div style=""font-size:60px;""> </div>","null","fixation","html-keyboard-response","69","408976","0.0-6.0-0.9","2586548","co38539","norming","","","","","","",""
"null","../img/tt/049tt.jpg","null","mooney1","image-keyboard-response","70","411983","0.0-6.0-1.9","2586548","co38539","norming","","","","","","",""
"11356.640000001818","","","post_mooney1_questions","survey-likert","71","423342","0.0-6.0-2.9","2586548","co38539","norming","","","{""curiosity"":3,""confidence"":0}","[0,1]","../img/tt/049tt.jpg","",""
"918.3549999998068","","","recognition","survey-text","72","424262","0.0-6.0-3.9","2586548","co38539","norming","","","{""guess"":""""}","","../img/tt/049tt.jpg","",""
"null","../img/gs/049gs.jpg","null","reveal","image-keyboard-response","73","426268","0.0-6.0-4.9","2586548","co38539","norming","","","","","","",""
"null","../img/tt/049tt.jpg","null","mooney2","image-keyboard-response","74","428276","0.0-6.0-5.9","2586548","co38539","norming","","","","","","",""
"3599.88999999949","","","post_reveal_questions","survey-likert","75","431878","0.0-6.0-6.9","2586548","co38539","norming","","","{""aha"":1}","[0]","../img/tt/049tt.jpg","",""
"null","<div style=""font-size:60px;""> </div>","null","fixation","html-keyboard-response","76","432080","0.0-6.0-0.10","2586548","co38539","norming","","","","","","",""
"null","../img/tt/279tt.jpg","null","mooney1","image-keyboard-response","77","435088","0.0-6.0-1.10","2586548","co38539","norming","","","","","","",""
"4595.099999998638","","","post_mooney1_questions","survey-likert","78","439686","0.0-6.0-2.10","2586548","co38539","norming","","","{""curiosity"":6,""confidence"":1}","[0,1]","../img/tt/279tt.jpg","",""
"1966.37999999983","","","recognition","survey-text","79","441654","0.0-6.0-3.10","2586548","co38539","norming","","","{""guess"":""chicken""}","","../img/tt/279tt.jpg","",""
"null","../img/gs/279gs.jpg","null","reveal","image-keyboard-response","80","443657","0.0-6.0-4.10","2586548","co38539","norming","","","","","","",""
"null","../img/tt/279tt.jpg","null","mooney2","image-keyboard-response","81","445659","0.0-6.0-5.10","2586548","co38539","norming","","","","","","",""
"2417.159999999043","","","post_reveal_questions","survey-likert","82","448078","0.0-6.0-6.10","2586548","co38539","norming","","","{""aha"":5}","[0]","../img/tt/279tt.jpg","",""
"null","<div style=""font-size:60px;""> </div>","null","fixation","html-keyboard-response","83","448281","0.0-6.0-0.11","2586548","co38539","norming","","","","","","",""
"null","../img/tt/1002tt.jpg","null","mooney1","image-keyboard-response","84","451288","0.0-6.0-1.11","2586548","co38539","norming","","","","","","",""
"5419.35999999987","","","post_mooney1_questions","survey-likert","85","456710","0.0-6.0-2.11","2586548","co38539","norming","","","{""curiosity"":4,""confidence"":1}","[0,1]","../img/tt/1002tt.jpg","",""
"1518.4399999998277","","","recognition","survey-text","86","458230","0.0-6.0-3.11","2586548","co38539","norming","","","{""guess"":""dog""}","","../img/tt/1002tt.jpg","",""
"null","../img/gs/1002gs.jpg","null","reveal","image-keyboard-response","87","460240","0.0-6.0-4.11","2586548","co38539","norming","","","","","","",""
"null","../img/tt/1002tt.jpg","null","mooney2","image-keyboard-response","88","462242","0.0-6.0-5.11","2586548","co38539","norming","","","","","","",""
"3625.6849999991246","","","post_reveal_questions","survey-likert","89","465870","0.0-6.0-6.11","2586548","co38539","norming","","","{""aha"":2}","[0]","../img/tt/1002tt.jpg","",""
"null","<div style=""font-size:60px;""> </div>","null","fixation","html-keyboard-response","90","466071","0.0-6.0-0.12","2586548","co38539","norming","","","","","","",""
"null","../img/tt/1043tt.jpg","null","mooney1","image-keyboard-response","91","469076","0.0-6.0-1.12","2586548","co38539","norming","","","","","","",""
"8009.4100000005565","","","post_mooney1_questions","survey-likert","92","477087","0.0-6.0-2.12","2586548","co38539","norming","","","{""curiosity"":6,""confidence"":1}","[0,1]","../img/tt/1043tt.jpg","",""
"5318.085000000778","","","recognition","survey-text","93","482407","0.0-6.0-3.12","2586548","co38539","norming","","","{""guess"":""car""}","","../img/tt/1043tt.jpg","",""
"null","../img/gs/1043gs.jpg","null","reveal","image-keyboard-response","94","484415","0.0-6.0-4.12","2586548","co38539","norming","","","","","","",""
"null","../img/tt/1043tt.jpg","null","mooney2","image-keyboard-response","95","486417","0.0-6.0-5.12","2586548","co38539","norming","","","","","","",""
"13411.834999998973","","","post_reveal_questions","survey-likert","96","499831","0.0-6.0-6.12","2586548","co38539","norming","","","{""aha"":1}","[0]","../img/tt/1043tt.jpg","",""
"null","<div style=""font-size:60px;""> </div>","null","fixation","html-keyboard-response","97","500033","0.0-6.0-0.13","2586548","co38539","norming","","","","","","",""
"null","../img/tt/524tt.jpg","null","mooney1","image-keyboard-response","98","503039","0.0-6.0-1.13","2586548","co38539","norming","","","","","","",""
"5693.750000000349","","","post_mooney1_questions","survey-likert","99","508736","0.0-6.0-2.13","2586548","co38539","norming","","","{""curiosity"":6,""confidence"":3}","[0,1]","../img/tt/524tt.jpg","",""
"2262.18499999959","","","recognition","survey-text","100","510999","0.0-6.0-3.13","2586548","co38539","norming","","","{""guess"":""elephant""}","","../img/tt/524tt.jpg","",""
"null","../img/gs/524gs.jpg","null","reveal","image-keyboard-response","101","513003","0.0-6.0-4.13","2586548","co38539","norming","","","","","","",""
"null","../img/tt/524tt.jpg","null","mooney2","image-keyboard-response","102","515014","0.0-6.0-5.13","2586548","co38539","norming","","","","","","",""
"2856.509999999602","","","post_reveal_questions","survey-likert","103","517871","0.0-6.0-6.13","2586548","co38539","norming","","","{""aha"":1}","[0]","../img/tt/524tt.jpg","",""
"null","<div style=""font-size:60px;""> </div>","null","fixation","html-keyboard-response","104","518076","0.0-6.0-0.14","2586548","co38539","norming","","","","","","",""
"null","../img/tt/1053tt.jpg","null","mooney1","image-keyboard-response","105","521089","0.0-6.0-1.14","2586548","co38539","norming","","","","","","",""
"5276.054999998421","","","post_mooney1_questions","survey-likert","106","526367","0.0-6.0-2.14","2586548","co38539","norming","","","{""curiosity"":6,""confidence"":5}","[0,1]","../img/tt/1053tt.jpg","",""
"1494.2549999996554","","","recognition","survey-text","107","527863","0.0-6.0-3.14","2586548","co38539","norming","","","{""guess"":""cow""}","","../img/tt/1053tt.jpg","",""
"null","../img/gs/1053gs.jpg","null","reveal","image-keyboard-response","108","529874","0.0-6.0-4.14","2586548","co38539","norming","","","","","","",""
"null","../img/tt/1053tt.jpg","null","mooney2","image-keyboard-response","109","531885","0.0-6.0-5.14","2586548","co38539","norming","","","","","","",""
"4168.834999998566","","","post_reveal_questions","survey-likert","110","536055","0.0-6.0-6.14","2586548","co38539","norming","","","{""aha"":1}","[0]","../img/tt/1053tt.jpg","",""
"null","<div style=""font-size:60px;""> </div>","null","fixation","html-keyboard-response","111","536261","0.0-6.0-0.15","2586548","co38539","norming","","","","","","",""
"null","../img/tt/1242tt.jpg","null","mooney1","image-keyboard-response","112","539273","0.0-6.0-1.15","2586548","co38539","norming","","","","","","",""
"5756.424999999581","","","post_mooney1_questions","survey-likert","113","545031","0.0-6.0-2.15","2586548","co38539","norming","","","{""curiosity"":6,""confidence"":4}","[0,1]","../img/tt/1242tt.jpg","",""
"2350.130000000703","","","recognition","survey-text","114","547383","0.0-6.0-3.15","2586548","co38539","norming","","","{""guess"":""fox""}","","../img/tt/1242tt.jpg","",""
"null","../img/gs/1242gs.jpg","null","reveal","image-keyboard-response","115","549389","0.0-6.0-4.15","2586548","co38539","norming","","","","","","",""
"null","../img/tt/1242tt.jpg","null","mooney2","image-keyboard-response","116","551398","0.0-6.0-5.15","2586548","co38539","norming","","","","","","",""
"3615.2799999999115","","","post_reveal_questions","survey-likert","117","555015","0.0-6.0-6.15","2586548","co38539","norming","","","{""aha"":1}","[0]","../img/tt/1242tt.jpg","",""
"null","<div style=""font-size:60px;""> </div>","null","fixation","html-keyboard-response","118","555218","0.0-6.0-0.16","2586548","co38539","norming","","","","","","",""
"null","../img/tt/163tt.jpg","null","mooney1","image-keyboard-response","119","558224","0.0-6.0-1.16","2586548","co38539","norming","","","","","","",""
"6117.404999999097","","","post_mooney1_questions","survey-likert","120","564343","0.0-6.0-2.16","2586548","co38539","norming","","","{""curiosity"":5,""confidence"":2}","[0,1]","../img/tt/163tt.jpg","",""
"1789.9450000004144","","","recognition","survey-text","121","566135","0.0-6.0-3.16","2586548","co38539","norming","","","{""guess"":""woman""}","","../img/tt/163tt.jpg","",""
"null","../img/gs/163gs.jpg","null","reveal","image-keyboard-response","122","568141","0.0-6.0-4.16","2586548","co38539","norming","","","","","","",""
"null","../img/tt/163tt.jpg","null","mooney2","image-keyboard-response","123","570143","0.0-6.0-5.16","2586548","co38539","norming","","","","","","",""
"4054.079999999958","","","post_reveal_questions","survey-likert","124","574199","0.0-6.0-6.16","2586548","co38539","norming","","","{""aha"":4}","[0]","../img/tt/163tt.jpg","",""
"null","<div style=""font-size:60px;""> </div>","null","fixation","html-keyboard-response","125","574408","0.0-6.0-0.17","2586548","co38539","norming","","","","","","",""
"null","../img/tt/055tt.jpg","null","mooney1","image-keyboard-response","126","577414","0.0-6.0-1.17","2586548","co38539","norming","","","","","","",""
"4871.365000000806","","","post_mooney1_questions","survey-likert","127","582287","0.0-6.0-2.17","2586548","co38539","norming","","","{""curiosity"":3,""confidence"":1}","[0,1]","../img/tt/055tt.jpg","",""
"1254.115000001504","","","recognition","survey-text","128","583543","0.0-6.0-3.17","2586548","co38539","norming","","","{""guess"":""sadle""}","","../img/tt/055tt.jpg","",""
"null","../img/gs/055gs.jpg","null","reveal","image-keyboard-response","129","585548","0.0-6.0-4.17","2586548","co38539","norming","","","","","","",""
"null","../img/tt/055tt.jpg","null","mooney2","image-keyboard-response","130","587550","0.0-6.0-5.17","2586548","co38539","norming","","","","","","",""
"5967.334999999381","","","post_reveal_questions","survey-likert","131","593511","0.0-6.0-6.17","2586548","co38539","norming","","","{""aha"":4}","[0]","../img/tt/055tt.jpg","",""
"null","<div style=""font-size:60px;""> </div>","null","fixation","html-keyboard-response","132","593714","0.0-6.0-0.18","2586548","co38539","norming","","","","","","",""
"null","../img/tt/140tt.jpg","null","mooney1","image-keyboard-response","133","596724","0.0-6.0-1.18","2586548","co38539","norming","","","","","","",""
"3768.7800000002608","","","post_mooney1_questions","survey-likert","134","600496","0.0-6.0-2.18","2586548","co38539","norming","","","{""curiosity"":6,""confidence"":6}","[0,1]","../img/tt/140tt.jpg","",""
"1261.7950000002747","","","recognition","survey-text","135","601759","0.0-6.0-3.18","2586548","co38539","norming","","","{""guess"":""fork""}","","../img/tt/140tt.jpg","",""
"null","../img/gs/140gs.jpg","null","reveal","image-keyboard-response","136","603767","0.0-6.0-4.18","2586548","co38539","norming","","","","","","",""
"null","../img/tt/140tt.jpg","null","mooney2","image-keyboard-response","137","605769","0.0-6.0-5.18","2586548","co38539","norming","","","","","","",""
"4492.889999999548","","","post_reveal_questions","survey-likert","138","610263","0.0-6.0-6.18","2586548","co38539","norming","","","{""aha"":0}","[0]","../img/tt/140tt.jpg","",""
"null","<div style=""font-size:60px;""> </div>","null","fixation","html-keyboard-response","139","610464","0.0-6.0-0.19","2586548","co38539","norming","","","","","","",""
"null","../img/tt/1102tt.jpg","null","mooney1","image-keyboard-response","140","613470","0.0-6.0-1.19","2586548","co38539","norming","","","","","","",""
"5055.330000001122","","","post_mooney1_questions","survey-likert","141","618527","0.0-6.0-2.19","2586548","co38539","norming","","","{""curiosity"":3,""confidence"":1}","[0,1]","../img/tt/1102tt.jpg","",""
"6798.039999999688","","","recognition","survey-text","142","625327","0.0-6.0-3.19","2586548","co38539","norming","","","{""guess"":""tractor""}","","../img/tt/1102tt.jpg","",""
"null","../img/gs/1102gs.jpg","null","reveal","image-keyboard-response","143","627330","0.0-6.0-4.19","2586548","co38539","norming","","","","","","",""
"null","../img/tt/1102tt.jpg","null","mooney2","image-keyboard-response","144","629335","0.0-6.0-5.19","2586548","co38539","norming","","","","","","",""
"3070.2950000013225","","","post_reveal_questions","survey-likert","145","632407","0.0-6.0-6.19","2586548","co38539","norming","","","{""aha"":4}","[0]","../img/tt/1102tt.jpg","",""
"null","<div style=""font-size:60px;""> </div>","null","fixation","html-keyboard-response","146","632618","0.0-6.0-0.20","2586548","co38539","norming","","","","","","",""
"null","../img/tt/036tt.jpg","null","mooney1","image-keyboard-response","147","635622","0.0-6.0-1.20","2586548","co38539","norming","","","","","","",""
"6070.395000000717","","","post_mooney1_questions","survey-likert","148","641695","0.0-6.0-2.20","2586548","co38539","norming","","","{""curiosity"":6,""confidence"":1}","[0,1]","../img/tt/036tt.jpg","",""
"2654.1950000009965","","","recognition","survey-text","149","644351","0.0-6.0-3.20","2586548","co38539","norming","","","{""guess"":""spinnenweb""}","","../img/tt/036tt.jpg","",""
"null","../img/gs/036gs.jpg","null","reveal","image-keyboard-response","150","646359","0.0-6.0-4.20","2586548","co38539","norming","","","","","","",""
"null","../img/tt/036tt.jpg","null","mooney2","image-keyboard-response","151","648367","0.0-6.0-5.20","2586548","co38539","norming","","","","","","",""
"3765.990000001737","","","post_reveal_questions","survey-likert","152","652135","0.0-6.0-6.20","2586548","co38539","norming","","","{""aha"":6}","[0]","../img/tt/036tt.jpg","",""
"null","<div style=""font-size:60px;""> </div>","null","fixation","html-keyboard-response","153","652340","0.0-6.0-0.21","2586548","co38539","norming","","","","","","",""
"null","../img/tt/442tt.jpg","null","mooney1","image-keyboard-response","154","655348","0.0-6.0-1.21","2586548","co38539","norming","","","","","","",""
"4368.22500000021","","","post_mooney1_questions","survey-likert","155","659719","0.0-6.0-2.21","2586548","co38539","norming","","","{""curiosity"":6,""confidence"":2}","[0,1]","../img/tt/442tt.jpg","",""
"2486.319999999949","","","recognition","survey-text","156","662207","0.0-6.0-3.21","2586548","co38539","norming","","","{""guess"":""pineapple""}","","../img/tt/442tt.jpg","",""
"null","../img/gs/442gs.jpg","null","reveal","image-keyboard-response","157","664210","0.0-6.0-4.21","2586548","co38539","norming","","","","","","",""
"null","../img/tt/442tt.jpg","null","mooney2","image-keyboard-response","158","666219","0.0-6.0-5.21","2586548","co38539","norming","","","","","","",""
"3473.875000001397","","","post_reveal_questions","survey-likert","159","669695","0.0-6.0-6.21","2586548","co38539","norming","","","{""aha"":5}","[0]","../img/tt/442tt.jpg","",""
"null","<div style=""font-size:60px;""> </div>","null","fixation","html-keyboard-response","160","669896","0.0-6.0-0.22","2586548","co38539","norming","","","","","","",""
"null","../img/tt/1142tt.jpg","null","mooney1","image-keyboard-response","161","672902","0.0-6.0-1.22","2586548","co38539","norming","","","","","","",""
"7590.995000000577","","","post_mooney1_questions","survey-likert","162","680495","0.0-6.0-2.22","2586548","co38539","norming","","","{""curiosity"":6,""confidence"":5}","[0,1]","../img/tt/1142tt.jpg","",""
"2606.1449999996694","","","recognition","survey-text","163","683103","0.0-6.0-3.22","2586548","co38539","norming","","","{""guess"":""tennis player""}","","../img/tt/1142tt.jpg","",""
"null","../img/gs/1142gs.jpg","null","reveal","image-keyboard-response","164","685114","0.0-6.0-4.22","2586548","co38539","norming","","","","","","",""
"null","../img/tt/1142tt.jpg","null","mooney2","image-keyboard-response","165","687122","0.0-6.0-5.22","2586548","co38539","norming","","","","","","",""
"2675.284999999334","","","post_reveal_questions","survey-likert","166","689799","0.0-6.0-6.22","2586548","co38539","norming","","","{""aha"":5}","[0]","../img/tt/1142tt.jpg","",""
"null","<div style=""font-size:60px;""> </div>","null","fixation","html-keyboard-response","167","690001","0.0-6.0-0.23","2586548","co38539","norming","","","","","","",""
"null","../img/tt/1353tt.jpg","null","mooney1","image-keyboard-response","168","693004","0.0-6.0-1.23","2586548","co38539","norming","","","","","","",""
"3856.1800000007497","","","post_mooney1_questions","survey-likert","169","696863","0.0-6.0-2.23","2586548","co38539","norming","","","{""curiosity"":6,""confidence"":2}","[0,1]","../img/tt/1353tt.jpg","",""
"1374.2899999998044","","","recognition","survey-text","170","698239","0.0-6.0-3.23","2586548","co38539","norming","","","{""guess"":""hand""}","","../img/tt/1353tt.jpg","",""
"null","../img/gs/1353gs.jpg","null","reveal","image-keyboard-response","171","700245","0.0-6.0-4.23","2586548","co38539","norming","","","","","","",""
"null","../img/tt/1353tt.jpg","null","mooney2","image-keyboard-response","172","702253","0.0-6.0-5.23","2586548","co38539","norming","","","","","","",""
"3615.794999999809","","","post_reveal_questions","survey-likert","173","705871","0.0-6.0-6.23","2586548","co38539","norming","","","{""aha"":5}","[0]","../img/tt/1353tt.jpg","",""
"null","<div style=""font-size:60px;""> </div>","null","fixation","html-keyboard-response","174","706072","0.0-6.0-0.24","2586548","co38539","norming","","","","","","",""
"null","../img/tt/599tt.jpg","null","mooney1","image-keyboard-response","175","709082","0.0-6.0-1.24","2586548","co38539","norming","","","","","","",""
"2987.3049999986542","","","post_mooney1_questions","survey-likert","176","712079","0.0-6.0-2.24","2586548","co38539","norming","","","{""curiosity"":4,""confidence"":1}","[0,1]","../img/tt/599tt.jpg","",""
"3717.5100000003586","","","recognition","survey-text","177","715798","0.0-6.0-3.24","2586548","co38539","norming","","","{""guess"":""strawberry""}","","../img/tt/599tt.jpg","",""
"null","../img/gs/599gs.jpg","null","reveal","image-keyboard-response","178","717803","0.0-6.0-4.24","2586548","co38539","norming","","","","","","",""
"null","../img/tt/599tt.jpg","null","mooney2","image-keyboard-response","179","719808","0.0-6.0-5.24","2586548","co38539","norming","","","","","","",""
"3605.30499999912","","","post_reveal_questions","survey-likert","180","723415","0.0-6.0-6.24","2586548","co38539","norming","","","{""aha"":6}","[0]","../img/tt/599tt.jpg","",""
"null","<div style=""font-size:60px;""> </div>","null","fixation","html-keyboard-response","181","723616","0.0-6.0-0.25","2586548","co38539","norming","","","","","","",""
"null","../img/tt/105tt.jpg","null","mooney1","image-keyboard-response","182","726624","0.0-6.0-1.25","2586548","co38539","norming","","","","","","",""
"4411.990000000573","","","post_mooney1_questions","survey-likert","183","731039","0.0-6.0-2.25","2586548","co38539","norming","","","{""curiosity"":6,""confidence"":5}","[0,1]","../img/tt/105tt.jpg","",""
"2165.7800000010757","","","recognition","survey-text","184","733206","0.0-6.0-3.25","2586548","co38539","norming","","","{""guess"":""paperclips""}","","../img/tt/105tt.jpg","",""
"null","../img/gs/105gs.jpg","null","reveal","image-keyboard-response","185","735211","0.0-6.0-4.25","2586548","co38539","norming","","","","","","",""
"null","../img/tt/105tt.jpg","null","mooney2","image-keyboard-response","186","737222","0.0-6.0-5.25","2586548","co38539","norming","","","","","","",""
"3470.2649999998976","","","post_reveal_questions","survey-likert","187","740695","0.0-6.0-6.25","2586548","co38539","norming","","","{""aha"":0}","[0]","../img/tt/105tt.jpg","",""
"null","<div style=""font-size:60px;""> </div>","null","fixation","html-keyboard-response","188","740896","0.0-6.0-0.26","2586548","co38539","norming","","","","","","",""
"null","../img/tt/1276tt.jpg","null","mooney1","image-keyboard-response","189","743905","0.0-6.0-1.26","2586548","co38539","norming","","","","","","",""
"5619.114999999525","","","post_mooney1_questions","survey-likert","190","749527","0.0-6.0-2.26","2586548","co38539","norming","","","{""curiosity"":6,""confidence"":2}","[0,1]","../img/tt/1276tt.jpg","",""
"1837.939999999362","","","recognition","survey-text","191","751366","0.0-6.0-3.26","2586548","co38539","norming","","","{""guess"":""rooster""}","","../img/tt/1276tt.jpg","",""
"null","../img/gs/1276gs.jpg","null","reveal","image-keyboard-response","192","753374","0.0-6.0-4.26","2586548","co38539","norming","","","","","","",""
"null","../img/tt/1276tt.jpg","null","mooney2","image-keyboard-response","193","755383","0.0-6.0-5.26","2586548","co38539","norming","","","","","","",""
"2933.24000000034","","","post_reveal_questions","survey-likert","194","758318","0.0-6.0-6.26","2586548","co38539","norming","","","{""aha"":2}","[0]","../img/tt/1276tt.jpg","",""
"null","<div style=""font-size:60px;""> </div>","null","fixation","html-keyboard-response","195","758520","0.0-6.0-0.27","2586548","co38539","norming","","","","","","",""
"null","../img/tt/1226tt.jpg","null","mooney1","image-keyboard-response","196","761526","0.0-6.0-1.27","2586548","co38539","norming","","","","","","",""
"7165.605000000098","","","post_mooney1_questions","survey-likert","197","768695","0.0-6.0-2.27","2586548","co38539","norming","","","{""curiosity"":6,""confidence"":3}","[0,1]","../img/tt/1226tt.jpg","",""
"1678.1350000001257","","","recognition","survey-text","198","770374","0.0-6.0-3.27","2586548","co38539","norming","","","{""guess"":""chicken""}","","../img/tt/1226tt.jpg","",""
"null","../img/gs/1226gs.jpg","null","reveal","image-keyboard-response","199","772381","0.0-6.0-4.27","2586548","co38539","norming","","","","","","",""
"null","../img/tt/1226tt.jpg","null","mooney2","image-keyboard-response","200","774383","0.0-6.0-5.27","2586548","co38539","norming","","","","","","",""
"11374.340000000317","","","post_reveal_questions","survey-likert","201","785760","0.0-6.0-6.27","2586548","co38539","norming","","","{""aha"":0}","[0]","../img/tt/1226tt.jpg","",""
"null","<div style=""font-size:60px;""> </div>","null","fixation","html-keyboard-response","202","785961","0.0-6.0-0.28","2586548","co38539","norming","","","","","","",""
"null","../img/tt/1055tt.jpg","null","mooney1","image-keyboard-response","203","788972","0.0-6.0-1.28","2586548","co38539","norming","","","","","","",""
"4137.450000000186","","","post_mooney1_questions","survey-likert","204","793112","0.0-6.0-2.28","2586548","co38539","norming","","","{""curiosity"":4,""confidence"":2}","[0,1]","../img/tt/1055tt.jpg","",""
"1230.144999999553","","","recognition","survey-text","205","794344","0.0-6.0-3.28","2586548","co38539","norming","","","{""guess"":""lake""}","","../img/tt/1055tt.jpg","",""
"null","../img/gs/1055gs.jpg","null","reveal","image-keyboard-response","206","796347","0.0-6.0-4.28","2586548","co38539","norming","","","","","","",""
"null","../img/tt/1055tt.jpg","null","mooney2","image-keyboard-response","207","798359","0.0-6.0-5.28","2586548","co38539","norming","","","","","","",""
"2807.039999999688","","","post_reveal_questions","survey-likert","208","801168","0.0-6.0-6.28","2586548","co38539","norming","","","{""aha"":6}","[0]","../img/tt/1055tt.jpg","",""
"null","<div style=""font-size:60px;""> </div>","null","fixation","html-keyboard-response","209","801370","0.0-6.0-0.29","2586548","co38539","norming","","","","","","",""
"null","../img/tt/603tt.jpg","null","mooney1","image-keyboard-response","210","804377","0.0-6.0-1.29","2586548","co38539","norming","","","","","","",""
"6612.5449999999255","","","post_mooney1_questions","survey-likert","211","810992","0.0-6.0-2.29","2586548","co38539","norming","","","{""curiosity"":2,""confidence"":0}","[0,1]","../img/tt/603tt.jpg","",""
"502.2599999993108","","","recognition","survey-text","212","811496","0.0-6.0-3.29","2586548","co38539","norming","","","{""guess"":""""}","","../img/tt/603tt.jpg","",""
"null","../img/gs/603gs.jpg","null","reveal","image-keyboard-response","213","813498","0.0-6.0-4.29","2586548","co38539","norming","","","","","","",""
"null","../img/tt/603tt.jpg","null","mooney2","image-keyboard-response","214","815500","0.0-6.0-5.29","2586548","co38539","norming","","","","","","",""
"3561.9949999999953","","","post_reveal_questions","survey-likert","215","819064","0.0-6.0-6.29","2586548","co38539","norming","","","{""aha"":5}","[0]","../img/tt/603tt.jpg","",""
"null","<div style=""font-size:60px;""> </div>","null","fixation","html-keyboard-response","216","819273","0.0-6.0-0.30","2586548","co38539","norming","","","","","","",""
"null","../img/tt/1241tt.jpg","null","mooney1","image-keyboard-response","217","822279","0.0-6.0-1.30","2586548","co38539","norming","","","","","","",""
"4822.139999998501","","","post_mooney1_questions","survey-likert","218","827104","0.0-6.0-2.30","2586548","co38539","norming","","","{""curiosity"":4,""confidence"":0}","[0,1]","../img/tt/1241tt.jpg","",""
"694.0949999989243","","","recognition","survey-text","219","827800","0.0-6.0-3.30","2586548","co38539","norming","","","{""guess"":""""}","","../img/tt/1241tt.jpg","",""
"null","../img/gs/1241gs.jpg","null","reveal","image-keyboard-response","220","829804","0.0-6.0-4.30","2586548","co38539","norming","","","","","","",""
"null","../img/tt/1241tt.jpg","null","mooney2","image-keyboard-response","221","831805","0.0-6.0-5.30","2586548","co38539","norming","","","","","","",""
"2385.914999998873","","","post_reveal_questions","survey-likert","222","834193","0.0-6.0-6.30","2586548","co38539","norming","","","{""aha"":5}","[0]","../img/tt/1241tt.jpg","",""
"null","<div style=""font-size:60px;""> </div>","null","fixation","html-keyboard-response","223","834395","0.0-6.0-0.31","2586548","co38539","norming","","","","","","",""
"null","../img/tt/063tt.jpg","null","mooney1","image-keyboard-response","224","837401","0.0-6.0-1.31","2586548","co38539","norming","","","","","","",""
"3693.520000000717","","","post_mooney1_questions","survey-likert","225","841097","0.0-6.0-2.31","2586548","co38539","norming","","","{""curiosity"":6,""confidence"":4}","[0,1]","../img/tt/063tt.jpg","",""
"6126.134999998612","","","recognition","survey-text","226","847225","0.0-6.0-3.31","2586548","co38539","norming","","","{""guess"":""typewriter""}","","../img/tt/063tt.jpg","",""
"null","../img/gs/063gs.jpg","null","reveal","image-keyboard-response","227","849233","0.0-6.0-4.31","2586548","co38539","norming","","","","","","",""
"null","../img/tt/063tt.jpg","null","mooney2","image-keyboard-response","228","851242","0.0-6.0-5.31","2586548","co38539","norming","","","","","","",""
"2618.8300000012387","","","post_reveal_questions","survey-likert","229","853865","0.0-6.0-6.31","2586548","co38539","norming","","","{""aha"":5}","[0]","../img/tt/063tt.jpg","",""
"null","<div style=""font-size:60px;""> </div>","null","fixation","html-keyboard-response","230","854066","0.0-6.0-0.32","2586548","co38539","norming","","","","","","",""
"null","../img/tt/060tt.jpg","null","mooney1","image-keyboard-response","231","857076","0.0-6.0-1.32","2586548","co38539","norming","","","","","","",""
"3531.8499999993946","","","post_mooney1_questions","survey-likert","232","860609","0.0-6.0-2.32","2586548","co38539","norming","","","{""curiosity"":6,""confidence"":4}","[0,1]","../img/tt/060tt.jpg","",""
"1350.0899999999674","","","recognition","survey-text","233","861961","0.0-6.0-3.32","2586548","co38539","norming","","","{""guess"":""hotdog""}","","../img/tt/060tt.jpg","",""
"null","../img/gs/060gs.jpg","null","reveal","image-keyboard-response","234","863968","0.0-6.0-4.32","2586548","co38539","norming","","","","","","",""
"null","../img/tt/060tt.jpg","null","mooney2","image-keyboard-response","235","865979","0.0-6.0-5.32","2586548","co38539","norming","","","","","","",""
"3987.9749999999767","","","post_reveal_questions","survey-likert","236","869969","0.0-6.0-6.32","2586548","co38539","norming","","","{""aha"":3}","[0]","../img/tt/060tt.jpg","",""
"null","<div style=""font-size:60px;""> </div>","null","fixation","html-keyboard-response","237","870171","0.0-6.0-0.33","2586548","co38539","norming","","","","","","",""
"null","../img/tt/522tt.jpg","null","mooney1","image-keyboard-response","238","873176","0.0-6.0-1.33","2586548","co38539","norming","","","","","","",""
"7710.5649999994785","","","post_mooney1_questions","survey-likert","239","880889","0.0-6.0-2.33","2586548","co38539","norming","","","{""curiosity"":3,""confidence"":2}","[0,1]","../img/tt/522tt.jpg","",""
"2221.7649999985006","","","recognition","survey-text","240","883113","0.0-6.0-3.33","2586548","co38539","norming","","","{""guess"":""vegetables""}","","../img/tt/522tt.jpg","",""
"null","../img/gs/522gs.jpg","null","reveal","image-keyboard-response","241","885119","0.0-6.0-4.33","2586548","co38539","norming","","","","","","",""
"null","../img/tt/522tt.jpg","null","mooney2","image-keyboard-response","242","887128","0.0-6.0-5.33","2586548","co38539","norming","","","","","","",""
"2926.3649999994086","","","post_reveal_questions","survey-likert","243","890057","0.0-6.0-6.33","2586548","co38539","norming","","","{""aha"":1}","[0]","../img/tt/522tt.jpg","",""
"null","<div style=""font-size:60px;""> </div>","null","fixation","html-keyboard-response","244","890258","0.0-6.0-0.34","2586548","co38539","norming","","","","","","",""
"null","../img/tt/1188tt.jpg","null","mooney1","image-keyboard-response","245","893270","0.0-6.0-1.34","2586548","co38539","norming","","","","","","",""
"3872.245000000461","","","post_mooney1_questions","survey-likert","246","897140","0.0-6.0-2.34","2586548","co38539","norming","","","{""curiosity"":6,""confidence"":4}","[0,1]","../img/tt/1188tt.jpg","",""
"3294.045000000624","","","recognition","survey-text","247","900437","0.0-6.0-3.34","2586548","co38539","norming","","","{""guess"":""baseball player""}","","../img/tt/1188tt.jpg","",""
"null","../img/gs/1188gs.jpg","null","reveal","image-keyboard-response","248","902438","0.0-6.0-4.34","2586548","co38539","norming","","","","","","",""
"null","../img/tt/1188tt.jpg","null","mooney2","image-keyboard-response","249","904440","0.0-6.0-5.34","2586548","co38539","norming","","","","","","",""
"3289.7649999995483","","","post_reveal_questions","survey-likert","250","907732","0.0-6.0-6.34","2586548","co38539","norming","","","{""aha"":6}","[0]","../img/tt/1188tt.jpg","",""
"null","<div style=""font-size:60px;""> </div>","null","fixation","html-keyboard-response","251","907933","0.0-6.0-0.35","2586548","co38539","norming","","","","","","",""
"null","../img/tt/1063tt.jpg","null","mooney1","image-keyboard-response","252","910939","0.0-6.0-1.35","2586548","co38539","norming","","","","","","",""
"4342.5499999994645","","","post_mooney1_questions","survey-likert","253","915285","0.0-6.0-2.35","2586548","co38539","norming","","","{""curiosity"":5,""confidence"":3}","[0,1]","../img/tt/1063tt.jpg","",""
"2509.975000000908","","","recognition","survey-text","254","917796","0.0-6.0-3.35","2586548","co38539","norming","","","{""guess"":""horses""}","","../img/tt/1063tt.jpg","",""
"null","../img/gs/1063gs.jpg","null","reveal","image-keyboard-response","255","919799","0.0-6.0-4.35","2586548","co38539","norming","","","","","","",""
"null","../img/tt/1063tt.jpg","null","mooney2","image-keyboard-response","256","921800","0.0-6.0-5.35","2586548","co38539","norming","","","","","","",""
"4947.120000000694","","","post_reveal_questions","survey-likert","257","926749","0.0-6.0-6.35","2586548","co38539","norming","","","{""aha"":1}","[0]","../img/tt/1063tt.jpg","",""
"null","<div style=""font-size:60px;""> </div>","null","fixation","html-keyboard-response","258","926951","0.0-6.0-0.36","2586548","co38539","norming","","","","","","",""
"null","../img/tt/1255tt.jpg","null","mooney1","image-keyboard-response","259","929953","0.0-6.0-1.36","2586548","co38539","norming","","","","","","",""
"7641.904999998631","","","post_mooney1_questions","survey-likert","260","937596","0.0-6.0-2.36","2586548","co38539","norming","","","{""curiosity"":5,""confidence"":2}","[0,1]","../img/tt/1255tt.jpg","",""
"3557.919999999227","","","recognition","survey-text","261","941156","0.0-6.0-3.36","2586548","co38539","norming","","","{""guess"":""people walking""}","","../img/tt/1255tt.jpg","",""
"null","../img/gs/1255gs.jpg","null","reveal","image-keyboard-response","262","943160","0.0-6.0-4.36","2586548","co38539","norming","","","","","","",""
"null","../img/tt/1255tt.jpg","null","mooney2","image-keyboard-response","263","945165","0.0-6.0-5.36","2586548","co38539","norming","","","","","","",""
"3510.3749999998836","","","post_reveal_questions","survey-likert","264","948676","0.0-6.0-6.36","2586548","co38539","norming","","","{""aha"":0}","[0]","../img/tt/1255tt.jpg","",""
"null","<div style=""font-size:60px;""> </div>","null","fixation","html-keyboard-response","265","948879","0.0-6.0-0.37","2586548","co38539","norming","","","","","","",""
"null","../img/tt/416tt.jpg","null","mooney1","image-keyboard-response","266","951884","0.0-6.0-1.37","2586548","co38539","norming","","","","","","",""
"4343.539999999921","","","post_mooney1_questions","survey-likert","267","956230","0.0-6.0-2.37","2586548","co38539","norming","","","{""curiosity"":4,""confidence"":2}","[0,1]","../img/tt/416tt.jpg","",""
"2573.965000001481","","","recognition","survey-text","268","958806","0.0-6.0-3.37","2586548","co38539","norming","","","{""guess"":""ostrich""}","","../img/tt/416tt.jpg","",""
"null","../img/gs/416gs.jpg","null","reveal","image-keyboard-response","269","960813","0.0-6.0-4.37","2586548","co38539","norming","","","","","","",""
"null","../img/tt/416tt.jpg","null","mooney2","image-keyboard-response","270","962819","0.0-6.0-5.37","2586548","co38539","norming","","","","","","",""
"3232.66999999946","","","post_reveal_questions","survey-likert","271","966054","0.0-6.0-6.37","2586548","co38539","norming","","","{""aha"":0}","[0]","../img/tt/416tt.jpg","",""
"null","<div style=""font-size:60px;""> </div>","null","fixation","html-keyboard-response","272","966257","0.0-6.0-0.38","2586548","co38539","norming","","","","","","",""
"null","../img/tt/1096tt.jpg","null","mooney1","image-keyboard-response","273","969267","0.0-6.0-1.38","2586548","co38539","norming","","","","","","",""
"4648.045000001788","","","post_mooney1_questions","survey-likert","274","973919","0.0-6.0-2.38","2586548","co38539","norming","","","{""curiosity"":6,""confidence"":4}","[0,1]","../img/tt/1096tt.jpg","",""
"1637.5250000001397","","","recognition","survey-text","275","975558","0.0-6.0-3.38","2586548","co38539","norming","","","{""guess"":""kitchen""}","","../img/tt/1096tt.jpg","",""
"null","../img/gs/1096gs.jpg","null","reveal","image-keyboard-response","276","977564","0.0-6.0-4.38","2586548","co38539","norming","","","","","","",""
"null","../img/tt/1096tt.jpg","null","mooney2","image-keyboard-response","277","979575","0.0-6.0-5.38","2586548","co38539","norming","","","","","","",""
"3748.6900000002934","","","post_reveal_questions","survey-likert","278","983326","0.0-6.0-6.38","2586548","co38539","norming","","","{""aha"":1}","[0]","../img/tt/1096tt.jpg","",""
"null","<div style=""font-size:60px;""> </div>","null","fixation","html-keyboard-response","279","983528","0.0-6.0-0.39","2586548","co38539","norming","","","","","","",""
"null","../img/tt/1217tt.jpg","null","mooney1","image-keyboard-response","280","986534","0.0-6.0-1.39","2586548","co38539","norming","","","","","","",""
"11797.225000000326","","","post_mooney1_questions","survey-likert","281","998334","0.0-6.0-2.39","2586548","co38539","norming","","","{""curiosity"":2,""confidence"":1}","[0,1]","../img/tt/1217tt.jpg","",""
"1733.890000001411","","","recognition","survey-text","282","1000070","0.0-6.0-3.39","2586548","co38539","norming","","","{""guess"":""audience""}","","../img/tt/1217tt.jpg","",""
"null","../img/gs/1217gs.jpg","null","reveal","image-keyboard-response","283","1002080","0.0-6.0-4.39","2586548","co38539","norming","","","","","","",""
"null","../img/tt/1217tt.jpg","null","mooney2","image-keyboard-response","284","1004089","0.0-6.0-5.39","2586548","co38539","norming","","","","","","",""
"3018.5050000000047","","","post_reveal_questions","survey-likert","285","1007110","0.0-6.0-6.39","2586548","co38539","norming","","","{""aha"":6}","[0]","../img/tt/1217tt.jpg","",""
"null","<div style=""font-size:60px;""> </div>","null","fixation","html-keyboard-response","286","1007311","0.0-6.0-0.40","2586548","co38539","norming","","","","","","",""
"null","../img/tt/412tt.jpg","null","mooney1","image-keyboard-response","287","1010315","0.0-6.0-1.40","2586548","co38539","norming","","","","","","",""
"10072.48000000068","","","post_mooney1_questions","survey-likert","288","1020395","0.0-6.0-2.40","2586548","co38539","norming","","","{""curiosity"":2,""confidence"":1}","[0,1]","../img/tt/412tt.jpg","",""
"3053.9700000009034","","","recognition","survey-text","289","1023451","0.0-6.0-3.40","2586548","co38539","norming","","","{""guess"":""keukenapparaten""}","","../img/tt/412tt.jpg","",""
"null","../img/gs/412gs.jpg","null","reveal","image-keyboard-response","290","1025458","0.0-6.0-4.40","2586548","co38539","norming","","","","","","",""
"null","../img/tt/412tt.jpg","null","mooney2","image-keyboard-response","291","1027466","0.0-6.0-5.40","2586548","co38539","norming","","","","","","",""
"3999.4250000000466","","","post_reveal_questions","survey-likert","292","1031467","0.0-6.0-6.40","2586548","co38539","norming","","","{""aha"":0}","[0]","../img/tt/412tt.jpg","",""
"null","<div style=""font-size:60px;""> </div>","null","fixation","html-keyboard-response","293","1031669","0.0-6.0-0.41","2586548","co38539","norming","","","","","","",""
"null","../img/tt/135tt.jpg","null","mooney1","image-keyboard-response","294","1034677","0.0-6.0-1.41","2586548","co38539","norming","","","","","","",""
"6363.0649999994785","","","post_mooney1_questions","survey-likert","295","1041043","0.0-6.0-2.41","2586548","co38539","norming","","","{""curiosity"":1,""confidence"":6}","[0,1]","../img/tt/135tt.jpg","",""
"1670.154999999795","","","recognition","survey-text","296","1042715","0.0-6.0-3.41","2586548","co38539","norming","","","{""guess"":""toilet""}","","../img/tt/135tt.jpg","",""
"null","../img/gs/135gs.jpg","null","reveal","image-keyboard-response","297","1044721","0.0-6.0-4.41","2586548","co38539","norming","","","","","","",""
"null","../img/tt/135tt.jpg","null","mooney2","image-keyboard-response","298","1046722","0.0-6.0-5.41","2586548","co38539","norming","","","","","","",""
"3462.5949999990407","","","post_reveal_questions","survey-likert","299","1050187","0.0-6.0-6.41","2586548","co38539","norming","","","{""aha"":0}","[0]","../img/tt/135tt.jpg","",""
"null","<div style=""font-size:60px;""> </div>","null","fixation","html-keyboard-response","300","1050390","0.0-6.0-0.42","2586548","co38539","norming","","","","","","",""
"null","../img/tt/007tt.jpg","null","mooney1","image-keyboard-response","301","1053401","0.0-6.0-1.42","2586548","co38539","norming","","","","","","",""
"6127.020000000019","","","post_mooney1_questions","survey-likert","302","1059531","0.0-6.0-2.42","2586548","co38539","norming","","","{""curiosity"":3,""confidence"":5}","[0,1]","../img/tt/007tt.jpg","",""
"1501.5450000010896","","","recognition","survey-text","303","1061034","0.0-6.0-3.42","2586548","co38539","norming","","","{""guess"":""toad""}","","../img/tt/007tt.jpg","",""
"null","../img/gs/007gs.jpg","null","reveal","image-keyboard-response","304","1063045","0.0-6.0-4.42","2586548","co38539","norming","","","","","","",""
"null","../img/tt/007tt.jpg","null","mooney2","image-keyboard-response","305","1065054","0.0-6.0-5.42","2586548","co38539","norming","","","","","","",""
"3455.4200000001583","","","post_reveal_questions","survey-likert","306","1068515","0.0-6.0-6.42","2586548","co38539","norming","","","{""aha"":0}","[0]","../img/tt/007tt.jpg","",""
"null","<div style=""font-size:60px;""> </div>","null","fixation","html-keyboard-response","307","1068717","0.0-6.0-0.43","2586548","co38539","norming","","","","","","",""
"null","../img/tt/076tt.jpg","null","mooney1","image-keyboard-response","308","1071722","0.0-6.0-1.43","2586548","co38539","norming","","","","","","",""
"5165.445000000531","","","post_mooney1_questions","survey-likert","309","1076893","0.0-6.0-2.43","2586548","co38539","norming","","","{""curiosity"":6,""confidence"":3}","[0,1]","../img/tt/076tt.jpg","",""
"2334.015000000363","","","recognition","survey-text","310","1079229","0.0-6.0-3.43","2586548","co38539","norming","","","{""guess"":""rolschaatsen""}","","../img/tt/076tt.jpg","",""
"null","../img/gs/076gs.jpg","null","reveal","image-keyboard-response","311","1081231","0.0-6.0-4.43","2586548","co38539","norming","","","","","","",""
"null","../img/tt/076tt.jpg","null","mooney2","image-keyboard-response","312","1083241","0.0-6.0-5.43","2586548","co38539","norming","","","","","","",""
"5057.590000000317","","","post_reveal_questions","survey-likert","313","1088301","0.0-6.0-6.43","2586548","co38539","norming","","","{""aha"":1}","[0]","../img/tt/076tt.jpg","",""
"null","<div style=""font-size:60px;""> </div>","null","fixation","html-keyboard-response","314","1088502","0.0-6.0-0.44","2586548","co38539","norming","","","","","","",""
"null","../img/tt/357tt.jpg","null","mooney1","image-keyboard-response","315","1091508","0.0-6.0-1.44","2586548","co38539","norming","","","","","","",""
"7557.109999999637","","","post_mooney1_questions","survey-likert","316","1099069","0.0-6.0-2.44","2586548","co38539","norming","","","{""curiosity"":4,""confidence"":1}","[0,1]","../img/tt/357tt.jpg","",""
"1390.0100000009406","","","recognition","survey-text","317","1100461","0.0-6.0-3.44","2586548","co38539","norming","","","{""guess"":""garden""}","","../img/tt/357tt.jpg","",""
"null","../img/gs/357gs.jpg","null","reveal","image-keyboard-response","318","1102468","0.0-6.0-4.44","2586548","co38539","norming","","","","","","",""
"null","../img/tt/357tt.jpg","null","mooney2","image-keyboard-response","319","1104479","0.0-6.0-5.44","2586548","co38539","norming","","","","","","",""
"5114.745000000577","","","post_reveal_questions","survey-likert","320","1109596","0.0-6.0-6.44","2586548","co38539","norming","","","{""aha"":2}","[0]","../img/tt/357tt.jpg","",""
"null","<div style=""font-size:60px;""> </div>","null","fixation","html-keyboard-response","321","1109798","0.0-6.0-0.45","2586548","co38539","norming","","","","","","",""
"null","../img/tt/1118tt.jpg","null","mooney1","image-keyboard-response","322","1112808","0.0-6.0-1.45","2586548","co38539","norming","","","","","","",""
"4801.074999999255","","","post_mooney1_questions","survey-likert","323","1117613","0.0-6.0-2.45","2586548","co38539","norming","","","{""curiosity"":0,""confidence"":0}","[0,1]","../img/tt/1118tt.jpg","",""
"718.2949999987613","","","recognition","survey-text","324","1118333","0.0-6.0-3.45","2586548","co38539","norming","","","{""guess"":""""}","","../img/tt/1118tt.jpg","",""
"null","../img/gs/1118gs.jpg","null","reveal","image-keyboard-response","325","1120336","0.0-6.0-4.45","2586548","co38539","norming","","","","","","",""
"null","../img/tt/1118tt.jpg","null","mooney2","image-keyboard-response","326","1122339","0.0-6.0-5.45","2586548","co38539","norming","","","","","","",""
"3775.014999999199","","","post_reveal_questions","survey-likert","327","1126116","0.0-6.0-6.45","2586548","co38539","norming","","","{""aha"":3}","[0]","../img/tt/1118tt.jpg","",""
"null","<div style=""font-size:60px;""> </div>","null","fixation","html-keyboard-response","328","1126318","0.0-6.0-0.46","2586548","co38539","norming","","","","","","",""
"null","../img/tt/567tt.jpg","null","mooney1","image-keyboard-response","329","1129328","0.0-6.0-1.46","2586548","co38539","norming","","","","","","",""
"4234.979999999283","","","post_mooney1_questions","survey-likert","330","1133565","0.0-6.0-2.46","2586548","co38539","norming","","","{""curiosity"":2,""confidence"":6}","[0,1]","../img/tt/567tt.jpg","",""
"1933.8049999987707","","","recognition","survey-text","331","1135500","0.0-6.0-3.46","2586548","co38539","norming","","","{""guess"":""toaster""}","","../img/tt/567tt.jpg","",""
"null","../img/gs/567gs.jpg","null","reveal","image-keyboard-response","332","1137503","0.0-6.0-4.46","2586548","co38539","norming","","","","","","",""
"null","../img/tt/567tt.jpg","null","mooney2","image-keyboard-response","333","1139514","0.0-6.0-5.46","2586548","co38539","norming","","","","","","",""
"3120.9099999996834","","","post_reveal_questions","survey-likert","334","1142637","0.0-6.0-6.46","2586548","co38539","norming","","","{""aha"":0}","[0]","../img/tt/567tt.jpg","",""
"null","<div style=""font-size:60px;""> </div>","null","fixation","html-keyboard-response","335","1142839","0.0-6.0-0.47","2586548","co38539","norming","","","","","","",""
"null","../img/tt/1196tt.jpg","null","mooney1","image-keyboard-response","336","1145847","0.0-6.0-1.47","2586548","co38539","norming","","","","","","",""
"7837.415000000037","","","post_mooney1_questions","survey-likert","337","1153686","0.0-6.0-2.47","2586548","co38539","norming","","","{""curiosity"":6,""confidence"":3}","[0,1]","../img/tt/1196tt.jpg","",""
"2053.2299999995157","","","recognition","survey-text","338","1155741","0.0-6.0-3.47","2586548","co38539","norming","","","{""guess"":""cheerleaders""}","","../img/tt/1196tt.jpg","",""
"null","../img/gs/1196gs.jpg","null","reveal","image-keyboard-response","339","1157749","0.0-6.0-4.47","2586548","co38539","norming","","","","","","",""
"null","../img/tt/1196tt.jpg","null","mooney2","image-keyboard-response","340","1159758","0.0-6.0-5.47","2586548","co38539","norming","","","","","","",""
"2542.5950000006706","","","post_reveal_questions","survey-likert","341","1162301","0.0-6.0-6.47","2586548","co38539","norming","","","{""aha"":5}","[0]","../img/tt/1196tt.jpg","",""
"null","<div style=""font-size:60px;""> </div>","null","fixation","html-keyboard-response","342","1162502","0.0-6.0-0.48","2586548","co38539","norming","","","","","","",""
"null","../img/tt/1146tt.jpg","null","mooney1","image-keyboard-response","343","1165510","0.0-6.0-1.48","2586548","co38539","norming","","","","","","",""
"3884.6999999985565","","","post_mooney1_questions","survey-likert","344","1169397","0.0-6.0-2.48","2586548","co38539","norming","","","{""curiosity"":4,""confidence"":1}","[0,1]","../img/tt/1146tt.jpg","",""
"1222.2149999996182","","","recognition","survey-text","345","1170621","0.0-6.0-3.48","2586548","co38539","norming","","","{""guess"":""driver""}","","../img/tt/1146tt.jpg","",""
"null","../img/gs/1146gs.jpg","null","reveal","image-keyboard-response","346","1172628","0.0-6.0-4.48","2586548","co38539","norming","","","","","","",""
"null","../img/tt/1146tt.jpg","null","mooney2","image-keyboard-response","347","1174639","0.0-6.0-5.48","2586548","co38539","norming","","","","","","",""
"3093.134999999311","","","post_reveal_questions","survey-likert","348","1177733","0.0-6.0-6.48","2586548","co38539","norming","","","{""aha"":5}","[0]","../img/tt/1146tt.jpg","",""
"null","<div style=""font-size:60px;""> </div>","null","fixation","html-keyboard-response","349","1177935","0.0-6.0-0.49","2586548","co38539","norming","","","","","","",""
"null","../img/tt/1243tt.jpg","null","mooney1","image-keyboard-response","350","1180946","0.0-6.0-1.49","2586548","co38539","norming","","","","","","",""
"6016.804999999469","","","post_mooney1_questions","survey-likert","351","1186966","0.0-6.0-2.49","2586548","co38539","norming","","","{""curiosity"":2,""confidence"":4}","[0,1]","../img/tt/1243tt.jpg","",""
"2085.9799999997485","","","recognition","survey-text","352","1189053","0.0-6.0-3.49","2586548","co38539","norming","","","{""guess"":""zoo animal""}","","../img/tt/1243tt.jpg","",""
"null","../img/gs/1243gs.jpg","null","reveal","image-keyboard-response","353","1191060","0.0-6.0-4.49","2586548","co38539","norming","","","","","","",""
"null","../img/tt/1243tt.jpg","null","mooney2","image-keyboard-response","354","1193071","0.0-6.0-5.49","2586548","co38539","norming","","","","","","",""
"9898.839999999851","","","post_reveal_questions","survey-likert","355","1202968","0.0-6.0-6.49","2586548","co38539","norming","","","{""aha"":3}","[0]","../img/tt/1243tt.jpg","",""
"null","<div style=""font-size:60px;""> </div>","null","fixation","html-keyboard-response","356","1203169","0.0-6.0-0.50","2586548","co38539","norming","","","","","","",""
"null","../img/tt/497tt.jpg","null","mooney1","image-keyboard-response","357","1206175","0.0-6.0-1.50","2586548","co38539","norming","","","","","","",""
"7990.405000000494","","","post_mooney1_questions","survey-likert","358","1214169","0.0-6.0-2.50","2586548","co38539","norming","","","{""curiosity"":5,""confidence"":2}","[0,1]","../img/tt/497tt.jpg","",""
"2446.10499999905","","","recognition","survey-text","359","1216616","0.0-6.0-3.50","2586548","co38539","norming","","","{""guess"":""record player""}","","../img/tt/497tt.jpg","",""
"null","../img/gs/497gs.jpg","null","reveal","image-keyboard-response","360","1218618","0.0-6.0-4.50","2586548","co38539","norming","","","","","","",""
"null","../img/tt/497tt.jpg","null","mooney2","image-keyboard-response","361","1220629","0.0-6.0-5.50","2586548","co38539","norming","","","","","","",""
"4312.890000001062","","","post_reveal_questions","survey-likert","362","1224944","0.0-6.0-6.50","2586548","co38539","norming","","","{""aha"":5}","[0]","../img/tt/497tt.jpg","",""
"null","<div style=""font-size:60px;""> </div>","null","fixation","html-keyboard-response","363","1225146","0.0-6.0-0.51","2586548","co38539","norming","","","","","","",""
"null","../img/tt/559tt.jpg","null","mooney1","image-keyboard-response","364","1228148","0.0-6.0-1.51","2586548","co38539","norming","","","","","","",""
"5040.75","","","post_mooney1_questions","survey-likert","365","1233193","0.0-6.0-2.51","2586548","co38539","norming","","","{""curiosity"":5,""confidence"":2}","[0,1]","../img/tt/559tt.jpg","",""
"2014.0400000000373","","","recognition","survey-text","366","1235208","0.0-6.0-3.51","2586548","co38539","norming","","","{""guess"":""sewing machine""}","","../img/tt/559tt.jpg","",""
"null","../img/gs/559gs.jpg","null","reveal","image-keyboard-response","367","1237213","0.0-6.0-4.51","2586548","co38539","norming","","","","","","",""
"null","../img/tt/559tt.jpg","null","mooney2","image-keyboard-response","368","1239216","0.0-6.0-5.51","2586548","co38539","norming","","","","","","",""
"4270.609999999404","","","post_reveal_questions","survey-likert","369","1243489","0.0-6.0-6.51","2586548","co38539","norming","","","{""aha"":6}","[0]","../img/tt/559tt.jpg","",""
"null","<div style=""font-size:60px;""> </div>","null","fixation","html-keyboard-response","370","1243691","0.0-6.0-0.52","2586548","co38539","norming","","","","","","",""
"null","../img/tt/1173tt.jpg","null","mooney1","image-keyboard-response","371","1246698","0.0-6.0-1.52","2586548","co38539","norming","","","","","","",""
"12941.935000000754","","","post_mooney1_questions","survey-likert","372","1259641","0.0-6.0-2.52","2586548","co38539","norming","","","{""curiosity"":6,""confidence"":2}","[0,1]","../img/tt/1173tt.jpg","",""
"5021.735000000335","","","recognition","survey-text","373","1264664","0.0-6.0-3.52","2586548","co38539","norming","","","{""guess"":""volleyball players""}","","../img/tt/1173tt.jpg","",""
"null","../img/gs/1173gs.jpg","null","reveal","image-keyboard-response","374","1266665","0.0-6.0-4.52","2586548","co38539","norming","","","","","","",""
"null","../img/tt/1173tt.jpg","null","mooney2","image-keyboard-response","375","1268667","0.0-6.0-5.52","2586548","co38539","norming","","","","","","",""
"3241.954999999376","","","post_reveal_questions","survey-likert","376","1271912","0.0-6.0-6.52","2586548","co38539","norming","","","{""aha"":4}","[0]","../img/tt/1173tt.jpg","",""
"null","<div style=""font-size:60px;""> </div>","null","fixation","html-keyboard-response","377","1272113","0.0-6.0-0.53","2586548","co38539","norming","","","","","","",""
"null","../img/tt/378tt.jpg","null","mooney1","image-keyboard-response","378","1275125","0.0-6.0-1.53","2586548","co38539","norming","","","","","","",""
"5255.404999999795","","","post_mooney1_questions","survey-likert","379","1280384","0.0-6.0-2.53","2586548","co38539","norming","","","{""curiosity"":4,""confidence"":0}","[0,1]","../img/tt/378tt.jpg","",""
"150.38000000081956","","","recognition","survey-text","380","1280536","0.0-6.0-3.53","2586548","co38539","norming","","","{""guess"":""""}","","../img/tt/378tt.jpg","",""
"null","../img/gs/378gs.jpg","null","reveal","image-keyboard-response","381","1282540","0.0-6.0-4.53","2586548","co38539","norming","","","","","","",""
"null","../img/tt/378tt.jpg","null","mooney2","image-keyboard-response","382","1284549","0.0-6.0-5.53","2586548","co38539","norming","","","","","","",""
"4984.244999999646","","","post_reveal_questions","survey-likert","383","1289536","0.0-6.0-6.53","2586548","co38539","norming","","","{""aha"":4}","[0]","../img/tt/378tt.jpg","",""
"null","<div style=""font-size:60px;""> </div>","null","fixation","html-keyboard-response","384","1289739","0.0-6.0-0.54","2586548","co38539","norming","","","","","","",""
"null","../img/tt/306tt.jpg","null","mooney1","image-keyboard-response","385","1292743","0.0-6.0-1.54","2586548","co38539","norming","","","","","","",""
"8310.214999999618","","","post_mooney1_questions","survey-likert","386","1301056","0.0-6.0-2.54","2586548","co38539","norming","","","{""curiosity"":4,""confidence"":1}","[0,1]","../img/tt/306tt.jpg","",""
"2293.954999999143","","","recognition","survey-text","387","1303352","0.0-6.0-3.54","2586548","co38539","norming","","","{""guess"":""ijsschaatser""}","","../img/tt/306tt.jpg","",""
"null","../img/gs/306gs.jpg","null","reveal","image-keyboard-response","388","1305361","0.0-6.0-4.54","2586548","co38539","norming","","","","","","",""
"null","../img/tt/306tt.jpg","null","mooney2","image-keyboard-response","389","1307371","0.0-6.0-5.54","2586548","co38539","norming","","","","","","",""
"4617.210000000428","","","post_reveal_questions","survey-likert","390","1311992","0.0-6.0-6.54","2586548","co38539","norming","","","{""aha"":3}","[0]","../img/tt/306tt.jpg","",""
"null","<div style=""font-size:60px;""> </div>","null","fixation","html-keyboard-response","391","1312197","0.0-6.0-0.55","2586548","co38539","norming","","","","","","",""
"null","../img/tt/517tt.jpg","null","mooney1","image-keyboard-response","392","1315205","0.0-6.0-1.55","2586548","co38539","norming","","","","","","",""
"4055.855000000447","","","post_mooney1_questions","survey-likert","393","1319264","0.0-6.0-2.55","2586548","co38539","norming","","","{""curiosity"":6,""confidence"":1}","[0,1]","../img/tt/517tt.jpg","",""
"1446.0949999992736","","","recognition","survey-text","394","1320712","0.0-6.0-3.55","2586548","co38539","norming","","","{""guess"":""bever""}","","../img/tt/517tt.jpg","",""
"null","../img/gs/517gs.jpg","null","reveal","image-keyboard-response","395","1322718","0.0-6.0-4.55","2586548","co38539","norming","","","","","","",""
"null","../img/tt/517tt.jpg","null","mooney2","image-keyboard-response","396","1324727","0.0-6.0-5.55","2586548","co38539","norming","","","","","","",""
"2883.6549999995623","","","post_reveal_questions","survey-likert","397","1327613","0.0-6.0-6.55","2586548","co38539","norming","","","{""aha"":5}","[0]","../img/tt/517tt.jpg","",""
"null","<div style=""font-size:60px;""> </div>","null","fixation","html-keyboard-response","398","1327823","0.0-6.0-0.56","2586548","co38539","norming","","","","","","",""
"null","../img/tt/052tt.jpg","null","mooney1","image-keyboard-response","399","1330824","0.0-6.0-1.56","2586548","co38539","norming","","","","","","",""
"5121.8100000005215","","","post_mooney1_questions","survey-likert","400","1335949","0.0-6.0-2.56","2586548","co38539","norming","","","{""curiosity"":4,""confidence"":2}","[0,1]","../img/tt/052tt.jpg","",""
"1438.0400000009686","","","recognition","survey-text","401","1337389","0.0-6.0-3.56","2586548","co38539","norming","","","{""guess"":""trommel""}","","../img/tt/052tt.jpg","",""
"null","../img/gs/052gs.jpg","null","reveal","image-keyboard-response","402","1339391","0.0-6.0-4.56","2586548","co38539","norming","","","","","","",""
"null","../img/tt/052tt.jpg","null","mooney2","image-keyboard-response","403","1341401","0.0-6.0-5.56","2586548","co38539","norming","","","","","","",""
"3793.344999999972","","","post_reveal_questions","survey-likert","404","1345197","0.0-6.0-6.56","2586548","co38539","norming","","","{""aha"":6}","[0]","../img/tt/052tt.jpg","",""
"null","<div style=""font-size:60px;""> </div>","null","fixation","html-keyboard-response","405","1345399","0.0-6.0-0.57","2586548","co38539","norming","","","","","","",""
"null","../img/tt/1227tt.jpg","null","mooney1","image-keyboard-response","406","1348407","0.0-6.0-1.57","2586548","co38539","norming","","","","","","",""
"4363.110000000102","","","post_mooney1_questions","survey-likert","407","1352773","0.0-6.0-2.57","2586548","co38539","norming","","","{""curiosity"":4,""confidence"":0}","[0,1]","../img/tt/1227tt.jpg","",""
"678.0949999995064","","","recognition","survey-text","408","1353453","0.0-6.0-3.57","2586548","co38539","norming","","","{""guess"":""""}","","../img/tt/1227tt.jpg","",""
"null","../img/gs/1227gs.jpg","null","reveal","image-keyboard-response","409","1355460","0.0-6.0-4.57","2586548","co38539","norming","","","","","","",""
"null","../img/tt/1227tt.jpg","null","mooney2","image-keyboard-response","410","1357470","0.0-6.0-5.57","2586548","co38539","norming","","","","","","",""
"3093.075000000652","","","post_reveal_questions","survey-likert","411","1360565","0.0-6.0-6.57","2586548","co38539","norming","","","{""aha"":1}","[0]","../img/tt/1227tt.jpg","",""
"null","<div style=""font-size:60px;""> </div>","null","fixation","html-keyboard-response","412","1360767","0.0-6.0-0.58","2586548","co38539","norming","","","","","","",""
"null","../img/tt/1366tt.jpg","null","mooney1","image-keyboard-response","413","1363770","0.0-6.0-1.58","2586548","co38539","norming","","","","","","",""
"6282.235000000568","","","post_mooney1_questions","survey-likert","414","1370053","0.0-6.0-2.58","2586548","co38539","norming","","","{""curiosity"":6,""confidence"":5}","[0,1]","../img/tt/1366tt.jpg","",""
"1493.6800000013318","","","recognition","survey-text","415","1371549","0.0-6.0-3.58","2586548","co38539","norming","","","{""guess"":""burrito""}","","../img/tt/1366tt.jpg","",""
"null","../img/gs/1366gs.jpg","null","reveal","image-keyboard-response","416","1373551","0.0-6.0-4.58","2586548","co38539","norming","","","","","","",""
"null","../img/tt/1366tt.jpg","null","mooney2","image-keyboard-response","417","1375557","0.0-6.0-5.58","2586548","co38539","norming","","","","","","",""
"4757.4650000005495","","","post_reveal_questions","survey-likert","418","1380317","0.0-6.0-6.58","2586548","co38539","norming","","","{""aha"":1}","[0]","../img/tt/1366tt.jpg","",""
"null","<div style=""font-size:60px;""> </div>","null","fixation","html-keyboard-response","419","1380518","0.0-6.0-0.59","2586548","co38539","norming","","","","","","",""
"null","../img/tt/1156tt.jpg","null","mooney1","image-keyboard-response","420","1383527","0.0-6.0-1.59","2586548","co38539","norming","","","","","","",""
"4875.10499999905","","","post_mooney1_questions","survey-likert","421","1388405","0.0-6.0-2.59","2586548","co38539","norming","","","{""curiosity"":6,""confidence"":0}","[0,1]","../img/tt/1156tt.jpg","",""
"1006.3250000001863","","","recognition","survey-text","422","1389413","0.0-6.0-3.59","2586548","co38539","norming","","","{""guess"":""""}","","../img/tt/1156tt.jpg","",""
"null","../img/gs/1156gs.jpg","null","reveal","image-keyboard-response","423","1391420","0.0-6.0-4.59","2586548","co38539","norming","","","","","","",""
"null","../img/tt/1156tt.jpg","null","mooney2","image-keyboard-response","424","1393421","0.0-6.0-5.59","2586548","co38539","norming","","","","","","",""
"2877.2899999984074","","","post_reveal_questions","survey-likert","425","1396301","0.0-6.0-6.59","2586548","co38539","norming","","","{""aha"":6}","[0]","../img/tt/1156tt.jpg","",""
"null","<div style=""font-size:60px;""> </div>","null","fixation","html-keyboard-response","426","1396503","0.0-6.0-0.60","2586548","co38539","norming","","","","","","",""
"null","../img/tt/1126tt.jpg","null","mooney1","image-keyboard-response","427","1399505","0.0-6.0-1.60","2586548","co38539","norming","","","","","","",""
"4944.564999999711","","","post_mooney1_questions","survey-likert","428","1404453","0.0-6.0-2.60","2586548","co38539","norming","","","{""curiosity"":5,""confidence"":2}","[0,1]","../img/tt/1126tt.jpg","",""
"2278.2600000009406","","","recognition","survey-text","429","1406733","0.0-6.0-3.60","2586548","co38539","norming","","","{""guess"":""rafting""}","","../img/tt/1126tt.jpg","",""
"null","../img/gs/1126gs.jpg","null","reveal","image-keyboard-response","430","1408736","0.0-6.0-4.60","2586548","co38539","norming","","","","","","",""
"null","../img/tt/1126tt.jpg","null","mooney2","image-keyboard-response","431","1410744","0.0-6.0-5.60","2586548","co38539","norming","","","","","","",""
"2898.6100000001024","","","post_reveal_questions","survey-likert","432","1413645","0.0-6.0-6.60","2586548","co38539","norming","","","{""aha"":5}","[0]","../img/tt/1126tt.jpg","",""
"null","<div style=""font-size:60px;""> </div>","null","fixation","html-keyboard-response","433","1413848","0.0-6.0-0.61","2586548","co38539","norming","","","","","","",""
"null","../img/tt/1307tt.jpg","null","mooney1","image-keyboard-response","434","1416857","0.0-6.0-1.61","2586548","co38539","norming","","","","","","",""
"7633.27499999851","","","post_mooney1_questions","survey-likert","435","1424493","0.0-6.0-2.61","2586548","co38539","norming","","","{""curiosity"":6,""confidence"":4}","[0,1]","../img/tt/1307tt.jpg","",""
"4382.074999999488","","","recognition","survey-text","436","1428877","0.0-6.0-3.61","2586548","co38539","norming","","","{""guess"":""hot air balloon""}","","../img/tt/1307tt.jpg","",""
"null","../img/gs/1307gs.jpg","null","reveal","image-keyboard-response","437","1430886","0.0-6.0-4.61","2586548","co38539","norming","","","","","","",""
"null","../img/tt/1307tt.jpg","null","mooney2","image-keyboard-response","438","1432897","0.0-6.0-5.61","2586548","co38539","norming","","","","","","",""
"3777.674999999348","","","post_reveal_questions","survey-likert","439","1436677","0.0-6.0-6.61","2586548","co38539","norming","","","{""aha"":0}","[0]","../img/tt/1307tt.jpg","",""
"null","<div style=""font-size:60px;""> </div>","null","fixation","html-keyboard-response","440","1436887","0.0-6.0-0.62","2586548","co38539","norming","","","","","","",""
"null","../img/tt/1012tt.jpg","null","mooney1","image-keyboard-response","441","1439899","0.0-6.0-1.62","2586548","co38539","norming","","","","","","",""
"4040.860000000801","","","post_mooney1_questions","survey-likert","442","1443938","0.0-6.0-2.62","2586548","co38539","norming","","","{""curiosity"":6,""confidence"":4}","[0,1]","../img/tt/1012tt.jpg","",""
"1685.9850000001024","","","recognition","survey-text","443","1445626","0.0-6.0-3.62","2586548","co38539","norming","","","{""guess"":""owls""}","","../img/tt/1012tt.jpg","",""
"null","../img/gs/1012gs.jpg","null","reveal","image-keyboard-response","444","1447636","0.0-6.0-4.62","2586548","co38539","norming","","","","","","",""
"null","../img/tt/1012tt.jpg","null","mooney2","image-keyboard-response","445","1449638","0.0-6.0-5.62","2586548","co38539","norming","","","","","","",""
"3017.759999998845","","","post_reveal_questions","survey-likert","446","1452658","0.0-6.0-6.62","2586548","co38539","norming","","","{""aha"":4}","[0]","../img/tt/1012tt.jpg","",""
"null","<div style=""font-size:60px;""> </div>","null","fixation","html-keyboard-response","447","1452860","0.0-6.0-0.63","2586548","co38539","norming","","","","","","",""
"null","../img/tt/481tt.jpg","null","mooney1","image-keyboard-response","448","1455872","0.0-6.0-1.63","2586548","co38539","norming","","","","","","",""
"4848.570000000298","","","post_mooney1_questions","survey-likert","449","1460722","0.0-6.0-2.63","2586548","co38539","norming","","","{""curiosity"":4,""confidence"":2}","[0,1]","../img/tt/481tt.jpg","",""
"1061.7249999996275","","","recognition","survey-text","450","1461786","0.0-6.0-3.63","2586548","co38539","norming","","","{""guess"":""dog""}","","../img/tt/481tt.jpg","",""
"null","../img/gs/481gs.jpg","null","reveal","image-keyboard-response","451","1463796","0.0-6.0-4.63","2586548","co38539","norming","","","","","","",""
"null","../img/tt/481tt.jpg","null","mooney2","image-keyboard-response","452","1465804","0.0-6.0-5.63","2586548","co38539","norming","","","","","","",""
"2852.614999999758","","","post_reveal_questions","survey-likert","453","1468658","0.0-6.0-6.63","2586548","co38539","norming","","","{""aha"":6}","[0]","../img/tt/481tt.jpg","",""
"null","<div style=""font-size:60px;""> </div>","null","fixation","html-keyboard-response","454","1468859","0.0-6.0-0.64","2586548","co38539","norming","","","","","","",""
"null","../img/tt/121tt.jpg","null","mooney1","image-keyboard-response","455","1471864","0.0-6.0-1.64","2586548","co38539","norming","","","","","","",""
"5513.124999999534","","","post_mooney1_questions","survey-likert","456","1477378","0.0-6.0-2.64","2586548","co38539","norming","","","{""curiosity"":6,""confidence"":2}","[0,1]","../img/tt/121tt.jpg","",""
"1686.079999999376","","","recognition","survey-text","457","1479066","0.0-6.0-3.64","2586548","co38539","norming","","","{""guess"":""wrestling""}","","../img/tt/121tt.jpg","",""
"null","../img/gs/121gs.jpg","null","reveal","image-keyboard-response","458","1481071","0.0-6.0-4.64","2586548","co38539","norming","","","","","","",""
"null","../img/tt/121tt.jpg","null","mooney2","image-keyboard-response","459","1483081","0.0-6.0-5.64","2586548","co38539","norming","","","","","","",""
"3822.5200000016484","","","post_reveal_questions","survey-likert","460","1486906","0.0-6.0-6.64","2586548","co38539","norming","","","{""aha"":1}","[0]","../img/tt/121tt.jpg","",""
"null","<div style=""font-size:60px;""> </div>","null","fixation","html-keyboard-response","461","1487107","0.0-6.0-0.65","2586548","co38539","norming","","","","","","",""
"null","../img/tt/1239tt.jpg","null","mooney1","image-keyboard-response","462","1490111","0.0-6.0-1.65","2586548","co38539","norming","","","","","","",""
"4727.604999999981","","","post_mooney1_questions","survey-likert","463","1494842","0.0-6.0-2.65","2586548","co38539","norming","","","{""curiosity"":0,""confidence"":0}","[0,1]","../img/tt/1239tt.jpg","",""
"1054.2449999994133","","","recognition","survey-text","464","1495898","0.0-6.0-3.65","2586548","co38539","norming","","","{""guess"":""""}","","../img/tt/1239tt.jpg","",""
"null","../img/gs/1239gs.jpg","null","reveal","image-keyboard-response","465","1497900","0.0-6.0-4.65","2586548","co38539","norming","","","","","","",""
"null","../img/tt/1239tt.jpg","null","mooney2","image-keyboard-response","466","1499908","0.0-6.0-5.65","2586548","co38539","norming","","","","","","",""
"4333.135000000708","","","post_reveal_questions","survey-likert","467","1504242","0.0-6.0-6.65","2586548","co38539","norming","","","{""aha"":3}","[0]","../img/tt/1239tt.jpg","",""
"null","<div style=""font-size:60px;""> </div>","null","fixation","html-keyboard-response","468","1504445","0.0-6.0-0.66","2586548","co38539","norming","","","","","","",""
"null","../img/tt/1087tt.jpg","null","mooney1","image-keyboard-response","469","1507454","0.0-6.0-1.66","2586548","co38539","norming","","","","","","",""
"3632.6000000007916","","","post_mooney1_questions","survey-likert","470","1511090","0.0-6.0-2.66","2586548","co38539","norming","","","{""curiosity"":4,""confidence"":3}","[0,1]","../img/tt/1087tt.jpg","",""
"2837.864999999525","","","recognition","survey-text","471","1513930","0.0-6.0-3.66","2586548","co38539","norming","","","{""guess"":""cows""}","","../img/tt/1087tt.jpg","",""
"null","../img/gs/1087gs.jpg","null","reveal","image-keyboard-response","472","1515938","0.0-6.0-4.66","2586548","co38539","norming","","","","","","",""
"null","../img/tt/1087tt.jpg","null","mooney2","image-keyboard-response","473","1517947","0.0-6.0-5.66","2586548","co38539","norming","","","","","","",""
"2580.5699999982025","","","post_reveal_questions","survey-likert","474","1520530","0.0-6.0-6.66","2586548","co38539","norming","","","{""aha"":5}","[0]","../img/tt/1087tt.jpg","",""
"null","<div style=""font-size:60px;""> </div>","null","fixation","html-keyboard-response","475","1520733","0.0-6.0-0.67","2586548","co38539","norming","","","","","","",""
"null","../img/tt/094tt.jpg","null","mooney1","image-keyboard-response","476","1523742","0.0-6.0-1.67","2586548","co38539","norming","","","","","","",""
"5352.834999999497","","","post_mooney1_questions","survey-likert","477","1529098","0.0-6.0-2.67","2586548","co38539","norming","","","{""curiosity"":6,""confidence"":0}","[0,1]","../img/tt/094tt.jpg","",""
"302.0950000009034","","","recognition","survey-text","478","1529402","0.0-6.0-3.67","2586548","co38539","norming","","","{""guess"":""""}","","../img/tt/094tt.jpg","",""
"null","../img/gs/094gs.jpg","null","reveal","image-keyboard-response","479","1531406","0.0-6.0-4.67","2586548","co38539","norming","","","","","","",""
"null","../img/tt/094tt.jpg","null","mooney2","image-keyboard-response","480","1533417","0.0-6.0-5.67","2586548","co38539","norming","","","","","","",""
"3536.7900000000373","","","post_reveal_questions","survey-likert","481","1536962","0.0-6.0-6.67","2586548","co38539","norming","","","{""aha"":1}","[0]","../img/tt/094tt.jpg","",""
"null","<div style=""font-size:60px;""> </div>","null","fixation","html-keyboard-response","482","1537163","0.0-6.0-0.68","2586548","co38539","norming","","","","","","",""
"null","../img/tt/418tt.jpg","null","mooney1","image-keyboard-response","483","1540168","0.0-6.0-1.68","2586548","co38539","norming","","","","","","",""
"4726.380000000121","","","post_mooney1_questions","survey-likert","484","1544898","0.0-6.0-2.68","2586548","co38539","norming","","","{""curiosity"":2,""confidence"":1}","[0,1]","../img/tt/418tt.jpg","",""
"2837.740000000922","","","recognition","survey-text","485","1547738","0.0-6.0-3.68","2586548","co38539","norming","","","{""guess"":""branches""}","","../img/tt/418tt.jpg","",""
"null","../img/gs/418gs.jpg","null","reveal","image-keyboard-response","486","1549743","0.0-6.0-4.68","2586548","co38539","norming","","","","","","",""
"null","../img/tt/418tt.jpg","null","mooney2","image-keyboard-response","487","1551755","0.0-6.0-5.68","2586548","co38539","norming","","","","","","",""
"2244.490000000922","","","post_reveal_questions","survey-likert","488","1554002","0.0-6.0-6.68","2586548","co38539","norming","","","{""aha"":5}","[0]","../img/tt/418tt.jpg","",""
"null","<div style=""font-size:60px;""> </div>","null","fixation","html-keyboard-response","489","1554210","0.0-6.0-0.69","2586548","co38539","norming","","","","","","",""
"null","../img/tt/064tt.jpg","null","mooney1","image-keyboard-response","490","1557213","0.0-6.0-1.69","2586548","co38539","norming","","","","","","",""
"4298.6249999993015","","","post_mooney1_questions","survey-likert","491","1561514","0.0-6.0-2.69","2586548","co38539","norming","","","{""curiosity"":6,""confidence"":5}","[0,1]","../img/tt/064tt.jpg","",""
"1870.004999998724","","","recognition","survey-text","492","1563386","0.0-6.0-3.69","2586548","co38539","norming","","","{""guess"":""turtle""}","","../img/tt/064tt.jpg","",""
"null","../img/gs/064gs.jpg","null","reveal","image-keyboard-response","493","1565400","0.0-6.0-4.69","2586548","co38539","norming","","","","","","",""
"null","../img/tt/064tt.jpg","null","mooney2","image-keyboard-response","494","1567402","0.0-6.0-5.69","2586548","co38539","norming","","","","","","",""
"1880.1450000011828","","","post_reveal_questions","survey-likert","495","1569285","0.0-6.0-6.69","2586548","co38539","norming","","","{""aha"":6}","[0]","../img/tt/064tt.jpg","",""
"null","<div style=""font-size:60px;""> </div>","null","fixation","html-keyboard-response","496","1569496","0.0-6.0-0.70","2586548","co38539","norming","","","","","","",""
"null","../img/tt/456tt.jpg","null","mooney1","image-keyboard-response","497","1572501","0.0-6.0-1.70","2586548","co38539","norming","","","","","","",""
"4461.365000000922","","","post_mooney1_questions","survey-likert","498","1576965","0.0-6.0-2.70","2586548","co38539","norming","","","{""curiosity"":6,""confidence"":0}","[0,1]","../img/tt/456tt.jpg","",""
"1238.1299999996554","","","recognition","survey-text","499","1578205","0.0-6.0-3.70","2586548","co38539","norming","","","{""guess"":""""}","","../img/tt/456tt.jpg","",""
"null","../img/gs/456gs.jpg","null","reveal","image-keyboard-response","500","1580211","0.0-6.0-4.70","2586548","co38539","norming","","","","","","",""
"null","../img/tt/456tt.jpg","null","mooney2","image-keyboard-response","501","1582221","0.0-6.0-5.70","2586548","co38539","norming","","","","","","",""
"2421.620000001043","","","post_reveal_questions","survey-likert","502","1584645","0.0-6.0-6.70","2586548","co38539","norming","","","{""aha"":0}","[0]","../img/tt/456tt.jpg","",""
"null","<div style=""font-size:60px;""> </div>","null","fixation","html-keyboard-response","503","1584846","0.0-6.0-0.71","2586548","co38539","norming","","","","","","",""
"null","../img/tt/1269tt.jpg","null","mooney1","image-keyboard-response","504","1587854","0.0-6.0-1.71","2586548","co38539","norming","","","","","","",""
"9317.820000000065","","","post_mooney1_questions","survey-likert","505","1597173","0.0-6.0-2.71","2586548","co38539","norming","","","{""curiosity"":3,""confidence"":1}","[0,1]","../img/tt/1269tt.jpg","",""
"1973.9950000001118","","","recognition","survey-text","506","1599149","0.0-6.0-3.71","2586548","co38539","norming","","","{""guess"":""monkey""}","","../img/tt/1269tt.jpg","",""
"null","../img/gs/1269gs.jpg","null","reveal","image-keyboard-response","507","1601157","0.0-6.0-4.71","2586548","co38539","norming","","","","","","",""
"null","../img/tt/1269tt.jpg","null","mooney2","image-keyboard-response","508","1603167","0.0-6.0-5.71","2586548","co38539","norming","","","","","","",""
"3643.544999998994","","","post_reveal_questions","survey-likert","509","1606813","0.0-6.0-6.71","2586548","co38539","norming","","","{""aha"":3}","[0]","../img/tt/1269tt.jpg","",""
"null","<div style=""font-size:60px;""> </div>","null","fixation","html-keyboard-response","510","1607014","0.0-6.0-0.72","2586548","co38539","norming","","","","","","",""
"null","../img/tt/1236tt.jpg","null","mooney1","image-keyboard-response","511","1610019","0.0-6.0-1.72","2586548","co38539","norming","","","","","","",""
"5863.219999999274","","","post_mooney1_questions","survey-likert","512","1615885","0.0-6.0-2.72","2586548","co38539","norming","","","{""curiosity"":2,""confidence"":0}","[0,1]","../img/tt/1236tt.jpg","",""
"270.08000000030734","","","recognition","survey-text","513","1616157","0.0-6.0-3.72","2586548","co38539","norming","","","{""guess"":""""}","","../img/tt/1236tt.jpg","",""
"null","../img/gs/1236gs.jpg","null","reveal","image-keyboard-response","514","1618163","0.0-6.0-4.72","2586548","co38539","norming","","","","","","",""
"null","../img/tt/1236tt.jpg","null","mooney2","image-keyboard-response","515","1620167","0.0-6.0-5.72","2586548","co38539","norming","","","","","","",""
"7563.25499999919","","","post_reveal_questions","survey-likert","516","1627726","0.0-6.0-6.72","2586548","co38539","norming","","","{""aha"":1}","[0]","../img/tt/1236tt.jpg","",""
"null","<div style=""font-size:60px;""> </div>","null","fixation","html-keyboard-response","517","1627927","0.0-6.0-0.73","2586548","co38539","norming","","","","","","",""
"null","../img/tt/084tt.jpg","null","mooney1","image-keyboard-response","518","1630932","0.0-6.0-1.73","2586548","co38539","norming","","","","","","",""
"3799.034999999916","","","post_mooney1_questions","survey-likert","519","1634734","0.0-6.0-2.73","2586548","co38539","norming","","","{""curiosity"":3,""confidence"":1}","[0,1]","../img/tt/084tt.jpg","",""
"918.0049999994226","","","recognition","survey-text","520","1635654","0.0-6.0-3.73","2586548","co38539","norming","","","{""guess"":""eend""}","","../img/tt/084tt.jpg","",""
"null","../img/gs/084gs.jpg","null","reveal","image-keyboard-response","521","1637663","0.0-6.0-4.73","2586548","co38539","norming","","","","","","",""
"null","../img/tt/084tt.jpg","null","mooney2","image-keyboard-response","522","1639673","0.0-6.0-5.73","2586548","co38539","norming","","","","","","",""
"3978.8349999999627","","","post_reveal_questions","survey-likert","523","1643654","0.0-6.0-6.73","2586548","co38539","norming","","","{""aha"":3}","[0]","../img/tt/084tt.jpg","",""
"null","<div style=""font-size:60px;""> </div>","null","fixation","html-keyboard-response","524","1643861","0.0-6.0-0.74","2586548","co38539","norming","","","","","","",""
"null","../img/tt/1199tt.jpg","null","mooney1","image-keyboard-response","525","1646869","0.0-6.0-1.74","2586548","co38539","norming","","","","","","",""
"4181.5549999990035","","","post_mooney1_questions","survey-likert","526","1651055","0.0-6.0-2.74","2586548","co38539","norming","","","{""curiosity"":6,""confidence"":2}","[0,1]","../img/tt/1199tt.jpg","",""
"1430.2649999989662","","","recognition","survey-text","527","1652486","0.0-6.0-3.74","2586548","co38539","norming","","","{""guess"":""bowling""}","","../img/tt/1199tt.jpg","",""
"null","../img/gs/1199gs.jpg","null","reveal","image-keyboard-response","528","1654496","0.0-6.0-4.74","2586548","co38539","norming","","","","","","",""
"null","../img/tt/1199tt.jpg","null","mooney2","image-keyboard-response","529","1656505","0.0-6.0-5.74","2586548","co38539","norming","","","","","","",""
"3316.0700000007637","","","post_reveal_questions","survey-likert","530","1659822","0.0-6.0-6.74","2586548","co38539","norming","","","{""aha"":6}","[0]","../img/tt/1199tt.jpg","",""
"null","<div style=""font-size:60px;""> </div>","null","fixation","html-keyboard-response","531","1660026","0.0-6.0-0.75","2586548","co38539","norming","","","","","","",""
"null","../img/tt/580tt.jpg","null","mooney1","image-keyboard-response","532","1663031","0.0-6.0-1.75","2586548","co38539","norming","","","","","","",""
"9859.864999998594","","","post_mooney1_questions","survey-likert","533","1672895","0.0-6.0-2.75","2586548","co38539","norming","","","{""curiosity"":6,""confidence"":4}","[0,1]","../img/tt/580tt.jpg","",""
"1557.9099999994505","","","recognition","survey-text","534","1674454","0.0-6.0-3.75","2586548","co38539","norming","","","{""guess"":""das""}","","../img/tt/580tt.jpg","",""
"null","../img/gs/580gs.jpg","null","reveal","image-keyboard-response","535","1676458","0.0-6.0-4.75","2586548","co38539","norming","","","","","","",""
"null","../img/tt/580tt.jpg","null","mooney2","image-keyboard-response","536","1678460","0.0-6.0-5.75","2586548","co38539","norming","","","","","","",""
"3175.235000000801","","","post_reveal_questions","survey-likert","537","1681638","0.0-6.0-6.75","2586548","co38539","norming","","","{""aha"":0}","[0]","../img/tt/580tt.jpg","",""
"null","<div style=""font-size:60px;""> </div>","null","fixation","html-keyboard-response","538","1681840","0.0-6.0-0.76","2586548","co38539","norming","","","","","","",""
"null","../img/tt/515tt.jpg","null","mooney1","image-keyboard-response","539","1684841","0.0-6.0-1.76","2586548","co38539","norming","","","","","","",""
"2834.139999999199","","","post_mooney1_questions","survey-likert","540","1687685","0.0-6.0-2.76","2586548","co38539","norming","","","{""curiosity"":4,""confidence"":1}","[0,1]","../img/tt/515tt.jpg","",""
"1013.8800000003539","","","recognition","survey-text","541","1688701","0.0-6.0-3.76","2586548","co38539","norming","","","{""guess"":""book""}","","../img/tt/515tt.jpg","",""
"null","../img/gs/515gs.jpg","null","reveal","image-keyboard-response","542","1690703","0.0-6.0-4.76","2586548","co38539","norming","","","","","","",""
"null","../img/tt/515tt.jpg","null","mooney2","image-keyboard-response","543","1692704","0.0-6.0-5.76","2586548","co38539","norming","","","","","","",""
"5923.775000001071","","","post_reveal_questions","survey-likert","544","1698629","0.0-6.0-6.76","2586548","co38539","norming","","","{""aha"":2}","[0]","../img/tt/515tt.jpg","",""
"null","<div style=""font-size:60px;""> </div>","null","fixation","html-keyboard-response","545","1698831","0.0-6.0-0.77","2586548","co38539","norming","","","","","","",""
"null","../img/tt/1202tt.jpg","null","mooney1","image-keyboard-response","546","1701839","0.0-6.0-1.77","2586548","co38539","norming","","","","","","",""
"4117.039999999339","","","post_mooney1_questions","survey-likert","547","1705957","0.0-6.0-2.77","2586548","co38539","norming","","","{""curiosity"":5,""confidence"":0}","[0,1]","../img/tt/1202tt.jpg","",""
"342.0050000003539","","","recognition","survey-text","548","1706301","0.0-6.0-3.77","2586548","co38539","norming","","","{""guess"":""""}","","../img/tt/1202tt.jpg","",""
"null","../img/gs/1202gs.jpg","null","reveal","image-keyboard-response","549","1708306","0.0-6.0-4.77","2586548","co38539","norming","","","","","","",""
"null","../img/tt/1202tt.jpg","null","mooney2","image-keyboard-response","550","1710308","0.0-6.0-5.77","2586548","co38539","norming","","","","","","",""
"3438.260000000708","","","post_reveal_questions","survey-likert","551","1713749","0.0-6.0-6.77","2586548","co38539","norming","","","{""aha"":3}","[0]","../img/tt/1202tt.jpg","",""
