"rt","stimulus","key_press","test_part","trial_type","trial_index","time_elapsed","internal_node_id","totalTime","subject","experiment_name","button_pressed","success","responses","question_order","currentStim","old","correct"
"7570.300000001225","Welcome to the experiment. This is an online experiment so please don't close the tab/window until we say goodbye.  Press any key to begin.","13","instructions","html-keyboard-response","0","7621","0.0-0.0","2721175","co38590","norming","","","","","","",""
"3158.095000000685","<div style='word-wrap: break-word; width: 900px'><h3>Please consider this information carefully before deciding whether to participate in this research</h3><ul style='text-align: left; font-size: .8em;'><li><b>Purpose of the research</b>: To examine how people process images.</li><li><b>What you will do in this research</b>:  Stimuli (images) will be presented on the computer and you will be asked different questions about them.</li><li><b>Time required</b>: Participation will take between 45 and 60 minutes to complete.</li><li><b>Risks</b>:  There are no anticipated risks associated with participating in this study. The effects of participating should be comparable to those you would experience from viewing a computer monitor for 30 minutes and using a mouse or keyboard.</li><li><b>Benefits</b>:  This study provides no benefits to you individually except for the credit. The study provides important information about the nature of perception and learning.</li><li><b>Confidentiality</b>:  Your participation in this study will remain confidential. No personally identifiable information will be associated with your data. Your de-identified data may be shared with other researchers and used in future projects.</li><li><b>Participation and withdrawal</b>:  Your participation in this study is completely voluntary and you may refuse to participate or you may choose to withdraw at any time without penalty.</li><li><b>How to contact the researchers</b>: If you have questions or concerns about your participation or payment, or want to request a summary of research findings, please contact Sander Van de Cruys (KU Leuven), at sander.vandecruys@kuleuven.be.</li></ul><p>The nature and purpose of this research have been sufficiently explained and I agree to participate in this study.  I understand that I am free to withdraw at any time without incurring any penalty.</p><p>Please consent by clicking the button below to continue. Otherwise, please exit the study at this time.</p></div>","","instructions","html-button-response","1","10780","0.0-1.0","2721175","co38590","norming","0","","","","","",""
"","","","instructions","fullscreen","2","13583","0.0-2.0","2721175","co38590","norming","","true","","","","",""
"27946.36999999966","","","sona","survey-html-form","3","41533","0.0-3.0","2721175","co38590","norming","","","[{""name"":""sonaid"",""value"":""38590""},{""name"":""debrief"",""value"":""yes""},{""name"":""datajoin"",""value"":""yes""}]","","","",""
"55955.19499999864","<div style='word-wrap: break-word; width: 900px'><h3>Instructions</h3><p>This experiment will have 3 parts. In the first part you will see a series of distorted images like the one below on the left. As you can see in the righthand image, the distorted images are derived from actual photographs. In what follows, you will <strong>briefly</strong> be presented with <strong>only</strong> the distorted image.</p> <div style='float: left; margin-right: 20px;'><img src='../img/018tt.jpg' height='250' width='250'></img></div><div style='float: right; margin-left: 20px;'><img src='../img/018gs.jpg' height='250' width='250'></img></div><p>Subsequently you will be asked a few questions about the image: One question on how <strong>curious</strong> you are about the solution and one on how <strong>confident</strong> you are that you know the solution.</p>Next, we ask you to make a guess on what is in the image. Note that it is OK to name just the <strong>basic level category</strong>. For example when you see a parrot in the image, 'parrot' will obviously be a correct answer but also correct is 'bird'. However, 'animal' will <strong>not</strong> be counted as a correct response. For the example above, 'rose' would be correct or 'flower', but not 'plant'. When soccer players are depicted, 'soccer', 'football', 'soccer players' will be correct, but not 'humans', 'outdoors', or 'sports'. You do not need to describe the image in full, just name the main object in it <strong>in one or two words</strong>. All images depict objects from one of the following broad level categories: animals, inanimate objects, plants, sports, vehicles, and food. Recognizing means knowing <strong>more</strong> than these broad labels for a given image. But we always encourage you to <strong>make a guess</strong> if you can. Note that you are allowed to use <strong>Dutch and English</strong> in your answers, whatever comes easiest for you.</p><p>Press any key to continue.</p></div>","13","instructions","html-keyboard-response","4","97493","0.0-4.0","2721175","co38590","norming","","","","","","",""
"117136.16499999988","<div style='word-wrap: break-word; width: 900px'><h3>Instructions</h3> <p>Next, the solution image will be revealed to you and you'll be asked to indicate how strong your <strong>aha-experience</strong> was after seeing the solution. This describes the positive feeling of the 'click' you sometimes experience, when the pieces of the 'puzzle' fall together and you suddenly have 'insight' in the image.</p><img src='aha.jpg' height='188' width='250'></img><p>Note that there are no right or wrong answers. We are interested in what <strong>you</strong> see in the image and how <strong>you</strong> feel about it.</p><p>Press any key to start the experiment.</p></div>","32","instructions","html-keyboard-response","5","214627","0.0-5.0","2721175","co38590","norming","","","","","","",""
"null","<div style=""font-size:60px;""> </div>","null","fixation","html-keyboard-response","6","214831","0.0-6.0-0.0","2721175","co38590","norming","","","","","","",""
"null","../img/tt/301tt.jpg","null","mooney1","image-keyboard-response","7","217835","0.0-6.0-1.0","2721175","co38590","norming","","","","","","",""
"8442.469999999943","","","post_mooney1_questions","survey-likert","8","226282","0.0-6.0-2.0","2721175","co38590","norming","","","{""curiosity"":4,""confidence"":0}","[0,1]","../img/tt/301tt.jpg","",""
"3621.7800000013085","","","recognition","survey-text","9","229906","0.0-6.0-3.0","2721175","co38590","norming","","","{""guess"":""""}","","../img/tt/301tt.jpg","",""
"null","../img/gs/301gs.jpg","null","reveal","image-keyboard-response","10","231913","0.0-6.0-4.0","2721175","co38590","norming","","","","","","",""
"null","../img/tt/301tt.jpg","null","mooney2","image-keyboard-response","11","233917","0.0-6.0-5.0","2721175","co38590","norming","","","","","","",""
"7377.999999998807","","","post_reveal_questions","survey-likert","12","241298","0.0-6.0-6.0","2721175","co38590","norming","","","{""aha"":2}","[0]","../img/tt/301tt.jpg","",""
"null","<div style=""font-size:60px;""> </div>","null","fixation","html-keyboard-response","13","241505","0.0-6.0-0.1","2721175","co38590","norming","","","","","","",""
"null","../img/tt/007tt.jpg","null","mooney1","image-keyboard-response","14","244514","0.0-6.0-1.1","2721175","co38590","norming","","","","","","",""
"5253.7499999998545","","","post_mooney1_questions","survey-likert","15","249770","0.0-6.0-2.1","2721175","co38590","norming","","","{""curiosity"":4,""confidence"":2}","[0,1]","../img/tt/007tt.jpg","",""
"3765.820000000531","","","recognition","survey-text","16","253538","0.0-6.0-3.1","2721175","co38590","norming","","","{""guess"":""flower""}","","../img/tt/007tt.jpg","",""
"null","../img/gs/007gs.jpg","null","reveal","image-keyboard-response","17","255540","0.0-6.0-4.1","2721175","co38590","norming","","","","","","",""
"null","../img/tt/007tt.jpg","null","mooney2","image-keyboard-response","18","257542","0.0-6.0-5.1","2721175","co38590","norming","","","","","","",""
"2033.8150000007008","","","post_reveal_questions","survey-likert","19","259578","0.0-6.0-6.1","2721175","co38590","norming","","","{""aha"":3}","[0]","../img/tt/007tt.jpg","",""
"null","<div style=""font-size:60px;""> </div>","null","fixation","html-keyboard-response","20","259784","0.0-6.0-0.2","2721175","co38590","norming","","","","","","",""
"null","../img/tt/1171tt.jpg","null","mooney1","image-keyboard-response","21","262787","0.0-6.0-1.2","2721175","co38590","norming","","","","","","",""
"5508.845000000321","","","post_mooney1_questions","survey-likert","22","268298","0.0-6.0-2.2","2721175","co38590","norming","","","{""curiosity"":5,""confidence"":0}","[0,1]","../img/tt/1171tt.jpg","",""
"734.1149999992922","","","recognition","survey-text","23","269034","0.0-6.0-3.2","2721175","co38590","norming","","","{""guess"":""""}","","../img/tt/1171tt.jpg","",""
"null","../img/gs/1171gs.jpg","null","reveal","image-keyboard-response","24","271036","0.0-6.0-4.2","2721175","co38590","norming","","","","","","",""
"null","../img/tt/1171tt.jpg","null","mooney2","image-keyboard-response","25","273045","0.0-6.0-5.2","2721175","co38590","norming","","","","","","",""
"3042.860000001383","","","post_reveal_questions","survey-likert","26","276088","0.0-6.0-6.2","2721175","co38590","norming","","","{""aha"":2}","[0]","../img/tt/1171tt.jpg","",""
"null","<div style=""font-size:60px;""> </div>","null","fixation","html-keyboard-response","27","276290","0.0-6.0-0.3","2721175","co38590","norming","","","","","","",""
"null","../img/tt/270tt.jpg","null","mooney1","image-keyboard-response","28","279301","0.0-6.0-1.3","2721175","co38590","norming","","","","","","",""
"5368.784999998752","","","post_mooney1_questions","survey-likert","29","284672","0.0-6.0-2.3","2721175","co38590","norming","","","{""curiosity"":4,""confidence"":1}","[0,1]","../img/tt/270tt.jpg","",""
"3733.9649999994435","","","recognition","survey-text","30","288408","0.0-6.0-3.3","2721175","co38590","norming","","","{""guess"":""bos""}","","../img/tt/270tt.jpg","",""
"null","../img/gs/270gs.jpg","null","reveal","image-keyboard-response","31","290413","0.0-6.0-4.3","2721175","co38590","norming","","","","","","",""
"null","../img/tt/270tt.jpg","null","mooney2","image-keyboard-response","32","292424","0.0-6.0-5.3","2721175","co38590","norming","","","","","","",""
"2325.984999999462","","","post_reveal_questions","survey-likert","33","294752","0.0-6.0-6.3","2721175","co38590","norming","","","{""aha"":2}","[0]","../img/tt/270tt.jpg","",""
"null","<div style=""font-size:60px;""> </div>","null","fixation","html-keyboard-response","34","294953","0.0-6.0-0.4","2721175","co38590","norming","","","","","","",""
"null","../img/tt/108tt.jpg","null","mooney1","image-keyboard-response","35","297962","0.0-6.0-1.4","2721175","co38590","norming","","","","","","",""
"5003.839999999385","","","post_mooney1_questions","survey-likert","36","302968","0.0-6.0-2.4","2721175","co38590","norming","","","{""curiosity"":4,""confidence"":2}","[0,1]","../img/tt/108tt.jpg","",""
"4861.895000000019","","","recognition","survey-text","37","307832","0.0-6.0-3.4","2721175","co38590","norming","","","{""guess"":""kameleon""}","","../img/tt/108tt.jpg","",""
"null","../img/gs/108gs.jpg","null","reveal","image-keyboard-response","38","309835","0.0-6.0-4.4","2721175","co38590","norming","","","","","","",""
"null","../img/tt/108tt.jpg","null","mooney2","image-keyboard-response","39","311840","0.0-6.0-5.4","2721175","co38590","norming","","","","","","",""
"3830.4599999992643","","","post_reveal_questions","survey-likert","40","315672","0.0-6.0-6.4","2721175","co38590","norming","","","{""aha"":1}","[0]","../img/tt/108tt.jpg","",""
"null","<div style=""font-size:60px;""> </div>","null","fixation","html-keyboard-response","41","315874","0.0-6.0-0.5","2721175","co38590","norming","","","","","","",""
"null","../img/tt/1254tt.jpg","null","mooney1","image-keyboard-response","42","318883","0.0-6.0-1.5","2721175","co38590","norming","","","","","","",""
"8474.460000001243","","","post_mooney1_questions","survey-likert","43","327360","0.0-6.0-2.5","2721175","co38590","norming","","","{""curiosity"":4,""confidence"":1}","[0,1]","../img/tt/1254tt.jpg","",""
"4270.020000001765","","","recognition","survey-text","44","331632","0.0-6.0-3.5","2721175","co38590","norming","","","{""guess"":""konijn""}","","../img/tt/1254tt.jpg","",""
"null","../img/gs/1254gs.jpg","null","reveal","image-keyboard-response","45","333641","0.0-6.0-4.5","2721175","co38590","norming","","","","","","",""
"null","../img/tt/1254tt.jpg","null","mooney2","image-keyboard-response","46","335654","0.0-6.0-5.5","2721175","co38590","norming","","","","","","",""
"1822.5700000002398","","","post_reveal_questions","survey-likert","47","337478","0.0-6.0-6.5","2721175","co38590","norming","","","{""aha"":2}","[0]","../img/tt/1254tt.jpg","",""
"null","<div style=""font-size:60px;""> </div>","null","fixation","html-keyboard-response","48","337683","0.0-6.0-0.6","2721175","co38590","norming","","","","","","",""
"null","../img/tt/121tt.jpg","null","mooney1","image-keyboard-response","49","340686","0.0-6.0-1.6","2721175","co38590","norming","","","","","","",""
"3741.3500000002095","","","post_mooney1_questions","survey-likert","50","344430","0.0-6.0-2.6","2721175","co38590","norming","","","{""curiosity"":3,""confidence"":2}","[0,1]","../img/tt/121tt.jpg","",""
"3837.9699999986333","","","recognition","survey-text","51","348269","0.0-6.0-3.6","2721175","co38590","norming","","","{""guess"":""kangoeroe""}","","../img/tt/121tt.jpg","",""
"null","../img/gs/121gs.jpg","null","reveal","image-keyboard-response","52","350277","0.0-6.0-4.6","2721175","co38590","norming","","","","","","",""
"null","../img/tt/121tt.jpg","null","mooney2","image-keyboard-response","53","352279","0.0-6.0-5.6","2721175","co38590","norming","","","","","","",""
"4110.319999999774","","","post_reveal_questions","survey-likert","54","356390","0.0-6.0-6.6","2721175","co38590","norming","","","{""aha"":0}","[0]","../img/tt/121tt.jpg","",""
"null","<div style=""font-size:60px;""> </div>","null","fixation","html-keyboard-response","55","356591","0.0-6.0-0.7","2721175","co38590","norming","","","","","","",""
"null","../img/tt/524tt.jpg","null","mooney1","image-keyboard-response","56","359595","0.0-6.0-1.7","2721175","co38590","norming","","","","","","",""
"7832.650000000256","","","post_mooney1_questions","survey-likert","57","367430","0.0-6.0-2.7","2721175","co38590","norming","","","{""curiosity"":3,""confidence"":3}","[0,1]","../img/tt/524tt.jpg","",""
"4678.195000000414","","","recognition","survey-text","58","372110","0.0-6.0-3.7","2721175","co38590","norming","","","{""guess"":""olifant""}","","../img/tt/524tt.jpg","",""
"null","../img/gs/524gs.jpg","null","reveal","image-keyboard-response","59","374113","0.0-6.0-4.7","2721175","co38590","norming","","","","","","",""
"null","../img/tt/524tt.jpg","null","mooney2","image-keyboard-response","60","376123","0.0-6.0-5.7","2721175","co38590","norming","","","","","","",""
"2407.7249999991036","","","post_reveal_questions","survey-likert","61","378534","0.0-6.0-6.7","2721175","co38590","norming","","","{""aha"":2}","[0]","../img/tt/524tt.jpg","",""
"null","<div style=""font-size:60px;""> </div>","null","fixation","html-keyboard-response","62","378745","0.0-6.0-0.8","2721175","co38590","norming","","","","","","",""
"null","../img/tt/442tt.jpg","null","mooney1","image-keyboard-response","63","381751","0.0-6.0-1.8","2721175","co38590","norming","","","","","","",""
"6284.794999999576","","","post_mooney1_questions","survey-likert","64","388038","0.0-6.0-2.8","2721175","co38590","norming","","","{""curiosity"":4,""confidence"":0}","[0,1]","../img/tt/442tt.jpg","",""
"1182.039999999688","","","recognition","survey-text","65","389222","0.0-6.0-3.8","2721175","co38590","norming","","","{""guess"":""""}","","../img/tt/442tt.jpg","",""
"null","../img/gs/442gs.jpg","null","reveal","image-keyboard-response","66","391229","0.0-6.0-4.8","2721175","co38590","norming","","","","","","",""
"null","../img/tt/442tt.jpg","null","mooney2","image-keyboard-response","67","393239","0.0-6.0-5.8","2721175","co38590","norming","","","","","","",""
"2220.7049999997253","","","post_reveal_questions","survey-likert","68","395462","0.0-6.0-6.8","2721175","co38590","norming","","","{""aha"":3}","[0]","../img/tt/442tt.jpg","",""
"null","<div style=""font-size:60px;""> </div>","null","fixation","html-keyboard-response","69","395669","0.0-6.0-0.9","2721175","co38590","norming","","","","","","",""
"null","../img/tt/1278tt.jpg","null","mooney1","image-keyboard-response","70","398676","0.0-6.0-1.9","2721175","co38590","norming","","","","","","",""
"5077.994999999646","","","post_mooney1_questions","survey-likert","71","403758","0.0-6.0-2.9","2721175","co38590","norming","","","{""curiosity"":4,""confidence"":0}","[0,1]","../img/tt/1278tt.jpg","",""
"982.3200000009965","","","recognition","survey-text","72","404742","0.0-6.0-3.9","2721175","co38590","norming","","","{""guess"":""""}","","../img/tt/1278tt.jpg","",""
"null","../img/gs/1278gs.jpg","null","reveal","image-keyboard-response","73","406744","0.0-6.0-4.9","2721175","co38590","norming","","","","","","",""
"null","../img/tt/1278tt.jpg","null","mooney2","image-keyboard-response","74","408755","0.0-6.0-5.9","2721175","co38590","norming","","","","","","",""
"3872.6900000001187","","","post_reveal_questions","survey-likert","75","412630","0.0-6.0-6.9","2721175","co38590","norming","","","{""aha"":0}","[0]","../img/tt/1278tt.jpg","",""
"null","<div style=""font-size:60px;""> </div>","null","fixation","html-keyboard-response","76","412834","0.0-6.0-0.10","2721175","co38590","norming","","","","","","",""
"null","../img/tt/315tt.jpg","null","mooney1","image-keyboard-response","77","415845","0.0-6.0-1.10","2721175","co38590","norming","","","","","","",""
"4630.184999999998","","","post_mooney1_questions","survey-likert","78","420478","0.0-6.0-2.10","2721175","co38590","norming","","","{""curiosity"":4,""confidence"":0}","[0,1]","../img/tt/315tt.jpg","",""
"757.8099999991246","","","recognition","survey-text","79","421237","0.0-6.0-3.10","2721175","co38590","norming","","","{""guess"":""""}","","../img/tt/315tt.jpg","",""
"null","../img/gs/315gs.jpg","null","reveal","image-keyboard-response","80","423241","0.0-6.0-4.10","2721175","co38590","norming","","","","","","",""
"null","../img/tt/315tt.jpg","null","mooney2","image-keyboard-response","81","425251","0.0-6.0-5.10","2721175","co38590","norming","","","","","","",""
"1960.1700000002747","","","post_reveal_questions","survey-likert","82","427214","0.0-6.0-6.10","2721175","co38590","norming","","","{""aha"":4}","[0]","../img/tt/315tt.jpg","",""
"null","<div style=""font-size:60px;""> </div>","null","fixation","html-keyboard-response","83","427420","0.0-6.0-0.11","2721175","co38590","norming","","","","","","",""
"null","../img/tt/1089tt.jpg","null","mooney1","image-keyboard-response","84","430423","0.0-6.0-1.11","2721175","co38590","norming","","","","","","",""
"5652.944999999832","","","post_mooney1_questions","survey-likert","85","436078","0.0-6.0-2.11","2721175","co38590","norming","","","{""curiosity"":4,""confidence"":2}","[0,1]","../img/tt/1089tt.jpg","",""
"3646.0399999995716","","","recognition","survey-text","86","439726","0.0-6.0-3.11","2721175","co38590","norming","","","{""guess"":""auto""}","","../img/tt/1089tt.jpg","",""
"null","../img/gs/1089gs.jpg","null","reveal","image-keyboard-response","87","441732","0.0-6.0-4.11","2721175","co38590","norming","","","","","","",""
"null","../img/tt/1089tt.jpg","null","mooney2","image-keyboard-response","88","443733","0.0-6.0-5.11","2721175","co38590","norming","","","","","","",""
"3757.900000000489","","","post_reveal_questions","survey-likert","89","447494","0.0-6.0-6.11","2721175","co38590","norming","","","{""aha"":3}","[0]","../img/tt/1089tt.jpg","",""
"null","<div style=""font-size:60px;""> </div>","null","fixation","html-keyboard-response","90","447698","0.0-6.0-0.12","2721175","co38590","norming","","","","","","",""
"null","../img/tt/515tt.jpg","null","mooney1","image-keyboard-response","91","450710","0.0-6.0-1.12","2721175","co38590","norming","","","","","","",""
"4629.460000000137","","","post_mooney1_questions","survey-likert","92","455342","0.0-6.0-2.12","2721175","co38590","norming","","","{""curiosity"":4,""confidence"":0}","[0,1]","../img/tt/515tt.jpg","",""
"846.2049999998417","","","recognition","survey-text","93","456185","0.0-6.0-3.12","2721175","co38590","norming","","","{""guess"":""""}","","../img/tt/515tt.jpg","",""
"null","../img/gs/515gs.jpg","null","reveal","image-keyboard-response","94","458193","0.0-6.0-4.12","2721175","co38590","norming","","","","","","",""
"null","../img/tt/515tt.jpg","null","mooney2","image-keyboard-response","95","460195","0.0-6.0-5.12","2721175","co38590","norming","","","","","","",""
"2788.5100000003004","","","post_reveal_questions","survey-likert","96","462985","0.0-6.0-6.12","2721175","co38590","norming","","","{""aha"":0}","[0]","../img/tt/515tt.jpg","",""
"null","<div style=""font-size:60px;""> </div>","null","fixation","html-keyboard-response","97","463191","0.0-6.0-0.13","2721175","co38590","norming","","","","","","",""
"null","../img/tt/1366tt.jpg","null","mooney1","image-keyboard-response","98","466200","0.0-6.0-1.13","2721175","co38590","norming","","","","","","",""
"3750.5799999999","","","post_mooney1_questions","survey-likert","99","469954","0.0-6.0-2.13","2721175","co38590","norming","","","{""curiosity"":4,""confidence"":1}","[0,1]","../img/tt/1366tt.jpg","",""
"2966.134999998787","","","recognition","survey-text","100","472921","0.0-6.0-3.13","2721175","co38590","norming","","","{""guess"":""fruit""}","","../img/tt/1366tt.jpg","",""
"null","../img/gs/1366gs.jpg","null","reveal","image-keyboard-response","101","474924","0.0-6.0-4.13","2721175","co38590","norming","","","","","","",""
"null","../img/tt/1366tt.jpg","null","mooney2","image-keyboard-response","102","476926","0.0-6.0-5.13","2721175","co38590","norming","","","","","","",""
"2225.6199999992386","","","post_reveal_questions","survey-likert","103","479153","0.0-6.0-6.13","2721175","co38590","norming","","","{""aha"":1}","[0]","../img/tt/1366tt.jpg","",""
"null","<div style=""font-size:60px;""> </div>","null","fixation","html-keyboard-response","104","479361","0.0-6.0-0.14","2721175","co38590","norming","","","","","","",""
"null","../img/tt/1044tt.jpg","null","mooney1","image-keyboard-response","105","482372","0.0-6.0-1.14","2721175","co38590","norming","","","","","","",""
"8860.295000000391","","","post_mooney1_questions","survey-likert","106","491233","0.0-6.0-2.14","2721175","co38590","norming","","","{""curiosity"":4,""confidence"":0}","[0,1]","../img/tt/1044tt.jpg","",""
"974.2549999991897","","","recognition","survey-text","107","492209","0.0-6.0-3.14","2721175","co38590","norming","","","{""guess"":""""}","","../img/tt/1044tt.jpg","",""
"null","../img/gs/1044gs.jpg","null","reveal","image-keyboard-response","108","494218","0.0-6.0-4.14","2721175","co38590","norming","","","","","","",""
"null","../img/tt/1044tt.jpg","null","mooney2","image-keyboard-response","109","496229","0.0-6.0-5.14","2721175","co38590","norming","","","","","","",""
"2410.68499999895","","","post_reveal_questions","survey-likert","110","498641","0.0-6.0-6.14","2721175","co38590","norming","","","{""aha"":1}","[0]","../img/tt/1044tt.jpg","",""
"null","<div style=""font-size:60px;""> </div>","null","fixation","html-keyboard-response","111","498846","0.0-6.0-0.15","2721175","co38590","norming","","","","","","",""
"null","../img/tt/1151tt.jpg","null","mooney1","image-keyboard-response","112","501852","0.0-6.0-1.15","2721175","co38590","norming","","","","","","",""
"4578.369999999239","","","post_mooney1_questions","survey-likert","113","506433","0.0-6.0-2.15","2721175","co38590","norming","","","{""curiosity"":5,""confidence"":0}","[0,1]","../img/tt/1151tt.jpg","",""
"654.2049999989104","","","recognition","survey-text","114","507089","0.0-6.0-3.15","2721175","co38590","norming","","","{""guess"":""""}","","../img/tt/1151tt.jpg","",""
"null","../img/gs/1151gs.jpg","null","reveal","image-keyboard-response","115","509099","0.0-6.0-4.15","2721175","co38590","norming","","","","","","",""
"null","../img/tt/1151tt.jpg","null","mooney2","image-keyboard-response","116","511101","0.0-6.0-5.15","2721175","co38590","norming","","","","","","",""
"3794.1050000008545","","","post_reveal_questions","survey-likert","117","514897","0.0-6.0-6.15","2721175","co38590","norming","","","{""aha"":2}","[0]","../img/tt/1151tt.jpg","",""
"null","<div style=""font-size:60px;""> </div>","null","fixation","html-keyboard-response","118","515105","0.0-6.0-0.16","2721175","co38590","norming","","","","","","",""
"null","../img/tt/1116tt.jpg","null","mooney1","image-keyboard-response","119","518113","0.0-6.0-1.16","2721175","co38590","norming","","","","","","",""
"5282.06499999942","","","post_mooney1_questions","survey-likert","120","523398","0.0-6.0-2.16","2721175","co38590","norming","","","{""curiosity"":4,""confidence"":2}","[0,1]","../img/tt/1116tt.jpg","",""
"2837.550000000163","","","recognition","survey-text","121","526238","0.0-6.0-3.16","2721175","co38590","norming","","","{""guess"":""autos""}","","../img/tt/1116tt.jpg","",""
"null","../img/gs/1116gs.jpg","null","reveal","image-keyboard-response","122","528241","0.0-6.0-4.16","2721175","co38590","norming","","","","","","",""
"null","../img/tt/1116tt.jpg","null","mooney2","image-keyboard-response","123","530244","0.0-6.0-5.16","2721175","co38590","norming","","","","","","",""
"3383.9049999987474","","","post_reveal_questions","survey-likert","124","533630","0.0-6.0-6.16","2721175","co38590","norming","","","{""aha"":1}","[0]","../img/tt/1116tt.jpg","",""
"null","<div style=""font-size:60px;""> </div>","null","fixation","html-keyboard-response","125","533831","0.0-6.0-0.17","2721175","co38590","norming","","","","","","",""
"null","../img/tt/599tt.jpg","null","mooney1","image-keyboard-response","126","536835","0.0-6.0-1.17","2721175","co38590","norming","","","","","","",""
"4312.64000000013","","","post_mooney1_questions","survey-likert","127","541150","0.0-6.0-2.17","2721175","co38590","norming","","","{""curiosity"":4,""confidence"":2}","[0,1]","../img/tt/599tt.jpg","",""
"3190.2499999996508","","","recognition","survey-text","128","544342","0.0-6.0-3.17","2721175","co38590","norming","","","{""guess"":""persoon""}","","../img/tt/599tt.jpg","",""
"null","../img/gs/599gs.jpg","null","reveal","image-keyboard-response","129","546351","0.0-6.0-4.17","2721175","co38590","norming","","","","","","",""
"null","../img/tt/599tt.jpg","null","mooney2","image-keyboard-response","130","548356","0.0-6.0-5.17","2721175","co38590","norming","","","","","","",""
"2857.335000000545","","","post_reveal_questions","survey-likert","131","551214","0.0-6.0-6.17","2721175","co38590","norming","","","{""aha"":2}","[0]","../img/tt/599tt.jpg","",""
"null","<div style=""font-size:60px;""> </div>","null","fixation","html-keyboard-response","132","551424","0.0-6.0-0.18","2721175","co38590","norming","","","","","","",""
"null","../img/tt/1091tt.jpg","null","mooney1","image-keyboard-response","133","554427","0.0-6.0-1.18","2721175","co38590","norming","","","","","","",""
"4985.285000000731","","","post_mooney1_questions","survey-likert","134","559414","0.0-6.0-2.18","2721175","co38590","norming","","","{""curiosity"":4,""confidence"":3}","[0,1]","../img/tt/1091tt.jpg","",""
"1854.2400000005728","","","recognition","survey-text","135","561270","0.0-6.0-3.18","2721175","co38590","norming","","","{""guess"":""koe""}","","../img/tt/1091tt.jpg","",""
"null","../img/gs/1091gs.jpg","null","reveal","image-keyboard-response","136","563272","0.0-6.0-4.18","2721175","co38590","norming","","","","","","",""
"null","../img/tt/1091tt.jpg","null","mooney2","image-keyboard-response","137","565276","0.0-6.0-5.18","2721175","co38590","norming","","","","","","",""
"2120.0050000005867","","","post_reveal_questions","survey-likert","138","567398","0.0-6.0-6.18","2721175","co38590","norming","","","{""aha"":0}","[0]","../img/tt/1091tt.jpg","",""
"null","<div style=""font-size:60px;""> </div>","null","fixation","html-keyboard-response","139","567600","0.0-6.0-0.19","2721175","co38590","norming","","","","","","",""
"null","../img/tt/549tt.jpg","null","mooney1","image-keyboard-response","140","570612","0.0-6.0-1.19","2721175","co38590","norming","","","","","","",""
"5847.6599999994505","","","post_mooney1_questions","survey-likert","141","576462","0.0-6.0-2.19","2721175","co38590","norming","","","{""curiosity"":5,""confidence"":0}","[0,1]","../img/tt/549tt.jpg","",""
"973.9350000000559","","","recognition","survey-text","142","577438","0.0-6.0-3.19","2721175","co38590","norming","","","{""guess"":""""}","","../img/tt/549tt.jpg","",""
"null","../img/gs/549gs.jpg","null","reveal","image-keyboard-response","143","579447","0.0-6.0-4.19","2721175","co38590","norming","","","","","","",""
"null","../img/tt/549tt.jpg","null","mooney2","image-keyboard-response","144","581449","0.0-6.0-5.19","2721175","co38590","norming","","","","","","",""
"2666.5199999988545","","","post_reveal_questions","survey-likert","145","584118","0.0-6.0-6.19","2721175","co38590","norming","","","{""aha"":2}","[0]","../img/tt/549tt.jpg","",""
"null","<div style=""font-size:60px;""> </div>","null","fixation","html-keyboard-response","146","584329","0.0-6.0-0.20","2721175","co38590","norming","","","","","","",""
"null","../img/tt/300tt.jpg","null","mooney1","image-keyboard-response","147","587337","0.0-6.0-1.20","2721175","co38590","norming","","","","","","",""
"4443.165000000503","","","post_mooney1_questions","survey-likert","148","591782","0.0-6.0-2.20","2721175","co38590","norming","","","{""curiosity"":3,""confidence"":2}","[0,1]","../img/tt/300tt.jpg","",""
"4574.329999999492","","","recognition","survey-text","149","596358","0.0-6.0-3.20","2721175","co38590","norming","","","{""guess"":""vuilniszak""}","","../img/tt/300tt.jpg","",""
"null","../img/gs/300gs.jpg","null","reveal","image-keyboard-response","150","598363","0.0-6.0-4.20","2721175","co38590","norming","","","","","","",""
"null","../img/tt/300tt.jpg","null","mooney2","image-keyboard-response","151","600369","0.0-6.0-5.20","2721175","co38590","norming","","","","","","",""
"2900.045000000391","","","post_reveal_questions","survey-likert","152","603270","0.0-6.0-6.20","2721175","co38590","norming","","","{""aha"":3}","[0]","../img/tt/300tt.jpg","",""
"null","<div style=""font-size:60px;""> </div>","null","fixation","html-keyboard-response","153","603476","0.0-6.0-0.21","2721175","co38590","norming","","","","","","",""
"null","../img/tt/1242tt.jpg","null","mooney1","image-keyboard-response","154","606479","0.0-6.0-1.21","2721175","co38590","norming","","","","","","",""
"4556.1500000003725","","","post_mooney1_questions","survey-likert","155","611038","0.0-6.0-2.21","2721175","co38590","norming","","","{""curiosity"":4,""confidence"":3}","[0,1]","../img/tt/1242tt.jpg","",""
"1894.295000000042","","","recognition","survey-text","156","612934","0.0-6.0-3.21","2721175","co38590","norming","","","{""guess"":""vos""}","","../img/tt/1242tt.jpg","",""
"null","../img/gs/1242gs.jpg","null","reveal","image-keyboard-response","157","614938","0.0-6.0-4.21","2721175","co38590","norming","","","","","","",""
"null","../img/tt/1242tt.jpg","null","mooney2","image-keyboard-response","158","616947","0.0-6.0-5.21","2721175","co38590","norming","","","","","","",""
"4080.995000000228","","","post_reveal_questions","survey-likert","159","621030","0.0-6.0-6.21","2721175","co38590","norming","","","{""aha"":0}","[0]","../img/tt/1242tt.jpg","",""
"null","<div style=""font-size:60px;""> </div>","null","fixation","html-keyboard-response","160","621236","0.0-6.0-0.22","2721175","co38590","norming","","","","","","",""
"null","../img/tt/078tt.jpg","null","mooney1","image-keyboard-response","161","624243","0.0-6.0-1.22","2721175","co38590","norming","","","","","","",""
"4079.91500000027","","","post_mooney1_questions","survey-likert","162","628326","0.0-6.0-2.22","2721175","co38590","norming","","","{""curiosity"":4,""confidence"":1}","[0,1]","../img/tt/078tt.jpg","",""
"2334.3250000016997","","","recognition","survey-text","163","630662","0.0-6.0-3.22","2721175","co38590","norming","","","{""guess"":""vlinder""}","","../img/tt/078tt.jpg","",""
"null","../img/gs/078gs.jpg","null","reveal","image-keyboard-response","164","632667","0.0-6.0-4.22","2721175","co38590","norming","","","","","","",""
"null","../img/tt/078tt.jpg","null","mooney2","image-keyboard-response","165","634678","0.0-6.0-5.22","2721175","co38590","norming","","","","","","",""
"3717.2850000006147","","","post_reveal_questions","survey-likert","166","638398","0.0-6.0-6.22","2721175","co38590","norming","","","{""aha"":1}","[0]","../img/tt/078tt.jpg","",""
"null","<div style=""font-size:60px;""> </div>","null","fixation","html-keyboard-response","167","638601","0.0-6.0-0.23","2721175","co38590","norming","","","","","","",""
"null","../img/tt/019tt.jpg","null","mooney1","image-keyboard-response","168","641606","0.0-6.0-1.23","2721175","co38590","norming","","","","","","",""
"6741.684999999125","","","post_mooney1_questions","survey-likert","169","648350","0.0-6.0-2.23","2721175","co38590","norming","","","{""curiosity"":5,""confidence"":0}","[0,1]","../img/tt/019tt.jpg","",""
"677.8749999994179","","","recognition","survey-text","170","649030","0.0-6.0-3.23","2721175","co38590","norming","","","{""guess"":""""}","","../img/tt/019tt.jpg","",""
"null","../img/gs/019gs.jpg","null","reveal","image-keyboard-response","171","651035","0.0-6.0-4.23","2721175","co38590","norming","","","","","","",""
"null","../img/tt/019tt.jpg","null","mooney2","image-keyboard-response","172","653037","0.0-6.0-5.23","2721175","co38590","norming","","","","","","",""
"2295.0949999995064","","","post_reveal_questions","survey-likert","173","655334","0.0-6.0-6.23","2721175","co38590","norming","","","{""aha"":2}","[0]","../img/tt/019tt.jpg","",""
"null","<div style=""font-size:60px;""> </div>","null","fixation","html-keyboard-response","174","655539","0.0-6.0-0.24","2721175","co38590","norming","","","","","","",""
"null","../img/tt/1235tt.jpg","null","mooney1","image-keyboard-response","175","658548","0.0-6.0-1.24","2721175","co38590","norming","","","","","","",""
"5639.655000000843","","","post_mooney1_questions","survey-likert","176","664191","0.0-6.0-2.24","2721175","co38590","norming","","","{""curiosity"":4,""confidence"":1}","[0,1]","../img/tt/1235tt.jpg","",""
"1894.0650000004098","","","recognition","survey-text","177","666086","0.0-6.0-3.24","2721175","co38590","norming","","","{""guess"":""ezel""}","","../img/tt/1235tt.jpg","",""
"null","../img/gs/1235gs.jpg","null","reveal","image-keyboard-response","178","668092","0.0-6.0-4.24","2721175","co38590","norming","","","","","","",""
"null","../img/tt/1235tt.jpg","null","mooney2","image-keyboard-response","179","670096","0.0-6.0-5.24","2721175","co38590","norming","","","","","","",""
"3155.5850000004284","","","post_reveal_questions","survey-likert","180","673254","0.0-6.0-6.24","2721175","co38590","norming","","","{""aha"":1}","[0]","../img/tt/1235tt.jpg","",""
"null","<div style=""font-size:60px;""> </div>","null","fixation","html-keyboard-response","181","673456","0.0-6.0-0.25","2721175","co38590","norming","","","","","","",""
"null","../img/tt/1196tt.jpg","null","mooney1","image-keyboard-response","182","676459","0.0-6.0-1.25","2721175","co38590","norming","","","","","","",""
"6992.9599999996135","","","post_mooney1_questions","survey-likert","183","683454","0.0-6.0-2.25","2721175","co38590","norming","","","{""curiosity"":5,""confidence"":2}","[0,1]","../img/tt/1196tt.jpg","",""
"5366.105000001029","","","recognition","survey-text","184","688822","0.0-6.0-3.25","2721175","co38590","norming","","","{""guess"":""speech""}","","../img/tt/1196tt.jpg","",""
"null","../img/gs/1196gs.jpg","null","reveal","image-keyboard-response","185","690830","0.0-6.0-4.25","2721175","co38590","norming","","","","","","",""
"null","../img/tt/1196tt.jpg","null","mooney2","image-keyboard-response","186","692832","0.0-6.0-5.25","2721175","co38590","norming","","","","","","",""
"3500.015000001411","","","post_reveal_questions","survey-likert","187","696334","0.0-6.0-6.25","2721175","co38590","norming","","","{""aha"":1}","[0]","../img/tt/1196tt.jpg","",""
"null","<div style=""font-size:60px;""> </div>","null","fixation","html-keyboard-response","188","696537","0.0-6.0-0.26","2721175","co38590","norming","","","","","","",""
"null","../img/tt/1096tt.jpg","null","mooney1","image-keyboard-response","189","699544","0.0-6.0-1.26","2721175","co38590","norming","","","","","","",""
"4099.640000000363","","","post_mooney1_questions","survey-likert","190","703647","0.0-6.0-2.26","2721175","co38590","norming","","","{""curiosity"":4,""confidence"":1}","[0,1]","../img/tt/1096tt.jpg","",""
"2166.0000000010477","","","recognition","survey-text","191","705814","0.0-6.0-3.26","2721175","co38590","norming","","","{""guess"":""keuken""}","","../img/tt/1096tt.jpg","",""
"null","../img/gs/1096gs.jpg","null","reveal","image-keyboard-response","192","707817","0.0-6.0-4.26","2721175","co38590","norming","","","","","","",""
"null","../img/tt/1096tt.jpg","null","mooney2","image-keyboard-response","193","709822","0.0-6.0-5.26","2721175","co38590","norming","","","","","","",""
"2493.9649999997346","","","post_reveal_questions","survey-likert","194","712318","0.0-6.0-6.26","2721175","co38590","norming","","","{""aha"":0}","[0]","../img/tt/1096tt.jpg","",""
"null","<div style=""font-size:60px;""> </div>","null","fixation","html-keyboard-response","195","712527","0.0-6.0-0.27","2721175","co38590","norming","","","","","","",""
"null","../img/tt/580tt.jpg","null","mooney1","image-keyboard-response","196","715536","0.0-6.0-1.27","2721175","co38590","norming","","","","","","",""
"8109.0500000008615","","","post_mooney1_questions","survey-likert","197","723647","0.0-6.0-2.27","2721175","co38590","norming","","","{""curiosity"":4,""confidence"":0}","[0,1]","../img/tt/580tt.jpg","",""
"941.8750000004657","","","recognition","survey-text","198","724590","0.0-6.0-3.27","2721175","co38590","norming","","","{""guess"":""""}","","../img/tt/580tt.jpg","",""
"null","../img/gs/580gs.jpg","null","reveal","image-keyboard-response","199","726599","0.0-6.0-4.27","2721175","co38590","norming","","","","","","",""
"null","../img/tt/580tt.jpg","null","mooney2","image-keyboard-response","200","728601","0.0-6.0-5.27","2721175","co38590","norming","","","","","","",""
"1778.674999999581","","","post_reveal_questions","survey-likert","201","730382","0.0-6.0-6.27","2721175","co38590","norming","","","{""aha"":4}","[0]","../img/tt/580tt.jpg","",""
"null","<div style=""font-size:60px;""> </div>","null","fixation","html-keyboard-response","202","730584","0.0-6.0-0.28","2721175","co38590","norming","","","","","","",""
"null","../img/tt/1255tt.jpg","null","mooney1","image-keyboard-response","203","733586","0.0-6.0-1.28","2721175","co38590","norming","","","","","","",""
"5841.544999999343","","","post_mooney1_questions","survey-likert","204","739431","0.0-6.0-2.28","2721175","co38590","norming","","","{""curiosity"":4,""confidence"":1}","[0,1]","../img/tt/1255tt.jpg","",""
"6590.140000000247","","","recognition","survey-text","205","746022","0.0-6.0-3.28","2721175","co38590","norming","","","{""guess"":""speeltuin""}","","../img/tt/1255tt.jpg","",""
"null","../img/gs/1255gs.jpg","null","reveal","image-keyboard-response","206","748029","0.0-6.0-4.28","2721175","co38590","norming","","","","","","",""
"null","../img/tt/1255tt.jpg","null","mooney2","image-keyboard-response","207","750039","0.0-6.0-5.28","2721175","co38590","norming","","","","","","",""
"2653.1500000001397","","","post_reveal_questions","survey-likert","208","752694","0.0-6.0-6.28","2721175","co38590","norming","","","{""aha"":1}","[0]","../img/tt/1255tt.jpg","",""
"null","<div style=""font-size:60px;""> </div>","null","fixation","html-keyboard-response","209","752896","0.0-6.0-0.29","2721175","co38590","norming","","","","","","",""
"null","../img/tt/1069tt.jpg","null","mooney1","image-keyboard-response","210","755908","0.0-6.0-1.29","2721175","co38590","norming","","","","","","",""
"4895.3399999991525","","","post_mooney1_questions","survey-likert","211","760807","0.0-6.0-2.29","2721175","co38590","norming","","","{""curiosity"":3,""confidence"":3}","[0,1]","../img/tt/1069tt.jpg","",""
"2926.1200000001118","","","recognition","survey-text","212","763735","0.0-6.0-3.29","2721175","co38590","norming","","","{""guess"":""schapen ""}","","../img/tt/1069tt.jpg","",""
"null","../img/gs/1069gs.jpg","null","reveal","image-keyboard-response","213","765745","0.0-6.0-4.29","2721175","co38590","norming","","","","","","",""
"null","../img/tt/1069tt.jpg","null","mooney2","image-keyboard-response","214","767748","0.0-6.0-5.29","2721175","co38590","norming","","","","","","",""
"5624.084999999381","","","post_reveal_questions","survey-likert","215","773375","0.0-6.0-6.29","2721175","co38590","norming","","","{""aha"":0}","[0]","../img/tt/1069tt.jpg","",""
"null","<div style=""font-size:60px;""> </div>","null","fixation","html-keyboard-response","216","773578","0.0-6.0-0.30","2721175","co38590","norming","","","","","","",""
"null","../img/tt/1040tt.jpg","null","mooney1","image-keyboard-response","217","776587","0.0-6.0-1.30","2721175","co38590","norming","","","","","","",""
"3920.7850000002654","","","post_mooney1_questions","survey-likert","218","780511","0.0-6.0-2.30","2721175","co38590","norming","","","{""curiosity"":5,""confidence"":2}","[0,1]","../img/tt/1040tt.jpg","",""
"3318.3149999986636","","","recognition","survey-text","219","783831","0.0-6.0-3.30","2721175","co38590","norming","","","{""guess"":""vliegtuig""}","","../img/tt/1040tt.jpg","",""
"null","../img/gs/1040gs.jpg","null","reveal","image-keyboard-response","220","785838","0.0-6.0-4.30","2721175","co38590","norming","","","","","","",""
"null","../img/tt/1040tt.jpg","null","mooney2","image-keyboard-response","221","787840","0.0-6.0-5.30","2721175","co38590","norming","","","","","","",""
"3267.7299999995157","","","post_reveal_questions","survey-likert","222","791111","0.0-6.0-6.30","2721175","co38590","norming","","","{""aha"":2}","[0]","../img/tt/1040tt.jpg","",""
"null","<div style=""font-size:60px;""> </div>","null","fixation","html-keyboard-response","223","791320","0.0-6.0-0.31","2721175","co38590","norming","","","","","","",""
"null","../img/tt/1217tt.jpg","null","mooney1","image-keyboard-response","224","794326","0.0-6.0-1.31","2721175","co38590","norming","","","","","","",""
"4151.589999999385","","","post_mooney1_questions","survey-likert","225","798479","0.0-6.0-2.31","2721175","co38590","norming","","","{""curiosity"":5,""confidence"":2}","[0,1]","../img/tt/1217tt.jpg","",""
"3430.0500000008615","","","recognition","survey-text","226","801911","0.0-6.0-3.31","2721175","co38590","norming","","","{""guess"":""stierengevecht""}","","../img/tt/1217tt.jpg","",""
"null","../img/gs/1217gs.jpg","null","reveal","image-keyboard-response","227","803913","0.0-6.0-4.31","2721175","co38590","norming","","","","","","",""
"null","../img/tt/1217tt.jpg","null","mooney2","image-keyboard-response","228","805914","0.0-6.0-5.31","2721175","co38590","norming","","","","","","",""
"3033.955000000773","","","post_reveal_questions","survey-likert","229","808951","0.0-6.0-6.31","2721175","co38590","norming","","","{""aha"":2}","[0]","../img/tt/1217tt.jpg","",""
"null","<div style=""font-size:60px;""> </div>","null","fixation","html-keyboard-response","230","809152","0.0-6.0-0.32","2721175","co38590","norming","","","","","","",""
"null","../img/tt/096tt.jpg","null","mooney1","image-keyboard-response","231","812155","0.0-6.0-1.32","2721175","co38590","norming","","","","","","",""
"4827.110000000219","","","post_mooney1_questions","survey-likert","232","816983","0.0-6.0-2.32","2721175","co38590","norming","","","{""curiosity"":4,""confidence"":1}","[0,1]","../img/tt/096tt.jpg","",""
"2541.5049999991897","","","recognition","survey-text","233","819527","0.0-6.0-3.32","2721175","co38590","norming","","","{""guess"":""piano""}","","../img/tt/096tt.jpg","",""
"null","../img/gs/096gs.jpg","null","reveal","image-keyboard-response","234","821528","0.0-6.0-4.32","2721175","co38590","norming","","","","","","",""
"null","../img/tt/096tt.jpg","null","mooney2","image-keyboard-response","235","823530","0.0-6.0-5.32","2721175","co38590","norming","","","","","","",""
"1961.8000000008615","","","post_reveal_questions","survey-likert","236","825494","0.0-6.0-6.32","2721175","co38590","norming","","","{""aha"":2}","[0]","../img/tt/096tt.jpg","",""
"null","<div style=""font-size:60px;""> </div>","null","fixation","html-keyboard-response","237","825699","0.0-6.0-0.33","2721175","co38590","norming","","","","","","",""
"null","../img/tt/081tt.jpg","null","mooney1","image-keyboard-response","238","828707","0.0-6.0-1.33","2721175","co38590","norming","","","","","","",""
"4744.705000001006","","","post_mooney1_questions","survey-likert","239","833455","0.0-6.0-2.33","2721175","co38590","norming","","","{""curiosity"":2,""confidence"":4}","[0,1]","../img/tt/081tt.jpg","",""
"2342.0399999995716","","","recognition","survey-text","240","835798","0.0-6.0-3.33","2721175","co38590","norming","","","{""guess"":""kikker""}","","../img/tt/081tt.jpg","",""
"null","../img/gs/081gs.jpg","null","reveal","image-keyboard-response","241","837800","0.0-6.0-4.33","2721175","co38590","norming","","","","","","",""
"null","../img/tt/081tt.jpg","null","mooney2","image-keyboard-response","242","839807","0.0-6.0-5.33","2721175","co38590","norming","","","","","","",""
"1957.0899999999674","","","post_reveal_questions","survey-likert","243","841767","0.0-6.0-6.33","2721175","co38590","norming","","","{""aha"":0}","[0]","../img/tt/081tt.jpg","",""
"null","<div style=""font-size:60px;""> </div>","null","fixation","html-keyboard-response","244","841975","0.0-6.0-0.34","2721175","co38590","norming","","","","","","",""
"null","../img/tt/1175tt.jpg","null","mooney1","image-keyboard-response","245","844981","0.0-6.0-1.34","2721175","co38590","norming","","","","","","",""
"4246.634999999427","","","post_mooney1_questions","survey-likert","246","849230","0.0-6.0-2.34","2721175","co38590","norming","","","{""curiosity"":5,""confidence"":0}","[0,1]","../img/tt/1175tt.jpg","",""
"1134.1750000010943","","","recognition","survey-text","247","850366","0.0-6.0-3.34","2721175","co38590","norming","","","{""guess"":""""}","","../img/tt/1175tt.jpg","",""
"null","../img/gs/1175gs.jpg","null","reveal","image-keyboard-response","248","852367","0.0-6.0-4.34","2721175","co38590","norming","","","","","","",""
"null","../img/tt/1175tt.jpg","null","mooney2","image-keyboard-response","249","854370","0.0-6.0-5.34","2721175","co38590","norming","","","","","","",""
"3276.045000000624","","","post_reveal_questions","survey-likert","250","857646","0.0-6.0-6.34","2721175","co38590","norming","","","{""aha"":1}","[0]","../img/tt/1175tt.jpg","",""
"null","<div style=""font-size:60px;""> </div>","null","fixation","html-keyboard-response","251","857851","0.0-6.0-0.35","2721175","co38590","norming","","","","","","",""
"null","../img/tt/1200tt.jpg","null","mooney1","image-keyboard-response","252","860855","0.0-6.0-1.35","2721175","co38590","norming","","","","","","",""
"6756.299999999115","","","post_mooney1_questions","survey-likert","253","867615","0.0-6.0-2.35","2721175","co38590","norming","","","{""curiosity"":4,""confidence"":0}","[0,1]","../img/tt/1200tt.jpg","",""
"709.9449999986682","","","recognition","survey-text","254","868326","0.0-6.0-3.35","2721175","co38590","norming","","","{""guess"":""""}","","../img/tt/1200tt.jpg","",""
"null","../img/gs/1200gs.jpg","null","reveal","image-keyboard-response","255","870329","0.0-6.0-4.35","2721175","co38590","norming","","","","","","",""
"null","../img/tt/1200tt.jpg","null","mooney2","image-keyboard-response","256","872331","0.0-6.0-5.35","2721175","co38590","norming","","","","","","",""
"2370.5299999982817","","","post_reveal_questions","survey-likert","257","874702","0.0-6.0-6.35","2721175","co38590","norming","","","{""aha"":3}","[0]","../img/tt/1200tt.jpg","",""
"null","<div style=""font-size:60px;""> </div>","null","fixation","html-keyboard-response","258","874907","0.0-6.0-0.36","2721175","co38590","norming","","","","","","",""
"null","../img/tt/1066tt.jpg","null","mooney1","image-keyboard-response","259","877912","0.0-6.0-1.36","2721175","co38590","norming","","","","","","",""
"4851.335000001127","","","post_mooney1_questions","survey-likert","260","882767","0.0-6.0-2.36","2721175","co38590","norming","","","{""curiosity"":4,""confidence"":2}","[0,1]","../img/tt/1066tt.jpg","",""
"2390.1499999992084","","","recognition","survey-text","261","885152","0.0-6.0-3.36","2721175","co38590","norming","","","{""guess"":""bus""}","","../img/tt/1066tt.jpg","",""
"null","../img/gs/1066gs.jpg","null","reveal","image-keyboard-response","262","887160","0.0-6.0-4.36","2721175","co38590","norming","","","","","","",""
"null","../img/tt/1066tt.jpg","null","mooney2","image-keyboard-response","263","889171","0.0-6.0-5.36","2721175","co38590","norming","","","","","","",""
"2874.4799999985844","","","post_reveal_questions","survey-likert","264","892048","0.0-6.0-6.36","2721175","co38590","norming","","","{""aha"":1}","[0]","../img/tt/1066tt.jpg","",""
"null","<div style=""font-size:60px;""> </div>","null","fixation","html-keyboard-response","265","892250","0.0-6.0-0.37","2721175","co38590","norming","","","","","","",""
"null","../img/tt/481tt.jpg","null","mooney1","image-keyboard-response","266","895258","0.0-6.0-1.37","2721175","co38590","norming","","","","","","",""
"4827.240000000456","","","post_mooney1_questions","survey-likert","267","900088","0.0-6.0-2.37","2721175","co38590","norming","","","{""curiosity"":4,""confidence"":3}","[0,1]","../img/tt/481tt.jpg","",""
"2662.209999998682","","","recognition","survey-text","268","902752","0.0-6.0-3.37","2721175","co38590","norming","","","{""guess"":""kat""}","","../img/tt/481tt.jpg","",""
"null","../img/gs/481gs.jpg","null","reveal","image-keyboard-response","269","904756","0.0-6.0-4.37","2721175","co38590","norming","","","","","","",""
"null","../img/tt/481tt.jpg","null","mooney2","image-keyboard-response","270","906761","0.0-6.0-5.37","2721175","co38590","norming","","","","","","",""
"3165.935000000987","","","post_reveal_questions","survey-likert","271","909928","0.0-6.0-6.37","2721175","co38590","norming","","","{""aha"":2}","[0]","../img/tt/481tt.jpg","",""
"null","<div style=""font-size:60px;""> </div>","null","fixation","html-keyboard-response","272","910134","0.0-6.0-0.38","2721175","co38590","norming","","","","","","",""
"null","../img/tt/060tt.jpg","null","mooney1","image-keyboard-response","273","913144","0.0-6.0-1.38","2721175","co38590","norming","","","","","","",""
"4742.675000001327","","","post_mooney1_questions","survey-likert","274","917888","0.0-6.0-2.38","2721175","co38590","norming","","","{""curiosity"":4,""confidence"":0}","[0,1]","../img/tt/060tt.jpg","",""
"941.7450000001118","","","recognition","survey-text","275","918832","0.0-6.0-3.38","2721175","co38590","norming","","","{""guess"":""""}","","../img/tt/060tt.jpg","",""
"null","../img/gs/060gs.jpg","null","reveal","image-keyboard-response","276","920835","0.0-6.0-4.38","2721175","co38590","norming","","","","","","",""
"null","../img/tt/060tt.jpg","null","mooney2","image-keyboard-response","277","922844","0.0-6.0-5.38","2721175","co38590","norming","","","","","","",""
"1970.605000000447","","","post_reveal_questions","survey-likert","278","924816","0.0-6.0-6.38","2721175","co38590","norming","","","{""aha"":1}","[0]","../img/tt/060tt.jpg","",""
"null","<div style=""font-size:60px;""> </div>","null","fixation","html-keyboard-response","279","925020","0.0-6.0-0.39","2721175","co38590","norming","","","","","","",""
"null","../img/tt/1063tt.jpg","null","mooney1","image-keyboard-response","280","928022","0.0-6.0-1.39","2721175","co38590","norming","","","","","","",""
"7904.884999999893","","","post_mooney1_questions","survey-likert","281","935928","0.0-6.0-2.39","2721175","co38590","norming","","","{""curiosity"":5,""confidence"":1}","[0,1]","../img/tt/1063tt.jpg","",""
"1877.8299999994924","","","recognition","survey-text","282","937808","0.0-6.0-3.39","2721175","co38590","norming","","","{""guess"":""koe""}","","../img/tt/1063tt.jpg","",""
"null","../img/gs/1063gs.jpg","null","reveal","image-keyboard-response","283","939812","0.0-6.0-4.39","2721175","co38590","norming","","","","","","",""
"null","../img/tt/1063tt.jpg","null","mooney2","image-keyboard-response","284","941821","0.0-6.0-5.39","2721175","co38590","norming","","","","","","",""
"1978.3650000008056","","","post_reveal_questions","survey-likert","285","943800","0.0-6.0-6.39","2721175","co38590","norming","","","{""aha"":2}","[0]","../img/tt/1063tt.jpg","",""
"null","<div style=""font-size:60px;""> </div>","null","fixation","html-keyboard-response","286","944009","0.0-6.0-0.40","2721175","co38590","norming","","","","","","",""
"null","../img/tt/1189tt.jpg","null","mooney1","image-keyboard-response","287","947018","0.0-6.0-1.40","2721175","co38590","norming","","","","","","",""
"4616.72499999986","","","post_mooney1_questions","survey-likert","288","951638","0.0-6.0-2.40","2721175","co38590","norming","","","{""curiosity"":4,""confidence"":0}","[0,1]","../img/tt/1189tt.jpg","",""
"902.3099999994738","","","recognition","survey-text","289","952542","0.0-6.0-3.40","2721175","co38590","norming","","","{""guess"":""""}","","../img/tt/1189tt.jpg","",""
"null","../img/gs/1189gs.jpg","null","reveal","image-keyboard-response","290","954544","0.0-6.0-4.40","2721175","co38590","norming","","","","","","",""
"null","../img/tt/1189tt.jpg","null","mooney2","image-keyboard-response","291","956546","0.0-6.0-5.40","2721175","co38590","norming","","","","","","",""
"3226.7549999996554","","","post_reveal_questions","survey-likert","292","959775","0.0-6.0-6.40","2721175","co38590","norming","","","{""aha"":0}","[0]","../img/tt/1189tt.jpg","",""
"null","<div style=""font-size:60px;""> </div>","null","fixation","html-keyboard-response","293","959976","0.0-6.0-0.41","2721175","co38590","norming","","","","","","",""
"null","../img/tt/040tt.jpg","null","mooney1","image-keyboard-response","294","962983","0.0-6.0-1.41","2721175","co38590","norming","","","","","","",""
"4980.054999999935","","","post_mooney1_questions","survey-likert","295","967967","0.0-6.0-2.41","2721175","co38590","norming","","","{""curiosity"":5,""confidence"":0}","[0,1]","../img/tt/040tt.jpg","",""
"885.8949999994365","","","recognition","survey-text","296","968854","0.0-6.0-3.41","2721175","co38590","norming","","","{""guess"":""""}","","../img/tt/040tt.jpg","",""
"null","../img/gs/040gs.jpg","null","reveal","image-keyboard-response","297","970862","0.0-6.0-4.41","2721175","co38590","norming","","","","","","",""
"null","../img/tt/040tt.jpg","null","mooney2","image-keyboard-response","298","972871","0.0-6.0-5.41","2721175","co38590","norming","","","","","","",""
"2812.185000000638","","","post_reveal_questions","survey-likert","299","975686","0.0-6.0-6.41","2721175","co38590","norming","","","{""aha"":3}","[0]","../img/tt/040tt.jpg","",""
"null","<div style=""font-size:60px;""> </div>","null","fixation","html-keyboard-response","300","975887","0.0-6.0-0.42","2721175","co38590","norming","","","","","","",""
"null","../img/tt/497tt.jpg","null","mooney1","image-keyboard-response","301","978896","0.0-6.0-1.42","2721175","co38590","norming","","","","","","",""
"5595.219999999274","","","post_mooney1_questions","survey-likert","302","984495","0.0-6.0-2.42","2721175","co38590","norming","","","{""curiosity"":3,""confidence"":3}","[0,1]","../img/tt/497tt.jpg","",""
"2965.965000001248","","","recognition","survey-text","303","987462","0.0-6.0-3.42","2721175","co38590","norming","","","{""guess"":""gasvuur""}","","../img/tt/497tt.jpg","",""
"null","../img/gs/497gs.jpg","null","reveal","image-keyboard-response","304","989469","0.0-6.0-4.42","2721175","co38590","norming","","","","","","",""
"null","../img/tt/497tt.jpg","null","mooney2","image-keyboard-response","305","991473","0.0-6.0-5.42","2721175","co38590","norming","","","","","","",""
"1951.8150000004098","","","post_reveal_questions","survey-likert","306","993431","0.0-6.0-6.42","2721175","co38590","norming","","","{""aha"":0}","[0]","../img/tt/497tt.jpg","",""
"null","<div style=""font-size:60px;""> </div>","null","fixation","html-keyboard-response","307","993632","0.0-6.0-0.43","2721175","co38590","norming","","","","","","",""
"null","../img/tt/507tt.jpg","null","mooney1","image-keyboard-response","308","996638","0.0-6.0-1.43","2721175","co38590","norming","","","","","","",""
"6685.980000000214","","","post_mooney1_questions","survey-likert","309","1003327","0.0-6.0-2.43","2721175","co38590","norming","","","{""curiosity"":4,""confidence"":3}","[0,1]","../img/tt/507tt.jpg","",""
"5638.179999999935","","","recognition","survey-text","310","1008966","0.0-6.0-3.43","2721175","co38590","norming","","","{""guess"":""paaldanseres ""}","","../img/tt/507tt.jpg","",""
"null","../img/gs/507gs.jpg","null","reveal","image-keyboard-response","311","1010968","0.0-6.0-4.43","2721175","co38590","norming","","","","","","",""
"null","../img/tt/507tt.jpg","null","mooney2","image-keyboard-response","312","1012971","0.0-6.0-5.43","2721175","co38590","norming","","","","","","",""
"3544.879999999539","","","post_reveal_questions","survey-likert","313","1016518","0.0-6.0-6.43","2721175","co38590","norming","","","{""aha"":1}","[0]","../img/tt/507tt.jpg","",""
"null","<div style=""font-size:60px;""> </div>","null","fixation","html-keyboard-response","314","1016720","0.0-6.0-0.44","2721175","co38590","norming","","","","","","",""
"null","../img/tt/1053tt.jpg","null","mooney1","image-keyboard-response","315","1019726","0.0-6.0-1.44","2721175","co38590","norming","","","","","","",""
"7916.7399999988265","","","post_mooney1_questions","survey-likert","316","1027646","0.0-6.0-2.44","2721175","co38590","norming","","","{""curiosity"":5,""confidence"":0}","[0,1]","../img/tt/1053tt.jpg","",""
"982.0899999995017","","","recognition","survey-text","317","1028630","0.0-6.0-3.44","2721175","co38590","norming","","","{""guess"":""""}","","../img/tt/1053tt.jpg","",""
"null","../img/gs/1053gs.jpg","null","reveal","image-keyboard-response","318","1030634","0.0-6.0-4.44","2721175","co38590","norming","","","","","","",""
"null","../img/tt/1053tt.jpg","null","mooney2","image-keyboard-response","319","1032638","0.0-6.0-5.44","2721175","co38590","norming","","","","","","",""
"1804.3849999995437","","","post_reveal_questions","survey-likert","320","1034446","0.0-6.0-6.44","2721175","co38590","norming","","","{""aha"":4}","[0]","../img/tt/1053tt.jpg","",""
"null","<div style=""font-size:60px;""> </div>","null","fixation","html-keyboard-response","321","1034651","0.0-6.0-0.45","2721175","co38590","norming","","","","","","",""
"null","../img/tt/1084tt.jpg","null","mooney1","image-keyboard-response","322","1037660","0.0-6.0-1.45","2721175","co38590","norming","","","","","","",""
"6017.314999999129","","","post_mooney1_questions","survey-likert","323","1043678","0.0-6.0-2.45","2721175","co38590","norming","","","{""curiosity"":5,""confidence"":1}","[0,1]","../img/tt/1084tt.jpg","",""
"5461.975000000093","","","recognition","survey-text","324","1049142","0.0-6.0-3.45","2721175","co38590","norming","","","{""guess"":""aarbei""}","","../img/tt/1084tt.jpg","",""
"null","../img/gs/1084gs.jpg","null","reveal","image-keyboard-response","325","1051148","0.0-6.0-4.45","2721175","co38590","norming","","","","","","",""
"null","../img/tt/1084tt.jpg","null","mooney2","image-keyboard-response","326","1053156","0.0-6.0-5.45","2721175","co38590","norming","","","","","","",""
"2119.4749999993946","","","post_reveal_questions","survey-likert","327","1055278","0.0-6.0-6.45","2721175","co38590","norming","","","{""aha"":3}","[0]","../img/tt/1084tt.jpg","",""
"null","<div style=""font-size:60px;""> </div>","null","fixation","html-keyboard-response","328","1055479","0.0-6.0-0.46","2721175","co38590","norming","","","","","","",""
"null","../img/tt/584tt.jpg","null","mooney1","image-keyboard-response","329","1058487","0.0-6.0-1.46","2721175","co38590","norming","","","","","","",""
"5028.4100000008475","","","post_mooney1_questions","survey-likert","330","1063518","0.0-6.0-2.46","2721175","co38590","norming","","","{""curiosity"":4,""confidence"":0}","[0,1]","../img/tt/584tt.jpg","",""
"1166.054999999702","","","recognition","survey-text","331","1064685","0.0-6.0-3.46","2721175","co38590","norming","","","{""guess"":""""}","","../img/tt/584tt.jpg","",""
"null","../img/gs/584gs.jpg","null","reveal","image-keyboard-response","332","1066694","0.0-6.0-4.46","2721175","co38590","norming","","","","","","",""
"null","../img/tt/584tt.jpg","null","mooney2","image-keyboard-response","333","1068705","0.0-6.0-5.46","2721175","co38590","norming","","","","","","",""
"2226.9350000005215","","","post_reveal_questions","survey-likert","334","1070933","0.0-6.0-6.46","2721175","co38590","norming","","","{""aha"":1}","[0]","../img/tt/584tt.jpg","",""
"null","<div style=""font-size:60px;""> </div>","null","fixation","html-keyboard-response","335","1071134","0.0-6.0-0.47","2721175","co38590","norming","","","","","","",""
"null","../img/tt/438tt.jpg","null","mooney1","image-keyboard-response","336","1074137","0.0-6.0-1.47","2721175","co38590","norming","","","","","","",""
"5344.945000000764","","","post_mooney1_questions","survey-likert","337","1079485","0.0-6.0-2.47","2721175","co38590","norming","","","{""curiosity"":3,""confidence"":3}","[0,1]","../img/tt/438tt.jpg","",""
"1733.7700000007171","","","recognition","survey-text","338","1081221","0.0-6.0-3.47","2721175","co38590","norming","","","{""guess"":""uil""}","","../img/tt/438tt.jpg","",""
"null","../img/gs/438gs.jpg","null","reveal","image-keyboard-response","339","1083228","0.0-6.0-4.47","2721175","co38590","norming","","","","","","",""
"null","../img/tt/438tt.jpg","null","mooney2","image-keyboard-response","340","1085232","0.0-6.0-5.47","2721175","co38590","norming","","","","","","",""
"2226.484999999171","","","post_reveal_questions","survey-likert","341","1087461","0.0-6.0-6.47","2721175","co38590","norming","","","{""aha"":2}","[0]","../img/tt/438tt.jpg","",""
"null","<div style=""font-size:60px;""> </div>","null","fixation","html-keyboard-response","342","1087664","0.0-6.0-0.48","2721175","co38590","norming","","","","","","",""
"null","../img/tt/1353tt.jpg","null","mooney1","image-keyboard-response","343","1090669","0.0-6.0-1.48","2721175","co38590","norming","","","","","","",""
"3797.1950000009965","","","post_mooney1_questions","survey-likert","344","1094469","0.0-6.0-2.48","2721175","co38590","norming","","","{""curiosity"":4,""confidence"":1}","[0,1]","../img/tt/1353tt.jpg","",""
"2078.0449999985285","","","recognition","survey-text","345","1096549","0.0-6.0-3.48","2721175","co38590","norming","","","{""guess"":""bloem""}","","../img/tt/1353tt.jpg","",""
"null","../img/gs/1353gs.jpg","null","reveal","image-keyboard-response","346","1098556","0.0-6.0-4.48","2721175","co38590","norming","","","","","","",""
"null","../img/tt/1353tt.jpg","null","mooney2","image-keyboard-response","347","1100564","0.0-6.0-5.48","2721175","co38590","norming","","","","","","",""
"3726.3899999998976","","","post_reveal_questions","survey-likert","348","1104293","0.0-6.0-6.48","2721175","co38590","norming","","","{""aha"":1}","[0]","../img/tt/1353tt.jpg","",""
"null","<div style=""font-size:60px;""> </div>","null","fixation","html-keyboard-response","349","1104495","0.0-6.0-0.49","2721175","co38590","norming","","","","","","",""
"null","../img/tt/1043tt.jpg","null","mooney1","image-keyboard-response","350","1107502","0.0-6.0-1.49","2721175","co38590","norming","","","","","","",""
"5132.0899999991525","","","post_mooney1_questions","survey-likert","351","1112637","0.0-6.0-2.49","2721175","co38590","norming","","","{""curiosity"":4,""confidence"":2}","[0,1]","../img/tt/1043tt.jpg","",""
"3046.109999999171","","","recognition","survey-text","352","1115685","0.0-6.0-3.49","2721175","co38590","norming","","","{""guess"":""hotdog""}","","../img/tt/1043tt.jpg","",""
"null","../img/gs/1043gs.jpg","null","reveal","image-keyboard-response","353","1117693","0.0-6.0-4.49","2721175","co38590","norming","","","","","","",""
"null","../img/tt/1043tt.jpg","null","mooney2","image-keyboard-response","354","1119702","0.0-6.0-5.49","2721175","co38590","norming","","","","","","",""
"1851.7799999990966","","","post_reveal_questions","survey-likert","355","1121557","0.0-6.0-6.49","2721175","co38590","norming","","","{""aha"":0}","[0]","../img/tt/1043tt.jpg","",""
"null","<div style=""font-size:60px;""> </div>","null","fixation","html-keyboard-response","356","1121758","0.0-6.0-0.50","2721175","co38590","norming","","","","","","",""
"null","../img/tt/1006tt.jpg","null","mooney1","image-keyboard-response","357","1124771","0.0-6.0-1.50","2721175","co38590","norming","","","","","","",""
"4807.120000001276","","","post_mooney1_questions","survey-likert","358","1129583","0.0-6.0-2.50","2721175","co38590","norming","","","{""curiosity"":5,""confidence"":0}","[0,1]","../img/tt/1006tt.jpg","",""
"598.0049999998882","","","recognition","survey-text","359","1130183","0.0-6.0-3.50","2721175","co38590","norming","","","{""guess"":""""}","","../img/tt/1006tt.jpg","",""
"null","../img/gs/1006gs.jpg","null","reveal","image-keyboard-response","360","1132185","0.0-6.0-4.50","2721175","co38590","norming","","","","","","",""
"null","../img/tt/1006tt.jpg","null","mooney2","image-keyboard-response","361","1134194","0.0-6.0-5.50","2721175","co38590","norming","","","","","","",""
"1642.0950000011362","","","post_reveal_questions","survey-likert","362","1135839","0.0-6.0-6.50","2721175","co38590","norming","","","{""aha"":3}","[0]","../img/tt/1006tt.jpg","",""
"null","<div style=""font-size:60px;""> </div>","null","fixation","html-keyboard-response","363","1136042","0.0-6.0-0.51","2721175","co38590","norming","","","","","","",""
"null","../img/tt/552tt.jpg","null","mooney1","image-keyboard-response","364","1139046","0.0-6.0-1.51","2721175","co38590","norming","","","","","","",""
"6509.870000001509","","","post_mooney1_questions","survey-likert","365","1145559","0.0-6.0-2.51","2721175","co38590","norming","","","{""curiosity"":4,""confidence"":4}","[0,1]","../img/tt/552tt.jpg","",""
"3213.8599999998696","","","recognition","survey-text","366","1148774","0.0-6.0-3.51","2721175","co38590","norming","","","{""guess"":""stinkdier""}","","../img/tt/552tt.jpg","",""
"null","../img/gs/552gs.jpg","null","reveal","image-keyboard-response","367","1150777","0.0-6.0-4.51","2721175","co38590","norming","","","","","","",""
"null","../img/tt/552tt.jpg","null","mooney2","image-keyboard-response","368","1152779","0.0-6.0-5.51","2721175","co38590","norming","","","","","","",""
"2320.6749999988824","","","post_reveal_questions","survey-likert","369","1155103","0.0-6.0-6.51","2721175","co38590","norming","","","{""aha"":0}","[0]","../img/tt/552tt.jpg","",""
"null","<div style=""font-size:60px;""> </div>","null","fixation","html-keyboard-response","370","1155311","0.0-6.0-0.52","2721175","co38590","norming","","","","","","",""
"null","../img/tt/1033tt.jpg","null","mooney1","image-keyboard-response","371","1158321","0.0-6.0-1.52","2721175","co38590","norming","","","","","","",""
"5732.889999999432","","","post_mooney1_questions","survey-likert","372","1164055","0.0-6.0-2.52","2721175","co38590","norming","","","{""curiosity"":5,""confidence"":1}","[0,1]","../img/tt/1033tt.jpg","",""
"1853.9600000001956","","","recognition","survey-text","373","1165911","0.0-6.0-3.52","2721175","co38590","norming","","","{""guess"":""moord""}","","../img/tt/1033tt.jpg","",""
"null","../img/gs/1033gs.jpg","null","reveal","image-keyboard-response","374","1167917","0.0-6.0-4.52","2721175","co38590","norming","","","","","","",""
"null","../img/tt/1033tt.jpg","null","mooney2","image-keyboard-response","375","1169920","0.0-6.0-5.52","2721175","co38590","norming","","","","","","",""
"3019.8849999995437","","","post_reveal_questions","survey-likert","376","1172942","0.0-6.0-6.52","2721175","co38590","norming","","","{""aha"":2}","[0]","../img/tt/1033tt.jpg","",""
"null","<div style=""font-size:60px;""> </div>","null","fixation","html-keyboard-response","377","1173148","0.0-6.0-0.53","2721175","co38590","norming","","","","","","",""
"null","../img/tt/1072tt.jpg","null","mooney1","image-keyboard-response","378","1176157","0.0-6.0-1.53","2721175","co38590","norming","","","","","","",""
"4222.280000000028","","","post_mooney1_questions","survey-likert","379","1180383","0.0-6.0-2.53","2721175","co38590","norming","","","{""curiosity"":4,""confidence"":2}","[0,1]","../img/tt/1072tt.jpg","",""
"4070.344999999972","","","recognition","survey-text","380","1184455","0.0-6.0-3.53","2721175","co38590","norming","","","{""guess"":""keuken""}","","../img/tt/1072tt.jpg","",""
"null","../img/gs/1072gs.jpg","null","reveal","image-keyboard-response","381","1186458","0.0-6.0-4.53","2721175","co38590","norming","","","","","","",""
"null","../img/tt/1072tt.jpg","null","mooney2","image-keyboard-response","382","1188460","0.0-6.0-5.53","2721175","co38590","norming","","","","","","",""
"3007.7099999999627","","","post_reveal_questions","survey-likert","383","1191471","0.0-6.0-6.53","2721175","co38590","norming","","","{""aha"":3}","[0]","../img/tt/1072tt.jpg","",""
"null","<div style=""font-size:60px;""> </div>","null","fixation","html-keyboard-response","384","1191681","0.0-6.0-0.54","2721175","co38590","norming","","","","","","",""
"null","../img/tt/1250tt.jpg","null","mooney1","image-keyboard-response","385","1194685","0.0-6.0-1.54","2721175","co38590","norming","","","","","","",""
"6070.709999999963","","","post_mooney1_questions","survey-likert","386","1200759","0.0-6.0-2.54","2721175","co38590","norming","","","{""curiosity"":4,""confidence"":2}","[0,1]","../img/tt/1250tt.jpg","",""
"2765.989999999758","","","recognition","survey-text","387","1203527","0.0-6.0-3.54","2721175","co38590","norming","","","{""guess"":""zeehonden""}","","../img/tt/1250tt.jpg","",""
"null","../img/gs/1250gs.jpg","null","reveal","image-keyboard-response","388","1205535","0.0-6.0-4.54","2721175","co38590","norming","","","","","","",""
"null","../img/tt/1250tt.jpg","null","mooney2","image-keyboard-response","389","1207539","0.0-6.0-5.54","2721175","co38590","norming","","","","","","",""
"1682.7849999992177","","","post_reveal_questions","survey-likert","390","1209223","0.0-6.0-6.54","2721175","co38590","norming","","","{""aha"":1}","[0]","../img/tt/1250tt.jpg","",""
"null","<div style=""font-size:60px;""> </div>","null","fixation","html-keyboard-response","391","1209424","0.0-6.0-0.55","2721175","co38590","norming","","","","","","",""
"null","../img/tt/435tt.jpg","null","mooney1","image-keyboard-response","392","1212435","0.0-6.0-1.55","2721175","co38590","norming","","","","","","",""
"5433.239999998361","","","post_mooney1_questions","survey-likert","393","1217871","0.0-6.0-2.55","2721175","co38590","norming","","","{""curiosity"":4,""confidence"":0}","[0,1]","../img/tt/435tt.jpg","",""
"646.0850000001956","","","recognition","survey-text","394","1218519","0.0-6.0-3.55","2721175","co38590","norming","","","{""guess"":""""}","","../img/tt/435tt.jpg","",""
"null","../img/gs/435gs.jpg","null","reveal","image-keyboard-response","395","1220526","0.0-6.0-4.55","2721175","co38590","norming","","","","","","",""
"null","../img/tt/435tt.jpg","null","mooney2","image-keyboard-response","396","1222530","0.0-6.0-5.55","2721175","co38590","norming","","","","","","",""
"2121.905000000028","","","post_reveal_questions","survey-likert","397","1224655","0.0-6.0-6.55","2721175","co38590","norming","","","{""aha"":1}","[0]","../img/tt/435tt.jpg","",""
"null","<div style=""font-size:60px;""> </div>","null","fixation","html-keyboard-response","398","1224860","0.0-6.0-0.56","2721175","co38590","norming","","","","","","",""
"null","../img/tt/1243tt.jpg","null","mooney1","image-keyboard-response","399","1227862","0.0-6.0-1.56","2721175","co38590","norming","","","","","","",""
"6573.279999998864","","","post_mooney1_questions","survey-likert","400","1234439","0.0-6.0-2.56","2721175","co38590","norming","","","{""curiosity"":4,""confidence"":0}","[0,1]","../img/tt/1243tt.jpg","",""
"1085.9400000008754","","","recognition","survey-text","401","1235527","0.0-6.0-3.56","2721175","co38590","norming","","","{""guess"":""""}","","../img/tt/1243tt.jpg","",""
"null","../img/gs/1243gs.jpg","null","reveal","image-keyboard-response","402","1237536","0.0-6.0-4.56","2721175","co38590","norming","","","","","","",""
"null","../img/tt/1243tt.jpg","null","mooney2","image-keyboard-response","403","1239539","0.0-6.0-5.56","2721175","co38590","norming","","","","","","",""
"2257.6350000000093","","","post_reveal_questions","survey-likert","404","1241799","0.0-6.0-6.56","2721175","co38590","norming","","","{""aha"":4}","[0]","../img/tt/1243tt.jpg","",""
"null","<div style=""font-size:60px;""> </div>","null","fixation","html-keyboard-response","405","1242006","0.0-6.0-0.57","2721175","co38590","norming","","","","","","",""
"null","../img/tt/1247tt.jpg","null","mooney1","image-keyboard-response","406","1245011","0.0-6.0-1.57","2721175","co38590","norming","","","","","","",""
"4880.359999999171","","","post_mooney1_questions","survey-likert","407","1249891","0.0-6.0-2.57","2721175","co38590","norming","","","{""curiosity"":4,""confidence"":1}","[0,1]","../img/tt/1247tt.jpg","",""
"2238.0899999989197","","","recognition","survey-text","408","1252131","0.0-6.0-3.57","2721175","co38590","norming","","","{""guess"":""vos""}","","../img/tt/1247tt.jpg","",""
"null","../img/gs/1247gs.jpg","null","reveal","image-keyboard-response","409","1254140","0.0-6.0-4.57","2721175","co38590","norming","","","","","","",""
"null","../img/tt/1247tt.jpg","null","mooney2","image-keyboard-response","410","1256149","0.0-6.0-5.57","2721175","co38590","norming","","","","","","",""
"3371.14499999932","","","post_reveal_questions","survey-likert","411","1259523","0.0-6.0-6.57","2721175","co38590","norming","","","{""aha"":2}","[0]","../img/tt/1247tt.jpg","",""
"null","<div style=""font-size:60px;""> </div>","null","fixation","html-keyboard-response","412","1259730","0.0-6.0-0.58","2721175","co38590","norming","","","","","","",""
"null","../img/tt/123tt.jpg","null","mooney1","image-keyboard-response","413","1262737","0.0-6.0-1.58","2721175","co38590","norming","","","","","","",""
"5790.179999999935","","","post_mooney1_questions","survey-likert","414","1268531","0.0-6.0-2.58","2721175","co38590","norming","","","{""curiosity"":3,""confidence"":1}","[0,1]","../img/tt/123tt.jpg","",""
"2446.2750000003725","","","recognition","survey-text","415","1270979","0.0-6.0-3.58","2721175","co38590","norming","","","{""guess"":""aktetas""}","","../img/tt/123tt.jpg","",""
"null","../img/gs/123gs.jpg","null","reveal","image-keyboard-response","416","1272981","0.0-6.0-4.58","2721175","co38590","norming","","","","","","",""
"null","../img/tt/123tt.jpg","null","mooney2","image-keyboard-response","417","1274984","0.0-6.0-5.58","2721175","co38590","norming","","","","","","",""
"3840.785000000382","","","post_reveal_questions","survey-likert","418","1278827","0.0-6.0-6.58","2721175","co38590","norming","","","{""aha"":0}","[0]","../img/tt/123tt.jpg","",""
"null","<div style=""font-size:60px;""> </div>","null","fixation","html-keyboard-response","419","1279030","0.0-6.0-0.59","2721175","co38590","norming","","","","","","",""
"null","../img/tt/1048tt.jpg","null","mooney1","image-keyboard-response","420","1282041","0.0-6.0-1.59","2721175","co38590","norming","","","","","","",""
"5319.234999998938","","","post_mooney1_questions","survey-likert","421","1287363","0.0-6.0-2.59","2721175","co38590","norming","","","{""curiosity"":5,""confidence"":0}","[0,1]","../img/tt/1048tt.jpg","",""
"997.9050000002608","","","recognition","survey-text","422","1288363","0.0-6.0-3.59","2721175","co38590","norming","","","{""guess"":""""}","","../img/tt/1048tt.jpg","",""
"null","../img/gs/1048gs.jpg","null","reveal","image-keyboard-response","423","1290364","0.0-6.0-4.59","2721175","co38590","norming","","","","","","",""
"null","../img/tt/1048tt.jpg","null","mooney2","image-keyboard-response","424","1292366","0.0-6.0-5.59","2721175","co38590","norming","","","","","","",""
"4427.665000000969","","","post_reveal_questions","survey-likert","425","1296795","0.0-6.0-6.59","2721175","co38590","norming","","","{""aha"":0}","[0]","../img/tt/1048tt.jpg","",""
"null","<div style=""font-size:60px;""> </div>","null","fixation","html-keyboard-response","426","1296997","0.0-6.0-0.60","2721175","co38590","norming","","","","","","",""
"null","../img/tt/319tt.jpg","null","mooney1","image-keyboard-response","427","1300005","0.0-6.0-1.60","2721175","co38590","norming","","","","","","",""
"5115.2050000000745","","","post_mooney1_questions","survey-likert","428","1305123","0.0-6.0-2.60","2721175","co38590","norming","","","{""curiosity"":3,""confidence"":3}","[0,1]","../img/tt/319tt.jpg","",""
"2189.809999999823","","","recognition","survey-text","429","1307319","0.0-6.0-3.60","2721175","co38590","norming","","","{""guess"":""ezels""}","","../img/tt/319tt.jpg","",""
"null","../img/gs/319gs.jpg","null","reveal","image-keyboard-response","430","1309327","0.0-6.0-4.60","2721175","co38590","norming","","","","","","",""
"null","../img/tt/319tt.jpg","null","mooney2","image-keyboard-response","431","1311338","0.0-6.0-5.60","2721175","co38590","norming","","","","","","",""
"6795.880000001518","","","post_reveal_questions","survey-likert","432","1318135","0.0-6.0-6.60","2721175","co38590","norming","","","{""aha"":0}","[0]","../img/tt/319tt.jpg","",""
"null","<div style=""font-size:60px;""> </div>","null","fixation","html-keyboard-response","433","1318345","0.0-6.0-0.61","2721175","co38590","norming","","","","","","",""
"null","../img/tt/056tt.jpg","null","mooney1","image-keyboard-response","434","1321353","0.0-6.0-1.61","2721175","co38590","norming","","","","","","",""
"7748.7300000011455","","","post_mooney1_questions","survey-likert","435","1329103","0.0-6.0-2.61","2721175","co38590","norming","","","{""curiosity"":2,""confidence"":0}","[0,1]","../img/tt/056tt.jpg","",""
"1069.9899999999907","","","recognition","survey-text","436","1330175","0.0-6.0-3.61","2721175","co38590","norming","","","{""guess"":""""}","","../img/tt/056tt.jpg","",""
"null","../img/gs/056gs.jpg","null","reveal","image-keyboard-response","437","1332182","0.0-6.0-4.61","2721175","co38590","norming","","","","","","",""
"null","../img/tt/056tt.jpg","null","mooney2","image-keyboard-response","438","1334183","0.0-6.0-5.61","2721175","co38590","norming","","","","","","",""
"2892.7249999996275","","","post_reveal_questions","survey-likert","439","1337079","0.0-6.0-6.61","2721175","co38590","norming","","","{""aha"":0}","[0]","../img/tt/056tt.jpg","",""
"null","<div style=""font-size:60px;""> </div>","null","fixation","html-keyboard-response","440","1337285","0.0-6.0-0.62","2721175","co38590","norming","","","","","","",""
"null","../img/tt/1236tt.jpg","null","mooney1","image-keyboard-response","441","1340289","0.0-6.0-1.62","2721175","co38590","norming","","","","","","",""
"4636.499999998603","","","post_mooney1_questions","survey-likert","442","1344927","0.0-6.0-2.62","2721175","co38590","norming","","","{""curiosity"":4,""confidence"":0}","[0,1]","../img/tt/1236tt.jpg","",""
"709.9149999993388","","","recognition","survey-text","443","1345639","0.0-6.0-3.62","2721175","co38590","norming","","","{""guess"":""""}","","../img/tt/1236tt.jpg","",""
"null","../img/gs/1236gs.jpg","null","reveal","image-keyboard-response","444","1347649","0.0-6.0-4.62","2721175","co38590","norming","","","","","","",""
"null","../img/tt/1236tt.jpg","null","mooney2","image-keyboard-response","445","1349655","0.0-6.0-5.62","2721175","co38590","norming","","","","","","",""
"1621.119999999879","","","post_reveal_questions","survey-likert","446","1351279","0.0-6.0-6.62","2721175","co38590","norming","","","{""aha"":2}","[0]","../img/tt/1236tt.jpg","",""
"null","<div style=""font-size:60px;""> </div>","null","fixation","html-keyboard-response","447","1351482","0.0-6.0-0.63","2721175","co38590","norming","","","","","","",""
"null","../img/tt/1055tt.jpg","null","mooney1","image-keyboard-response","448","1354489","0.0-6.0-1.63","2721175","co38590","norming","","","","","","",""
"4426.110000000335","","","post_mooney1_questions","survey-likert","449","1358919","0.0-6.0-2.63","2721175","co38590","norming","","","{""curiosity"":3,""confidence"":0}","[0,1]","../img/tt/1055tt.jpg","",""
"757.9700000004377","","","recognition","survey-text","450","1359679","0.0-6.0-3.63","2721175","co38590","norming","","","{""guess"":""""}","","../img/tt/1055tt.jpg","",""
"null","../img/gs/1055gs.jpg","null","reveal","image-keyboard-response","451","1361689","0.0-6.0-4.63","2721175","co38590","norming","","","","","","",""
"null","../img/tt/1055tt.jpg","null","mooney2","image-keyboard-response","452","1363692","0.0-6.0-5.63","2721175","co38590","norming","","","","","","",""
"2920.369999999879","","","post_reveal_questions","survey-likert","453","1366615","0.0-6.0-6.63","2721175","co38590","norming","","","{""aha"":1}","[0]","../img/tt/1055tt.jpg","",""
"null","<div style=""font-size:60px;""> </div>","null","fixation","html-keyboard-response","454","1366824","0.0-6.0-0.64","2721175","co38590","norming","","","","","","",""
"null","../img/tt/1190tt.jpg","null","mooney1","image-keyboard-response","455","1369836","0.0-6.0-1.64","2721175","co38590","norming","","","","","","",""
"4687.135000000009","","","post_mooney1_questions","survey-likert","456","1374527","0.0-6.0-2.64","2721175","co38590","norming","","","{""curiosity"":5,""confidence"":0}","[0,1]","../img/tt/1190tt.jpg","",""
"565.990000000922","","","recognition","survey-text","457","1375095","0.0-6.0-3.64","2721175","co38590","norming","","","{""guess"":""""}","","../img/tt/1190tt.jpg","",""
"null","../img/gs/1190gs.jpg","null","reveal","image-keyboard-response","458","1377103","0.0-6.0-4.64","2721175","co38590","norming","","","","","","",""
"null","../img/tt/1190tt.jpg","null","mooney2","image-keyboard-response","459","1379106","0.0-6.0-5.64","2721175","co38590","norming","","","","","","",""
"1890.4299999994691","","","post_reveal_questions","survey-likert","460","1380999","0.0-6.0-6.64","2721175","co38590","norming","","","{""aha"":1}","[0]","../img/tt/1190tt.jpg","",""
"null","<div style=""font-size:60px;""> </div>","null","fixation","html-keyboard-response","461","1381206","0.0-6.0-0.65","2721175","co38590","norming","","","","","","",""
"null","../img/tt/1251tt.jpg","null","mooney1","image-keyboard-response","462","1384209","0.0-6.0-1.65","2721175","co38590","norming","","","","","","",""
"5434.590000000782","","","post_mooney1_questions","survey-likert","463","1389647","0.0-6.0-2.65","2721175","co38590","norming","","","{""curiosity"":3,""confidence"":2}","[0,1]","../img/tt/1251tt.jpg","",""
"2294.014999999432","","","recognition","survey-text","464","1391943","0.0-6.0-3.65","2721175","co38590","norming","","","{""guess"":""beer""}","","../img/tt/1251tt.jpg","",""
"null","../img/gs/1251gs.jpg","null","reveal","image-keyboard-response","465","1393953","0.0-6.0-4.65","2721175","co38590","norming","","","","","","",""
"null","../img/tt/1251tt.jpg","null","mooney2","image-keyboard-response","466","1395956","0.0-6.0-5.65","2721175","co38590","norming","","","","","","",""
"1968.4799999995157","","","post_reveal_questions","survey-likert","467","1397927","0.0-6.0-6.65","2721175","co38590","norming","","","{""aha"":0}","[0]","../img/tt/1251tt.jpg","",""
"null","<div style=""font-size:60px;""> </div>","null","fixation","html-keyboard-response","468","1398130","0.0-6.0-0.66","2721175","co38590","norming","","","","","","",""
"null","../img/tt/1024tt.jpg","null","mooney1","image-keyboard-response","469","1401143","0.0-6.0-1.66","2721175","co38590","norming","","","","","","",""
"5307.995000001043","","","post_mooney1_questions","survey-likert","470","1406455","0.0-6.0-2.66","2721175","co38590","norming","","","{""curiosity"":2,""confidence"":3}","[0,1]","../img/tt/1024tt.jpg","",""
"2126.000000000233","","","recognition","survey-text","471","1408583","0.0-6.0-3.66","2721175","co38590","norming","","","{""guess"":""vrouw""}","","../img/tt/1024tt.jpg","",""
"null","../img/gs/1024gs.jpg","null","reveal","image-keyboard-response","472","1410590","0.0-6.0-4.66","2721175","co38590","norming","","","","","","",""
"null","../img/tt/1024tt.jpg","null","mooney2","image-keyboard-response","473","1412593","0.0-6.0-5.66","2721175","co38590","norming","","","","","","",""
"2235.290000000503","","","post_reveal_questions","survey-likert","474","1414831","0.0-6.0-6.66","2721175","co38590","norming","","","{""aha"":2}","[0]","../img/tt/1024tt.jpg","",""
"null","<div style=""font-size:60px;""> </div>","null","fixation","html-keyboard-response","475","1415039","0.0-6.0-0.67","2721175","co38590","norming","","","","","","",""
"null","../img/tt/1262tt.jpg","null","mooney1","image-keyboard-response","476","1418045","0.0-6.0-1.67","2721175","co38590","norming","","","","","","",""
"7942.45500000054","","","post_mooney1_questions","survey-likert","477","1425991","0.0-6.0-2.67","2721175","co38590","norming","","","{""curiosity"":2,""confidence"":0}","[0,1]","../img/tt/1262tt.jpg","",""
"837.7149999996182","","","recognition","survey-text","478","1426830","0.0-6.0-3.67","2721175","co38590","norming","","","{""guess"":""""}","","../img/tt/1262tt.jpg","",""
"null","../img/gs/1262gs.jpg","null","reveal","image-keyboard-response","479","1428840","0.0-6.0-4.67","2721175","co38590","norming","","","","","","",""
"null","../img/tt/1262tt.jpg","null","mooney2","image-keyboard-response","480","1430851","0.0-6.0-5.67","2721175","co38590","norming","","","","","","",""
"2976.7350000001024","","","post_reveal_questions","survey-likert","481","1433830","0.0-6.0-6.67","2721175","co38590","norming","","","{""aha"":2}","[0]","../img/tt/1262tt.jpg","",""
"null","<div style=""font-size:60px;""> </div>","null","fixation","html-keyboard-response","482","1434039","0.0-6.0-0.68","2721175","co38590","norming","","","","","","",""
"null","../img/tt/1272tt.jpg","null","mooney1","image-keyboard-response","483","1437045","0.0-6.0-1.68","2721175","co38590","norming","","","","","","",""
"4949.51500000013","","","post_mooney1_questions","survey-likert","484","1441999","0.0-6.0-2.68","2721175","co38590","norming","","","{""curiosity"":4,""confidence"":2}","[0,1]","../img/tt/1272tt.jpg","",""
"1670.1599999996834","","","recognition","survey-text","485","1443670","0.0-6.0-3.68","2721175","co38590","norming","","","{""guess"":""hert""}","","../img/tt/1272tt.jpg","",""
"null","../img/gs/1272gs.jpg","null","reveal","image-keyboard-response","486","1445679","0.0-6.0-4.68","2721175","co38590","norming","","","","","","",""
"null","../img/tt/1272tt.jpg","null","mooney2","image-keyboard-response","487","1447688","0.0-6.0-5.68","2721175","co38590","norming","","","","","","",""
"2538.4949999989476","","","post_reveal_questions","survey-likert","488","1450231","0.0-6.0-6.68","2721175","co38590","norming","","","{""aha"":3}","[0]","../img/tt/1272tt.jpg","",""
"null","<div style=""font-size:60px;""> </div>","null","fixation","html-keyboard-response","489","1450437","0.0-6.0-0.69","2721175","co38590","norming","","","","","","",""
"null","../img/tt/163tt.jpg","null","mooney1","image-keyboard-response","490","1453447","0.0-6.0-1.69","2721175","co38590","norming","","","","","","",""
"3796.019999999786","","","post_mooney1_questions","survey-likert","491","1457247","0.0-6.0-2.69","2721175","co38590","norming","","","{""curiosity"":3,""confidence"":2}","[0,1]","../img/tt/163tt.jpg","",""
"2005.7250000007916","","","recognition","survey-text","492","1459255","0.0-6.0-3.69","2721175","co38590","norming","","","{""guess"":""kikker""}","","../img/tt/163tt.jpg","",""
"null","../img/gs/163gs.jpg","null","reveal","image-keyboard-response","493","1461261","0.0-6.0-4.69","2721175","co38590","norming","","","","","","",""
"null","../img/tt/163tt.jpg","null","mooney2","image-keyboard-response","494","1463264","0.0-6.0-5.69","2721175","co38590","norming","","","","","","",""
"1931.7200000006706","","","post_reveal_questions","survey-likert","495","1465199","0.0-6.0-6.69","2721175","co38590","norming","","","{""aha"":1}","[0]","../img/tt/163tt.jpg","",""
"null","<div style=""font-size:60px;""> </div>","null","fixation","html-keyboard-response","496","1465400","0.0-6.0-0.70","2721175","co38590","norming","","","","","","",""
"null","../img/tt/1181tt.jpg","null","mooney1","image-keyboard-response","497","1468406","0.0-6.0-1.70","2721175","co38590","norming","","","","","","",""
"5742.840000001015","","","post_mooney1_questions","survey-likert","498","1474151","0.0-6.0-2.70","2721175","co38590","norming","","","{""curiosity"":4,""confidence"":1}","[0,1]","../img/tt/1181tt.jpg","",""
"2509.935000000056","","","recognition","survey-text","499","1476662","0.0-6.0-3.70","2721175","co38590","norming","","","{""guess"":""baseball""}","","../img/tt/1181tt.jpg","",""
"null","../img/gs/1181gs.jpg","null","reveal","image-keyboard-response","500","1478667","0.0-6.0-4.70","2721175","co38590","norming","","","","","","",""
"null","../img/tt/1181tt.jpg","null","mooney2","image-keyboard-response","501","1480678","0.0-6.0-5.70","2721175","co38590","norming","","","","","","",""
"3805.5599999988917","","","post_reveal_questions","survey-likert","502","1484487","0.0-6.0-6.70","2721175","co38590","norming","","","{""aha"":2}","[0]","../img/tt/1181tt.jpg","",""
"null","<div style=""font-size:60px;""> </div>","null","fixation","html-keyboard-response","503","1484691","0.0-6.0-0.71","2721175","co38590","norming","","","","","","",""
"null","../img/tt/1362tt.jpg","null","mooney1","image-keyboard-response","504","1487700","0.0-6.0-1.71","2721175","co38590","norming","","","","","","",""
"7263.644999999087","","","post_mooney1_questions","survey-likert","505","1494966","0.0-6.0-2.71","2721175","co38590","norming","","","{""curiosity"":4,""confidence"":2}","[0,1]","../img/tt/1362tt.jpg","",""
"5165.994999999413","","","recognition","survey-text","506","1500133","0.0-6.0-3.71","2721175","co38590","norming","","","{""guess"":""hoed""}","","../img/tt/1362tt.jpg","",""
"null","../img/gs/1362gs.jpg","null","reveal","image-keyboard-response","507","1502136","0.0-6.0-4.71","2721175","co38590","norming","","","","","","",""
"null","../img/tt/1362tt.jpg","null","mooney2","image-keyboard-response","508","1504137","0.0-6.0-5.71","2721175","co38590","norming","","","","","","",""
"1753.2899999986403","","","post_reveal_questions","survey-likert","509","1505893","0.0-6.0-6.71","2721175","co38590","norming","","","{""aha"":2}","[0]","../img/tt/1362tt.jpg","",""
"null","<div style=""font-size:60px;""> </div>","null","fixation","html-keyboard-response","510","1506101","0.0-6.0-0.72","2721175","co38590","norming","","","","","","",""
"null","../img/tt/534tt.jpg","null","mooney1","image-keyboard-response","511","1509107","0.0-6.0-1.72","2721175","co38590","norming","","","","","","",""
"3527.500000000233","","","post_mooney1_questions","survey-likert","512","1512638","0.0-6.0-2.72","2721175","co38590","norming","","","{""curiosity"":2,""confidence"":3}","[0,1]","../img/tt/534tt.jpg","",""
"2166.1449999990873","","","recognition","survey-text","513","1514805","0.0-6.0-3.72","2721175","co38590","norming","","","{""guess"":""cactus""}","","../img/tt/534tt.jpg","",""
"null","../img/gs/534gs.jpg","null","reveal","image-keyboard-response","514","1516809","0.0-6.0-4.72","2721175","co38590","norming","","","","","","",""
"null","../img/tt/534tt.jpg","null","mooney2","image-keyboard-response","515","1518811","0.0-6.0-5.72","2721175","co38590","norming","","","","","","",""
"4367.399999999208","","","post_reveal_questions","survey-likert","516","1523181","0.0-6.0-6.72","2721175","co38590","norming","","","{""aha"":0}","[0]","../img/tt/534tt.jpg","",""
"null","<div style=""font-size:60px;""> </div>","null","fixation","html-keyboard-response","517","1523386","0.0-6.0-0.73","2721175","co38590","norming","","","","","","",""
"null","../img/tt/273tt.jpg","null","mooney1","image-keyboard-response","518","1526390","0.0-6.0-1.73","2721175","co38590","norming","","","","","","",""
"3774.859999999637","","","post_mooney1_questions","survey-likert","519","1530166","0.0-6.0-2.73","2721175","co38590","norming","","","{""curiosity"":2,""confidence"":4}","[0,1]","../img/tt/273tt.jpg","",""
"1822.0449999989942","","","recognition","survey-text","520","1531989","0.0-6.0-3.73","2721175","co38590","norming","","","{""guess"":""tong""}","","../img/tt/273tt.jpg","",""
"null","../img/gs/273gs.jpg","null","reveal","image-keyboard-response","521","1533991","0.0-6.0-4.73","2721175","co38590","norming","","","","","","",""
"null","../img/tt/273tt.jpg","null","mooney2","image-keyboard-response","522","1535999","0.0-6.0-5.73","2721175","co38590","norming","","","","","","",""
"4259.104999999283","","","post_reveal_questions","survey-likert","523","1540261","0.0-6.0-6.73","2721175","co38590","norming","","","{""aha"":1}","[0]","../img/tt/273tt.jpg","",""
"null","<div style=""font-size:60px;""> </div>","null","fixation","html-keyboard-response","524","1540468","0.0-6.0-0.74","2721175","co38590","norming","","","","","","",""
"null","../img/tt/1228tt.jpg","null","mooney1","image-keyboard-response","525","1543472","0.0-6.0-1.74","2721175","co38590","norming","","","","","","",""
"5834.889999999898","","","post_mooney1_questions","survey-likert","526","1549310","0.0-6.0-2.74","2721175","co38590","norming","","","{""curiosity"":3,""confidence"":2}","[0,1]","../img/tt/1228tt.jpg","",""
"3141.9449999993667","","","recognition","survey-text","527","1552453","0.0-6.0-3.74","2721175","co38590","norming","","","{""guess"":""vogel""}","","../img/tt/1228tt.jpg","",""
"null","../img/gs/1228gs.jpg","null","reveal","image-keyboard-response","528","1554466","0.0-6.0-4.74","2721175","co38590","norming","","","","","","",""
"null","../img/tt/1228tt.jpg","null","mooney2","image-keyboard-response","529","1556477","0.0-6.0-5.74","2721175","co38590","norming","","","","","","",""
"5855.76500000013","","","post_reveal_questions","survey-likert","530","1562335","0.0-6.0-6.74","2721175","co38590","norming","","","{""aha"":2}","[0]","../img/tt/1228tt.jpg","",""
"null","<div style=""font-size:60px;""> </div>","null","fixation","html-keyboard-response","531","1562537","0.0-6.0-0.75","2721175","co38590","norming","","","","","","",""
"null","../img/tt/1279tt.jpg","null","mooney1","image-keyboard-response","532","1565541","0.0-6.0-1.75","2721175","co38590","norming","","","","","","",""
"4207.249999999534","","","post_mooney1_questions","survey-likert","533","1569752","0.0-6.0-2.75","2721175","co38590","norming","","","{""curiosity"":2,""confidence"":3}","[0,1]","../img/tt/1279tt.jpg","",""
"2014.1100000001024","","","recognition","survey-text","534","1571768","0.0-6.0-3.75","2721175","co38590","norming","","","{""guess"":""herten""}","","../img/tt/1279tt.jpg","",""
"null","../img/gs/1279gs.jpg","null","reveal","image-keyboard-response","535","1573779","0.0-6.0-4.75","2721175","co38590","norming","","","","","","",""
"null","../img/tt/1279tt.jpg","null","mooney2","image-keyboard-response","536","1575781","0.0-6.0-5.75","2721175","co38590","norming","","","","","","",""
"2936.5299999990966","","","post_reveal_questions","survey-likert","537","1578720","0.0-6.0-6.75","2721175","co38590","norming","","","{""aha"":0}","[0]","../img/tt/1279tt.jpg","",""
"null","<div style=""font-size:60px;""> </div>","null","fixation","html-keyboard-response","538","1578924","0.0-6.0-0.76","2721175","co38590","norming","","","","","","",""
"null","../img/tt/111tt.jpg","null","mooney1","image-keyboard-response","539","1581928","0.0-6.0-1.76","2721175","co38590","norming","","","","","","",""
"4468.125000001164","","","post_mooney1_questions","survey-likert","540","1586400","0.0-6.0-2.76","2721175","co38590","norming","","","{""curiosity"":4,""confidence"":0}","[0,1]","../img/tt/111tt.jpg","",""
"806.3049999999348","","","recognition","survey-text","541","1587208","0.0-6.0-3.76","2721175","co38590","norming","","","{""guess"":""""}","","../img/tt/111tt.jpg","",""
"null","../img/gs/111gs.jpg","null","reveal","image-keyboard-response","542","1589211","0.0-6.0-4.76","2721175","co38590","norming","","","","","","",""
"null","../img/tt/111tt.jpg","null","mooney2","image-keyboard-response","543","1591213","0.0-6.0-5.76","2721175","co38590","norming","","","","","","",""
"2486.8699999989476","","","post_reveal_questions","survey-likert","544","1593704","0.0-6.0-6.76","2721175","co38590","norming","","","{""aha"":4}","[0]","../img/tt/111tt.jpg","",""
"null","<div style=""font-size:60px;""> </div>","null","fixation","html-keyboard-response","545","1593905","0.0-6.0-0.77","2721175","co38590","norming","","","","","","",""
"null","../img/tt/1159tt.jpg","null","mooney1","image-keyboard-response","546","1596911","0.0-6.0-1.77","2721175","co38590","norming","","","","","","",""
"7104.079999999143","","","post_mooney1_questions","survey-likert","547","1604016","0.0-6.0-2.77","2721175","co38590","norming","","","{""curiosity"":4,""confidence"":0}","[0,1]","../img/tt/1159tt.jpg","",""
"830.0149999994319","","","recognition","survey-text","548","1604848","0.0-6.0-3.77","2721175","co38590","norming","","","{""guess"":""""}","","../img/tt/1159tt.jpg","",""
"null","../img/gs/1159gs.jpg","null","reveal","image-keyboard-response","549","1606851","0.0-6.0-4.77","2721175","co38590","norming","","","","","","",""
"null","../img/tt/1159tt.jpg","null","mooney2","image-keyboard-response","550","1608861","0.0-6.0-5.77","2721175","co38590","norming","","","","","","",""
"1663.640000000596","","","post_reveal_questions","survey-likert","551","1610528","0.0-6.0-6.77","2721175","co38590","norming","","","{""aha"":3}","[0]","../img/tt/1159tt.jpg","",""
"null","<div style=""font-size:60px;""> </div>","null","fixation","html-keyboard-response","552","1610730","0.0-6.0-0.78","2721175","co38590","norming","","","","","","",""
