"rt","stimulus","key_press","test_part","trial_type","trial_index","time_elapsed","internal_node_id","totalTime","subject","experiment_name","button_pressed","success","responses","question_order","currentStim","old","correct"
"7249.734999999987","Welcome to the experiment. This is an online experiment so please don't close the tab/window until we say goodbye.  Press any key to begin.","13","instructions","html-keyboard-response","0","7283","0.0-0.0","3045986","co38482","norming","","","","","","",""
"27662.22499999992","<div style='word-wrap: break-word; width: 900px'><h3>Please consider this information carefully before deciding whether to participate in this research</h3><ul style='text-align: left; font-size: .8em;'><li><b>Purpose of the research</b>: To examine how people process images.</li><li><b>What you will do in this research</b>:  Stimuli (images) will be presented on the computer and you will be asked different questions about them.</li><li><b>Time required</b>: Participation will take between 45 and 60 minutes to complete.</li><li><b>Risks</b>:  There are no anticipated risks associated with participating in this study. The effects of participating should be comparable to those you would experience from viewing a computer monitor for 30 minutes and using a mouse or keyboard.</li><li><b>Benefits</b>:  This study provides no benefits to you individually except for the credit. The study provides important information about the nature of perception and learning.</li><li><b>Confidentiality</b>:  Your participation in this study will remain confidential. No personally identifiable information will be associated with your data. Your de-identified data may be shared with other researchers and used in future projects.</li><li><b>Participation and withdrawal</b>:  Your participation in this study is completely voluntary and you may refuse to participate or you may choose to withdraw at any time without penalty.</li><li><b>How to contact the researchers</b>: If you have questions or concerns about your participation or payment, or want to request a summary of research findings, please contact Sander Van de Cruys (KU Leuven), at sander.vandecruys@kuleuven.be.</li></ul><p>The nature and purpose of this research have been sufficiently explained and I agree to participate in this study.  I understand that I am free to withdraw at any time without incurring any penalty.</p><p>Please consent by clicking the button below to continue. Otherwise, please exit the study at this time.</p></div>","","instructions","html-button-response","1","34953","0.0-1.0","3045986","co38482","norming","0","","","","","",""
"","","","instructions","fullscreen","2","39246","0.0-2.0","3045986","co38482","norming","","true","","","","",""
"48392.92499999999","","","sona","survey-html-form","3","87641","0.0-3.0","3045986","co38482","norming","","","[{""name"":""sonaid"",""value"":""38482""},{""name"":""debrief"",""value"":""yes""},{""name"":""datajoin"",""value"":""yes""}]","","","",""
"85946.89499999993","<div style='word-wrap: break-word; width: 900px'><h3>Instructions</h3><p>This experiment will have 3 parts. In the first part you will see a series of distorted images like the one below on the left. As you can see in the righthand image, the distorted images are derived from actual photographs. In what follows, you will <strong>briefly</strong> be presented with <strong>only</strong> the distorted image.</p> <div style='float: left; margin-right: 20px;'><img src='../img/018tt.jpg' height='250' width='250'></img></div><div style='float: right; margin-left: 20px;'><img src='../img/018gs.jpg' height='250' width='250'></img></div><p>Subsequently you will be asked a few questions about the image: One question on how <strong>curious</strong> you are about the solution and one on how <strong>confident</strong> you are that you know the solution.</p>Next, we ask you to make a guess on what is in the image. Note that it is OK to name just the <strong>basic level category</strong>. For example when you see a parrot in the image, 'parrot' will obviously be a correct answer but also correct is 'bird'. However, 'animal' will <strong>not</strong> be counted as a correct response. For the example above, 'rose' would be correct or 'flower', but not 'plant'. When soccer players are depicted, 'soccer', 'football', 'soccer players' will be correct, but not 'humans', 'outdoors', or 'sports'. You do not need to describe the image in full, just name the main object in it <strong>in one or two words</strong>. All images depict objects from one of the following broad level categories: animals, inanimate objects, plants, sports, vehicles, and food. Recognizing means knowing <strong>more</strong> than these broad labels for a given image. But we always encourage you to <strong>make a guess</strong> if you can. Note that you are allowed to use <strong>Dutch and English</strong> in your answers, whatever comes easiest for you.</p><p>Press any key to continue.</p></div>","13","instructions","html-keyboard-response","4","173595","0.0-4.0","3045986","co38482","norming","","","","","","",""
"131983.57499999995","<div style='word-wrap: break-word; width: 900px'><h3>Instructions</h3> <p>Next, the solution image will be revealed to you and you'll be asked to indicate how strong your <strong>aha-experience</strong> was after seeing the solution. This describes the positive feeling of the 'click' you sometimes experience, when the pieces of the 'puzzle' fall together and you suddenly have 'insight' in the image.</p><img src='aha.jpg' height='188' width='250'></img><p>Note that there are no right or wrong answers. We are interested in what <strong>you</strong> see in the image and how <strong>you</strong> feel about it.</p><p>Press any key to start the experiment.</p></div>","13","instructions","html-keyboard-response","5","305572","0.0-5.0","3045986","co38482","norming","","","","","","",""
"null","<div style=""font-size:60px;""> </div>","null","fixation","html-keyboard-response","6","305782","0.0-6.0-0.0","3045986","co38482","norming","","","","","","",""
"null","../img/tt/052tt.jpg","null","mooney1","image-keyboard-response","7","308789","0.0-6.0-1.0","3045986","co38482","norming","","","","","","",""
"17819.420000000042","","","post_mooney1_questions","survey-likert","8","326613","0.0-6.0-2.0","3045986","co38482","norming","","","{""curiosity"":5,""confidence"":2}","[0,1]","../img/tt/052tt.jpg","",""
"6797.549999999988","","","recognition","survey-text","9","333412","0.0-6.0-3.0","3045986","co38482","norming","","","{""guess"":""ring""}","","../img/tt/052tt.jpg","",""
"null","../img/gs/052gs.jpg","null","reveal","image-keyboard-response","10","335422","0.0-6.0-4.0","3045986","co38482","norming","","","","","","",""
"null","../img/tt/052tt.jpg","null","mooney2","image-keyboard-response","11","337425","0.0-6.0-5.0","3045986","co38482","norming","","","","","","",""
"9969.270000000077","","","post_reveal_questions","survey-likert","12","347396","0.0-6.0-6.0","3045986","co38482","norming","","","{""aha"":1}","[0]","../img/tt/052tt.jpg","",""
"null","<div style=""font-size:60px;""> </div>","null","fixation","html-keyboard-response","13","347598","0.0-6.0-0.1","3045986","co38482","norming","","","","","","",""
"null","../img/tt/301tt.jpg","null","mooney1","image-keyboard-response","14","350605","0.0-6.0-1.1","3045986","co38482","norming","","","","","","",""
"10910.004999999946","","","post_mooney1_questions","survey-likert","15","361516","0.0-6.0-2.1","3045986","co38482","norming","","","{""curiosity"":6,""confidence"":0}","[0,1]","../img/tt/301tt.jpg","",""
"5734.005000000005","","","recognition","survey-text","16","367256","0.0-6.0-3.1","3045986","co38482","norming","","","{""guess"":""window""}","","../img/tt/301tt.jpg","",""
"null","../img/gs/301gs.jpg","null","reveal","image-keyboard-response","17","369259","0.0-6.0-4.1","3045986","co38482","norming","","","","","","",""
"null","../img/tt/301tt.jpg","null","mooney2","image-keyboard-response","18","371269","0.0-6.0-5.1","3045986","co38482","norming","","","","","","",""
"12025.110000000044","","","post_reveal_questions","survey-likert","19","383296","0.0-6.0-6.1","3045986","co38482","norming","","","{""aha"":1}","[0]","../img/tt/301tt.jpg","",""
"null","<div style=""font-size:60px;""> </div>","null","fixation","html-keyboard-response","20","383504","0.0-6.0-0.2","3045986","co38482","norming","","","","","","",""
"null","../img/tt/1097tt.jpg","null","mooney1","image-keyboard-response","21","386516","0.0-6.0-1.2","3045986","co38482","norming","","","","","","",""
"5667.320000000007","","","post_mooney1_questions","survey-likert","22","392184","0.0-6.0-2.2","3045986","co38482","norming","","","{""curiosity"":6,""confidence"":1}","[0,1]","../img/tt/1097tt.jpg","",""
"3102.194999999949","","","recognition","survey-text","23","395288","0.0-6.0-3.2","3045986","co38482","norming","","","{""guess"":""beach""}","","../img/tt/1097tt.jpg","",""
"null","../img/gs/1097gs.jpg","null","reveal","image-keyboard-response","24","397298","0.0-6.0-4.2","3045986","co38482","norming","","","","","","",""
"null","../img/tt/1097tt.jpg","null","mooney2","image-keyboard-response","25","399308","0.0-6.0-5.2","3045986","co38482","norming","","","","","","",""
"4313.735000000161","","","post_reveal_questions","survey-likert","26","403624","0.0-6.0-6.2","3045986","co38482","norming","","","{""aha"":3}","[0]","../img/tt/1097tt.jpg","",""
"null","<div style=""font-size:60px;""> </div>","null","fixation","html-keyboard-response","27","403825","0.0-6.0-0.3","3045986","co38482","norming","","","","","","",""
"null","../img/tt/1063tt.jpg","null","mooney1","image-keyboard-response","28","406835","0.0-6.0-1.3","3045986","co38482","norming","","","","","","",""
"6954.609999999986","","","post_mooney1_questions","survey-likert","29","413792","0.0-6.0-2.3","3045986","co38482","norming","","","{""curiosity"":5,""confidence"":2}","[0,1]","../img/tt/1063tt.jpg","",""
"1862.1749999999884","","","recognition","survey-text","30","415656","0.0-6.0-3.3","3045986","co38482","norming","","","{""guess"":""horse""}","","../img/tt/1063tt.jpg","",""
"null","../img/gs/1063gs.jpg","null","reveal","image-keyboard-response","31","417662","0.0-6.0-4.3","3045986","co38482","norming","","","","","","",""
"null","../img/tt/1063tt.jpg","null","mooney2","image-keyboard-response","32","419669","0.0-6.0-5.3","3045986","co38482","norming","","","","","","",""
"8722.465000000026","","","post_reveal_questions","survey-likert","33","428395","0.0-6.0-6.3","3045986","co38482","norming","","","{""aha"":4}","[0]","../img/tt/1063tt.jpg","",""
"null","<div style=""font-size:60px;""> </div>","null","fixation","html-keyboard-response","34","428597","0.0-6.0-0.4","3045986","co38482","norming","","","","","","",""
"null","../img/tt/135tt.jpg","null","mooney1","image-keyboard-response","35","431605","0.0-6.0-1.4","3045986","co38482","norming","","","","","","",""
"6876.324999999953","","","post_mooney1_questions","survey-likert","36","438483","0.0-6.0-2.4","3045986","co38482","norming","","","{""curiosity"":5,""confidence"":5}","[0,1]","../img/tt/135tt.jpg","",""
"2182.1499999998487","","","recognition","survey-text","37","440666","0.0-6.0-3.4","3045986","co38482","norming","","","{""guess"":""toilet""}","","../img/tt/135tt.jpg","",""
"null","../img/gs/135gs.jpg","null","reveal","image-keyboard-response","38","442671","0.0-6.0-4.4","3045986","co38482","norming","","","","","","",""
"null","../img/tt/135tt.jpg","null","mooney2","image-keyboard-response","39","444685","0.0-6.0-5.4","3045986","co38482","norming","","","","","","",""
"8092.084999999963","","","post_reveal_questions","survey-likert","40","452779","0.0-6.0-6.4","3045986","co38482","norming","","","{""aha"":0}","[0]","../img/tt/135tt.jpg","",""
"null","<div style=""font-size:60px;""> </div>","null","fixation","html-keyboard-response","41","452981","0.0-6.0-0.5","3045986","co38482","norming","","","","","","",""
"null","../img/tt/1205tt.jpg","null","mooney1","image-keyboard-response","42","455990","0.0-6.0-1.5","3045986","co38482","norming","","","","","","",""
"5491.389999999898","","","post_mooney1_questions","survey-likert","43","461483","0.0-6.0-2.5","3045986","co38482","norming","","","{""curiosity"":6,""confidence"":0}","[0,1]","../img/tt/1205tt.jpg","",""
"3718.1300000000047","","","recognition","survey-text","44","465202","0.0-6.0-3.5","3045986","co38482","norming","","","{""guess"":""""}","","../img/tt/1205tt.jpg","",""
"null","../img/gs/1205gs.jpg","null","reveal","image-keyboard-response","45","467207","0.0-6.0-4.5","3045986","co38482","norming","","","","","","",""
"null","../img/tt/1205tt.jpg","null","mooney2","image-keyboard-response","46","469212","0.0-6.0-5.5","3045986","co38482","norming","","","","","","",""
"6061.889999999956","","","post_reveal_questions","survey-likert","47","475275","0.0-6.0-6.5","3045986","co38482","norming","","","{""aha"":3}","[0]","../img/tt/1205tt.jpg","",""
"null","<div style=""font-size:60px;""> </div>","null","fixation","html-keyboard-response","48","475477","0.0-6.0-0.6","3045986","co38482","norming","","","","","","",""
"null","../img/tt/442tt.jpg","null","mooney1","image-keyboard-response","49","478485","0.0-6.0-1.6","3045986","co38482","norming","","","","","","",""
"5228.980000000098","","","post_mooney1_questions","survey-likert","50","483715","0.0-6.0-2.6","3045986","co38482","norming","","","{""curiosity"":6,""confidence"":0}","[0,1]","../img/tt/442tt.jpg","",""
"4581.50499999983","","","recognition","survey-text","51","488304","0.0-6.0-3.6","3045986","co38482","norming","","","{""guess"":""pineapple""}","","../img/tt/442tt.jpg","",""
"null","../img/gs/442gs.jpg","null","reveal","image-keyboard-response","52","490311","0.0-6.0-4.6","3045986","co38482","norming","","","","","","",""
"null","../img/tt/442tt.jpg","null","mooney2","image-keyboard-response","53","492316","0.0-6.0-5.6","3045986","co38482","norming","","","","","","",""
"3531.064999999944","","","post_reveal_questions","survey-likert","54","495848","0.0-6.0-6.6","3045986","co38482","norming","","","{""aha"":4}","[0]","../img/tt/442tt.jpg","",""
"null","<div style=""font-size:60px;""> </div>","null","fixation","html-keyboard-response","55","496050","0.0-6.0-0.7","3045986","co38482","norming","","","","","","",""
"null","../img/tt/063tt.jpg","null","mooney1","image-keyboard-response","56","499059","0.0-6.0-1.7","3045986","co38482","norming","","","","","","",""
"10540.94000000006","","","post_mooney1_questions","survey-likert","57","509601","0.0-6.0-2.7","3045986","co38482","norming","","","{""curiosity"":6,""confidence"":2}","[0,1]","../img/tt/063tt.jpg","",""
"3694.064999999944","","","recognition","survey-text","58","513297","0.0-6.0-3.7","3045986","co38482","norming","","","{""guess"":""accordeon""}","","../img/tt/063tt.jpg","",""
"null","../img/gs/063gs.jpg","null","reveal","image-keyboard-response","59","515302","0.0-6.0-4.7","3045986","co38482","norming","","","","","","",""
"null","../img/tt/063tt.jpg","null","mooney2","image-keyboard-response","60","517311","0.0-6.0-5.7","3045986","co38482","norming","","","","","","",""
"4399.674999999872","","","post_reveal_questions","survey-likert","61","521713","0.0-6.0-6.7","3045986","co38482","norming","","","{""aha"":1}","[0]","../img/tt/063tt.jpg","",""
"null","<div style=""font-size:60px;""> </div>","null","fixation","html-keyboard-response","62","521914","0.0-6.0-0.8","3045986","co38482","norming","","","","","","",""
"null","../img/tt/603tt.jpg","null","mooney1","image-keyboard-response","63","524926","0.0-6.0-1.8","3045986","co38482","norming","","","","","","",""
"3624.4749999998603","","","post_mooney1_questions","survey-likert","64","528553","0.0-6.0-2.8","3045986","co38482","norming","","","{""curiosity"":6,""confidence"":0}","[0,1]","../img/tt/603tt.jpg","",""
"790.1549999999115","","","recognition","survey-text","65","529345","0.0-6.0-3.8","3045986","co38482","norming","","","{""guess"":""""}","","../img/tt/603tt.jpg","",""
"null","../img/gs/603gs.jpg","null","reveal","image-keyboard-response","66","531350","0.0-6.0-4.8","3045986","co38482","norming","","","","","","",""
"null","../img/tt/603tt.jpg","null","mooney2","image-keyboard-response","67","533360","0.0-6.0-5.8","3045986","co38482","norming","","","","","","",""
"2982.7550000000047","","","post_reveal_questions","survey-likert","68","536345","0.0-6.0-6.8","3045986","co38482","norming","","","{""aha"":5}","[0]","../img/tt/603tt.jpg","",""
"null","<div style=""font-size:60px;""> </div>","null","fixation","html-keyboard-response","69","536547","0.0-6.0-0.9","3045986","co38482","norming","","","","","","",""
"null","../img/tt/123tt.jpg","null","mooney1","image-keyboard-response","70","539549","0.0-6.0-1.9","3045986","co38482","norming","","","","","","",""
"5930.040000000037","","","post_mooney1_questions","survey-likert","71","545481","0.0-6.0-2.9","3045986","co38482","norming","","","{""curiosity"":5,""confidence"":2}","[0,1]","../img/tt/123tt.jpg","",""
"1638.1500000000233","","","recognition","survey-text","72","547121","0.0-6.0-3.9","3045986","co38482","norming","","","{""guess"":""boat""}","","../img/tt/123tt.jpg","",""
"null","../img/gs/123gs.jpg","null","reveal","image-keyboard-response","73","549131","0.0-6.0-4.9","3045986","co38482","norming","","","","","","",""
"null","../img/tt/123tt.jpg","null","mooney2","image-keyboard-response","74","551137","0.0-6.0-5.9","3045986","co38482","norming","","","","","","",""
"2639.04999999993","","","post_reveal_questions","survey-likert","75","553779","0.0-6.0-6.9","3045986","co38482","norming","","","{""aha"":5}","[0]","../img/tt/123tt.jpg","",""
"null","<div style=""font-size:60px;""> </div>","null","fixation","html-keyboard-response","76","553988","0.0-6.0-0.10","3045986","co38482","norming","","","","","","",""
"null","../img/tt/1242tt.jpg","null","mooney1","image-keyboard-response","77","556996","0.0-6.0-1.10","3045986","co38482","norming","","","","","","",""
"4092.250000000233","","","post_mooney1_questions","survey-likert","78","561091","0.0-6.0-2.10","3045986","co38482","norming","","","{""curiosity"":6,""confidence"":0}","[0,1]","../img/tt/1242tt.jpg","",""
"517.0900000000838","","","recognition","survey-text","79","561611","0.0-6.0-3.10","3045986","co38482","norming","","","{""guess"":""""}","","../img/tt/1242tt.jpg","",""
"null","../img/gs/1242gs.jpg","null","reveal","image-keyboard-response","80","563613","0.0-6.0-4.10","3045986","co38482","norming","","","","","","",""
"null","../img/tt/1242tt.jpg","null","mooney2","image-keyboard-response","81","565621","0.0-6.0-5.10","3045986","co38482","norming","","","","","","",""
"2363.4599999999627","","","post_reveal_questions","survey-likert","82","567987","0.0-6.0-6.10","3045986","co38482","norming","","","{""aha"":6}","[0]","../img/tt/1242tt.jpg","",""
"null","<div style=""font-size:60px;""> </div>","null","fixation","html-keyboard-response","83","568188","0.0-6.0-0.11","3045986","co38482","norming","","","","","","",""
"null","../img/tt/1190tt.jpg","null","mooney1","image-keyboard-response","84","571193","0.0-6.0-1.11","3045986","co38482","norming","","","","","","",""
"3582.9100000000326","","","post_mooney1_questions","survey-likert","85","574779","0.0-6.0-2.11","3045986","co38482","norming","","","{""curiosity"":6,""confidence"":0}","[0,1]","../img/tt/1190tt.jpg","",""
"4094.219999999972","","","recognition","survey-text","86","578875","0.0-6.0-3.11","3045986","co38482","norming","","","{""guess"":""""}","","../img/tt/1190tt.jpg","",""
"null","../img/gs/1190gs.jpg","null","reveal","image-keyboard-response","87","580884","0.0-6.0-4.11","3045986","co38482","norming","","","","","","",""
"null","../img/tt/1190tt.jpg","null","mooney2","image-keyboard-response","88","582893","0.0-6.0-5.11","3045986","co38482","norming","","","","","","",""
"2587.9899999999907","","","post_reveal_questions","survey-likert","89","585483","0.0-6.0-6.11","3045986","co38482","norming","","","{""aha"":6}","[0]","../img/tt/1190tt.jpg","",""
"null","<div style=""font-size:60px;""> </div>","null","fixation","html-keyboard-response","90","585684","0.0-6.0-0.12","3045986","co38482","norming","","","","","","",""
"null","../img/tt/1226tt.jpg","null","mooney1","image-keyboard-response","91","588686","0.0-6.0-1.12","3045986","co38482","norming","","","","","","",""
"4410.775000000023","","","post_mooney1_questions","survey-likert","92","593099","0.0-6.0-2.12","3045986","co38482","norming","","","{""curiosity"":6,""confidence"":0}","[0,1]","../img/tt/1226tt.jpg","",""
"2278.130000000121","","","recognition","survey-text","93","595379","0.0-6.0-3.12","3045986","co38482","norming","","","{""guess"":""wizard""}","","../img/tt/1226tt.jpg","",""
"null","../img/gs/1226gs.jpg","null","reveal","image-keyboard-response","94","597380","0.0-6.0-4.12","3045986","co38482","norming","","","","","","",""
"null","../img/tt/1226tt.jpg","null","mooney2","image-keyboard-response","95","599383","0.0-6.0-5.12","3045986","co38482","norming","","","","","","",""
"2969.3699999999953","","","post_reveal_questions","survey-likert","96","602355","0.0-6.0-6.12","3045986","co38482","norming","","","{""aha"":6}","[0]","../img/tt/1226tt.jpg","",""
"null","<div style=""font-size:60px;""> </div>","null","fixation","html-keyboard-response","97","602557","0.0-6.0-0.13","3045986","co38482","norming","","","","","","",""
"null","../img/tt/496tt.jpg","null","mooney1","image-keyboard-response","98","605563","0.0-6.0-1.13","3045986","co38482","norming","","","","","","",""
"4477.589999999967","","","post_mooney1_questions","survey-likert","99","610037","0.0-6.0-2.13","3045986","co38482","norming","","","{""curiosity"":6,""confidence"":1}","[0,1]","../img/tt/496tt.jpg","",""
"2966.1149999998743","","","recognition","survey-text","100","613005","0.0-6.0-3.13","3045986","co38482","norming","","","{""guess"":""pig""}","","../img/tt/496tt.jpg","",""
"null","../img/gs/496gs.jpg","null","reveal","image-keyboard-response","101","615007","0.0-6.0-4.13","3045986","co38482","norming","","","","","","",""
"null","../img/tt/496tt.jpg","null","mooney2","image-keyboard-response","102","617010","0.0-6.0-5.13","3045986","co38482","norming","","","","","","",""
"3921.194999999949","","","post_reveal_questions","survey-likert","103","620933","0.0-6.0-6.13","3045986","co38482","norming","","","{""aha"":6}","[0]","../img/tt/496tt.jpg","",""
"null","<div style=""font-size:60px;""> </div>","null","fixation","html-keyboard-response","104","621135","0.0-6.0-0.14","3045986","co38482","norming","","","","","","",""
"null","../img/tt/008tt.jpg","null","mooney1","image-keyboard-response","105","624138","0.0-6.0-1.14","3045986","co38482","norming","","","","","","",""
"2736.8699999999953","","","post_mooney1_questions","survey-likert","106","626877","0.0-6.0-2.14","3045986","co38482","norming","","","{""curiosity"":6,""confidence"":1}","[0,1]","../img/tt/008tt.jpg","",""
"1470.3499999998603","","","recognition","survey-text","107","628349","0.0-6.0-3.14","3045986","co38482","norming","","","{""guess"":""tent""}","","../img/tt/008tt.jpg","",""
"null","../img/gs/008gs.jpg","null","reveal","image-keyboard-response","108","630356","0.0-6.0-4.14","3045986","co38482","norming","","","","","","",""
"null","../img/tt/008tt.jpg","null","mooney2","image-keyboard-response","109","632364","0.0-6.0-5.14","3045986","co38482","norming","","","","","","",""
"4527.579999999958","","","post_reveal_questions","survey-likert","110","636893","0.0-6.0-6.14","3045986","co38482","norming","","","{""aha"":4}","[0]","../img/tt/008tt.jpg","",""
"null","<div style=""font-size:60px;""> </div>","null","fixation","html-keyboard-response","111","637097","0.0-6.0-0.15","3045986","co38482","norming","","","","","","",""
"null","../img/tt/549tt.jpg","null","mooney1","image-keyboard-response","112","640105","0.0-6.0-1.15","3045986","co38482","norming","","","","","","",""
"4986.400000000023","","","post_mooney1_questions","survey-likert","113","645094","0.0-6.0-2.15","3045986","co38482","norming","","","{""curiosity"":6,""confidence"":2}","[0,1]","../img/tt/549tt.jpg","",""
"3909.7799999999115","","","recognition","survey-text","114","649005","0.0-6.0-3.15","3045986","co38482","norming","","","{""guess"":""berg""}","","../img/tt/549tt.jpg","",""
"null","../img/gs/549gs.jpg","null","reveal","image-keyboard-response","115","651013","0.0-6.0-4.15","3045986","co38482","norming","","","","","","",""
"null","../img/tt/549tt.jpg","null","mooney2","image-keyboard-response","116","653020","0.0-6.0-5.15","3045986","co38482","norming","","","","","","",""
"2968.465000000084","","","post_reveal_questions","survey-likert","117","655989","0.0-6.0-6.15","3045986","co38482","norming","","","{""aha"":6}","[0]","../img/tt/549tt.jpg","",""
"null","<div style=""font-size:60px;""> </div>","null","fixation","html-keyboard-response","118","656190","0.0-6.0-0.16","3045986","co38482","norming","","","","","","",""
"null","../img/tt/1261tt.jpg","null","mooney1","image-keyboard-response","119","659194","0.0-6.0-1.16","3045986","co38482","norming","","","","","","",""
"3400.0649999997113","","","post_mooney1_questions","survey-likert","120","662597","0.0-6.0-2.16","3045986","co38482","norming","","","{""curiosity"":6,""confidence"":1}","[0,1]","../img/tt/1261tt.jpg","",""
"3542.5149999998976","","","recognition","survey-text","121","666141","0.0-6.0-3.16","3045986","co38482","norming","","","{""guess"":""window""}","","../img/tt/1261tt.jpg","",""
"null","../img/gs/1261gs.jpg","null","reveal","image-keyboard-response","122","668144","0.0-6.0-4.16","3045986","co38482","norming","","","","","","",""
"null","../img/tt/1261tt.jpg","null","mooney2","image-keyboard-response","123","670158","0.0-6.0-5.16","3045986","co38482","norming","","","","","","",""
"2402.930000000051","","","post_reveal_questions","survey-likert","124","672563","0.0-6.0-6.16","3045986","co38482","norming","","","{""aha"":6}","[0]","../img/tt/1261tt.jpg","",""
"null","<div style=""font-size:60px;""> </div>","null","fixation","html-keyboard-response","125","672764","0.0-6.0-0.17","3045986","co38482","norming","","","","","","",""
"null","../img/tt/1353tt.jpg","null","mooney1","image-keyboard-response","126","675777","0.0-6.0-1.17","3045986","co38482","norming","","","","","","",""
"3577.070000000065","","","post_mooney1_questions","survey-likert","127","679363","0.0-6.0-2.17","3045986","co38482","norming","","","{""curiosity"":6,""confidence"":1}","[0,1]","../img/tt/1353tt.jpg","",""
"2142.330000000191","","","recognition","survey-text","128","681507","0.0-6.0-3.17","3045986","co38482","norming","","","{""guess"":""flower""}","","../img/tt/1353tt.jpg","",""
"null","../img/gs/1353gs.jpg","null","reveal","image-keyboard-response","129","683514","0.0-6.0-4.17","3045986","co38482","norming","","","","","","",""
"null","../img/tt/1353tt.jpg","null","mooney2","image-keyboard-response","130","685523","0.0-6.0-5.17","3045986","co38482","norming","","","","","","",""
"2910.7650000001304","","","post_reveal_questions","survey-likert","131","688436","0.0-6.0-6.17","3045986","co38482","norming","","","{""aha"":6}","[0]","../img/tt/1353tt.jpg","",""
"null","<div style=""font-size:60px;""> </div>","null","fixation","html-keyboard-response","132","688638","0.0-6.0-0.18","3045986","co38482","norming","","","","","","",""
"null","../img/tt/1101tt.jpg","null","mooney1","image-keyboard-response","133","691645","0.0-6.0-1.18","3045986","co38482","norming","","","","","","",""
"6387.9199999999255","","","post_mooney1_questions","survey-likert","134","698036","0.0-6.0-2.18","3045986","co38482","norming","","","{""curiosity"":5,""confidence"":2}","[0,1]","../img/tt/1101tt.jpg","",""
"7950.2050000000745","","","recognition","survey-text","135","705988","0.0-6.0-3.18","3045986","co38482","norming","","","{""guess"":""man""}","","../img/tt/1101tt.jpg","",""
"null","../img/gs/1101gs.jpg","null","reveal","image-keyboard-response","136","707995","0.0-6.0-4.18","3045986","co38482","norming","","","","","","",""
"null","../img/tt/1101tt.jpg","null","mooney2","image-keyboard-response","137","709997","0.0-6.0-5.18","3045986","co38482","norming","","","","","","",""
"3051.9899999998743","","","post_reveal_questions","survey-likert","138","713052","0.0-6.0-6.18","3045986","co38482","norming","","","{""aha"":4}","[0]","../img/tt/1101tt.jpg","",""
"null","<div style=""font-size:60px;""> </div>","null","fixation","html-keyboard-response","139","713253","0.0-6.0-0.19","3045986","co38482","norming","","","","","","",""
"null","../img/tt/1234tt.jpg","null","mooney1","image-keyboard-response","140","716261","0.0-6.0-1.19","3045986","co38482","norming","","","","","","",""
"3091.9350000001723","","","post_mooney1_questions","survey-likert","141","719356","0.0-6.0-2.19","3045986","co38482","norming","","","{""curiosity"":6,""confidence"":0}","[0,1]","../img/tt/1234tt.jpg","",""
"821.9900000002235","","","recognition","survey-text","142","720179","0.0-6.0-3.19","3045986","co38482","norming","","","{""guess"":""""}","","../img/tt/1234tt.jpg","",""
"null","../img/gs/1234gs.jpg","null","reveal","image-keyboard-response","143","722186","0.0-6.0-4.19","3045986","co38482","norming","","","","","","",""
"null","../img/tt/1234tt.jpg","null","mooney2","image-keyboard-response","144","724194","0.0-6.0-5.19","3045986","co38482","norming","","","","","","",""
"1936.1249999998836","","","post_reveal_questions","survey-likert","145","726131","0.0-6.0-6.19","3045986","co38482","norming","","","{""aha"":6}","[0]","../img/tt/1234tt.jpg","",""
"null","<div style=""font-size:60px;""> </div>","null","fixation","html-keyboard-response","146","726333","0.0-6.0-0.20","3045986","co38482","norming","","","","","","",""
"null","../img/tt/032tt.jpg","null","mooney1","image-keyboard-response","147","729344","0.0-6.0-1.20","3045986","co38482","norming","","","","","","",""
"6521.034999999916","","","post_mooney1_questions","survey-likert","148","735863","0.0-6.0-2.20","3045986","co38482","norming","","","{""curiosity"":6,""confidence"":1}","[0,1]","../img/tt/032tt.jpg","",""
"2230.4999999998836","","","recognition","survey-text","149","738095","0.0-6.0-3.20","3045986","co38482","norming","","","{""guess"":""snake""}","","../img/tt/032tt.jpg","",""
"null","../img/gs/032gs.jpg","null","reveal","image-keyboard-response","150","740103","0.0-6.0-4.20","3045986","co38482","norming","","","","","","",""
"null","../img/tt/032tt.jpg","null","mooney2","image-keyboard-response","151","742106","0.0-6.0-5.20","3045986","co38482","norming","","","","","","",""
"2666.2399999999907","","","post_reveal_questions","survey-likert","152","744775","0.0-6.0-6.20","3045986","co38482","norming","","","{""aha"":5}","[0]","../img/tt/032tt.jpg","",""
"null","<div style=""font-size:60px;""> </div>","null","fixation","html-keyboard-response","153","744977","0.0-6.0-0.21","3045986","co38482","norming","","","","","","",""
"null","../img/tt/1070tt.jpg","null","mooney1","image-keyboard-response","154","747985","0.0-6.0-1.21","3045986","co38482","norming","","","","","","",""
"5244.055000000168","","","post_mooney1_questions","survey-likert","155","753231","0.0-6.0-2.21","3045986","co38482","norming","","","{""curiosity"":6,""confidence"":1}","[0,1]","../img/tt/1070tt.jpg","",""
"2062.1800000001676","","","recognition","survey-text","156","755295","0.0-6.0-3.21","3045986","co38482","norming","","","{""guess"":""fruit""}","","../img/tt/1070tt.jpg","",""
"null","../img/gs/1070gs.jpg","null","reveal","image-keyboard-response","157","757300","0.0-6.0-4.21","3045986","co38482","norming","","","","","","",""
"null","../img/tt/1070tt.jpg","null","mooney2","image-keyboard-response","158","759310","0.0-6.0-5.21","3045986","co38482","norming","","","","","","",""
"1975.2099999999627","","","post_reveal_questions","survey-likert","159","761287","0.0-6.0-6.21","3045986","co38482","norming","","","{""aha"":6}","[0]","../img/tt/1070tt.jpg","",""
"null","<div style=""font-size:60px;""> </div>","null","fixation","html-keyboard-response","160","761488","0.0-6.0-0.22","3045986","co38482","norming","","","","","","",""
"null","../img/tt/1087tt.jpg","null","mooney1","image-keyboard-response","161","764495","0.0-6.0-1.22","3045986","co38482","norming","","","","","","",""
"3085.1350000000093","","","post_mooney1_questions","survey-likert","162","767583","0.0-6.0-2.22","3045986","co38482","norming","","","{""curiosity"":6,""confidence"":0}","[0,1]","../img/tt/1087tt.jpg","",""
"766.0900000000838","","","recognition","survey-text","163","768351","0.0-6.0-3.22","3045986","co38482","norming","","","{""guess"":""""}","","../img/tt/1087tt.jpg","",""
"null","../img/gs/1087gs.jpg","null","reveal","image-keyboard-response","164","770359","0.0-6.0-4.22","3045986","co38482","norming","","","","","","",""
"null","../img/tt/1087tt.jpg","null","mooney2","image-keyboard-response","165","772363","0.0-6.0-5.22","3045986","co38482","norming","","","","","","",""
"3354.484999999986","","","post_reveal_questions","survey-likert","166","775719","0.0-6.0-6.22","3045986","co38482","norming","","","{""aha"":4}","[0]","../img/tt/1087tt.jpg","",""
"null","<div style=""font-size:60px;""> </div>","null","fixation","html-keyboard-response","167","775920","0.0-6.0-0.23","3045986","co38482","norming","","","","","","",""
"null","../img/tt/1211tt.jpg","null","mooney1","image-keyboard-response","168","778928","0.0-6.0-1.23","3045986","co38482","norming","","","","","","",""
"4011.850000000093","","","post_mooney1_questions","survey-likert","169","782943","0.0-6.0-2.23","3045986","co38482","norming","","","{""curiosity"":6,""confidence"":1}","[0,1]","../img/tt/1211tt.jpg","",""
"1790.3200000000652","","","recognition","survey-text","170","784735","0.0-6.0-3.23","3045986","co38482","norming","","","{""guess"":""boat""}","","../img/tt/1211tt.jpg","",""
"null","../img/gs/1211gs.jpg","null","reveal","image-keyboard-response","171","786742","0.0-6.0-4.23","3045986","co38482","norming","","","","","","",""
"null","../img/tt/1211tt.jpg","null","mooney2","image-keyboard-response","172","788753","0.0-6.0-5.23","3045986","co38482","norming","","","","","","",""
"2052","","","post_reveal_questions","survey-likert","173","790807","0.0-6.0-6.23","3045986","co38482","norming","","","{""aha"":6}","[0]","../img/tt/1211tt.jpg","",""
"null","<div style=""font-size:60px;""> </div>","null","fixation","html-keyboard-response","174","791009","0.0-6.0-0.24","3045986","co38482","norming","","","","","","",""
"null","../img/tt/1309tt.jpg","null","mooney1","image-keyboard-response","175","794016","0.0-6.0-1.24","3045986","co38482","norming","","","","","","",""
"3785.4200000001583","","","post_mooney1_questions","survey-likert","176","797804","0.0-6.0-2.24","3045986","co38482","norming","","","{""curiosity"":6,""confidence"":1}","[0,1]","../img/tt/1309tt.jpg","",""
"2741.884999999893","","","recognition","survey-text","177","800547","0.0-6.0-3.24","3045986","co38482","norming","","","{""guess"":""car""}","","../img/tt/1309tt.jpg","",""
"null","../img/gs/1309gs.jpg","null","reveal","image-keyboard-response","178","802556","0.0-6.0-4.24","3045986","co38482","norming","","","","","","",""
"null","../img/tt/1309tt.jpg","null","mooney2","image-keyboard-response","179","804564","0.0-6.0-5.24","3045986","co38482","norming","","","","","","",""
"7854.614999999874","","","post_reveal_questions","survey-likert","180","812420","0.0-6.0-6.24","3045986","co38482","norming","","","{""aha"":5}","[0]","../img/tt/1309tt.jpg","",""
"null","<div style=""font-size:60px;""> </div>","null","fixation","html-keyboard-response","181","812625","0.0-6.0-0.25","3045986","co38482","norming","","","","","","",""
"null","../img/tt/1278tt.jpg","null","mooney1","image-keyboard-response","182","815635","0.0-6.0-1.25","3045986","co38482","norming","","","","","","",""
"4679.020000000019","","","post_mooney1_questions","survey-likert","183","820316","0.0-6.0-2.25","3045986","co38482","norming","","","{""curiosity"":6,""confidence"":0}","[0,1]","../img/tt/1278tt.jpg","",""
"782.2249999999767","","","recognition","survey-text","184","821100","0.0-6.0-3.25","3045986","co38482","norming","","","{""guess"":""""}","","../img/tt/1278tt.jpg","",""
"null","../img/gs/1278gs.jpg","null","reveal","image-keyboard-response","185","823108","0.0-6.0-4.25","3045986","co38482","norming","","","","","","",""
"null","../img/tt/1278tt.jpg","null","mooney2","image-keyboard-response","186","825119","0.0-6.0-5.25","3045986","co38482","norming","","","","","","",""
"2811.6600000000326","","","post_reveal_questions","survey-likert","187","827932","0.0-6.0-6.25","3045986","co38482","norming","","","{""aha"":3}","[0]","../img/tt/1278tt.jpg","",""
"null","<div style=""font-size:60px;""> </div>","null","fixation","html-keyboard-response","188","828133","0.0-6.0-0.26","3045986","co38482","norming","","","","","","",""
"null","../img/tt/406tt.jpg","null","mooney1","image-keyboard-response","189","831140","0.0-6.0-1.26","3045986","co38482","norming","","","","","","",""
"9533.415000000154","","","post_mooney1_questions","survey-likert","190","840676","0.0-6.0-2.26","3045986","co38482","norming","","","{""curiosity"":6,""confidence"":1}","[0,1]","../img/tt/406tt.jpg","",""
"2622.339999999851","","","recognition","survey-text","191","843300","0.0-6.0-3.26","3045986","co38482","norming","","","{""guess"":""dog""}","","../img/tt/406tt.jpg","",""
"null","../img/gs/406gs.jpg","null","reveal","image-keyboard-response","192","845306","0.0-6.0-4.26","3045986","co38482","norming","","","","","","",""
"null","../img/tt/406tt.jpg","null","mooney2","image-keyboard-response","193","847308","0.0-6.0-5.26","3045986","co38482","norming","","","","","","",""
"2630.655000000028","","","post_reveal_questions","survey-likert","194","849940","0.0-6.0-6.26","3045986","co38482","norming","","","{""aha"":6}","[0]","../img/tt/406tt.jpg","",""
"null","<div style=""font-size:60px;""> </div>","null","fixation","html-keyboard-response","195","850146","0.0-6.0-0.27","3045986","co38482","norming","","","","","","",""
"null","../img/tt/1091tt.jpg","null","mooney1","image-keyboard-response","196","853156","0.0-6.0-1.27","3045986","co38482","norming","","","","","","",""
"5207.354999999981","","","post_mooney1_questions","survey-likert","197","858358","0.0-6.0-2.27","3045986","co38482","norming","","","{""curiosity"":5,""confidence"":3}","[0,1]","../img/tt/1091tt.jpg","",""
"2454.180000000051","","","recognition","survey-text","198","860814","0.0-6.0-3.27","3045986","co38482","norming","","","{""guess"":""horse""}","","../img/tt/1091tt.jpg","",""
"null","../img/gs/1091gs.jpg","null","reveal","image-keyboard-response","199","862824","0.0-6.0-4.27","3045986","co38482","norming","","","","","","",""
"null","../img/tt/1091tt.jpg","null","mooney2","image-keyboard-response","200","864835","0.0-6.0-5.27","3045986","co38482","norming","","","","","","",""
"4473.185000000056","","","post_reveal_questions","survey-likert","201","869310","0.0-6.0-6.27","3045986","co38482","norming","","","{""aha"":3}","[0]","../img/tt/1091tt.jpg","",""
"null","<div style=""font-size:60px;""> </div>","null","fixation","html-keyboard-response","202","869511","0.0-6.0-0.28","3045986","co38482","norming","","","","","","",""
"null","../img/tt/357tt.jpg","null","mooney1","image-keyboard-response","203","872519","0.0-6.0-1.28","3045986","co38482","norming","","","","","","",""
"3060.2450000001118","","","post_mooney1_questions","survey-likert","204","875582","0.0-6.0-2.28","3045986","co38482","norming","","","{""curiosity"":6,""confidence"":0}","[0,1]","../img/tt/357tt.jpg","",""
"485.73999999987427","","","recognition","survey-text","205","876070","0.0-6.0-3.28","3045986","co38482","norming","","","{""guess"":""""}","","../img/tt/357tt.jpg","",""
"null","../img/gs/357gs.jpg","null","reveal","image-keyboard-response","206","878072","0.0-6.0-4.28","3045986","co38482","norming","","","","","","",""
"null","../img/tt/357tt.jpg","null","mooney2","image-keyboard-response","207","880081","0.0-6.0-5.28","3045986","co38482","norming","","","","","","",""
"1683.0199999999022","","","post_reveal_questions","survey-likert","208","881766","0.0-6.0-6.28","3045986","co38482","norming","","","{""aha"":5}","[0]","../img/tt/357tt.jpg","",""
"null","<div style=""font-size:60px;""> </div>","null","fixation","html-keyboard-response","209","881967","0.0-6.0-0.29","3045986","co38482","norming","","","","","","",""
"null","../img/tt/534tt.jpg","null","mooney1","image-keyboard-response","210","884975","0.0-6.0-1.29","3045986","co38482","norming","","","","","","",""
"5324.72500000021","","","post_mooney1_questions","survey-likert","211","890302","0.0-6.0-2.29","3045986","co38482","norming","","","{""curiosity"":5,""confidence"":3}","[0,1]","../img/tt/534tt.jpg","",""
"2573.880000000121","","","recognition","survey-text","212","892878","0.0-6.0-3.29","3045986","co38482","norming","","","{""guess"":""cactus""}","","../img/tt/534tt.jpg","",""
"null","../img/gs/534gs.jpg","null","reveal","image-keyboard-response","213","894883","0.0-6.0-4.29","3045986","co38482","norming","","","","","","",""
"null","../img/tt/534tt.jpg","null","mooney2","image-keyboard-response","214","896893","0.0-6.0-5.29","3045986","co38482","norming","","","","","","",""
"3111.930000000051","","","post_reveal_questions","survey-likert","215","900006","0.0-6.0-6.29","3045986","co38482","norming","","","{""aha"":4}","[0]","../img/tt/534tt.jpg","",""
"null","<div style=""font-size:60px;""> </div>","null","fixation","html-keyboard-response","216","900207","0.0-6.0-0.30","3045986","co38482","norming","","","","","","",""
"null","../img/tt/273tt.jpg","null","mooney1","image-keyboard-response","217","903209","0.0-6.0-1.30","3045986","co38482","norming","","","","","","",""
"2571.744999999879","","","post_mooney1_questions","survey-likert","218","905782","0.0-6.0-2.30","3045986","co38482","norming","","","{""curiosity"":6,""confidence"":1}","[0,1]","../img/tt/273tt.jpg","",""
"1718.155000000028","","","recognition","survey-text","219","907502","0.0-6.0-3.30","3045986","co38482","norming","","","{""guess"":""hand""}","","../img/tt/273tt.jpg","",""
"null","../img/gs/273gs.jpg","null","reveal","image-keyboard-response","220","909506","0.0-6.0-4.30","3045986","co38482","norming","","","","","","",""
"null","../img/tt/273tt.jpg","null","mooney2","image-keyboard-response","221","911513","0.0-6.0-5.30","3045986","co38482","norming","","","","","","",""
"2243.420000000042","","","post_reveal_questions","survey-likert","222","913758","0.0-6.0-6.30","3045986","co38482","norming","","","{""aha"":6}","[0]","../img/tt/273tt.jpg","",""
"null","<div style=""font-size:60px;""> </div>","null","fixation","html-keyboard-response","223","913960","0.0-6.0-0.31","3045986","co38482","norming","","","","","","",""
"null","../img/tt/1148tt.jpg","null","mooney1","image-keyboard-response","224","916968","0.0-6.0-1.31","3045986","co38482","norming","","","","","","",""
"5403.125000000116","","","post_mooney1_questions","survey-likert","225","922372","0.0-6.0-2.31","3045986","co38482","norming","","","{""curiosity"":6,""confidence"":0}","[0,1]","../img/tt/1148tt.jpg","",""
"445.91499999992084","","","recognition","survey-text","226","922820","0.0-6.0-3.31","3045986","co38482","norming","","","{""guess"":""""}","","../img/tt/1148tt.jpg","",""
"null","../img/gs/1148gs.jpg","null","reveal","image-keyboard-response","227","924828","0.0-6.0-4.31","3045986","co38482","norming","","","","","","",""
"null","../img/tt/1148tt.jpg","null","mooney2","image-keyboard-response","228","926836","0.0-6.0-5.31","3045986","co38482","norming","","","","","","",""
"2238.335000000079","","","post_reveal_questions","survey-likert","229","929076","0.0-6.0-6.31","3045986","co38482","norming","","","{""aha"":5}","[0]","../img/tt/1148tt.jpg","",""
"null","<div style=""font-size:60px;""> </div>","null","fixation","html-keyboard-response","230","929277","0.0-6.0-0.32","3045986","co38482","norming","","","","","","",""
"null","../img/tt/078tt.jpg","null","mooney1","image-keyboard-response","231","932286","0.0-6.0-1.32","3045986","co38482","norming","","","","","","",""
"9267.46000000008","","","post_mooney1_questions","survey-likert","232","941556","0.0-6.0-2.32","3045986","co38482","norming","","","{""curiosity"":6,""confidence"":1}","[0,1]","../img/tt/078tt.jpg","",""
"1885.719999999972","","","recognition","survey-text","233","943444","0.0-6.0-3.32","3045986","co38482","norming","","","{""guess"":""cake""}","","../img/tt/078tt.jpg","",""
"null","../img/gs/078gs.jpg","null","reveal","image-keyboard-response","234","945445","0.0-6.0-4.32","3045986","co38482","norming","","","","","","",""
"null","../img/tt/078tt.jpg","null","mooney2","image-keyboard-response","235","947456","0.0-6.0-5.32","3045986","co38482","norming","","","","","","",""
"3000.619999999879","","","post_reveal_questions","survey-likert","236","950460","0.0-6.0-6.32","3045986","co38482","norming","","","{""aha"":6}","[0]","../img/tt/078tt.jpg","",""
"null","<div style=""font-size:60px;""> </div>","null","fixation","html-keyboard-response","237","950661","0.0-6.0-0.33","3045986","co38482","norming","","","","","","",""
"null","../img/tt/598tt.jpg","null","mooney1","image-keyboard-response","238","953669","0.0-6.0-1.33","3045986","co38482","norming","","","","","","",""
"3236.969999999972","","","post_mooney1_questions","survey-likert","239","956908","0.0-6.0-2.33","3045986","co38482","norming","","","{""curiosity"":6,""confidence"":0}","[0,1]","../img/tt/598tt.jpg","",""
"1005.8950000000186","","","recognition","survey-text","240","957916","0.0-6.0-3.33","3045986","co38482","norming","","","{""guess"":""""}","","../img/tt/598tt.jpg","",""
"null","../img/gs/598gs.jpg","null","reveal","image-keyboard-response","241","959926","0.0-6.0-4.33","3045986","co38482","norming","","","","","","",""
"null","../img/tt/598tt.jpg","null","mooney2","image-keyboard-response","242","961929","0.0-6.0-5.33","3045986","co38482","norming","","","","","","",""
"2265.3349999998463","","","post_reveal_questions","survey-likert","243","964196","0.0-6.0-6.33","3045986","co38482","norming","","","{""aha"":5}","[0]","../img/tt/598tt.jpg","",""
"null","<div style=""font-size:60px;""> </div>","null","fixation","html-keyboard-response","244","964397","0.0-6.0-0.34","3045986","co38482","norming","","","","","","",""
"null","../img/tt/056tt.jpg","null","mooney1","image-keyboard-response","245","967408","0.0-6.0-1.34","3045986","co38482","norming","","","","","","",""
"3777.419999999809","","","post_mooney1_questions","survey-likert","246","971188","0.0-6.0-2.34","3045986","co38482","norming","","","{""curiosity"":6,""confidence"":4}","[0,1]","../img/tt/056tt.jpg","",""
"2798.3199999998324","","","recognition","survey-text","247","973988","0.0-6.0-3.34","3045986","co38482","norming","","","{""guess"":""wolf""}","","../img/tt/056tt.jpg","",""
"null","../img/gs/056gs.jpg","null","reveal","image-keyboard-response","248","975995","0.0-6.0-4.34","3045986","co38482","norming","","","","","","",""
"null","../img/tt/056tt.jpg","null","mooney2","image-keyboard-response","249","978005","0.0-6.0-5.34","3045986","co38482","norming","","","","","","",""
"1430.3100000001723","","","post_reveal_questions","survey-likert","250","979436","0.0-6.0-6.34","3045986","co38482","norming","","","{""aha"":6}","[0]","../img/tt/056tt.jpg","",""
"null","<div style=""font-size:60px;""> </div>","null","fixation","html-keyboard-response","251","979639","0.0-6.0-0.35","3045986","co38482","norming","","","","","","",""
"null","../img/tt/1250tt.jpg","null","mooney1","image-keyboard-response","252","982647","0.0-6.0-1.35","3045986","co38482","norming","","","","","","",""
"3003.9999999998836","","","post_mooney1_questions","survey-likert","253","985652","0.0-6.0-2.35","3045986","co38482","norming","","","{""curiosity"":6,""confidence"":1}","[0,1]","../img/tt/1250tt.jpg","",""
"2766.1699999999255","","","recognition","survey-text","254","988420","0.0-6.0-3.35","3045986","co38482","norming","","","{""guess"":""zeehond""}","","../img/tt/1250tt.jpg","",""
"null","../img/gs/1250gs.jpg","null","reveal","image-keyboard-response","255","990422","0.0-6.0-4.35","3045986","co38482","norming","","","","","","",""
"null","../img/tt/1250tt.jpg","null","mooney2","image-keyboard-response","256","992424","0.0-6.0-5.35","3045986","co38482","norming","","","","","","",""
"1505.6350000000093","","","post_reveal_questions","survey-likert","257","993932","0.0-6.0-6.35","3045986","co38482","norming","","","{""aha"":6}","[0]","../img/tt/1250tt.jpg","",""
"null","<div style=""font-size:60px;""> </div>","null","fixation","html-keyboard-response","258","994134","0.0-6.0-0.36","3045986","co38482","norming","","","","","","",""
"null","../img/tt/1200tt.jpg","null","mooney1","image-keyboard-response","259","997140","0.0-6.0-1.36","3045986","co38482","norming","","","","","","",""
"5677.510000000009","","","post_mooney1_questions","survey-likert","260","1002820","0.0-6.0-2.36","3045986","co38482","norming","","","{""curiosity"":6,""confidence"":1}","[0,1]","../img/tt/1200tt.jpg","",""
"2174.1999999999534","","","recognition","survey-text","261","1004996","0.0-6.0-3.36","3045986","co38482","norming","","","{""guess"":""boat""}","","../img/tt/1200tt.jpg","",""
"null","../img/gs/1200gs.jpg","null","reveal","image-keyboard-response","262","1007003","0.0-6.0-4.36","3045986","co38482","norming","","","","","","",""
"null","../img/tt/1200tt.jpg","null","mooney2","image-keyboard-response","263","1009006","0.0-6.0-5.36","3045986","co38482","norming","","","","","","",""
"2596.0949999998556","","","post_reveal_questions","survey-likert","264","1011604","0.0-6.0-6.36","3045986","co38482","norming","","","{""aha"":4}","[0]","../img/tt/1200tt.jpg","",""
"null","<div style=""font-size:60px;""> </div>","null","fixation","html-keyboard-response","265","1011806","0.0-6.0-0.37","3045986","co38482","norming","","","","","","",""
"null","../img/tt/111tt.jpg","null","mooney1","image-keyboard-response","266","1014815","0.0-6.0-1.37","3045986","co38482","norming","","","","","","",""
"4627.069999999949","","","post_mooney1_questions","survey-likert","267","1019445","0.0-6.0-2.37","3045986","co38482","norming","","","{""curiosity"":5,""confidence"":1}","[0,1]","../img/tt/111tt.jpg","",""
"18494.164999999804","","","recognition","survey-text","268","1037940","0.0-6.0-3.37","3045986","co38482","norming","","","{""guess"":""lamp""}","","../img/tt/111tt.jpg","",""
"null","../img/gs/111gs.jpg","null","reveal","image-keyboard-response","269","1039939","0.0-6.0-4.37","3045986","co38482","norming","","","","","","",""
"null","../img/tt/111tt.jpg","null","mooney2","image-keyboard-response","270","1041948","0.0-6.0-5.37","3045986","co38482","norming","","","","","","",""
"2737.384999999893","","","post_reveal_questions","survey-likert","271","1044688","0.0-6.0-6.37","3045986","co38482","norming","","","{""aha"":6}","[0]","../img/tt/111tt.jpg","",""
"null","<div style=""font-size:60px;""> </div>","null","fixation","html-keyboard-response","272","1044890","0.0-6.0-0.38","3045986","co38482","norming","","","","","","",""
"null","../img/tt/1146tt.jpg","null","mooney1","image-keyboard-response","273","1047898","0.0-6.0-1.38","3045986","co38482","norming","","","","","","",""
"5532.885000000009","","","post_mooney1_questions","survey-likert","274","1053432","0.0-6.0-2.38","3045986","co38482","norming","","","{""curiosity"":5,""confidence"":3}","[0,1]","../img/tt/1146tt.jpg","",""
"9094.22499999986","","","recognition","survey-text","275","1062528","0.0-6.0-3.38","3045986","co38482","norming","","","{""guess"":""boogschieten""}","","../img/tt/1146tt.jpg","",""
"null","../img/gs/1146gs.jpg","null","reveal","image-keyboard-response","276","1064530","0.0-6.0-4.38","3045986","co38482","norming","","","","","","",""
"null","../img/tt/1146tt.jpg","null","mooney2","image-keyboard-response","277","1066533","0.0-6.0-5.38","3045986","co38482","norming","","","","","","",""
"2800.9200000001583","","","post_reveal_questions","survey-likert","278","1069336","0.0-6.0-6.38","3045986","co38482","norming","","","{""aha"":2}","[0]","../img/tt/1146tt.jpg","",""
"null","<div style=""font-size:60px;""> </div>","null","fixation","html-keyboard-response","279","1069537","0.0-6.0-0.39","3045986","co38482","norming","","","","","","",""
"null","../img/tt/1128tt.jpg","null","mooney1","image-keyboard-response","280","1072549","0.0-6.0-1.39","3045986","co38482","norming","","","","","","",""
"4974.6150000002235","","","post_mooney1_questions","survey-likert","281","1077528","0.0-6.0-2.39","3045986","co38482","norming","","","{""curiosity"":6,""confidence"":1}","[0,1]","../img/tt/1128tt.jpg","",""
"5958.1699999999255","","","recognition","survey-text","282","1083488","0.0-6.0-3.39","3045986","co38482","norming","","","{""guess"":""woman dress""}","","../img/tt/1128tt.jpg","",""
"null","../img/gs/1128gs.jpg","null","reveal","image-keyboard-response","283","1085495","0.0-6.0-4.39","3045986","co38482","norming","","","","","","",""
"null","../img/tt/1128tt.jpg","null","mooney2","image-keyboard-response","284","1087505","0.0-6.0-5.39","3045986","co38482","norming","","","","","","",""
"3132.4799999999814","","","post_reveal_questions","survey-likert","285","1090640","0.0-6.0-6.39","3045986","co38482","norming","","","{""aha"":6}","[0]","../img/tt/1128tt.jpg","",""
"null","<div style=""font-size:60px;""> </div>","null","fixation","html-keyboard-response","286","1090841","0.0-6.0-0.40","3045986","co38482","norming","","","","","","",""
"null","../img/tt/1033tt.jpg","null","mooney1","image-keyboard-response","287","1093851","0.0-6.0-1.40","3045986","co38482","norming","","","","","","",""
"8163.994999999879","","","post_mooney1_questions","survey-likert","288","1102015","0.0-6.0-2.40","3045986","co38482","norming","","","{""curiosity"":4,""confidence"":1}","[0,1]","../img/tt/1033tt.jpg","",""
"6526.375000000233","","","recognition","survey-text","289","1108543","0.0-6.0-3.40","3045986","co38482","norming","","","{""guess"":""sport""}","","../img/tt/1033tt.jpg","",""
"null","../img/gs/1033gs.jpg","null","reveal","image-keyboard-response","290","1110544","0.0-6.0-4.40","3045986","co38482","norming","","","","","","",""
"null","../img/tt/1033tt.jpg","null","mooney2","image-keyboard-response","291","1112555","0.0-6.0-5.40","3045986","co38482","norming","","","","","","",""
"4376.9550000000745","","","post_reveal_questions","survey-likert","292","1116935","0.0-6.0-6.40","3045986","co38482","norming","","","{""aha"":4}","[0]","../img/tt/1033tt.jpg","",""
"null","<div style=""font-size:60px;""> </div>","null","fixation","html-keyboard-response","293","1117136","0.0-6.0-0.41","3045986","co38482","norming","","","","","","",""
"null","../img/tt/1363tt.jpg","null","mooney1","image-keyboard-response","294","1120141","0.0-6.0-1.41","3045986","co38482","norming","","","","","","",""
"11558.36499999999","","","post_mooney1_questions","survey-likert","295","1131703","0.0-6.0-2.41","3045986","co38482","norming","","","{""curiosity"":6,""confidence"":2}","[0,1]","../img/tt/1363tt.jpg","",""
"2742.374999999767","","","recognition","survey-text","296","1134447","0.0-6.0-3.41","3045986","co38482","norming","","","{""guess"":""thee""}","","../img/tt/1363tt.jpg","",""
"null","../img/gs/1363gs.jpg","null","reveal","image-keyboard-response","297","1136451","0.0-6.0-4.41","3045986","co38482","norming","","","","","","",""
"null","../img/tt/1363tt.jpg","null","mooney2","image-keyboard-response","298","1138453","0.0-6.0-5.41","3045986","co38482","norming","","","","","","",""
"2303.3950000002515","","","post_reveal_questions","survey-likert","299","1140758","0.0-6.0-6.41","3045986","co38482","norming","","","{""aha"":6}","[0]","../img/tt/1363tt.jpg","",""
"null","<div style=""font-size:60px;""> </div>","null","fixation","html-keyboard-response","300","1140960","0.0-6.0-0.42","3045986","co38482","norming","","","","","","",""
"null","../img/tt/1044tt.jpg","null","mooney1","image-keyboard-response","301","1143970","0.0-6.0-1.42","3045986","co38482","norming","","","","","","",""
"3761.885000000242","","","post_mooney1_questions","survey-likert","302","1147735","0.0-6.0-2.42","3045986","co38482","norming","","","{""curiosity"":6,""confidence"":0}","[0,1]","../img/tt/1044tt.jpg","",""
"686.089999999851","","","recognition","survey-text","303","1148422","0.0-6.0-3.42","3045986","co38482","norming","","","{""guess"":""""}","","../img/tt/1044tt.jpg","",""
"null","../img/gs/1044gs.jpg","null","reveal","image-keyboard-response","304","1150430","0.0-6.0-4.42","3045986","co38482","norming","","","","","","",""
"null","../img/tt/1044tt.jpg","null","mooney2","image-keyboard-response","305","1152432","0.0-6.0-5.42","3045986","co38482","norming","","","","","","",""
"1730.1400000001304","","","post_reveal_questions","survey-likert","306","1154167","0.0-6.0-6.42","3045986","co38482","norming","","","{""aha"":5}","[0]","../img/tt/1044tt.jpg","",""
"null","<div style=""font-size:60px;""> </div>","null","fixation","html-keyboard-response","307","1154368","0.0-6.0-0.43","3045986","co38482","norming","","","","","","",""
"null","../img/tt/163tt.jpg","null","mooney1","image-keyboard-response","308","1157371","0.0-6.0-1.43","3045986","co38482","norming","","","","","","",""
"4297.035000000149","","","post_mooney1_questions","survey-likert","309","1161676","0.0-6.0-2.43","3045986","co38482","norming","","","{""curiosity"":6,""confidence"":0}","[0,1]","../img/tt/163tt.jpg","",""
"1333.9299999999348","","","recognition","survey-text","310","1163011","0.0-6.0-3.43","3045986","co38482","norming","","","{""guess"":""""}","","../img/tt/163tt.jpg","",""
"null","../img/gs/163gs.jpg","null","reveal","image-keyboard-response","311","1165018","0.0-6.0-4.43","3045986","co38482","norming","","","","","","",""
"null","../img/tt/163tt.jpg","null","mooney2","image-keyboard-response","312","1167028","0.0-6.0-5.43","3045986","co38482","norming","","","","","","",""
"2077.0149999998976","","","post_reveal_questions","survey-likert","313","1169107","0.0-6.0-6.43","3045986","co38482","norming","","","{""aha"":5}","[0]","../img/tt/163tt.jpg","",""
"null","<div style=""font-size:60px;""> </div>","null","fixation","html-keyboard-response","314","1169309","0.0-6.0-0.44","3045986","co38482","norming","","","","","","",""
"null","../img/tt/1283tt.jpg","null","mooney1","image-keyboard-response","315","1172314","0.0-6.0-1.44","3045986","co38482","norming","","","","","","",""
"6230.679999999935","","","post_mooney1_questions","survey-likert","316","1178548","0.0-6.0-2.44","3045986","co38482","norming","","","{""curiosity"":6,""confidence"":1}","[0,1]","../img/tt/1283tt.jpg","",""
"2350.2649999998976","","","recognition","survey-text","317","1180899","0.0-6.0-3.44","3045986","co38482","norming","","","{""guess"":""dier""}","","../img/tt/1283tt.jpg","",""
"null","../img/gs/1283gs.jpg","null","reveal","image-keyboard-response","318","1182910","0.0-6.0-4.44","3045986","co38482","norming","","","","","","",""
"null","../img/tt/1283tt.jpg","null","mooney2","image-keyboard-response","319","1184920","0.0-6.0-5.44","3045986","co38482","norming","","","","","","",""
"3320.5800000000745","","","post_reveal_questions","survey-likert","320","1188243","0.0-6.0-6.44","3045986","co38482","norming","","","{""aha"":6}","[0]","../img/tt/1283tt.jpg","",""
"null","<div style=""font-size:60px;""> </div>","null","fixation","html-keyboard-response","321","1188449","0.0-6.0-0.45","3045986","co38482","norming","","","","","","",""
"null","../img/tt/1362tt.jpg","null","mooney1","image-keyboard-response","322","1191456","0.0-6.0-1.45","3045986","co38482","norming","","","","","","",""
"4160.73499999987","","","post_mooney1_questions","survey-likert","323","1195620","0.0-6.0-2.45","3045986","co38482","norming","","","{""curiosity"":6,""confidence"":1}","[0,1]","../img/tt/1362tt.jpg","",""
"3966.0450000001583","","","recognition","survey-text","324","1199587","0.0-6.0-3.45","3045986","co38482","norming","","","{""guess"":""platenspeler""}","","../img/tt/1362tt.jpg","",""
"null","../img/gs/1362gs.jpg","null","reveal","image-keyboard-response","325","1201594","0.0-6.0-4.45","3045986","co38482","norming","","","","","","",""
"null","../img/tt/1362tt.jpg","null","mooney2","image-keyboard-response","326","1203599","0.0-6.0-5.45","3045986","co38482","norming","","","","","","",""
"2689.779999999795","","","post_reveal_questions","survey-likert","327","1206291","0.0-6.0-6.45","3045986","co38482","norming","","","{""aha"":6}","[0]","../img/tt/1362tt.jpg","",""
"null","<div style=""font-size:60px;""> </div>","null","fixation","html-keyboard-response","328","1206494","0.0-6.0-0.46","3045986","co38482","norming","","","","","","",""
"null","../img/tt/1061tt.jpg","null","mooney1","image-keyboard-response","329","1209504","0.0-6.0-1.46","3045986","co38482","norming","","","","","","",""
"3720.2700000000186","","","post_mooney1_questions","survey-likert","330","1213228","0.0-6.0-2.46","3045986","co38482","norming","","","{""curiosity"":5,""confidence"":1}","[0,1]","../img/tt/1061tt.jpg","",""
"2198.160000000149","","","recognition","survey-text","331","1215427","0.0-6.0-3.46","3045986","co38482","norming","","","{""guess"":""golf""}","","../img/tt/1061tt.jpg","",""
"null","../img/gs/1061gs.jpg","null","reveal","image-keyboard-response","332","1217436","0.0-6.0-4.46","3045986","co38482","norming","","","","","","",""
"null","../img/tt/1061tt.jpg","null","mooney2","image-keyboard-response","333","1219438","0.0-6.0-5.46","3045986","co38482","norming","","","","","","",""
"2604.0149999998976","","","post_reveal_questions","survey-likert","334","1222045","0.0-6.0-6.46","3045986","co38482","norming","","","{""aha"":5}","[0]","../img/tt/1061tt.jpg","",""
"null","<div style=""font-size:60px;""> </div>","null","fixation","html-keyboard-response","335","1222248","0.0-6.0-0.47","3045986","co38482","norming","","","","","","",""
"null","../img/tt/1107tt.jpg","null","mooney1","image-keyboard-response","336","1225250","0.0-6.0-1.47","3045986","co38482","norming","","","","","","",""
"5872.780000000028","","","post_mooney1_questions","survey-likert","337","1231125","0.0-6.0-2.47","3045986","co38482","norming","","","{""curiosity"":6,""confidence"":1}","[0,1]","../img/tt/1107tt.jpg","",""
"1869.8549999997485","","","recognition","survey-text","338","1232997","0.0-6.0-3.47","3045986","co38482","norming","","","{""guess"":""panda""}","","../img/tt/1107tt.jpg","",""
"null","../img/gs/1107gs.jpg","null","reveal","image-keyboard-response","339","1235003","0.0-6.0-4.47","3045986","co38482","norming","","","","","","",""
"null","../img/tt/1107tt.jpg","null","mooney2","image-keyboard-response","340","1237007","0.0-6.0-5.47","3045986","co38482","norming","","","","","","",""
"2003.6049999999814","","","post_reveal_questions","survey-likert","341","1239013","0.0-6.0-6.47","3045986","co38482","norming","","","{""aha"":6}","[0]","../img/tt/1107tt.jpg","",""
"null","<div style=""font-size:60px;""> </div>","null","fixation","html-keyboard-response","342","1239217","0.0-6.0-0.48","3045986","co38482","norming","","","","","","",""
"null","../img/tt/318tt.jpg","null","mooney1","image-keyboard-response","343","1242222","0.0-6.0-1.48","3045986","co38482","norming","","","","","","",""
"6060.079999999842","","","post_mooney1_questions","survey-likert","344","1248285","0.0-6.0-2.48","3045986","co38482","norming","","","{""curiosity"":5,""confidence"":1}","[0,1]","../img/tt/318tt.jpg","",""
"8070.095000000205","","","recognition","survey-text","345","1256357","0.0-6.0-3.48","3045986","co38482","norming","","","{""guess"":""headphones""}","","../img/tt/318tt.jpg","",""
"null","../img/gs/318gs.jpg","null","reveal","image-keyboard-response","346","1258360","0.0-6.0-4.48","3045986","co38482","norming","","","","","","",""
"null","../img/tt/318tt.jpg","null","mooney2","image-keyboard-response","347","1260368","0.0-6.0-5.48","3045986","co38482","norming","","","","","","",""
"3577.874999999767","","","post_reveal_questions","survey-likert","348","1263949","0.0-6.0-6.48","3045986","co38482","norming","","","{""aha"":6}","[0]","../img/tt/318tt.jpg","",""
"null","<div style=""font-size:60px;""> </div>","null","fixation","html-keyboard-response","349","1264150","0.0-6.0-0.49","3045986","co38482","norming","","","","","","",""
"null","../img/tt/1366tt.jpg","null","mooney1","image-keyboard-response","350","1267161","0.0-6.0-1.49","3045986","co38482","norming","","","","","","",""
"3944.7049999998417","","","post_mooney1_questions","survey-likert","351","1271109","0.0-6.0-2.49","3045986","co38482","norming","","","{""curiosity"":6,""confidence"":1}","[0,1]","../img/tt/1366tt.jpg","",""
"2254.1150000002235","","","recognition","survey-text","352","1273365","0.0-6.0-3.49","3045986","co38482","norming","","","{""guess"":""boat""}","","../img/tt/1366tt.jpg","",""
"null","../img/gs/1366gs.jpg","null","reveal","image-keyboard-response","353","1275366","0.0-6.0-4.49","3045986","co38482","norming","","","","","","",""
"null","../img/tt/1366tt.jpg","null","mooney2","image-keyboard-response","354","1277377","0.0-6.0-5.49","3045986","co38482","norming","","","","","","",""
"3697.255000000121","","","post_reveal_questions","survey-likert","355","1281075","0.0-6.0-6.49","3045986","co38482","norming","","","{""aha"":6}","[0]","../img/tt/1366tt.jpg","",""
"null","<div style=""font-size:60px;""> </div>","null","fixation","html-keyboard-response","356","1281277","0.0-6.0-0.50","3045986","co38482","norming","","","","","","",""
"null","../img/tt/108tt.jpg","null","mooney1","image-keyboard-response","357","1284280","0.0-6.0-1.50","3045986","co38482","norming","","","","","","",""
"3048.3199999998324","","","post_mooney1_questions","survey-likert","358","1287331","0.0-6.0-2.50","3045986","co38482","norming","","","{""curiosity"":6,""confidence"":0}","[0,1]","../img/tt/108tt.jpg","",""
"621.9000000001397","","","recognition","survey-text","359","1287955","0.0-6.0-3.50","3045986","co38482","norming","","","{""guess"":""""}","","../img/tt/108tt.jpg","",""
"null","../img/gs/108gs.jpg","null","reveal","image-keyboard-response","360","1289966","0.0-6.0-4.50","3045986","co38482","norming","","","","","","",""
"null","../img/tt/108tt.jpg","null","mooney2","image-keyboard-response","361","1291977","0.0-6.0-5.50","3045986","co38482","norming","","","","","","",""
"3120.095000000205","","","post_reveal_questions","survey-likert","362","1295099","0.0-6.0-6.50","3045986","co38482","norming","","","{""aha"":6}","[0]","../img/tt/108tt.jpg","",""
"null","<div style=""font-size:60px;""> </div>","null","fixation","html-keyboard-response","363","1295303","0.0-6.0-0.51","3045986","co38482","norming","","","","","","",""
"null","../img/tt/1269tt.jpg","null","mooney1","image-keyboard-response","364","1298313","0.0-6.0-1.51","3045986","co38482","norming","","","","","","",""
"5559.694999999832","","","post_mooney1_questions","survey-likert","365","1303875","0.0-6.0-2.51","3045986","co38482","norming","","","{""curiosity"":6,""confidence"":1}","[0,1]","../img/tt/1269tt.jpg","",""
"2157.685000000056","","","recognition","survey-text","366","1306035","0.0-6.0-3.51","3045986","co38482","norming","","","{""guess"":""beer""}","","../img/tt/1269tt.jpg","",""
"null","../img/gs/1269gs.jpg","null","reveal","image-keyboard-response","367","1308038","0.0-6.0-4.51","3045986","co38482","norming","","","","","","",""
"null","../img/tt/1269tt.jpg","null","mooney2","image-keyboard-response","368","1310046","0.0-6.0-5.51","3045986","co38482","norming","","","","","","",""
"3082.3499999998603","","","post_reveal_questions","survey-likert","369","1313131","0.0-6.0-6.51","3045986","co38482","norming","","","{""aha"":6}","[0]","../img/tt/1269tt.jpg","",""
"null","<div style=""font-size:60px;""> </div>","null","fixation","html-keyboard-response","370","1313333","0.0-6.0-0.52","3045986","co38482","norming","","","","","","",""
"null","../img/tt/507tt.jpg","null","mooney1","image-keyboard-response","371","1316337","0.0-6.0-1.52","3045986","co38482","norming","","","","","","",""
"3279.935000000056","","","post_mooney1_questions","survey-likert","372","1319619","0.0-6.0-2.52","3045986","co38482","norming","","","{""curiosity"":6,""confidence"":1}","[0,1]","../img/tt/507tt.jpg","",""
"3486.4050000002608","","","recognition","survey-text","373","1323107","0.0-6.0-3.52","3045986","co38482","norming","","","{""guess"":""woman""}","","../img/tt/507tt.jpg","",""
"null","../img/gs/507gs.jpg","null","reveal","image-keyboard-response","374","1325113","0.0-6.0-4.52","3045986","co38482","norming","","","","","","",""
"null","../img/tt/507tt.jpg","null","mooney2","image-keyboard-response","375","1327115","0.0-6.0-5.52","3045986","co38482","norming","","","","","","",""
"4749.495000000112","","","post_reveal_questions","survey-likert","376","1331867","0.0-6.0-6.52","3045986","co38482","norming","","","{""aha"":4}","[0]","../img/tt/507tt.jpg","",""
"null","<div style=""font-size:60px;""> </div>","null","fixation","html-keyboard-response","377","1332072","0.0-6.0-0.53","3045986","co38482","norming","","","","","","",""
"null","../img/tt/1040tt.jpg","null","mooney1","image-keyboard-response","378","1335081","0.0-6.0-1.53","3045986","co38482","norming","","","","","","",""
"3607.0749999999534","","","post_mooney1_questions","survey-likert","379","1338691","0.0-6.0-2.53","3045986","co38482","norming","","","{""curiosity"":6,""confidence"":0}","[0,1]","../img/tt/1040tt.jpg","",""
"781.9850000001024","","","recognition","survey-text","380","1339475","0.0-6.0-3.53","3045986","co38482","norming","","","{""guess"":""""}","","../img/tt/1040tt.jpg","",""
"null","../img/gs/1040gs.jpg","null","reveal","image-keyboard-response","381","1341482","0.0-6.0-4.53","3045986","co38482","norming","","","","","","",""
"null","../img/tt/1040tt.jpg","null","mooney2","image-keyboard-response","382","1343483","0.0-6.0-5.53","3045986","co38482","norming","","","","","","",""
"2408.149999999674","","","post_reveal_questions","survey-likert","383","1345894","0.0-6.0-6.53","3045986","co38482","norming","","","{""aha"":6}","[0]","../img/tt/1040tt.jpg","",""
"null","<div style=""font-size:60px;""> </div>","null","fixation","html-keyboard-response","384","1346098","0.0-6.0-0.54","3045986","co38482","norming","","","","","","",""
"null","../img/tt/055tt.jpg","null","mooney1","image-keyboard-response","385","1349106","0.0-6.0-1.54","3045986","co38482","norming","","","","","","",""
"4272.675000000047","","","post_mooney1_questions","survey-likert","386","1353382","0.0-6.0-2.54","3045986","co38482","norming","","","{""curiosity"":6,""confidence"":0}","[0,1]","../img/tt/055tt.jpg","",""
"621.9599999999627","","","recognition","survey-text","387","1354005","0.0-6.0-3.54","3045986","co38482","norming","","","{""guess"":""""}","","../img/tt/055tt.jpg","",""
"null","../img/gs/055gs.jpg","null","reveal","image-keyboard-response","388","1356007","0.0-6.0-4.54","3045986","co38482","norming","","","","","","",""
"null","../img/tt/055tt.jpg","null","mooney2","image-keyboard-response","389","1358015","0.0-6.0-5.54","3045986","co38482","norming","","","","","","",""
"2204.1650000000373","","","post_reveal_questions","survey-likert","390","1360222","0.0-6.0-6.54","3045986","co38482","norming","","","{""aha"":5}","[0]","../img/tt/055tt.jpg","",""
"null","<div style=""font-size:60px;""> </div>","null","fixation","html-keyboard-response","391","1360429","0.0-6.0-0.55","3045986","co38482","norming","","","","","","",""
"null","../img/tt/1072tt.jpg","null","mooney1","image-keyboard-response","392","1363436","0.0-6.0-1.55","3045986","co38482","norming","","","","","","",""
"5981.970000000205","","","post_mooney1_questions","survey-likert","393","1369422","0.0-6.0-2.55","3045986","co38482","norming","","","{""curiosity"":5,""confidence"":1}","[0,1]","../img/tt/1072tt.jpg","",""
"3045.9799999997485","","","recognition","survey-text","394","1372470","0.0-6.0-3.55","3045986","co38482","norming","","","{""guess"":""motor""}","","../img/tt/1072tt.jpg","",""
"null","../img/gs/1072gs.jpg","null","reveal","image-keyboard-response","395","1374471","0.0-6.0-4.55","3045986","co38482","norming","","","","","","",""
"null","../img/tt/1072tt.jpg","null","mooney2","image-keyboard-response","396","1376483","0.0-6.0-5.55","3045986","co38482","norming","","","","","","",""
"5001.64000000013","","","post_reveal_questions","survey-likert","397","1381486","0.0-6.0-6.55","3045986","co38482","norming","","","{""aha"":5}","[0]","../img/tt/1072tt.jpg","",""
"null","<div style=""font-size:60px;""> </div>","null","fixation","html-keyboard-response","398","1381690","0.0-6.0-0.56","3045986","co38482","norming","","","","","","",""
"null","../img/tt/031tt.jpg","null","mooney1","image-keyboard-response","399","1384699","0.0-6.0-1.56","3045986","co38482","norming","","","","","","",""
"2769.8599999998696","","","post_mooney1_questions","survey-likert","400","1387470","0.0-6.0-2.56","3045986","co38482","norming","","","{""curiosity"":6,""confidence"":0}","[0,1]","../img/tt/031tt.jpg","",""
"910.2399999997579","","","recognition","survey-text","401","1388381","0.0-6.0-3.56","3045986","co38482","norming","","","{""guess"":""""}","","../img/tt/031tt.jpg","",""
"null","../img/gs/031gs.jpg","null","reveal","image-keyboard-response","402","1390389","0.0-6.0-4.56","3045986","co38482","norming","","","","","","",""
"null","../img/tt/031tt.jpg","null","mooney2","image-keyboard-response","403","1392399","0.0-6.0-5.56","3045986","co38482","norming","","","","","","",""
"4164.535000000382","","","post_reveal_questions","survey-likert","404","1396566","0.0-6.0-6.56","3045986","co38482","norming","","","{""aha"":5}","[0]","../img/tt/031tt.jpg","",""
"null","<div style=""font-size:60px;""> </div>","null","fixation","html-keyboard-response","405","1396771","0.0-6.0-0.57","3045986","co38482","norming","","","","","","",""
"null","../img/tt/098tt.jpg","null","mooney1","image-keyboard-response","406","1399777","0.0-6.0-1.57","3045986","co38482","norming","","","","","","",""
"2825.249999999767","","","post_mooney1_questions","survey-likert","407","1402607","0.0-6.0-2.57","3045986","co38482","norming","","","{""curiosity"":6,""confidence"":0}","[0,1]","../img/tt/098tt.jpg","",""
"1286.2549999998882","","","recognition","survey-text","408","1403895","0.0-6.0-3.57","3045986","co38482","norming","","","{""guess"":""""}","","../img/tt/098tt.jpg","",""
"null","../img/gs/098gs.jpg","null","reveal","image-keyboard-response","409","1405896","0.0-6.0-4.57","3045986","co38482","norming","","","","","","",""
"null","../img/tt/098tt.jpg","null","mooney2","image-keyboard-response","410","1407899","0.0-6.0-5.57","3045986","co38482","norming","","","","","","",""
"2240.9499999999534","","","post_reveal_questions","survey-likert","411","1410143","0.0-6.0-6.57","3045986","co38482","norming","","","{""aha"":6}","[0]","../img/tt/098tt.jpg","",""
"null","<div style=""font-size:60px;""> </div>","null","fixation","html-keyboard-response","412","1410346","0.0-6.0-0.58","3045986","co38482","norming","","","","","","",""
"null","../img/tt/358tt.jpg","null","mooney1","image-keyboard-response","413","1413352","0.0-6.0-1.58","3045986","co38482","norming","","","","","","",""
"4243.489999999758","","","post_mooney1_questions","survey-likert","414","1417599","0.0-6.0-2.58","3045986","co38482","norming","","","{""curiosity"":6,""confidence"":1}","[0,1]","../img/tt/358tt.jpg","",""
"2422.105000000214","","","recognition","survey-text","415","1420023","0.0-6.0-3.58","3045986","co38482","norming","","","{""guess"":""parrot""}","","../img/tt/358tt.jpg","",""
"null","../img/gs/358gs.jpg","null","reveal","image-keyboard-response","416","1422029","0.0-6.0-4.58","3045986","co38482","norming","","","","","","",""
"null","../img/tt/358tt.jpg","null","mooney2","image-keyboard-response","417","1424031","0.0-6.0-5.58","3045986","co38482","norming","","","","","","",""
"8661.004999999888","","","post_reveal_questions","survey-likert","418","1432694","0.0-6.0-6.58","3045986","co38482","norming","","","{""aha"":5}","[0]","../img/tt/358tt.jpg","",""
"null","<div style=""font-size:60px;""> </div>","null","fixation","html-keyboard-response","419","1432901","0.0-6.0-0.59","3045986","co38482","norming","","","","","","",""
"null","../img/tt/1080tt.jpg","null","mooney1","image-keyboard-response","420","1435908","0.0-6.0-1.59","3045986","co38482","norming","","","","","","",""
"3247.409999999916","","","post_mooney1_questions","survey-likert","421","1439159","0.0-6.0-2.59","3045986","co38482","norming","","","{""curiosity"":6,""confidence"":0}","[0,1]","../img/tt/1080tt.jpg","",""
"717.8949999997858","","","recognition","survey-text","422","1439879","0.0-6.0-3.59","3045986","co38482","norming","","","{""guess"":""""}","","../img/tt/1080tt.jpg","",""
"null","../img/gs/1080gs.jpg","null","reveal","image-keyboard-response","423","1441883","0.0-6.0-4.59","3045986","co38482","norming","","","","","","",""
"null","../img/tt/1080tt.jpg","null","mooney2","image-keyboard-response","424","1443885","0.0-6.0-5.59","3045986","co38482","norming","","","","","","",""
"2327.2600000000093","","","post_reveal_questions","survey-likert","425","1446215","0.0-6.0-6.59","3045986","co38482","norming","","","{""aha"":6}","[0]","../img/tt/1080tt.jpg","",""
"null","<div style=""font-size:60px;""> </div>","null","fixation","html-keyboard-response","426","1446421","0.0-6.0-0.60","3045986","co38482","norming","","","","","","",""
"null","../img/tt/1078tt.jpg","null","mooney1","image-keyboard-response","427","1449430","0.0-6.0-1.60","3045986","co38482","norming","","","","","","",""
"4556.01500000013","","","post_mooney1_questions","survey-likert","428","1453991","0.0-6.0-2.60","3045986","co38482","norming","","","{""curiosity"":6,""confidence"":2}","[0,1]","../img/tt/1078tt.jpg","",""
"1758.280000000028","","","recognition","survey-text","429","1455751","0.0-6.0-3.60","3045986","co38482","norming","","","{""guess"":""bike""}","","../img/tt/1078tt.jpg","",""
"null","../img/gs/1078gs.jpg","null","reveal","image-keyboard-response","430","1457757","0.0-6.0-4.60","3045986","co38482","norming","","","","","","",""
"null","../img/tt/1078tt.jpg","null","mooney2","image-keyboard-response","431","1459767","0.0-6.0-5.60","3045986","co38482","norming","","","","","","",""
"2829.3300000000745","","","post_reveal_questions","survey-likert","432","1462592","0.0-6.0-6.60","3045986","co38482","norming","","","{""aha"":6}","[0]","../img/tt/1078tt.jpg","",""
"null","<div style=""font-size:60px;""> </div>","null","fixation","html-keyboard-response","433","1462799","0.0-6.0-0.61","3045986","co38482","norming","","","","","","",""
"null","../img/tt/1243tt.jpg","null","mooney1","image-keyboard-response","434","1465803","0.0-6.0-1.61","3045986","co38482","norming","","","","","","",""
"4425.940000000177","","","post_mooney1_questions","survey-likert","435","1470232","0.0-6.0-2.61","3045986","co38482","norming","","","{""curiosity"":6,""confidence"":1}","[0,1]","../img/tt/1243tt.jpg","",""
"3029.7949999999255","","","recognition","survey-text","436","1473264","0.0-6.0-3.61","3045986","co38482","norming","","","{""guess"":""skateboard""}","","../img/tt/1243tt.jpg","",""
"null","../img/gs/1243gs.jpg","null","reveal","image-keyboard-response","437","1475268","0.0-6.0-4.61","3045986","co38482","norming","","","","","","",""
"null","../img/tt/1243tt.jpg","null","mooney2","image-keyboard-response","438","1477269","0.0-6.0-5.61","3045986","co38482","norming","","","","","","",""
"3792.4600000001956","","","post_reveal_questions","survey-likert","439","1481064","0.0-6.0-6.61","3045986","co38482","norming","","","{""aha"":6}","[0]","../img/tt/1243tt.jpg","",""
"null","<div style=""font-size:60px;""> </div>","null","fixation","html-keyboard-response","440","1481274","0.0-6.0-0.62","3045986","co38482","norming","","","","","","",""
"null","../img/tt/053tt.jpg","null","mooney1","image-keyboard-response","441","1484286","0.0-6.0-1.62","3045986","co38482","norming","","","","","","",""
"3895.4399999997113","","","post_mooney1_questions","survey-likert","442","1488184","0.0-6.0-2.62","3045986","co38482","norming","","","{""curiosity"":6,""confidence"":0}","[0,1]","../img/tt/053tt.jpg","",""
"1174.04000000027","","","recognition","survey-text","443","1489360","0.0-6.0-3.62","3045986","co38482","norming","","","{""guess"":""""}","","../img/tt/053tt.jpg","",""
"null","../img/gs/053gs.jpg","null","reveal","image-keyboard-response","444","1491363","0.0-6.0-4.62","3045986","co38482","norming","","","","","","",""
"null","../img/tt/053tt.jpg","null","mooney2","image-keyboard-response","445","1493374","0.0-6.0-5.62","3045986","co38482","norming","","","","","","",""
"2895.054999999935","","","post_reveal_questions","survey-likert","446","1496272","0.0-6.0-6.62","3045986","co38482","norming","","","{""aha"":6}","[0]","../img/tt/053tt.jpg","",""
"null","<div style=""font-size:60px;""> </div>","null","fixation","html-keyboard-response","447","1496480","0.0-6.0-0.63","3045986","co38482","norming","","","","","","",""
"null","../img/tt/1084tt.jpg","null","mooney1","image-keyboard-response","448","1499487","0.0-6.0-1.63","3045986","co38482","norming","","","","","","",""
"5933.270000000019","","","post_mooney1_questions","survey-likert","449","1505424","0.0-6.0-2.63","3045986","co38482","norming","","","{""curiosity"":6,""confidence"":1}","[0,1]","../img/tt/1084tt.jpg","",""
"2381.9549999998417","","","recognition","survey-text","450","1507808","0.0-6.0-3.63","3045986","co38482","norming","","","{""guess"":""soup""}","","../img/tt/1084tt.jpg","",""
"null","../img/gs/1084gs.jpg","null","reveal","image-keyboard-response","451","1509817","0.0-6.0-4.63","3045986","co38482","norming","","","","","","",""
"null","../img/tt/1084tt.jpg","null","mooney2","image-keyboard-response","452","1511819","0.0-6.0-5.63","3045986","co38482","norming","","","","","","",""
"2850.064999999944","","","post_reveal_questions","survey-likert","453","1514672","0.0-6.0-6.63","3045986","co38482","norming","","","{""aha"":6}","[0]","../img/tt/1084tt.jpg","",""
"null","<div style=""font-size:60px;""> </div>","null","fixation","html-keyboard-response","454","1514880","0.0-6.0-0.64","3045986","co38482","norming","","","","","","",""
"null","../img/tt/552tt.jpg","null","mooney1","image-keyboard-response","455","1517890","0.0-6.0-1.64","3045986","co38482","norming","","","","","","",""
"2819.179999999935","","","post_mooney1_questions","survey-likert","456","1520712","0.0-6.0-2.64","3045986","co38482","norming","","","{""curiosity"":6,""confidence"":4}","[0,1]","../img/tt/552tt.jpg","",""
"3142.355000000447","","","recognition","survey-text","457","1523859","0.0-6.0-3.64","3045986","co38482","norming","","","{""guess"":""toilet""}","","../img/tt/552tt.jpg","",""
"null","../img/gs/552gs.jpg","null","reveal","image-keyboard-response","458","1525870","0.0-6.0-4.64","3045986","co38482","norming","","","","","","",""
"null","../img/tt/552tt.jpg","null","mooney2","image-keyboard-response","459","1527874","0.0-6.0-5.64","3045986","co38482","norming","","","","","","",""
"2285.7799999995623","","","post_reveal_questions","survey-likert","460","1530163","0.0-6.0-6.64","3045986","co38482","norming","","","{""aha"":6}","[0]","../img/tt/552tt.jpg","",""
"null","<div style=""font-size:60px;""> </div>","null","fixation","html-keyboard-response","461","1530365","0.0-6.0-0.65","3045986","co38482","norming","","","","","","",""
"null","../img/tt/085tt.jpg","null","mooney1","image-keyboard-response","462","1533374","0.0-6.0-1.65","3045986","co38482","norming","","","","","","",""
"4202.514999999898","","","post_mooney1_questions","survey-likert","463","1537579","0.0-6.0-2.65","3045986","co38482","norming","","","{""curiosity"":6,""confidence"":1}","[0,1]","../img/tt/085tt.jpg","",""
"3622.1049999999814","","","recognition","survey-text","464","1541203","0.0-6.0-3.65","3045986","co38482","norming","","","{""guess"":""insect ""}","","../img/tt/085tt.jpg","",""
"null","../img/gs/085gs.jpg","null","reveal","image-keyboard-response","465","1543210","0.0-6.0-4.65","3045986","co38482","norming","","","","","","",""
"null","../img/tt/085tt.jpg","null","mooney2","image-keyboard-response","466","1545222","0.0-6.0-5.65","3045986","co38482","norming","","","","","","",""
"3306.945000000298","","","post_reveal_questions","survey-likert","467","1548531","0.0-6.0-6.65","3045986","co38482","norming","","","{""aha"":5}","[0]","../img/tt/085tt.jpg","",""
"null","<div style=""font-size:60px;""> </div>","null","fixation","html-keyboard-response","468","1548734","0.0-6.0-0.66","3045986","co38482","norming","","","","","","",""
"null","../img/tt/1189tt.jpg","null","mooney1","image-keyboard-response","469","1551744","0.0-6.0-1.66","3045986","co38482","norming","","","","","","",""
"3544.0149999998976","","","post_mooney1_questions","survey-likert","470","1555291","0.0-6.0-2.66","3045986","co38482","norming","","","{""curiosity"":6,""confidence"":0}","[0,1]","../img/tt/1189tt.jpg","",""
"933.7999999998137","","","recognition","survey-text","471","1556227","0.0-6.0-3.66","3045986","co38482","norming","","","{""guess"":""""}","","../img/tt/1189tt.jpg","",""
"null","../img/gs/1189gs.jpg","null","reveal","image-keyboard-response","472","1558231","0.0-6.0-4.66","3045986","co38482","norming","","","","","","",""
"null","../img/tt/1189tt.jpg","null","mooney2","image-keyboard-response","473","1560233","0.0-6.0-5.66","3045986","co38482","norming","","","","","","",""
"4687.219999999739","","","post_reveal_questions","survey-likert","474","1564923","0.0-6.0-6.66","3045986","co38482","norming","","","{""aha"":4}","[0]","../img/tt/1189tt.jpg","",""
"null","<div style=""font-size:60px;""> </div>","null","fixation","html-keyboard-response","475","1565127","0.0-6.0-0.67","3045986","co38482","norming","","","","","","",""
"null","../img/tt/1279tt.jpg","null","mooney1","image-keyboard-response","476","1568130","0.0-6.0-1.67","3045986","co38482","norming","","","","","","",""
"3030.1200000003446","","","post_mooney1_questions","survey-likert","477","1571163","0.0-6.0-2.67","3045986","co38482","norming","","","{""curiosity"":6,""confidence"":1}","[0,1]","../img/tt/1279tt.jpg","",""
"2806.125000000233","","","recognition","survey-text","478","1573971","0.0-6.0-3.67","3045986","co38482","norming","","","{""guess"":""dance""}","","../img/tt/1279tt.jpg","",""
"null","../img/gs/1279gs.jpg","null","reveal","image-keyboard-response","479","1575975","0.0-6.0-4.67","3045986","co38482","norming","","","","","","",""
"null","../img/tt/1279tt.jpg","null","mooney2","image-keyboard-response","480","1577987","0.0-6.0-5.67","3045986","co38482","norming","","","","","","",""
"3885.339999999851","","","post_reveal_questions","survey-likert","481","1581881","0.0-6.0-6.67","3045986","co38482","norming","","","{""aha"":5}","[0]","../img/tt/1279tt.jpg","",""
"null","<div style=""font-size:60px;""> </div>","null","fixation","html-keyboard-response","482","1582082","0.0-6.0-0.68","3045986","co38482","norming","","","","","","",""
"null","../img/tt/1154tt.jpg","null","mooney1","image-keyboard-response","483","1585091","0.0-6.0-1.68","3045986","co38482","norming","","","","","","",""
"4450.925000000279","","","post_mooney1_questions","survey-likert","484","1589545","0.0-6.0-2.68","3045986","co38482","norming","","","{""curiosity"":6,""confidence"":1}","[0,1]","../img/tt/1154tt.jpg","",""
"5453.744999999646","","","recognition","survey-text","485","1595001","0.0-6.0-3.68","3045986","co38482","norming","","","{""guess"":""horse beach""}","","../img/tt/1154tt.jpg","",""
"null","../img/gs/1154gs.jpg","null","reveal","image-keyboard-response","486","1597012","0.0-6.0-4.68","3045986","co38482","norming","","","","","","",""
"null","../img/tt/1154tt.jpg","null","mooney2","image-keyboard-response","487","1599020","0.0-6.0-5.68","3045986","co38482","norming","","","","","","",""
"4563.110000000102","","","post_reveal_questions","survey-likert","488","1603585","0.0-6.0-6.68","3045986","co38482","norming","","","{""aha"":4}","[0]","../img/tt/1154tt.jpg","",""
"null","<div style=""font-size:60px;""> </div>","null","fixation","html-keyboard-response","489","1603787","0.0-6.0-0.69","3045986","co38482","norming","","","","","","",""
"null","../img/tt/1307tt.jpg","null","mooney1","image-keyboard-response","490","1606800","0.0-6.0-1.69","3045986","co38482","norming","","","","","","",""
"4510.440000000177","","","post_mooney1_questions","survey-likert","491","1611313","0.0-6.0-2.69","3045986","co38482","norming","","","{""curiosity"":6,""confidence"":1}","[0,1]","../img/tt/1307tt.jpg","",""
"2390.1099999998696","","","recognition","survey-text","492","1613705","0.0-6.0-3.69","3045986","co38482","norming","","","{""guess"":""dak""}","","../img/tt/1307tt.jpg","",""
"null","../img/gs/1307gs.jpg","null","reveal","image-keyboard-response","493","1615714","0.0-6.0-4.69","3045986","co38482","norming","","","","","","",""
"null","../img/tt/1307tt.jpg","null","mooney2","image-keyboard-response","494","1617716","0.0-6.0-5.69","3045986","co38482","norming","","","","","","",""
"3386.005000000354","","","post_reveal_questions","survey-likert","495","1621105","0.0-6.0-6.69","3045986","co38482","norming","","","{""aha"":6}","[0]","../img/tt/1307tt.jpg","",""
"null","<div style=""font-size:60px;""> </div>","null","fixation","html-keyboard-response","496","1621311","0.0-6.0-0.70","3045986","co38482","norming","","","","","","",""
"null","../img/tt/300tt.jpg","null","mooney1","image-keyboard-response","497","1624315","0.0-6.0-1.70","3045986","co38482","norming","","","","","","",""
"5395.22499999986","","","post_mooney1_questions","survey-likert","498","1629713","0.0-6.0-2.70","3045986","co38482","norming","","","{""curiosity"":6,""confidence"":0}","[0,1]","../img/tt/300tt.jpg","",""
"3438.0800000003073","","","recognition","survey-text","499","1633153","0.0-6.0-3.70","3045986","co38482","norming","","","{""guess"":""""}","","../img/tt/300tt.jpg","",""
"null","../img/gs/300gs.jpg","null","reveal","image-keyboard-response","500","1635156","0.0-6.0-4.70","3045986","co38482","norming","","","","","","",""
"null","../img/tt/300tt.jpg","null","mooney2","image-keyboard-response","501","1637168","0.0-6.0-5.70","3045986","co38482","norming","","","","","","",""
"2014.4099999999162","","","post_reveal_questions","survey-likert","502","1639185","0.0-6.0-6.70","3045986","co38482","norming","","","{""aha"":4}","[0]","../img/tt/300tt.jpg","",""
"null","<div style=""font-size:60px;""> </div>","null","fixation","html-keyboard-response","503","1639395","0.0-6.0-0.71","3045986","co38482","norming","","","","","","",""
"null","../img/tt/416tt.jpg","null","mooney1","image-keyboard-response","504","1642407","0.0-6.0-1.71","3045986","co38482","norming","","","","","","",""
"4240.485000000335","","","post_mooney1_questions","survey-likert","505","1646651","0.0-6.0-2.71","3045986","co38482","norming","","","{""curiosity"":6,""confidence"":1}","[0,1]","../img/tt/416tt.jpg","",""
"3102.0749999999534","","","recognition","survey-text","506","1649755","0.0-6.0-3.71","3045986","co38482","norming","","","{""guess"":""chair""}","","../img/tt/416tt.jpg","",""
"null","../img/gs/416gs.jpg","null","reveal","image-keyboard-response","507","1651765","0.0-6.0-4.71","3045986","co38482","norming","","","","","","",""
"null","../img/tt/416tt.jpg","null","mooney2","image-keyboard-response","508","1653767","0.0-6.0-5.71","3045986","co38482","norming","","","","","","",""
"3099.524999999907","","","post_reveal_questions","survey-likert","509","1656867","0.0-6.0-6.71","3045986","co38482","norming","","","{""aha"":6}","[0]","../img/tt/416tt.jpg","",""
"null","<div style=""font-size:60px;""> </div>","null","fixation","html-keyboard-response","510","1657075","0.0-6.0-0.72","3045986","co38482","norming","","","","","","",""
"null","../img/tt/567tt.jpg","null","mooney1","image-keyboard-response","511","1660078","0.0-6.0-1.72","3045986","co38482","norming","","","","","","",""
"3426.125","","","post_mooney1_questions","survey-likert","512","1663507","0.0-6.0-2.72","3045986","co38482","norming","","","{""curiosity"":6,""confidence"":1}","[0,1]","../img/tt/567tt.jpg","",""
"1350.1149999999907","","","recognition","survey-text","513","1664859","0.0-6.0-3.72","3045986","co38482","norming","","","{""guess"":""cake""}","","../img/tt/567tt.jpg","",""
"null","../img/gs/567gs.jpg","null","reveal","image-keyboard-response","514","1666866","0.0-6.0-4.72","3045986","co38482","norming","","","","","","",""
"null","../img/tt/567tt.jpg","null","mooney2","image-keyboard-response","515","1668868","0.0-6.0-5.72","3045986","co38482","norming","","","","","","",""
"4981.215000000317","","","post_reveal_questions","survey-likert","516","1673851","0.0-6.0-6.72","3045986","co38482","norming","","","{""aha"":6}","[0]","../img/tt/567tt.jpg","",""
"null","<div style=""font-size:60px;""> </div>","null","fixation","html-keyboard-response","517","1674057","0.0-6.0-0.73","3045986","co38482","norming","","","","","","",""
"null","../img/tt/1046tt.jpg","null","mooney1","image-keyboard-response","518","1677066","0.0-6.0-1.73","3045986","co38482","norming","","","","","","",""
"4030.2999999998137","","","post_mooney1_questions","survey-likert","519","1681100","0.0-6.0-2.73","3045986","co38482","norming","","","{""curiosity"":6,""confidence"":1}","[0,1]","../img/tt/1046tt.jpg","",""
"1630.1450000000186","","","recognition","survey-text","520","1682731","0.0-6.0-3.73","3045986","co38482","norming","","","{""guess"":""cake""}","","../img/tt/1046tt.jpg","",""
"null","../img/gs/1046gs.jpg","null","reveal","image-keyboard-response","521","1684740","0.0-6.0-4.73","3045986","co38482","norming","","","","","","",""
"null","../img/tt/1046tt.jpg","null","mooney2","image-keyboard-response","522","1686746","0.0-6.0-5.73","3045986","co38482","norming","","","","","","",""
"2935.935000000056","","","post_reveal_questions","survey-likert","523","1689683","0.0-6.0-6.73","3045986","co38482","norming","","","{""aha"":2}","[0]","../img/tt/1046tt.jpg","",""
"null","<div style=""font-size:60px;""> </div>","null","fixation","html-keyboard-response","524","1689890","0.0-6.0-0.74","3045986","co38482","norming","","","","","","",""
"null","../img/tt/1251tt.jpg","null","mooney1","image-keyboard-response","525","1692896","0.0-6.0-1.74","3045986","co38482","norming","","","","","","",""
"4137.594999999739","","","post_mooney1_questions","survey-likert","526","1697036","0.0-6.0-2.74","3045986","co38482","norming","","","{""curiosity"":6,""confidence"":0}","[0,1]","../img/tt/1251tt.jpg","",""
"837.6050000002142","","","recognition","survey-text","527","1697875","0.0-6.0-3.74","3045986","co38482","norming","","","{""guess"":""""}","","../img/tt/1251tt.jpg","",""
"null","../img/gs/1251gs.jpg","null","reveal","image-keyboard-response","528","1699881","0.0-6.0-4.74","3045986","co38482","norming","","","","","","",""
"null","../img/tt/1251tt.jpg","null","mooney2","image-keyboard-response","529","1701893","0.0-6.0-5.74","3045986","co38482","norming","","","","","","",""
"4675.810000000289","","","post_reveal_questions","survey-likert","530","1706567","0.0-6.0-6.74","3045986","co38482","norming","","","{""aha"":4}","[0]","../img/tt/1251tt.jpg","",""
"null","<div style=""font-size:60px;""> </div>","null","fixation","html-keyboard-response","531","1706769","0.0-6.0-0.75","3045986","co38482","norming","","","","","","",""
"null","../img/tt/307tt.jpg","null","mooney1","image-keyboard-response","532","1709774","0.0-6.0-1.75","3045986","co38482","norming","","","","","","",""
"4661.3549999997485","","","post_mooney1_questions","survey-likert","533","1714439","0.0-6.0-2.75","3045986","co38482","norming","","","{""curiosity"":6,""confidence"":0}","[0,1]","../img/tt/307tt.jpg","",""
"7581.9900000002235","","","recognition","survey-text","534","1722023","0.0-6.0-3.75","3045986","co38482","norming","","","{""guess"":""seacreature""}","","../img/tt/307tt.jpg","",""
"null","../img/gs/307gs.jpg","null","reveal","image-keyboard-response","535","1724033","0.0-6.0-4.75","3045986","co38482","norming","","","","","","",""
"null","../img/tt/307tt.jpg","null","mooney2","image-keyboard-response","536","1726036","0.0-6.0-5.75","3045986","co38482","norming","","","","","","",""
"3400.619999999879","","","post_reveal_questions","survey-likert","537","1729439","0.0-6.0-6.75","3045986","co38482","norming","","","{""aha"":5}","[0]","../img/tt/307tt.jpg","",""
"null","<div style=""font-size:60px;""> </div>","null","fixation","html-keyboard-response","538","1729640","0.0-6.0-0.76","3045986","co38482","norming","","","","","","",""
"null","../img/tt/1196tt.jpg","null","mooney1","image-keyboard-response","539","1732648","0.0-6.0-1.76","3045986","co38482","norming","","","","","","",""
"4661.125000000233","","","post_mooney1_questions","survey-likert","540","1737311","0.0-6.0-2.76","3045986","co38482","norming","","","{""curiosity"":6,""confidence"":0}","[0,1]","../img/tt/1196tt.jpg","",""
"1046.1399999998976","","","recognition","survey-text","541","1738359","0.0-6.0-3.76","3045986","co38482","norming","","","{""guess"":""""}","","../img/tt/1196tt.jpg","",""
"null","../img/gs/1196gs.jpg","null","reveal","image-keyboard-response","542","1740361","0.0-6.0-4.76","3045986","co38482","norming","","","","","","",""
"null","../img/tt/1196tt.jpg","null","mooney2","image-keyboard-response","543","1742369","0.0-6.0-5.76","3045986","co38482","norming","","","","","","",""
"3259.045000000391","","","post_reveal_questions","survey-likert","544","1745630","0.0-6.0-6.76","3045986","co38482","norming","","","{""aha"":4}","[0]","../img/tt/1196tt.jpg","",""
"null","<div style=""font-size:60px;""> </div>","null","fixation","html-keyboard-response","545","1745833","0.0-6.0-0.77","3045986","co38482","norming","","","","","","",""
"null","../img/tt/1262tt.jpg","null","mooney1","image-keyboard-response","546","1748841","0.0-6.0-1.77","3045986","co38482","norming","","","","","","",""
"2906.260000000242","","","post_mooney1_questions","survey-likert","547","1751751","0.0-6.0-2.77","3045986","co38482","norming","","","{""curiosity"":6,""confidence"":1}","[0,1]","../img/tt/1262tt.jpg","",""
"1805.7899999998044","","","recognition","survey-text","548","1753558","0.0-6.0-3.77","3045986","co38482","norming","","","{""guess"":""snake""}","","../img/tt/1262tt.jpg","",""
"null","../img/gs/1262gs.jpg","null","reveal","image-keyboard-response","549","1755567","0.0-6.0-4.77","3045986","co38482","norming","","","","","","",""
"null","../img/tt/1262tt.jpg","null","mooney2","image-keyboard-response","550","1757570","0.0-6.0-5.77","3045986","co38482","norming","","","","","","",""
"3226.5550000001676","","","post_reveal_questions","survey-likert","551","1760799","0.0-6.0-6.77","3045986","co38482","norming","","","{""aha"":6}","[0]","../img/tt/1262tt.jpg","",""
"null","<div style=""font-size:60px;""> </div>","null","fixation","html-keyboard-response","552","1761008","0.0-6.0-0.78","3045986","co38482","norming","","","","","","",""
