"rt","stimulus","key_press","test_part","trial_type","trial_index","time_elapsed","internal_node_id","totalTime","subject","experiment_name","button_pressed","success","responses","question_order","currentStim","old","correct"
"18370","Welcome to the experiment. This is an online experiment so please don't close the tab/window until we say goodbye.  Press any key to begin.","32","instructions","html-keyboard-response","0","18375","0.0-0.0","2969609","co38692","norming","","","","","","",""
"14978","<div style='word-wrap: break-word; width: 900px'><h3>Please consider this information carefully before deciding whether to participate in this research</h3><ul style='text-align: left; font-size: .8em;'><li><b>Purpose of the research</b>: To examine how people process images.</li><li><b>What you will do in this research</b>:  Stimuli (images) will be presented on the computer and you will be asked different questions about them.</li><li><b>Time required</b>: Participation will take between 45 and 60 minutes to complete.</li><li><b>Risks</b>:  There are no anticipated risks associated with participating in this study. The effects of participating should be comparable to those you would experience from viewing a computer monitor for 30 minutes and using a mouse or keyboard.</li><li><b>Benefits</b>:  This study provides no benefits to you individually except for the credit. The study provides important information about the nature of perception and learning.</li><li><b>Confidentiality</b>:  Your participation in this study will remain confidential. No personally identifiable information will be associated with your data. Your de-identified data may be shared with other researchers and used in future projects.</li><li><b>Participation and withdrawal</b>:  Your participation in this study is completely voluntary and you may refuse to participate or you may choose to withdraw at any time without penalty.</li><li><b>How to contact the researchers</b>: If you have questions or concerns about your participation or payment, or want to request a summary of research findings, please contact Sander Van de Cruys (KU Leuven), at sander.vandecruys@kuleuven.be.</li></ul><p>The nature and purpose of this research have been sufficiently explained and I agree to participate in this study.  I understand that I am free to withdraw at any time without incurring any penalty.</p><p>Please consent by clicking the button below to continue. Otherwise, please exit the study at this time.</p></div>","","instructions","html-button-response","1","33356","0.0-1.0","2969609","co38692","norming","0","","","","","",""
"","","","instructions","fullscreen","2","37797","0.0-2.0","2969609","co38692","norming","","true","","","","",""
"59915.000000000015","","","sona","survey-html-form","3","97716","0.0-3.0","2969609","co38692","norming","","","[{""name"":""sonaid"",""value"":""38692""},{""name"":""debrief"",""value"":""yes""},{""name"":""datajoin"",""value"":""yes""}]","","","",""
"68801","<div style='word-wrap: break-word; width: 900px'><h3>Instructions</h3><p>This experiment will have 3 parts. In the first part you will see a series of distorted images like the one below on the left. As you can see in the righthand image, the distorted images are derived from actual photographs. In what follows, you will <strong>briefly</strong> be presented with <strong>only</strong> the distorted image.</p> <div style='float: left; margin-right: 20px;'><img src='../img/018tt.jpg' height='250' width='250'></img></div><div style='float: right; margin-left: 20px;'><img src='../img/018gs.jpg' height='250' width='250'></img></div><p>Subsequently you will be asked a few questions about the image: One question on how <strong>curious</strong> you are about the solution and one on how <strong>confident</strong> you are that you know the solution.</p>Next, we ask you to make a guess on what is in the image. Note that it is OK to name just the <strong>basic level category</strong>. For example when you see a parrot in the image, 'parrot' will obviously be a correct answer but also correct is 'bird'. However, 'animal' will <strong>not</strong> be counted as a correct response. For the example above, 'rose' would be correct or 'flower', but not 'plant'. When soccer players are depicted, 'soccer', 'football', 'soccer players' will be correct, but not 'humans', 'outdoors', or 'sports'. You do not need to describe the image in full, just name the main object in it <strong>in one or two words</strong>. All images depict objects from one of the following broad level categories: animals, inanimate objects, plants, sports, vehicles, and food. Recognizing means knowing <strong>more</strong> than these broad labels for a given image. But we always encourage you to <strong>make a guess</strong> if you can. Note that you are allowed to use <strong>Dutch and English</strong> in your answers, whatever comes easiest for you.</p><p>Press any key to continue.</p></div>","32","instructions","html-keyboard-response","4","166520","0.0-4.0","2969609","co38692","norming","","","","","","",""
"9695","<div style='word-wrap: break-word; width: 900px'><h3>Instructions</h3> <p>Next, the solution image will be revealed to you and you'll be asked to indicate how strong your <strong>aha-experience</strong> was after seeing the solution. This describes the positive feeling of the 'click' you sometimes experience, when the pieces of the 'puzzle' fall together and you suddenly have 'insight' in the image.</p><img src='aha.jpg' height='188' width='250'></img><p>Note that there are no right or wrong answers. We are interested in what <strong>you</strong> see in the image and how <strong>you</strong> feel about it.</p><p>Press any key to start the experiment.</p></div>","32","instructions","html-keyboard-response","5","176216","0.0-5.0","2969609","co38692","norming","","","","","","",""
"null","<div style=""font-size:60px;""> </div>","null","fixation","html-keyboard-response","6","176417","0.0-6.0-0.0","2969609","co38692","norming","","","","","","",""
"null","../img/tt/300tt.jpg","null","mooney1","image-keyboard-response","7","179421","0.0-6.0-1.0","2969609","co38692","norming","","","","","","",""
"16855","","","post_mooney1_questions","survey-likert","8","196277","0.0-6.0-2.0","2969609","co38692","norming","","","{""curiosity"":4,""confidence"":1}","[0,1]","../img/tt/300tt.jpg","",""
"17985.00000000003","","","recognition","survey-text","9","214270","0.0-6.0-3.0","2969609","co38692","norming","","","{""guess"":""Twee mensen""}","","../img/tt/300tt.jpg","",""
"null","../img/gs/300gs.jpg","null","reveal","image-keyboard-response","10","216272","0.0-6.0-4.0","2969609","co38692","norming","","","","","","",""
"null","../img/tt/300tt.jpg","null","mooney2","image-keyboard-response","11","218274","0.0-6.0-5.0","2969609","co38692","norming","","","","","","",""
"9199","","","post_reveal_questions","survey-likert","12","227474","0.0-6.0-6.0","2969609","co38692","norming","","","{""aha"":6}","[0]","../img/tt/300tt.jpg","",""
"null","<div style=""font-size:60px;""> </div>","null","fixation","html-keyboard-response","13","227676","0.0-6.0-0.1","2969609","co38692","norming","","","","","","",""
"null","../img/tt/318tt.jpg","null","mooney1","image-keyboard-response","14","230679","0.0-6.0-1.1","2969609","co38692","norming","","","","","","",""
"7971","","","post_mooney1_questions","survey-likert","15","238651","0.0-6.0-2.1","2969609","co38692","norming","","","{""curiosity"":5,""confidence"":0}","[0,1]","../img/tt/318tt.jpg","",""
"2689.999999999971","","","recognition","survey-text","16","241348","0.0-6.0-3.1","2969609","co38692","norming","","","{""guess"":""""}","","../img/tt/318tt.jpg","",""
"null","../img/gs/318gs.jpg","null","reveal","image-keyboard-response","17","243350","0.0-6.0-4.1","2969609","co38692","norming","","","","","","",""
"null","../img/tt/318tt.jpg","null","mooney2","image-keyboard-response","18","245352","0.0-6.0-5.1","2969609","co38692","norming","","","","","","",""
"4764.000000000029","","","post_reveal_questions","survey-likert","19","250118","0.0-6.0-6.1","2969609","co38692","norming","","","{""aha"":6}","[0]","../img/tt/318tt.jpg","",""
"null","<div style=""font-size:60px;""> </div>","null","fixation","html-keyboard-response","20","250321","0.0-6.0-0.2","2969609","co38692","norming","","","","","","",""
"null","../img/tt/105tt.jpg","null","mooney1","image-keyboard-response","21","253323","0.0-6.0-1.2","2969609","co38692","norming","","","","","","",""
"29437","","","post_mooney1_questions","survey-likert","22","282762","0.0-6.0-2.2","2969609","co38692","norming","","","{""curiosity"":6,""confidence"":0}","[0,1]","../img/tt/105tt.jpg","",""
"30528","","","recognition","survey-text","23","313298","0.0-6.0-3.2","2969609","co38692","norming","","","{""guess"":""""}","","../img/tt/105tt.jpg","",""
"null","../img/gs/105gs.jpg","null","reveal","image-keyboard-response","24","315300","0.0-6.0-4.2","2969609","co38692","norming","","","","","","",""
"null","../img/tt/105tt.jpg","null","mooney2","image-keyboard-response","25","317302","0.0-6.0-5.2","2969609","co38692","norming","","","","","","",""
"3890","","","post_reveal_questions","survey-likert","26","321193","0.0-6.0-6.2","2969609","co38692","norming","","","{""aha"":3}","[0]","../img/tt/105tt.jpg","",""
"null","<div style=""font-size:60px;""> </div>","null","fixation","html-keyboard-response","27","321396","0.0-6.0-0.3","2969609","co38692","norming","","","","","","",""
"null","../img/tt/1205tt.jpg","null","mooney1","image-keyboard-response","28","324398","0.0-6.0-1.3","2969609","co38692","norming","","","","","","",""
"6503","","","post_mooney1_questions","survey-likert","29","330902","0.0-6.0-2.3","2969609","co38692","norming","","","{""curiosity"":4,""confidence"":1}","[0,1]","../img/tt/1205tt.jpg","",""
"1601","","","recognition","survey-text","30","332509","0.0-6.0-3.3","2969609","co38692","norming","","","{""guess"":""""}","","../img/tt/1205tt.jpg","",""
"null","../img/gs/1205gs.jpg","null","reveal","image-keyboard-response","31","334512","0.0-6.0-4.3","2969609","co38692","norming","","","","","","",""
"null","../img/tt/1205tt.jpg","null","mooney2","image-keyboard-response","32","336514","0.0-6.0-5.3","2969609","co38692","norming","","","","","","",""
"7290","","","post_reveal_questions","survey-likert","33","343806","0.0-6.0-6.3","2969609","co38692","norming","","","{""aha"":4}","[0]","../img/tt/1205tt.jpg","",""
"null","<div style=""font-size:60px;""> </div>","null","fixation","html-keyboard-response","34","344007","0.0-6.0-0.4","2969609","co38692","norming","","","","","","",""
"null","../img/tt/194tt.jpg","null","mooney1","image-keyboard-response","35","347010","0.0-6.0-1.4","2969609","co38692","norming","","","","","","",""
"5728","","","post_mooney1_questions","survey-likert","36","352739","0.0-6.0-2.4","2969609","co38692","norming","","","{""curiosity"":1,""confidence"":6}","[0,1]","../img/tt/194tt.jpg","",""
"7151","","","recognition","survey-text","37","359896","0.0-6.0-3.4","2969609","co38692","norming","","","{""guess"":""meisje met harp""}","","../img/tt/194tt.jpg","",""
"null","../img/gs/194gs.jpg","null","reveal","image-keyboard-response","38","361898","0.0-6.0-4.4","2969609","co38692","norming","","","","","","",""
"null","../img/tt/194tt.jpg","null","mooney2","image-keyboard-response","39","363901","0.0-6.0-5.4","2969609","co38692","norming","","","","","","",""
"5003.999999999942","","","post_reveal_questions","survey-likert","40","368907","0.0-6.0-6.4","2969609","co38692","norming","","","{""aha"":2}","[0]","../img/tt/194tt.jpg","",""
"null","<div style=""font-size:60px;""> </div>","null","fixation","html-keyboard-response","41","369108","0.0-6.0-0.5","2969609","co38692","norming","","","","","","",""
"null","../img/tt/121tt.jpg","null","mooney1","image-keyboard-response","42","372110","0.0-6.0-1.5","2969609","co38692","norming","","","","","","",""
"5868.999999999942","","","post_mooney1_questions","survey-likert","43","377981","0.0-6.0-2.5","2969609","co38692","norming","","","{""curiosity"":5,""confidence"":1}","[0,1]","../img/tt/121tt.jpg","",""
"12395.999999999942","","","recognition","survey-text","44","390383","0.0-6.0-3.5","2969609","co38692","norming","","","{""guess"":""mens""}","","../img/tt/121tt.jpg","",""
"null","../img/gs/121gs.jpg","null","reveal","image-keyboard-response","45","392385","0.0-6.0-4.5","2969609","co38692","norming","","","","","","",""
"null","../img/tt/121tt.jpg","null","mooney2","image-keyboard-response","46","394387","0.0-6.0-5.5","2969609","co38692","norming","","","","","","",""
"11989","","","post_reveal_questions","survey-likert","47","406377","0.0-6.0-6.5","2969609","co38692","norming","","","{""aha"":2}","[0]","../img/tt/121tt.jpg","",""
"null","<div style=""font-size:60px;""> </div>","null","fixation","html-keyboard-response","48","406580","0.0-6.0-0.6","2969609","co38692","norming","","","","","","",""
"null","../img/tt/440tt.jpg","null","mooney1","image-keyboard-response","49","409583","0.0-6.0-1.6","2969609","co38692","norming","","","","","","",""
"11279","","","post_mooney1_questions","survey-likert","50","420863","0.0-6.0-2.6","2969609","co38692","norming","","","{""curiosity"":2,""confidence"":0}","[0,1]","../img/tt/440tt.jpg","",""
"1840","","","recognition","survey-text","51","422710","0.0-6.0-3.6","2969609","co38692","norming","","","{""guess"":""""}","","../img/tt/440tt.jpg","",""
"null","../img/gs/440gs.jpg","null","reveal","image-keyboard-response","52","424712","0.0-6.0-4.6","2969609","co38692","norming","","","","","","",""
"null","../img/tt/440tt.jpg","null","mooney2","image-keyboard-response","53","426714","0.0-6.0-5.6","2969609","co38692","norming","","","","","","",""
"3394","","","post_reveal_questions","survey-likert","54","430109","0.0-6.0-6.6","2969609","co38692","norming","","","{""aha"":5}","[0]","../img/tt/440tt.jpg","",""
"null","<div style=""font-size:60px;""> </div>","null","fixation","html-keyboard-response","55","430312","0.0-6.0-0.7","2969609","co38692","norming","","","","","","",""
"null","../img/tt/1228tt.jpg","null","mooney1","image-keyboard-response","56","433314","0.0-6.0-1.7","2969609","co38692","norming","","","","","","",""
"4848.999999999942","","","post_mooney1_questions","survey-likert","57","438165","0.0-6.0-2.7","2969609","co38692","norming","","","{""curiosity"":1,""confidence"":6}","[0,1]","../img/tt/1228tt.jpg","",""
"2152","","","recognition","survey-text","58","440323","0.0-6.0-3.7","2969609","co38692","norming","","","{""guess"":""vogel""}","","../img/tt/1228tt.jpg","",""
"null","../img/gs/1228gs.jpg","null","reveal","image-keyboard-response","59","442325","0.0-6.0-4.7","2969609","co38692","norming","","","","","","",""
"null","../img/tt/1228tt.jpg","null","mooney2","image-keyboard-response","60","444327","0.0-6.0-5.7","2969609","co38692","norming","","","","","","",""
"5860","","","post_reveal_questions","survey-likert","61","450189","0.0-6.0-6.7","2969609","co38692","norming","","","{""aha"":6}","[0]","../img/tt/1228tt.jpg","",""
"null","<div style=""font-size:60px;""> </div>","null","fixation","html-keyboard-response","62","450391","0.0-6.0-0.8","2969609","co38692","norming","","","","","","",""
"null","../img/tt/1247tt.jpg","null","mooney1","image-keyboard-response","63","453394","0.0-6.0-1.8","2969609","co38692","norming","","","","","","",""
"8552.000000000058","","","post_mooney1_questions","survey-likert","64","461948","0.0-6.0-2.8","2969609","co38692","norming","","","{""curiosity"":5,""confidence"":0}","[0,1]","../img/tt/1247tt.jpg","",""
"1149","","","recognition","survey-text","65","463103","0.0-6.0-3.8","2969609","co38692","norming","","","{""guess"":""""}","","../img/tt/1247tt.jpg","",""
"null","../img/gs/1247gs.jpg","null","reveal","image-keyboard-response","66","465104","0.0-6.0-4.8","2969609","co38692","norming","","","","","","",""
"null","../img/tt/1247tt.jpg","null","mooney2","image-keyboard-response","67","467106","0.0-6.0-5.8","2969609","co38692","norming","","","","","","",""
"3132.000000000058","","","post_reveal_questions","survey-likert","68","470239","0.0-6.0-6.8","2969609","co38692","norming","","","{""aha"":6}","[0]","../img/tt/1247tt.jpg","",""
"null","<div style=""font-size:60px;""> </div>","null","fixation","html-keyboard-response","69","470442","0.0-6.0-0.9","2969609","co38692","norming","","","","","","",""
"null","../img/tt/055tt.jpg","null","mooney1","image-keyboard-response","70","473444","0.0-6.0-1.9","2969609","co38692","norming","","","","","","",""
"6849","","","post_mooney1_questions","survey-likert","71","480295","0.0-6.0-2.9","2969609","co38692","norming","","","{""curiosity"":3,""confidence"":2}","[0,1]","../img/tt/055tt.jpg","",""
"2679","","","recognition","survey-text","72","482980","0.0-6.0-3.9","2969609","co38692","norming","","","{""guess"":""koe""}","","../img/tt/055tt.jpg","",""
"null","../img/gs/055gs.jpg","null","reveal","image-keyboard-response","73","484981","0.0-6.0-4.9","2969609","co38692","norming","","","","","","",""
"null","../img/tt/055tt.jpg","null","mooney2","image-keyboard-response","74","486982","0.0-6.0-5.9","2969609","co38692","norming","","","","","","",""
"2887","","","post_reveal_questions","survey-likert","75","489871","0.0-6.0-6.9","2969609","co38692","norming","","","{""aha"":5}","[0]","../img/tt/055tt.jpg","",""
"null","<div style=""font-size:60px;""> </div>","null","fixation","html-keyboard-response","76","490073","0.0-6.0-0.10","2969609","co38692","norming","","","","","","",""
"null","../img/tt/1159tt.jpg","null","mooney1","image-keyboard-response","77","493076","0.0-6.0-1.10","2969609","co38692","norming","","","","","","",""
"5259.000000000058","","","post_mooney1_questions","survey-likert","78","498336","0.0-6.0-2.10","2969609","co38692","norming","","","{""curiosity"":2,""confidence"":2}","[0,1]","../img/tt/1159tt.jpg","",""
"7089","","","recognition","survey-text","79","505431","0.0-6.0-3.10","2969609","co38692","norming","","","{""guess"":""voortuin""}","","../img/tt/1159tt.jpg","",""
"null","../img/gs/1159gs.jpg","null","reveal","image-keyboard-response","80","507433","0.0-6.0-4.10","2969609","co38692","norming","","","","","","",""
"null","../img/tt/1159tt.jpg","null","mooney2","image-keyboard-response","81","509435","0.0-6.0-5.10","2969609","co38692","norming","","","","","","",""
"4280","","","post_reveal_questions","survey-likert","82","513716","0.0-6.0-6.10","2969609","co38692","norming","","","{""aha"":1}","[0]","../img/tt/1159tt.jpg","",""
"null","<div style=""font-size:60px;""> </div>","null","fixation","html-keyboard-response","83","513919","0.0-6.0-0.11","2969609","co38692","norming","","","","","","",""
"null","../img/tt/497tt.jpg","null","mooney1","image-keyboard-response","84","516921","0.0-6.0-1.11","2969609","co38692","norming","","","","","","",""
"4907","","","post_mooney1_questions","survey-likert","85","521830","0.0-6.0-2.11","2969609","co38692","norming","","","{""curiosity"":1,""confidence"":6}","[0,1]","../img/tt/497tt.jpg","",""
"2492","","","recognition","survey-text","86","524329","0.0-6.0-3.11","2969609","co38692","norming","","","{""guess"":""vuur""}","","../img/tt/497tt.jpg","",""
"null","../img/gs/497gs.jpg","null","reveal","image-keyboard-response","87","526331","0.0-6.0-4.11","2969609","co38692","norming","","","","","","",""
"null","../img/tt/497tt.jpg","null","mooney2","image-keyboard-response","88","528332","0.0-6.0-5.11","2969609","co38692","norming","","","","","","",""
"4738","","","post_reveal_questions","survey-likert","89","533072","0.0-6.0-6.11","2969609","co38692","norming","","","{""aha"":0}","[0]","../img/tt/497tt.jpg","",""
"null","<div style=""font-size:60px;""> </div>","null","fixation","html-keyboard-response","90","533275","0.0-6.0-0.12","2969609","co38692","norming","","","","","","",""
"null","../img/tt/1070tt.jpg","null","mooney1","image-keyboard-response","91","536277","0.0-6.0-1.12","2969609","co38692","norming","","","","","","",""
"4042","","","post_mooney1_questions","survey-likert","92","540322","0.0-6.0-2.12","2969609","co38692","norming","","","{""curiosity"":4,""confidence"":4}","[0,1]","../img/tt/1070tt.jpg","",""
"5205","","","recognition","survey-text","93","545533","0.0-6.0-3.12","2969609","co38692","norming","","","{""guess"":""eten""}","","../img/tt/1070tt.jpg","",""
"null","../img/gs/1070gs.jpg","null","reveal","image-keyboard-response","94","547534","0.0-6.0-4.12","2969609","co38692","norming","","","","","","",""
"null","../img/tt/1070tt.jpg","null","mooney2","image-keyboard-response","95","549537","0.0-6.0-5.12","2969609","co38692","norming","","","","","","",""
"4429","","","post_reveal_questions","survey-likert","96","553968","0.0-6.0-6.12","2969609","co38692","norming","","","{""aha"":2}","[0]","../img/tt/1070tt.jpg","",""
"null","<div style=""font-size:60px;""> </div>","null","fixation","html-keyboard-response","97","554170","0.0-6.0-0.13","2969609","co38692","norming","","","","","","",""
"null","../img/tt/584tt.jpg","null","mooney1","image-keyboard-response","98","557172","0.0-6.0-1.13","2969609","co38692","norming","","","","","","",""
"7055","","","post_mooney1_questions","survey-likert","99","564229","0.0-6.0-2.13","2969609","co38692","norming","","","{""curiosity"":4,""confidence"":2}","[0,1]","../img/tt/584tt.jpg","",""
"2485.0000000001164","","","recognition","survey-text","100","566718","0.0-6.0-3.13","2969609","co38692","norming","","","{""guess"":""muizen""}","","../img/tt/584tt.jpg","",""
"null","../img/gs/584gs.jpg","null","reveal","image-keyboard-response","101","568720","0.0-6.0-4.13","2969609","co38692","norming","","","","","","",""
"null","../img/tt/584tt.jpg","null","mooney2","image-keyboard-response","102","570722","0.0-6.0-5.13","2969609","co38692","norming","","","","","","",""
"2798.9999999998836","","","post_reveal_questions","survey-likert","103","573523","0.0-6.0-6.13","2969609","co38692","norming","","","{""aha"":1}","[0]","../img/tt/584tt.jpg","",""
"null","<div style=""font-size:60px;""> </div>","null","fixation","html-keyboard-response","104","573726","0.0-6.0-0.14","2969609","co38692","norming","","","","","","",""
"null","../img/tt/123tt.jpg","null","mooney1","image-keyboard-response","105","576728","0.0-6.0-1.14","2969609","co38692","norming","","","","","","",""
"6183","","","post_mooney1_questions","survey-likert","106","582912","0.0-6.0-2.14","2969609","co38692","norming","","","{""curiosity"":5,""confidence"":0}","[0,1]","../img/tt/123tt.jpg","",""
"890","","","recognition","survey-text","107","583807","0.0-6.0-3.14","2969609","co38692","norming","","","{""guess"":""""}","","../img/tt/123tt.jpg","",""
"null","../img/gs/123gs.jpg","null","reveal","image-keyboard-response","108","585809","0.0-6.0-4.14","2969609","co38692","norming","","","","","","",""
"null","../img/tt/123tt.jpg","null","mooney2","image-keyboard-response","109","587812","0.0-6.0-5.14","2969609","co38692","norming","","","","","","",""
"2944","","","post_reveal_questions","survey-likert","110","590758","0.0-6.0-6.14","2969609","co38692","norming","","","{""aha"":5}","[0]","../img/tt/123tt.jpg","",""
"null","<div style=""font-size:60px;""> </div>","null","fixation","html-keyboard-response","111","590960","0.0-6.0-0.15","2969609","co38692","norming","","","","","","",""
"null","../img/tt/1004tt.jpg","null","mooney1","image-keyboard-response","112","593962","0.0-6.0-1.15","2969609","co38692","norming","","","","","","",""
"4552","","","post_mooney1_questions","survey-likert","113","598516","0.0-6.0-2.15","2969609","co38692","norming","","","{""curiosity"":5,""confidence"":1}","[0,1]","../img/tt/1004tt.jpg","",""
"6435","","","recognition","survey-text","114","604956","0.0-6.0-3.15","2969609","co38692","norming","","","{""guess"":""Bos""}","","../img/tt/1004tt.jpg","",""
"null","../img/gs/1004gs.jpg","null","reveal","image-keyboard-response","115","606958","0.0-6.0-4.15","2969609","co38692","norming","","","","","","",""
"null","../img/tt/1004tt.jpg","null","mooney2","image-keyboard-response","116","608960","0.0-6.0-5.15","2969609","co38692","norming","","","","","","",""
"2524","","","post_reveal_questions","survey-likert","117","611486","0.0-6.0-6.15","2969609","co38692","norming","","","{""aha"":5}","[0]","../img/tt/1004tt.jpg","",""
"null","<div style=""font-size:60px;""> </div>","null","fixation","html-keyboard-response","118","611688","0.0-6.0-0.16","2969609","co38692","norming","","","","","","",""
"null","../img/tt/1055tt.jpg","null","mooney1","image-keyboard-response","119","614691","0.0-6.0-1.16","2969609","co38692","norming","","","","","","",""
"8161","","","post_mooney1_questions","survey-likert","120","622854","0.0-6.0-2.16","2969609","co38692","norming","","","{""curiosity"":5,""confidence"":2}","[0,1]","../img/tt/1055tt.jpg","",""
"3896","","","recognition","survey-text","121","626755","0.0-6.0-3.16","2969609","co38692","norming","","","{""guess"":""boot""}","","../img/tt/1055tt.jpg","",""
"null","../img/gs/1055gs.jpg","null","reveal","image-keyboard-response","122","628758","0.0-6.0-4.16","2969609","co38692","norming","","","","","","",""
"null","../img/tt/1055tt.jpg","null","mooney2","image-keyboard-response","123","630760","0.0-6.0-5.16","2969609","co38692","norming","","","","","","",""
"2523","","","post_reveal_questions","survey-likert","124","633285","0.0-6.0-6.16","2969609","co38692","norming","","","{""aha"":4}","[0]","../img/tt/1055tt.jpg","",""
"null","<div style=""font-size:60px;""> </div>","null","fixation","html-keyboard-response","125","633487","0.0-6.0-0.17","2969609","co38692","norming","","","","","","",""
"null","../img/tt/135tt.jpg","null","mooney1","image-keyboard-response","126","636490","0.0-6.0-1.17","2969609","co38692","norming","","","","","","",""
"3440","","","post_mooney1_questions","survey-likert","127","639932","0.0-6.0-2.17","2969609","co38692","norming","","","{""curiosity"":0,""confidence"":6}","[0,1]","../img/tt/135tt.jpg","",""
"4892","","","recognition","survey-text","128","644829","0.0-6.0-3.17","2969609","co38692","norming","","","{""guess"":""toilet""}","","../img/tt/135tt.jpg","",""
"null","../img/gs/135gs.jpg","null","reveal","image-keyboard-response","129","646830","0.0-6.0-4.17","2969609","co38692","norming","","","","","","",""
"null","../img/tt/135tt.jpg","null","mooney2","image-keyboard-response","130","648832","0.0-6.0-5.17","2969609","co38692","norming","","","","","","",""
"3479","","","post_reveal_questions","survey-likert","131","652313","0.0-6.0-6.17","2969609","co38692","norming","","","{""aha"":0}","[0]","../img/tt/135tt.jpg","",""
"null","<div style=""font-size:60px;""> </div>","null","fixation","html-keyboard-response","132","652515","0.0-6.0-0.18","2969609","co38692","norming","","","","","","",""
"null","../img/tt/163tt.jpg","null","mooney1","image-keyboard-response","133","655518","0.0-6.0-1.18","2969609","co38692","norming","","","","","","",""
"4575.999999999884","","","post_mooney1_questions","survey-likert","134","660095","0.0-6.0-2.18","2969609","co38692","norming","","","{""curiosity"":6,""confidence"":0}","[0,1]","../img/tt/163tt.jpg","",""
"869","","","recognition","survey-text","135","660969","0.0-6.0-3.18","2969609","co38692","norming","","","{""guess"":""""}","","../img/tt/163tt.jpg","",""
"null","../img/gs/163gs.jpg","null","reveal","image-keyboard-response","136","662972","0.0-6.0-4.18","2969609","co38692","norming","","","","","","",""
"null","../img/tt/163tt.jpg","null","mooney2","image-keyboard-response","137","664974","0.0-6.0-5.18","2969609","co38692","norming","","","","","","",""
"4726","","","post_reveal_questions","survey-likert","138","669702","0.0-6.0-6.18","2969609","co38692","norming","","","{""aha"":5}","[0]","../img/tt/163tt.jpg","",""
"null","<div style=""font-size:60px;""> </div>","null","fixation","html-keyboard-response","139","669905","0.0-6.0-0.19","2969609","co38692","norming","","","","","","",""
"null","../img/tt/357tt.jpg","null","mooney1","image-keyboard-response","140","672906","0.0-6.0-1.19","2969609","co38692","norming","","","","","","",""
"4845","","","post_mooney1_questions","survey-likert","141","677753","0.0-6.0-2.19","2969609","co38692","norming","","","{""curiosity"":4,""confidence"":3}","[0,1]","../img/tt/357tt.jpg","",""
"2026","","","recognition","survey-text","142","679784","0.0-6.0-3.19","2969609","co38692","norming","","","{""guess"":""panda""}","","../img/tt/357tt.jpg","",""
"null","../img/gs/357gs.jpg","null","reveal","image-keyboard-response","143","681786","0.0-6.0-4.19","2969609","co38692","norming","","","","","","",""
"null","../img/tt/357tt.jpg","null","mooney2","image-keyboard-response","144","683788","0.0-6.0-5.19","2969609","co38692","norming","","","","","","",""
"3066","","","post_reveal_questions","survey-likert","145","686856","0.0-6.0-6.19","2969609","co38692","norming","","","{""aha"":5}","[0]","../img/tt/357tt.jpg","",""
"null","<div style=""font-size:60px;""> </div>","null","fixation","html-keyboard-response","146","687060","0.0-6.0-0.20","2969609","co38692","norming","","","","","","",""
"null","../img/tt/599tt.jpg","null","mooney1","image-keyboard-response","147","690063","0.0-6.0-1.20","2969609","co38692","norming","","","","","","",""
"5054","","","post_mooney1_questions","survey-likert","148","695119","0.0-6.0-2.20","2969609","co38692","norming","","","{""curiosity"":5,""confidence"":1}","[0,1]","../img/tt/599tt.jpg","",""
"2983","","","recognition","survey-text","149","698107","0.0-6.0-3.20","2969609","co38692","norming","","","{""guess"":""fles wijn""}","","../img/tt/599tt.jpg","",""
"null","../img/gs/599gs.jpg","null","reveal","image-keyboard-response","150","700109","0.0-6.0-4.20","2969609","co38692","norming","","","","","","",""
"null","../img/tt/599tt.jpg","null","mooney2","image-keyboard-response","151","702112","0.0-6.0-5.20","2969609","co38692","norming","","","","","","",""
"4152","","","post_reveal_questions","survey-likert","152","706265","0.0-6.0-6.20","2969609","co38692","norming","","","{""aha"":6}","[0]","../img/tt/599tt.jpg","",""
"null","<div style=""font-size:60px;""> </div>","null","fixation","html-keyboard-response","153","706468","0.0-6.0-0.21","2969609","co38692","norming","","","","","","",""
"null","../img/tt/010tt.jpg","null","mooney1","image-keyboard-response","154","709471","0.0-6.0-1.21","2969609","co38692","norming","","","","","","",""
"11202.999999999884","","","post_mooney1_questions","survey-likert","155","720676","0.0-6.0-2.21","2969609","co38692","norming","","","{""curiosity"":5,""confidence"":0}","[0,1]","../img/tt/010tt.jpg","",""
"1276","","","recognition","survey-text","156","721957","0.0-6.0-3.21","2969609","co38692","norming","","","{""guess"":""""}","","../img/tt/010tt.jpg","",""
"null","../img/gs/010gs.jpg","null","reveal","image-keyboard-response","157","723959","0.0-6.0-4.21","2969609","co38692","norming","","","","","","",""
"null","../img/tt/010tt.jpg","null","mooney2","image-keyboard-response","158","725961","0.0-6.0-5.21","2969609","co38692","norming","","","","","","",""
"2723","","","post_reveal_questions","survey-likert","159","728685","0.0-6.0-6.21","2969609","co38692","norming","","","{""aha"":5}","[0]","../img/tt/010tt.jpg","",""
"null","<div style=""font-size:60px;""> </div>","null","fixation","html-keyboard-response","160","728888","0.0-6.0-0.22","2969609","co38692","norming","","","","","","",""
"null","../img/tt/1151tt.jpg","null","mooney1","image-keyboard-response","161","731890","0.0-6.0-1.22","2969609","co38692","norming","","","","","","",""
"5239.999999999884","","","post_mooney1_questions","survey-likert","162","737131","0.0-6.0-2.22","2969609","co38692","norming","","","{""curiosity"":5,""confidence"":1}","[0,1]","../img/tt/1151tt.jpg","",""
"1350","","","recognition","survey-text","163","738486","0.0-6.0-3.22","2969609","co38692","norming","","","{""guess"":""dier""}","","../img/tt/1151tt.jpg","",""
"null","../img/gs/1151gs.jpg","null","reveal","image-keyboard-response","164","740488","0.0-6.0-4.22","2969609","co38692","norming","","","","","","",""
"null","../img/tt/1151tt.jpg","null","mooney2","image-keyboard-response","165","742490","0.0-6.0-5.22","2969609","co38692","norming","","","","","","",""
"3953","","","post_reveal_questions","survey-likert","166","746444","0.0-6.0-6.22","2969609","co38692","norming","","","{""aha"":6}","[0]","../img/tt/1151tt.jpg","",""
"null","<div style=""font-size:60px;""> </div>","null","fixation","html-keyboard-response","167","746645","0.0-6.0-0.23","2969609","co38692","norming","","","","","","",""
"null","../img/tt/1276tt.jpg","null","mooney1","image-keyboard-response","168","749648","0.0-6.0-1.23","2969609","co38692","norming","","","","","","",""
"5585","","","post_mooney1_questions","survey-likert","169","755235","0.0-6.0-2.23","2969609","co38692","norming","","","{""curiosity"":2,""confidence"":0}","[0,1]","../img/tt/1276tt.jpg","",""
"1536.0000000001164","","","recognition","survey-text","170","756777","0.0-6.0-3.23","2969609","co38692","norming","","","{""guess"":""""}","","../img/tt/1276tt.jpg","",""
"null","../img/gs/1276gs.jpg","null","reveal","image-keyboard-response","171","758779","0.0-6.0-4.23","2969609","co38692","norming","","","","","","",""
"null","../img/tt/1276tt.jpg","null","mooney2","image-keyboard-response","172","760782","0.0-6.0-5.23","2969609","co38692","norming","","","","","","",""
"3129","","","post_reveal_questions","survey-likert","173","763913","0.0-6.0-6.23","2969609","co38692","norming","","","{""aha"":1}","[0]","../img/tt/1276tt.jpg","",""
"null","<div style=""font-size:60px;""> </div>","null","fixation","html-keyboard-response","174","764115","0.0-6.0-0.24","2969609","co38692","norming","","","","","","",""
"null","../img/tt/112tt.jpg","null","mooney1","image-keyboard-response","175","767118","0.0-6.0-1.24","2969609","co38692","norming","","","","","","",""
"5348","","","post_mooney1_questions","survey-likert","176","772467","0.0-6.0-2.24","2969609","co38692","norming","","","{""curiosity"":5,""confidence"":2}","[0,1]","../img/tt/112tt.jpg","",""
"2601","","","recognition","survey-text","177","775075","0.0-6.0-3.24","2969609","co38692","norming","","","{""guess"":""kraai""}","","../img/tt/112tt.jpg","",""
"null","../img/gs/112gs.jpg","null","reveal","image-keyboard-response","178","777076","0.0-6.0-4.24","2969609","co38692","norming","","","","","","",""
"null","../img/tt/112tt.jpg","null","mooney2","image-keyboard-response","179","779078","0.0-6.0-5.24","2969609","co38692","norming","","","","","","",""
"2243","","","post_reveal_questions","survey-likert","180","781323","0.0-6.0-6.24","2969609","co38692","norming","","","{""aha"":6}","[0]","../img/tt/112tt.jpg","",""
"null","<div style=""font-size:60px;""> </div>","null","fixation","html-keyboard-response","181","781525","0.0-6.0-0.25","2969609","co38692","norming","","","","","","",""
"null","../img/tt/078tt.jpg","null","mooney1","image-keyboard-response","182","784528","0.0-6.0-1.25","2969609","co38692","norming","","","","","","",""
"6806","","","post_mooney1_questions","survey-likert","183","791335","0.0-6.0-2.25","2969609","co38692","norming","","","{""curiosity"":5,""confidence"":1}","[0,1]","../img/tt/078tt.jpg","",""
"5710","","","recognition","survey-text","184","797051","0.0-6.0-3.25","2969609","co38692","norming","","","{""guess"":""druiven""}","","../img/tt/078tt.jpg","",""
"null","../img/gs/078gs.jpg","null","reveal","image-keyboard-response","185","799052","0.0-6.0-4.25","2969609","co38692","norming","","","","","","",""
"null","../img/tt/078tt.jpg","null","mooney2","image-keyboard-response","186","801055","0.0-6.0-5.25","2969609","co38692","norming","","","","","","",""
"3451","","","post_reveal_questions","survey-likert","187","804507","0.0-6.0-6.25","2969609","co38692","norming","","","{""aha"":2}","[0]","../img/tt/078tt.jpg","",""
"null","<div style=""font-size:60px;""> </div>","null","fixation","html-keyboard-response","188","804709","0.0-6.0-0.26","2969609","co38692","norming","","","","","","",""
"null","../img/tt/1118tt.jpg","null","mooney1","image-keyboard-response","189","807712","0.0-6.0-1.26","2969609","co38692","norming","","","","","","",""
"5868.000000000116","","","post_mooney1_questions","survey-likert","190","813581","0.0-6.0-2.26","2969609","co38692","norming","","","{""curiosity"":1,""confidence"":4}","[0,1]","../img/tt/1118tt.jpg","",""
"2575","","","recognition","survey-text","191","816161","0.0-6.0-3.26","2969609","co38692","norming","","","{""guess"":""bootje""}","","../img/tt/1118tt.jpg","",""
"null","../img/gs/1118gs.jpg","null","reveal","image-keyboard-response","192","818163","0.0-6.0-4.26","2969609","co38692","norming","","","","","","",""
"null","../img/tt/1118tt.jpg","null","mooney2","image-keyboard-response","193","820166","0.0-6.0-5.26","2969609","co38692","norming","","","","","","",""
"4314.000000000116","","","post_reveal_questions","survey-likert","194","824481","0.0-6.0-6.26","2969609","co38692","norming","","","{""aha"":6}","[0]","../img/tt/1118tt.jpg","",""
"null","<div style=""font-size:60px;""> </div>","null","fixation","html-keyboard-response","195","824683","0.0-6.0-0.27","2969609","co38692","norming","","","","","","",""
"null","../img/tt/1040tt.jpg","null","mooney1","image-keyboard-response","196","827686","0.0-6.0-1.27","2969609","co38692","norming","","","","","","",""
"5146","","","post_mooney1_questions","survey-likert","197","832833","0.0-6.0-2.27","2969609","co38692","norming","","","{""curiosity"":4,""confidence"":2}","[0,1]","../img/tt/1040tt.jpg","",""
"6409","","","recognition","survey-text","198","839247","0.0-6.0-3.27","2969609","co38692","norming","","","{""guess"":""aap""}","","../img/tt/1040tt.jpg","",""
"null","../img/gs/1040gs.jpg","null","reveal","image-keyboard-response","199","841249","0.0-6.0-4.27","2969609","co38692","norming","","","","","","",""
"null","../img/tt/1040tt.jpg","null","mooney2","image-keyboard-response","200","843252","0.0-6.0-5.27","2969609","co38692","norming","","","","","","",""
"2473.0000000001164","","","post_reveal_questions","survey-likert","201","845727","0.0-6.0-6.27","2969609","co38692","norming","","","{""aha"":5}","[0]","../img/tt/1040tt.jpg","",""
"null","<div style=""font-size:60px;""> </div>","null","fixation","html-keyboard-response","202","845929","0.0-6.0-0.28","2969609","co38692","norming","","","","","","",""
"null","../img/tt/559tt.jpg","null","mooney1","image-keyboard-response","203","848932","0.0-6.0-1.28","2969609","co38692","norming","","","","","","",""
"5572","","","post_mooney1_questions","survey-likert","204","854506","0.0-6.0-2.28","2969609","co38692","norming","","","{""curiosity"":1,""confidence"":5}","[0,1]","../img/tt/559tt.jpg","",""
"3673","","","recognition","survey-text","205","858185","0.0-6.0-3.28","2969609","co38692","norming","","","{""guess"":""bureau""}","","../img/tt/559tt.jpg","",""
"null","../img/gs/559gs.jpg","null","reveal","image-keyboard-response","206","860187","0.0-6.0-4.28","2969609","co38692","norming","","","","","","",""
"null","../img/tt/559tt.jpg","null","mooney2","image-keyboard-response","207","862190","0.0-6.0-5.28","2969609","co38692","norming","","","","","","",""
"2348","","","post_reveal_questions","survey-likert","208","864539","0.0-6.0-6.28","2969609","co38692","norming","","","{""aha"":6}","[0]","../img/tt/559tt.jpg","",""
"null","<div style=""font-size:60px;""> </div>","null","fixation","html-keyboard-response","209","864741","0.0-6.0-0.29","2969609","co38692","norming","","","","","","",""
"null","../img/tt/1122tt.jpg","null","mooney1","image-keyboard-response","210","867743","0.0-6.0-1.29","2969609","co38692","norming","","","","","","",""
"5232","","","post_mooney1_questions","survey-likert","211","872977","0.0-6.0-2.29","2969609","co38692","norming","","","{""curiosity"":5,""confidence"":5}","[0,1]","../img/tt/1122tt.jpg","",""
"2141.9999999998836","","","recognition","survey-text","212","875125","0.0-6.0-3.29","2969609","co38692","norming","","","{""guess"":""haven""}","","../img/tt/1122tt.jpg","",""
"null","../img/gs/1122gs.jpg","null","reveal","image-keyboard-response","213","877127","0.0-6.0-4.29","2969609","co38692","norming","","","","","","",""
"null","../img/tt/1122tt.jpg","null","mooney2","image-keyboard-response","214","879129","0.0-6.0-5.29","2969609","co38692","norming","","","","","","",""
"3671","","","post_reveal_questions","survey-likert","215","882802","0.0-6.0-6.29","2969609","co38692","norming","","","{""aha"":0}","[0]","../img/tt/1122tt.jpg","",""
"null","<div style=""font-size:60px;""> </div>","null","fixation","html-keyboard-response","216","883004","0.0-6.0-0.30","2969609","co38692","norming","","","","","","",""
"null","../img/tt/436tt.jpg","null","mooney1","image-keyboard-response","217","886007","0.0-6.0-1.30","2969609","co38692","norming","","","","","","",""
"5893.000000000116","","","post_mooney1_questions","survey-likert","218","891902","0.0-6.0-2.30","2969609","co38692","norming","","","{""curiosity"":2,""confidence"":1}","[0,1]","../img/tt/436tt.jpg","",""
"3879","","","recognition","survey-text","219","895787","0.0-6.0-3.30","2969609","co38692","norming","","","{""guess"":""mens""}","","../img/tt/436tt.jpg","",""
"null","../img/gs/436gs.jpg","null","reveal","image-keyboard-response","220","897788","0.0-6.0-4.30","2969609","co38692","norming","","","","","","",""
"null","../img/tt/436tt.jpg","null","mooney2","image-keyboard-response","221","899791","0.0-6.0-5.30","2969609","co38692","norming","","","","","","",""
"4252","","","post_reveal_questions","survey-likert","222","904045","0.0-6.0-6.30","2969609","co38692","norming","","","{""aha"":6}","[0]","../img/tt/436tt.jpg","",""
"null","<div style=""font-size:60px;""> </div>","null","fixation","html-keyboard-response","223","904248","0.0-6.0-0.31","2969609","co38692","norming","","","","","","",""
"null","../img/tt/1255tt.jpg","null","mooney1","image-keyboard-response","224","907250","0.0-6.0-1.31","2969609","co38692","norming","","","","","","",""
"5621.000000000116","","","post_mooney1_questions","survey-likert","225","912873","0.0-6.0-2.31","2969609","co38692","norming","","","{""curiosity"":5,""confidence"":4}","[0,1]","../img/tt/1255tt.jpg","",""
"1598","","","recognition","survey-text","226","914477","0.0-6.0-3.31","2969609","co38692","norming","","","{""guess"":""dier""}","","../img/tt/1255tt.jpg","",""
"null","../img/gs/1255gs.jpg","null","reveal","image-keyboard-response","227","916479","0.0-6.0-4.31","2969609","co38692","norming","","","","","","",""
"null","../img/tt/1255tt.jpg","null","mooney2","image-keyboard-response","228","918480","0.0-6.0-5.31","2969609","co38692","norming","","","","","","",""
"3578","","","post_reveal_questions","survey-likert","229","922059","0.0-6.0-6.31","2969609","co38692","norming","","","{""aha"":4}","[0]","../img/tt/1255tt.jpg","",""
"null","<div style=""font-size:60px;""> </div>","null","fixation","html-keyboard-response","230","922261","0.0-6.0-0.32","2969609","co38692","norming","","","","","","",""
"null","../img/tt/1102tt.jpg","null","mooney1","image-keyboard-response","231","925264","0.0-6.0-1.32","2969609","co38692","norming","","","","","","",""
"5482","","","post_mooney1_questions","survey-likert","232","930747","0.0-6.0-2.32","2969609","co38692","norming","","","{""curiosity"":2,""confidence"":5}","[0,1]","../img/tt/1102tt.jpg","",""
"1693.0000000001164","","","recognition","survey-text","233","932446","0.0-6.0-3.32","2969609","co38692","norming","","","{""guess"":""brug""}","","../img/tt/1102tt.jpg","",""
"null","../img/gs/1102gs.jpg","null","reveal","image-keyboard-response","234","934448","0.0-6.0-4.32","2969609","co38692","norming","","","","","","",""
"null","../img/tt/1102tt.jpg","null","mooney2","image-keyboard-response","235","936450","0.0-6.0-5.32","2969609","co38692","norming","","","","","","",""
"3594","","","post_reveal_questions","survey-likert","236","940046","0.0-6.0-6.32","2969609","co38692","norming","","","{""aha"":5}","[0]","../img/tt/1102tt.jpg","",""
"null","<div style=""font-size:60px;""> </div>","null","fixation","html-keyboard-response","237","940248","0.0-6.0-0.33","2969609","co38692","norming","","","","","","",""
"null","../img/tt/1086tt.jpg","null","mooney1","image-keyboard-response","238","943251","0.0-6.0-1.33","2969609","co38692","norming","","","","","","",""
"4587","","","post_mooney1_questions","survey-likert","239","947840","0.0-6.0-2.33","2969609","co38692","norming","","","{""curiosity"":5,""confidence"":0}","[0,1]","../img/tt/1086tt.jpg","",""
"914","","","recognition","survey-text","240","948760","0.0-6.0-3.33","2969609","co38692","norming","","","{""guess"":""""}","","../img/tt/1086tt.jpg","",""
"null","../img/gs/1086gs.jpg","null","reveal","image-keyboard-response","241","950762","0.0-6.0-4.33","2969609","co38692","norming","","","","","","",""
"null","../img/tt/1086tt.jpg","null","mooney2","image-keyboard-response","242","952764","0.0-6.0-5.33","2969609","co38692","norming","","","","","","",""
"2181.0000000001164","","","post_reveal_questions","survey-likert","243","954946","0.0-6.0-6.33","2969609","co38692","norming","","","{""aha"":6}","[0]","../img/tt/1086tt.jpg","",""
"null","<div style=""font-size:60px;""> </div>","null","fixation","html-keyboard-response","244","955149","0.0-6.0-0.34","2969609","co38692","norming","","","","","","",""
"null","../img/tt/063tt.jpg","null","mooney1","image-keyboard-response","245","958152","0.0-6.0-1.34","2969609","co38692","norming","","","","","","",""
"4969.999999999884","","","post_mooney1_questions","survey-likert","246","963124","0.0-6.0-2.34","2969609","co38692","norming","","","{""curiosity"":1,""confidence"":5}","[0,1]","../img/tt/063tt.jpg","",""
"6348.999999999884","","","recognition","survey-text","247","969478","0.0-6.0-3.34","2969609","co38692","norming","","","{""guess"":""accordeon ""}","","../img/tt/063tt.jpg","",""
"null","../img/gs/063gs.jpg","null","reveal","image-keyboard-response","248","971481","0.0-6.0-4.34","2969609","co38692","norming","","","","","","",""
"null","../img/tt/063tt.jpg","null","mooney2","image-keyboard-response","249","973483","0.0-6.0-5.34","2969609","co38692","norming","","","","","","",""
"6870","","","post_reveal_questions","survey-likert","250","980355","0.0-6.0-6.34","2969609","co38692","norming","","","{""aha"":0}","[0]","../img/tt/063tt.jpg","",""
"null","<div style=""font-size:60px;""> </div>","null","fixation","html-keyboard-response","251","980558","0.0-6.0-0.35","2969609","co38692","norming","","","","","","",""
"null","../img/tt/091tt.jpg","null","mooney1","image-keyboard-response","252","983561","0.0-6.0-1.35","2969609","co38692","norming","","","","","","",""
"4514","","","post_mooney1_questions","survey-likert","253","988076","0.0-6.0-2.35","2969609","co38692","norming","","","{""curiosity"":6,""confidence"":0}","[0,1]","../img/tt/091tt.jpg","",""
"497.9999999998836","","","recognition","survey-text","254","988580","0.0-6.0-3.35","2969609","co38692","norming","","","{""guess"":""""}","","../img/tt/091tt.jpg","",""
"null","../img/gs/091gs.jpg","null","reveal","image-keyboard-response","255","990581","0.0-6.0-4.35","2969609","co38692","norming","","","","","","",""
"null","../img/tt/091tt.jpg","null","mooney2","image-keyboard-response","256","992584","0.0-6.0-5.35","2969609","co38692","norming","","","","","","",""
"3384","","","post_reveal_questions","survey-likert","257","995970","0.0-6.0-6.35","2969609","co38692","norming","","","{""aha"":5}","[0]","../img/tt/091tt.jpg","",""
"null","<div style=""font-size:60px;""> </div>","null","fixation","html-keyboard-response","258","996172","0.0-6.0-0.36","2969609","co38692","norming","","","","","","",""
"null","../img/tt/1146tt.jpg","null","mooney1","image-keyboard-response","259","999175","0.0-6.0-1.36","2969609","co38692","norming","","","","","","",""
"6296","","","post_mooney1_questions","survey-likert","260","1005473","0.0-6.0-2.36","2969609","co38692","norming","","","{""curiosity"":0,""confidence"":6}","[0,1]","../img/tt/1146tt.jpg","",""
"2200.0000000001164","","","recognition","survey-text","261","1007679","0.0-6.0-3.36","2969609","co38692","norming","","","{""guess"":""auto""}","","../img/tt/1146tt.jpg","",""
"null","../img/gs/1146gs.jpg","null","reveal","image-keyboard-response","262","1009681","0.0-6.0-4.36","2969609","co38692","norming","","","","","","",""
"null","../img/tt/1146tt.jpg","null","mooney2","image-keyboard-response","263","1011683","0.0-6.0-5.36","2969609","co38692","norming","","","","","","",""
"4414","","","post_reveal_questions","survey-likert","264","1016099","0.0-6.0-6.36","2969609","co38692","norming","","","{""aha"":6}","[0]","../img/tt/1146tt.jpg","",""
"null","<div style=""font-size:60px;""> </div>","null","fixation","html-keyboard-response","265","1016302","0.0-6.0-0.37","2969609","co38692","norming","","","","","","",""
"null","../img/tt/1089tt.jpg","null","mooney1","image-keyboard-response","266","1019305","0.0-6.0-1.37","2969609","co38692","norming","","","","","","",""
"4506.999999999884","","","post_mooney1_questions","survey-likert","267","1023813","0.0-6.0-2.37","2969609","co38692","norming","","","{""curiosity"":0,""confidence"":6}","[0,1]","../img/tt/1089tt.jpg","",""
"3381.999999999767","","","recognition","survey-text","268","1027200","0.0-6.0-3.37","2969609","co38692","norming","","","{""guess"":""olifant""}","","../img/tt/1089tt.jpg","",""
"null","../img/gs/1089gs.jpg","null","reveal","image-keyboard-response","269","1029202","0.0-6.0-4.37","2969609","co38692","norming","","","","","","",""
"null","../img/tt/1089tt.jpg","null","mooney2","image-keyboard-response","270","1031203","0.0-6.0-5.37","2969609","co38692","norming","","","","","","",""
"2685","","","post_reveal_questions","survey-likert","271","1033889","0.0-6.0-6.37","2969609","co38692","norming","","","{""aha"":0}","[0]","../img/tt/1089tt.jpg","",""
"null","<div style=""font-size:60px;""> </div>","null","fixation","html-keyboard-response","272","1034092","0.0-6.0-0.38","2969609","co38692","norming","","","","","","",""
"null","../img/tt/1202tt.jpg","null","mooney1","image-keyboard-response","273","1037095","0.0-6.0-1.38","2969609","co38692","norming","","","","","","",""
"5723.999999999884","","","post_mooney1_questions","survey-likert","274","1042821","0.0-6.0-2.38","2969609","co38692","norming","","","{""curiosity"":5,""confidence"":2}","[0,1]","../img/tt/1202tt.jpg","",""
"1846.0000000002328","","","recognition","survey-text","275","1044672","0.0-6.0-3.38","2969609","co38692","norming","","","{""guess"":""mens""}","","../img/tt/1202tt.jpg","",""
"null","../img/gs/1202gs.jpg","null","reveal","image-keyboard-response","276","1046674","0.0-6.0-4.38","2969609","co38692","norming","","","","","","",""
"null","../img/tt/1202tt.jpg","null","mooney2","image-keyboard-response","277","1048677","0.0-6.0-5.38","2969609","co38692","norming","","","","","","",""
"4931","","","post_reveal_questions","survey-likert","278","1053609","0.0-6.0-6.38","2969609","co38692","norming","","","{""aha"":4}","[0]","../img/tt/1202tt.jpg","",""
"null","<div style=""font-size:60px;""> </div>","null","fixation","html-keyboard-response","279","1053812","0.0-6.0-0.39","2969609","co38692","norming","","","","","","",""
"null","../img/tt/1043tt.jpg","null","mooney1","image-keyboard-response","280","1056814","0.0-6.0-1.39","2969609","co38692","norming","","","","","","",""
"5549.000000000233","","","post_mooney1_questions","survey-likert","281","1062365","0.0-6.0-2.39","2969609","co38692","norming","","","{""curiosity"":5,""confidence"":4}","[0,1]","../img/tt/1043tt.jpg","",""
"3130","","","recognition","survey-text","282","1065501","0.0-6.0-3.39","2969609","co38692","norming","","","{""guess"":""bootje""}","","../img/tt/1043tt.jpg","",""
"null","../img/gs/1043gs.jpg","null","reveal","image-keyboard-response","283","1067502","0.0-6.0-4.39","2969609","co38692","norming","","","","","","",""
"null","../img/tt/1043tt.jpg","null","mooney2","image-keyboard-response","284","1069504","0.0-6.0-5.39","2969609","co38692","norming","","","","","","",""
"2191","","","post_reveal_questions","survey-likert","285","1071697","0.0-6.0-6.39","2969609","co38692","norming","","","{""aha"":6}","[0]","../img/tt/1043tt.jpg","",""
"null","<div style=""font-size:60px;""> </div>","null","fixation","html-keyboard-response","286","1071899","0.0-6.0-0.40","2969609","co38692","norming","","","","","","",""
"null","../img/tt/296tt.jpg","null","mooney1","image-keyboard-response","287","1074902","0.0-6.0-1.40","2969609","co38692","norming","","","","","","",""
"5744","","","post_mooney1_questions","survey-likert","288","1080648","0.0-6.0-2.40","2969609","co38692","norming","","","{""curiosity"":6,""confidence"":0}","[0,1]","../img/tt/296tt.jpg","",""
"841","","","recognition","survey-text","289","1081494","0.0-6.0-3.40","2969609","co38692","norming","","","{""guess"":""""}","","../img/tt/296tt.jpg","",""
"null","../img/gs/296gs.jpg","null","reveal","image-keyboard-response","290","1083496","0.0-6.0-4.40","2969609","co38692","norming","","","","","","",""
"null","../img/tt/296tt.jpg","null","mooney2","image-keyboard-response","291","1085498","0.0-6.0-5.40","2969609","co38692","norming","","","","","","",""
"1963.0000000002328","","","post_reveal_questions","survey-likert","292","1087462","0.0-6.0-6.40","2969609","co38692","norming","","","{""aha"":6}","[0]","../img/tt/296tt.jpg","",""
"null","<div style=""font-size:60px;""> </div>","null","fixation","html-keyboard-response","293","1087664","0.0-6.0-0.41","2969609","co38692","norming","","","","","","",""
"null","../img/tt/405tt.jpg","null","mooney1","image-keyboard-response","294","1090667","0.0-6.0-1.41","2969609","co38692","norming","","","","","","",""
"3071","","","post_mooney1_questions","survey-likert","295","1093740","0.0-6.0-2.41","2969609","co38692","norming","","","{""curiosity"":0,""confidence"":6}","[0,1]","../img/tt/405tt.jpg","",""
"4189","","","recognition","survey-text","296","1097934","0.0-6.0-3.41","2969609","co38692","norming","","","{""guess"":""koala""}","","../img/tt/405tt.jpg","",""
"null","../img/gs/405gs.jpg","null","reveal","image-keyboard-response","297","1099936","0.0-6.0-4.41","2969609","co38692","norming","","","","","","",""
"null","../img/tt/405tt.jpg","null","mooney2","image-keyboard-response","298","1101937","0.0-6.0-5.41","2969609","co38692","norming","","","","","","",""
"3318","","","post_reveal_questions","survey-likert","299","1105257","0.0-6.0-6.41","2969609","co38692","norming","","","{""aha"":0}","[0]","../img/tt/405tt.jpg","",""
"null","<div style=""font-size:60px;""> </div>","null","fixation","html-keyboard-response","300","1105459","0.0-6.0-0.42","2969609","co38692","norming","","","","","","",""
"null","../img/tt/1037tt.jpg","null","mooney1","image-keyboard-response","301","1108462","0.0-6.0-1.42","2969609","co38692","norming","","","","","","",""
"4156","","","post_mooney1_questions","survey-likert","302","1112620","0.0-6.0-2.42","2969609","co38692","norming","","","{""curiosity"":1,""confidence"":5}","[0,1]","../img/tt/1037tt.jpg","",""
"2249","","","recognition","survey-text","303","1114875","0.0-6.0-3.42","2969609","co38692","norming","","","{""guess"":""dier""}","","../img/tt/1037tt.jpg","",""
"null","../img/gs/1037gs.jpg","null","reveal","image-keyboard-response","304","1116877","0.0-6.0-4.42","2969609","co38692","norming","","","","","","",""
"null","../img/tt/1037tt.jpg","null","mooney2","image-keyboard-response","305","1118880","0.0-6.0-5.42","2969609","co38692","norming","","","","","","",""
"4035","","","post_reveal_questions","survey-likert","306","1122916","0.0-6.0-6.42","2969609","co38692","norming","","","{""aha"":1}","[0]","../img/tt/1037tt.jpg","",""
"null","<div style=""font-size:60px;""> </div>","null","fixation","html-keyboard-response","307","1123118","0.0-6.0-0.43","2969609","co38692","norming","","","","","","",""
"null","../img/tt/1268tt.jpg","null","mooney1","image-keyboard-response","308","1126121","0.0-6.0-1.43","2969609","co38692","norming","","","","","","",""
"5173","","","post_mooney1_questions","survey-likert","309","1131296","0.0-6.0-2.43","2969609","co38692","norming","","","{""curiosity"":1,""confidence"":5}","[0,1]","../img/tt/1268tt.jpg","",""
"3236","","","recognition","survey-text","310","1134537","0.0-6.0-3.43","2969609","co38692","norming","","","{""guess"":""dier""}","","../img/tt/1268tt.jpg","",""
"null","../img/gs/1268gs.jpg","null","reveal","image-keyboard-response","311","1136538","0.0-6.0-4.43","2969609","co38692","norming","","","","","","",""
"null","../img/tt/1268tt.jpg","null","mooney2","image-keyboard-response","312","1138540","0.0-6.0-5.43","2969609","co38692","norming","","","","","","",""
"4123","","","post_reveal_questions","survey-likert","313","1142664","0.0-6.0-6.43","2969609","co38692","norming","","","{""aha"":3}","[0]","../img/tt/1268tt.jpg","",""
"null","<div style=""font-size:60px;""> </div>","null","fixation","html-keyboard-response","314","1142867","0.0-6.0-0.44","2969609","co38692","norming","","","","","","",""
"null","../img/tt/1307tt.jpg","null","mooney1","image-keyboard-response","315","1145869","0.0-6.0-1.44","2969609","co38692","norming","","","","","","",""
"3936","","","post_mooney1_questions","survey-likert","316","1149807","0.0-6.0-2.44","2969609","co38692","norming","","","{""curiosity"":4,""confidence"":4}","[0,1]","../img/tt/1307tt.jpg","",""
"3736","","","recognition","survey-text","317","1153548","0.0-6.0-3.44","2969609","co38692","norming","","","{""guess"":""spinnenwiel""}","","../img/tt/1307tt.jpg","",""
"null","../img/gs/1307gs.jpg","null","reveal","image-keyboard-response","318","1155550","0.0-6.0-4.44","2969609","co38692","norming","","","","","","",""
"null","../img/tt/1307tt.jpg","null","mooney2","image-keyboard-response","319","1157552","0.0-6.0-5.44","2969609","co38692","norming","","","","","","",""
"3117","","","post_reveal_questions","survey-likert","320","1160671","0.0-6.0-6.44","2969609","co38692","norming","","","{""aha"":6}","[0]","../img/tt/1307tt.jpg","",""
"null","<div style=""font-size:60px;""> </div>","null","fixation","html-keyboard-response","321","1160873","0.0-6.0-0.45","2969609","co38692","norming","","","","","","",""
"null","../img/tt/438tt.jpg","null","mooney1","image-keyboard-response","322","1163875","0.0-6.0-1.45","2969609","co38692","norming","","","","","","",""
"4093","","","post_mooney1_questions","survey-likert","323","1167969","0.0-6.0-2.45","2969609","co38692","norming","","","{""curiosity"":2,""confidence"":5}","[0,1]","../img/tt/438tt.jpg","",""
"5433.000000000233","","","recognition","survey-text","324","1173406","0.0-6.0-3.45","2969609","co38692","norming","","","{""guess"":""krokodil""}","","../img/tt/438tt.jpg","",""
"null","../img/gs/438gs.jpg","null","reveal","image-keyboard-response","325","1175407","0.0-6.0-4.45","2969609","co38692","norming","","","","","","",""
"null","../img/tt/438tt.jpg","null","mooney2","image-keyboard-response","326","1177409","0.0-6.0-5.45","2969609","co38692","norming","","","","","","",""
"3061","","","post_reveal_questions","survey-likert","327","1180472","0.0-6.0-6.45","2969609","co38692","norming","","","{""aha"":4}","[0]","../img/tt/438tt.jpg","",""
"null","<div style=""font-size:60px;""> </div>","null","fixation","html-keyboard-response","328","1180674","0.0-6.0-0.46","2969609","co38692","norming","","","","","","",""
"null","../img/tt/1024tt.jpg","null","mooney1","image-keyboard-response","329","1183677","0.0-6.0-1.46","2969609","co38692","norming","","","","","","",""
"4177","","","post_mooney1_questions","survey-likert","330","1187856","0.0-6.0-2.46","2969609","co38692","norming","","","{""curiosity"":5,""confidence"":4}","[0,1]","../img/tt/1024tt.jpg","",""
"1046.0000000002328","","","recognition","survey-text","331","1188907","0.0-6.0-3.46","2969609","co38692","norming","","","{""guess"":""mens""}","","../img/tt/1024tt.jpg","",""
"null","../img/gs/1024gs.jpg","null","reveal","image-keyboard-response","332","1190909","0.0-6.0-4.46","2969609","co38692","norming","","","","","","",""
"null","../img/tt/1024tt.jpg","null","mooney2","image-keyboard-response","333","1192912","0.0-6.0-5.46","2969609","co38692","norming","","","","","","",""
"18608","","","post_reveal_questions","survey-likert","334","1211521","0.0-6.0-6.46","2969609","co38692","norming","","","{""aha"":5}","[0]","../img/tt/1024tt.jpg","",""
"null","<div style=""font-size:60px;""> </div>","null","fixation","html-keyboard-response","335","1211724","0.0-6.0-0.47","2969609","co38692","norming","","","","","","",""
"null","../img/tt/1156tt.jpg","null","mooney1","image-keyboard-response","336","1214726","0.0-6.0-1.47","2969609","co38692","norming","","","","","","",""
"6011","","","post_mooney1_questions","survey-likert","337","1220739","0.0-6.0-2.47","2969609","co38692","norming","","","{""curiosity"":5,""confidence"":0}","[0,1]","../img/tt/1156tt.jpg","",""
"955","","","recognition","survey-text","338","1221699","0.0-6.0-3.47","2969609","co38692","norming","","","{""guess"":""""}","","../img/tt/1156tt.jpg","",""
"null","../img/gs/1156gs.jpg","null","reveal","image-keyboard-response","339","1223700","0.0-6.0-4.47","2969609","co38692","norming","","","","","","",""
"null","../img/tt/1156tt.jpg","null","mooney2","image-keyboard-response","340","1225703","0.0-6.0-5.47","2969609","co38692","norming","","","","","","",""
"3816","","","post_reveal_questions","survey-likert","341","1229520","0.0-6.0-6.47","2969609","co38692","norming","","","{""aha"":6}","[0]","../img/tt/1156tt.jpg","",""
"null","<div style=""font-size:60px;""> </div>","null","fixation","html-keyboard-response","342","1229722","0.0-6.0-0.48","2969609","co38692","norming","","","","","","",""
"null","../img/tt/1279tt.jpg","null","mooney1","image-keyboard-response","343","1232725","0.0-6.0-1.48","2969609","co38692","norming","","","","","","",""
"7367.999999999767","","","post_mooney1_questions","survey-likert","344","1240094","0.0-6.0-2.48","2969609","co38692","norming","","","{""curiosity"":5,""confidence"":0}","[0,1]","../img/tt/1279tt.jpg","",""
"670","","","recognition","survey-text","345","1240769","0.0-6.0-3.48","2969609","co38692","norming","","","{""guess"":""""}","","../img/tt/1279tt.jpg","",""
"null","../img/gs/1279gs.jpg","null","reveal","image-keyboard-response","346","1242772","0.0-6.0-4.48","2969609","co38692","norming","","","","","","",""
"null","../img/tt/1279tt.jpg","null","mooney2","image-keyboard-response","347","1244773","0.0-6.0-5.48","2969609","co38692","norming","","","","","","",""
"3696","","","post_reveal_questions","survey-likert","348","1248470","0.0-6.0-6.48","2969609","co38692","norming","","","{""aha"":5}","[0]","../img/tt/1279tt.jpg","",""
"null","<div style=""font-size:60px;""> </div>","null","fixation","html-keyboard-response","349","1248673","0.0-6.0-0.49","2969609","co38692","norming","","","","","","",""
"null","../img/tt/1275tt.jpg","null","mooney1","image-keyboard-response","350","1251675","0.0-6.0-1.49","2969609","co38692","norming","","","","","","",""
"5823","","","post_mooney1_questions","survey-likert","351","1257501","0.0-6.0-2.49","2969609","co38692","norming","","","{""curiosity"":1,""confidence"":6}","[0,1]","../img/tt/1275tt.jpg","",""
"4063","","","recognition","survey-text","352","1261570","0.0-6.0-3.49","2969609","co38692","norming","","","{""guess"":""everzwijn""}","","../img/tt/1275tt.jpg","",""
"null","../img/gs/1275gs.jpg","null","reveal","image-keyboard-response","353","1263572","0.0-6.0-4.49","2969609","co38692","norming","","","","","","",""
"null","../img/tt/1275tt.jpg","null","mooney2","image-keyboard-response","354","1265574","0.0-6.0-5.49","2969609","co38692","norming","","","","","","",""
"2223","","","post_reveal_questions","survey-likert","355","1267798","0.0-6.0-6.49","2969609","co38692","norming","","","{""aha"":0}","[0]","../img/tt/1275tt.jpg","",""
"null","<div style=""font-size:60px;""> </div>","null","fixation","html-keyboard-response","356","1268001","0.0-6.0-0.50","2969609","co38692","norming","","","","","","",""
"null","../img/tt/081tt.jpg","null","mooney1","image-keyboard-response","357","1271003","0.0-6.0-1.50","2969609","co38692","norming","","","","","","",""
"3730","","","post_mooney1_questions","survey-likert","358","1274735","0.0-6.0-2.50","2969609","co38692","norming","","","{""curiosity"":1,""confidence"":6}","[0,1]","../img/tt/081tt.jpg","",""
"2968","","","recognition","survey-text","359","1277709","0.0-6.0-3.50","2969609","co38692","norming","","","{""guess"":""kikker""}","","../img/tt/081tt.jpg","",""
"null","../img/gs/081gs.jpg","null","reveal","image-keyboard-response","360","1279711","0.0-6.0-4.50","2969609","co38692","norming","","","","","","",""
"null","../img/tt/081tt.jpg","null","mooney2","image-keyboard-response","361","1281713","0.0-6.0-5.50","2969609","co38692","norming","","","","","","",""
"2962","","","post_reveal_questions","survey-likert","362","1284676","0.0-6.0-6.50","2969609","co38692","norming","","","{""aha"":0}","[0]","../img/tt/081tt.jpg","",""
"null","<div style=""font-size:60px;""> </div>","null","fixation","html-keyboard-response","363","1284879","0.0-6.0-0.51","2969609","co38692","norming","","","","","","",""
"null","../img/tt/1269tt.jpg","null","mooney1","image-keyboard-response","364","1287881","0.0-6.0-1.51","2969609","co38692","norming","","","","","","",""
"3498","","","post_mooney1_questions","survey-likert","365","1291380","0.0-6.0-2.51","2969609","co38692","norming","","","{""curiosity"":1,""confidence"":6}","[0,1]","../img/tt/1269tt.jpg","",""
"6367","","","recognition","survey-text","366","1297754","0.0-6.0-3.51","2969609","co38692","norming","","","{""guess"":""eekhoorn""}","","../img/tt/1269tt.jpg","",""
"null","../img/gs/1269gs.jpg","null","reveal","image-keyboard-response","367","1299756","0.0-6.0-4.51","2969609","co38692","norming","","","","","","",""
"null","../img/tt/1269tt.jpg","null","mooney2","image-keyboard-response","368","1301758","0.0-6.0-5.51","2969609","co38692","norming","","","","","","",""
"3868","","","post_reveal_questions","survey-likert","369","1305628","0.0-6.0-6.51","2969609","co38692","norming","","","{""aha"":0}","[0]","../img/tt/1269tt.jpg","",""
"null","<div style=""font-size:60px;""> </div>","null","fixation","html-keyboard-response","370","1305831","0.0-6.0-0.52","2969609","co38692","norming","","","","","","",""
"null","../img/tt/1250tt.jpg","null","mooney1","image-keyboard-response","371","1308832","0.0-6.0-1.52","2969609","co38692","norming","","","","","","",""
"6876","","","post_mooney1_questions","survey-likert","372","1315710","0.0-6.0-2.52","2969609","co38692","norming","","","{""curiosity"":4,""confidence"":2}","[0,1]","../img/tt/1250tt.jpg","",""
"1414","","","recognition","survey-text","373","1317130","0.0-6.0-3.52","2969609","co38692","norming","","","{""guess"":""mens""}","","../img/tt/1250tt.jpg","",""
"null","../img/gs/1250gs.jpg","null","reveal","image-keyboard-response","374","1319132","0.0-6.0-4.52","2969609","co38692","norming","","","","","","",""
"null","../img/tt/1250tt.jpg","null","mooney2","image-keyboard-response","375","1321134","0.0-6.0-5.52","2969609","co38692","norming","","","","","","",""
"2280","","","post_reveal_questions","survey-likert","376","1323416","0.0-6.0-6.52","2969609","co38692","norming","","","{""aha"":5}","[0]","../img/tt/1250tt.jpg","",""
"null","<div style=""font-size:60px;""> </div>","null","fixation","html-keyboard-response","377","1323618","0.0-6.0-0.53","2969609","co38692","norming","","","","","","",""
"null","../img/tt/1186tt.jpg","null","mooney1","image-keyboard-response","378","1326621","0.0-6.0-1.53","2969609","co38692","norming","","","","","","",""
"5344","","","post_mooney1_questions","survey-likert","379","1331966","0.0-6.0-2.53","2969609","co38692","norming","","","{""curiosity"":5,""confidence"":5}","[0,1]","../img/tt/1186tt.jpg","",""
"2077","","","recognition","survey-text","380","1334048","0.0-6.0-3.53","2969609","co38692","norming","","","{""guess"":""mens""}","","../img/tt/1186tt.jpg","",""
"null","../img/gs/1186gs.jpg","null","reveal","image-keyboard-response","381","1336050","0.0-6.0-4.53","2969609","co38692","norming","","","","","","",""
"null","../img/tt/1186tt.jpg","null","mooney2","image-keyboard-response","382","1338053","0.0-6.0-5.53","2969609","co38692","norming","","","","","","",""
"3357.000000000233","","","post_reveal_questions","survey-likert","383","1341411","0.0-6.0-6.53","2969609","co38692","norming","","","{""aha"":1}","[0]","../img/tt/1186tt.jpg","",""
"null","<div style=""font-size:60px;""> </div>","null","fixation","html-keyboard-response","384","1341614","0.0-6.0-0.54","2969609","co38692","norming","","","","","","",""
"null","../img/tt/1191tt.jpg","null","mooney1","image-keyboard-response","385","1344617","0.0-6.0-1.54","2969609","co38692","norming","","","","","","",""
"8943","","","post_mooney1_questions","survey-likert","386","1353562","0.0-6.0-2.54","2969609","co38692","norming","","","{""curiosity"":5,""confidence"":4}","[0,1]","../img/tt/1191tt.jpg","",""
"9005","","","recognition","survey-text","387","1362574","0.0-6.0-3.54","2969609","co38692","norming","","","{""guess"":""mens""}","","../img/tt/1191tt.jpg","",""
"null","../img/gs/1191gs.jpg","null","reveal","image-keyboard-response","388","1364576","0.0-6.0-4.54","2969609","co38692","norming","","","","","","",""
"null","../img/tt/1191tt.jpg","null","mooney2","image-keyboard-response","389","1366579","0.0-6.0-5.54","2969609","co38692","norming","","","","","","",""
"2902","","","post_reveal_questions","survey-likert","390","1369483","0.0-6.0-6.54","2969609","co38692","norming","","","{""aha"":3}","[0]","../img/tt/1191tt.jpg","",""
"null","<div style=""font-size:60px;""> </div>","null","fixation","html-keyboard-response","391","1369686","0.0-6.0-0.55","2969609","co38692","norming","","","","","","",""
"null","../img/tt/222tt.jpg","null","mooney1","image-keyboard-response","392","1372688","0.0-6.0-1.55","2969609","co38692","norming","","","","","","",""
"5287","","","post_mooney1_questions","survey-likert","393","1377978","0.0-6.0-2.55","2969609","co38692","norming","","","{""curiosity"":0,""confidence"":6}","[0,1]","../img/tt/222tt.jpg","",""
"2624","","","recognition","survey-text","394","1380608","0.0-6.0-3.55","2969609","co38692","norming","","","{""guess"":""mens in bad""}","","../img/tt/222tt.jpg","",""
"null","../img/gs/222gs.jpg","null","reveal","image-keyboard-response","395","1382610","0.0-6.0-4.55","2969609","co38692","norming","","","","","","",""
"null","../img/tt/222tt.jpg","null","mooney2","image-keyboard-response","396","1384613","0.0-6.0-5.55","2969609","co38692","norming","","","","","","",""
"3972.999999999767","","","post_reveal_questions","survey-likert","397","1388587","0.0-6.0-6.55","2969609","co38692","norming","","","{""aha"":0}","[0]","../img/tt/222tt.jpg","",""
"null","<div style=""font-size:60px;""> </div>","null","fixation","html-keyboard-response","398","1388790","0.0-6.0-0.56","2969609","co38692","norming","","","","","","",""
"null","../img/tt/279tt.jpg","null","mooney1","image-keyboard-response","399","1391792","0.0-6.0-1.56","2969609","co38692","norming","","","","","","",""
"5831","","","post_mooney1_questions","survey-likert","400","1397626","0.0-6.0-2.56","2969609","co38692","norming","","","{""curiosity"":0,""confidence"":6}","[0,1]","../img/tt/279tt.jpg","",""
"1421","","","recognition","survey-text","401","1399061","0.0-6.0-3.56","2969609","co38692","norming","","","{""guess"":""koala""}","","../img/tt/279tt.jpg","",""
"null","../img/gs/279gs.jpg","null","reveal","image-keyboard-response","402","1401062","0.0-6.0-4.56","2969609","co38692","norming","","","","","","",""
"null","../img/tt/279tt.jpg","null","mooney2","image-keyboard-response","403","1403065","0.0-6.0-5.56","2969609","co38692","norming","","","","","","",""
"2204.999999999767","","","post_reveal_questions","survey-likert","404","1405272","0.0-6.0-6.56","2969609","co38692","norming","","","{""aha"":0}","[0]","../img/tt/279tt.jpg","",""
"null","<div style=""font-size:60px;""> </div>","null","fixation","html-keyboard-response","405","1405474","0.0-6.0-0.57","2969609","co38692","norming","","","","","","",""
"null","../img/tt/358tt.jpg","null","mooney1","image-keyboard-response","406","1408479","0.0-6.0-1.57","2969609","co38692","norming","","","","","","",""
"6423","","","post_mooney1_questions","survey-likert","407","1414903","0.0-6.0-2.57","2969609","co38692","norming","","","{""curiosity"":5,""confidence"":4}","[0,1]","../img/tt/358tt.jpg","",""
"1192","","","recognition","survey-text","408","1416102","0.0-6.0-3.57","2969609","co38692","norming","","","{""guess"":""dier""}","","../img/tt/358tt.jpg","",""
"null","../img/gs/358gs.jpg","null","reveal","image-keyboard-response","409","1418105","0.0-6.0-4.57","2969609","co38692","norming","","","","","","",""
"null","../img/tt/358tt.jpg","null","mooney2","image-keyboard-response","410","1420107","0.0-6.0-5.57","2969609","co38692","norming","","","","","","",""
"3714","","","post_reveal_questions","survey-likert","411","1423825","0.0-6.0-6.57","2969609","co38692","norming","","","{""aha"":4}","[0]","../img/tt/358tt.jpg","",""
"null","<div style=""font-size:60px;""> </div>","null","fixation","html-keyboard-response","412","1424028","0.0-6.0-0.58","2969609","co38692","norming","","","","","","",""
"null","../img/tt/1033tt.jpg","null","mooney1","image-keyboard-response","413","1427030","0.0-6.0-1.58","2969609","co38692","norming","","","","","","",""
"7004","","","post_mooney1_questions","survey-likert","414","1434036","0.0-6.0-2.58","2969609","co38692","norming","","","{""curiosity"":5,""confidence"":4}","[0,1]","../img/tt/1033tt.jpg","",""
"4322","","","recognition","survey-text","415","1438365","0.0-6.0-3.58","2969609","co38692","norming","","","{""guess"":""mens met speer""}","","../img/tt/1033tt.jpg","",""
"null","../img/gs/1033gs.jpg","null","reveal","image-keyboard-response","416","1440368","0.0-6.0-4.58","2969609","co38692","norming","","","","","","",""
"null","../img/tt/1033tt.jpg","null","mooney2","image-keyboard-response","417","1442369","0.0-6.0-5.58","2969609","co38692","norming","","","","","","",""
"5517","","","post_reveal_questions","survey-likert","418","1447888","0.0-6.0-6.58","2969609","co38692","norming","","","{""aha"":5}","[0]","../img/tt/1033tt.jpg","",""
"null","<div style=""font-size:60px;""> </div>","null","fixation","html-keyboard-response","419","1448091","0.0-6.0-0.59","2969609","co38692","norming","","","","","","",""
"null","../img/tt/060tt.jpg","null","mooney1","image-keyboard-response","420","1451093","0.0-6.0-1.59","2969609","co38692","norming","","","","","","",""
"6727","","","post_mooney1_questions","survey-likert","421","1457822","0.0-6.0-2.59","2969609","co38692","norming","","","{""curiosity"":5,""confidence"":5}","[0,1]","../img/tt/060tt.jpg","",""
"2673.999999999767","","","recognition","survey-text","422","1460503","0.0-6.0-3.59","2969609","co38692","norming","","","{""guess"":""hamburger""}","","../img/tt/060tt.jpg","",""
"null","../img/gs/060gs.jpg","null","reveal","image-keyboard-response","423","1462505","0.0-6.0-4.59","2969609","co38692","norming","","","","","","",""
"null","../img/tt/060tt.jpg","null","mooney2","image-keyboard-response","424","1464507","0.0-6.0-5.59","2969609","co38692","norming","","","","","","",""
"3129","","","post_reveal_questions","survey-likert","425","1467637","0.0-6.0-6.59","2969609","co38692","norming","","","{""aha"":0}","[0]","../img/tt/060tt.jpg","",""
"null","<div style=""font-size:60px;""> </div>","null","fixation","html-keyboard-response","426","1467840","0.0-6.0-0.60","2969609","co38692","norming","","","","","","",""
"null","../img/tt/307tt.jpg","null","mooney1","image-keyboard-response","427","1470843","0.0-6.0-1.60","2969609","co38692","norming","","","","","","",""
"7485.000000000233","","","post_mooney1_questions","survey-likert","428","1478329","0.0-6.0-2.60","2969609","co38692","norming","","","{""curiosity"":5,""confidence"":2}","[0,1]","../img/tt/307tt.jpg","",""
"1391","","","recognition","survey-text","429","1479725","0.0-6.0-3.60","2969609","co38692","norming","","","{""guess"":""bril""}","","../img/tt/307tt.jpg","",""
"null","../img/gs/307gs.jpg","null","reveal","image-keyboard-response","430","1481727","0.0-6.0-4.60","2969609","co38692","norming","","","","","","",""
"null","../img/tt/307tt.jpg","null","mooney2","image-keyboard-response","431","1483729","0.0-6.0-5.60","2969609","co38692","norming","","","","","","",""
"2665","","","post_reveal_questions","survey-likert","432","1486395","0.0-6.0-6.60","2969609","co38692","norming","","","{""aha"":6}","[0]","../img/tt/307tt.jpg","",""
"null","<div style=""font-size:60px;""> </div>","null","fixation","html-keyboard-response","433","1486598","0.0-6.0-0.61","2969609","co38692","norming","","","","","","",""
"null","../img/tt/435tt.jpg","null","mooney1","image-keyboard-response","434","1489600","0.0-6.0-1.61","2969609","co38692","norming","","","","","","",""
"3808","","","post_mooney1_questions","survey-likert","435","1493410","0.0-6.0-2.61","2969609","co38692","norming","","","{""curiosity"":5,""confidence"":4}","[0,1]","../img/tt/435tt.jpg","",""
"3461.000000000233","","","recognition","survey-text","436","1496877","0.0-6.0-3.61","2969609","co38692","norming","","","{""guess"":""platenspeler""}","","../img/tt/435tt.jpg","",""
"null","../img/gs/435gs.jpg","null","reveal","image-keyboard-response","437","1498880","0.0-6.0-4.61","2969609","co38692","norming","","","","","","",""
"null","../img/tt/435tt.jpg","null","mooney2","image-keyboard-response","438","1500882","0.0-6.0-5.61","2969609","co38692","norming","","","","","","",""
"2915","","","post_reveal_questions","survey-likert","439","1503799","0.0-6.0-6.61","2969609","co38692","norming","","","{""aha"":6}","[0]","../img/tt/435tt.jpg","",""
"null","<div style=""font-size:60px;""> </div>","null","fixation","html-keyboard-response","440","1504001","0.0-6.0-0.62","2969609","co38692","norming","","","","","","",""
"null","../img/tt/126tt.jpg","null","mooney1","image-keyboard-response","441","1507004","0.0-6.0-1.62","2969609","co38692","norming","","","","","","",""
"4131","","","post_mooney1_questions","survey-likert","442","1511136","0.0-6.0-2.62","2969609","co38692","norming","","","{""curiosity"":5,""confidence"":4}","[0,1]","../img/tt/126tt.jpg","",""
"1581","","","recognition","survey-text","443","1512723","0.0-6.0-3.62","2969609","co38692","norming","","","{""guess"":""koe""}","","../img/tt/126tt.jpg","",""
"null","../img/gs/126gs.jpg","null","reveal","image-keyboard-response","444","1514725","0.0-6.0-4.62","2969609","co38692","norming","","","","","","",""
"null","../img/tt/126tt.jpg","null","mooney2","image-keyboard-response","445","1516727","0.0-6.0-5.62","2969609","co38692","norming","","","","","","",""
"2412","","","post_reveal_questions","survey-likert","446","1519141","0.0-6.0-6.62","2969609","co38692","norming","","","{""aha"":1}","[0]","../img/tt/126tt.jpg","",""
"null","<div style=""font-size:60px;""> </div>","null","fixation","html-keyboard-response","447","1519344","0.0-6.0-0.63","2969609","co38692","norming","","","","","","",""
"null","../img/tt/1234tt.jpg","null","mooney1","image-keyboard-response","448","1522346","0.0-6.0-1.63","2969609","co38692","norming","","","","","","",""
"4982","","","post_mooney1_questions","survey-likert","449","1527328","0.0-6.0-2.63","2969609","co38692","norming","","","{""curiosity"":4,""confidence"":5}","[0,1]","../img/tt/1234tt.jpg","",""
"816","","","recognition","survey-text","450","1528150","0.0-6.0-3.63","2969609","co38692","norming","","","{""guess"":""zee""}","","../img/tt/1234tt.jpg","",""
"null","../img/gs/1234gs.jpg","null","reveal","image-keyboard-response","451","1530152","0.0-6.0-4.63","2969609","co38692","norming","","","","","","",""
"null","../img/tt/1234tt.jpg","null","mooney2","image-keyboard-response","452","1532155","0.0-6.0-5.63","2969609","co38692","norming","","","","","","",""
"3075","","","post_reveal_questions","survey-likert","453","1535231","0.0-6.0-6.63","2969609","co38692","norming","","","{""aha"":4}","[0]","../img/tt/1234tt.jpg","",""
"null","<div style=""font-size:60px;""> </div>","null","fixation","html-keyboard-response","454","1535433","0.0-6.0-0.64","2969609","co38692","norming","","","","","","",""
"null","../img/tt/1046tt.jpg","null","mooney1","image-keyboard-response","455","1538436","0.0-6.0-1.64","2969609","co38692","norming","","","","","","",""
"3935","","","post_mooney1_questions","survey-likert","456","1542372","0.0-6.0-2.64","2969609","co38692","norming","","","{""curiosity"":6,""confidence"":0}","[0,1]","../img/tt/1046tt.jpg","",""
"999","","","recognition","survey-text","457","1543377","0.0-6.0-3.64","2969609","co38692","norming","","","{""guess"":""""}","","../img/tt/1046tt.jpg","",""
"null","../img/gs/1046gs.jpg","null","reveal","image-keyboard-response","458","1545379","0.0-6.0-4.64","2969609","co38692","norming","","","","","","",""
"null","../img/tt/1046tt.jpg","null","mooney2","image-keyboard-response","459","1547382","0.0-6.0-5.64","2969609","co38692","norming","","","","","","",""
"4423","","","post_reveal_questions","survey-likert","460","1551806","0.0-6.0-6.64","2969609","co38692","norming","","","{""aha"":5}","[0]","../img/tt/1046tt.jpg","",""
"null","<div style=""font-size:60px;""> </div>","null","fixation","html-keyboard-response","461","1552009","0.0-6.0-0.65","2969609","co38692","norming","","","","","","",""
"null","../img/tt/1309tt.jpg","null","mooney1","image-keyboard-response","462","1555011","0.0-6.0-1.65","2969609","co38692","norming","","","","","","",""
"4168","","","post_mooney1_questions","survey-likert","463","1559180","0.0-6.0-2.65","2969609","co38692","norming","","","{""curiosity"":5,""confidence"":5}","[0,1]","../img/tt/1309tt.jpg","",""
"6777.999999999767","","","recognition","survey-text","464","1565965","0.0-6.0-3.65","2969609","co38692","norming","","","{""guess"":""bomen, auto""}","","../img/tt/1309tt.jpg","",""
"null","../img/gs/1309gs.jpg","null","reveal","image-keyboard-response","465","1567966","0.0-6.0-4.65","2969609","co38692","norming","","","","","","",""
"null","../img/tt/1309tt.jpg","null","mooney2","image-keyboard-response","466","1569968","0.0-6.0-5.65","2969609","co38692","norming","","","","","","",""
"6041","","","post_reveal_questions","survey-likert","467","1576011","0.0-6.0-6.65","2969609","co38692","norming","","","{""aha"":0}","[0]","../img/tt/1309tt.jpg","",""
"null","<div style=""font-size:60px;""> </div>","null","fixation","html-keyboard-response","468","1576213","0.0-6.0-0.66","2969609","co38692","norming","","","","","","",""
"null","../img/tt/049tt.jpg","null","mooney1","image-keyboard-response","469","1579216","0.0-6.0-1.66","2969609","co38692","norming","","","","","","",""
"3839","","","post_mooney1_questions","survey-likert","470","1583059","0.0-6.0-2.66","2969609","co38692","norming","","","{""curiosity"":4,""confidence"":5}","[0,1]","../img/tt/049tt.jpg","",""
"1812","","","recognition","survey-text","471","1584877","0.0-6.0-3.66","2969609","co38692","norming","","","{""guess"":""egel""}","","../img/tt/049tt.jpg","",""
"null","../img/gs/049gs.jpg","null","reveal","image-keyboard-response","472","1586879","0.0-6.0-4.66","2969609","co38692","norming","","","","","","",""
"null","../img/tt/049tt.jpg","null","mooney2","image-keyboard-response","473","1588881","0.0-6.0-5.66","2969609","co38692","norming","","","","","","",""
"2449.000000000233","","","post_reveal_questions","survey-likert","474","1591332","0.0-6.0-6.66","2969609","co38692","norming","","","{""aha"":6}","[0]","../img/tt/049tt.jpg","",""
"null","<div style=""font-size:60px;""> </div>","null","fixation","html-keyboard-response","475","1591535","0.0-6.0-0.67","2969609","co38692","norming","","","","","","",""
"null","../img/tt/019tt.jpg","null","mooney1","image-keyboard-response","476","1594538","0.0-6.0-1.67","2969609","co38692","norming","","","","","","",""
"5039","","","post_mooney1_questions","survey-likert","477","1599578","0.0-6.0-2.67","2969609","co38692","norming","","","{""curiosity"":5,""confidence"":6}","[0,1]","../img/tt/019tt.jpg","",""
"8490","","","recognition","survey-text","478","1608075","0.0-6.0-3.67","2969609","co38692","norming","","","{""guess"":""tang (gereedschap)""}","","../img/tt/019tt.jpg","",""
"null","../img/gs/019gs.jpg","null","reveal","image-keyboard-response","479","1610077","0.0-6.0-4.67","2969609","co38692","norming","","","","","","",""
"null","../img/tt/019tt.jpg","null","mooney2","image-keyboard-response","480","1612079","0.0-6.0-5.67","2969609","co38692","norming","","","","","","",""
"2694.000000000233","","","post_reveal_questions","survey-likert","481","1614775","0.0-6.0-6.67","2969609","co38692","norming","","","{""aha"":0}","[0]","../img/tt/019tt.jpg","",""
"null","<div style=""font-size:60px;""> </div>","null","fixation","html-keyboard-response","482","1614977","0.0-6.0-0.68","2969609","co38692","norming","","","","","","",""
"null","../img/tt/1175tt.jpg","null","mooney1","image-keyboard-response","483","1617980","0.0-6.0-1.68","2969609","co38692","norming","","","","","","",""
"4228","","","post_mooney1_questions","survey-likert","484","1622212","0.0-6.0-2.68","2969609","co38692","norming","","","{""curiosity"":4,""confidence"":4}","[0,1]","../img/tt/1175tt.jpg","",""
"2477","","","recognition","survey-text","485","1624695","0.0-6.0-3.68","2969609","co38692","norming","","","{""guess"":""tralies""}","","../img/tt/1175tt.jpg","",""
"null","../img/gs/1175gs.jpg","null","reveal","image-keyboard-response","486","1626697","0.0-6.0-4.68","2969609","co38692","norming","","","","","","",""
"null","../img/tt/1175tt.jpg","null","mooney2","image-keyboard-response","487","1628699","0.0-6.0-5.68","2969609","co38692","norming","","","","","","",""
"2628","","","post_reveal_questions","survey-likert","488","1631329","0.0-6.0-6.68","2969609","co38692","norming","","","{""aha"":6}","[0]","../img/tt/1175tt.jpg","",""
"null","<div style=""font-size:60px;""> </div>","null","fixation","html-keyboard-response","489","1631532","0.0-6.0-0.69","2969609","co38692","norming","","","","","","",""
"null","../img/tt/1107tt.jpg","null","mooney1","image-keyboard-response","490","1634534","0.0-6.0-1.69","2969609","co38692","norming","","","","","","",""
"3951","","","post_mooney1_questions","survey-likert","491","1638487","0.0-6.0-2.69","2969609","co38692","norming","","","{""curiosity"":5,""confidence"":5}","[0,1]","../img/tt/1107tt.jpg","",""
"5684","","","recognition","survey-text","492","1644176","0.0-6.0-3.69","2969609","co38692","norming","","","{""guess"":""giraffenkop""}","","../img/tt/1107tt.jpg","",""
"null","../img/gs/1107gs.jpg","null","reveal","image-keyboard-response","493","1646179","0.0-6.0-4.69","2969609","co38692","norming","","","","","","",""
"null","../img/tt/1107tt.jpg","null","mooney2","image-keyboard-response","494","1648181","0.0-6.0-5.69","2969609","co38692","norming","","","","","","",""
"2503","","","post_reveal_questions","survey-likert","495","1650686","0.0-6.0-6.69","2969609","co38692","norming","","","{""aha"":6}","[0]","../img/tt/1107tt.jpg","",""
"null","<div style=""font-size:60px;""> </div>","null","fixation","html-keyboard-response","496","1650887","0.0-6.0-0.70","2969609","co38692","norming","","","","","","",""
"null","../img/tt/1171tt.jpg","null","mooney1","image-keyboard-response","497","1653890","0.0-6.0-1.70","2969609","co38692","norming","","","","","","",""
"7964.999999999767","","","post_mooney1_questions","survey-likert","498","1661857","0.0-6.0-2.70","2969609","co38692","norming","","","{""curiosity"":5,""confidence"":1}","[0,1]","../img/tt/1171tt.jpg","",""
"1756.9999999997672","","","recognition","survey-text","499","1663620","0.0-6.0-3.70","2969609","co38692","norming","","","{""guess"":""mens""}","","../img/tt/1171tt.jpg","",""
"null","../img/gs/1171gs.jpg","null","reveal","image-keyboard-response","500","1665622","0.0-6.0-4.70","2969609","co38692","norming","","","","","","",""
"null","../img/tt/1171tt.jpg","null","mooney2","image-keyboard-response","501","1667627","0.0-6.0-5.70","2969609","co38692","norming","","","","","","",""
"3991","","","post_reveal_questions","survey-likert","502","1671620","0.0-6.0-6.70","2969609","co38692","norming","","","{""aha"":4}","[0]","../img/tt/1171tt.jpg","",""
"null","<div style=""font-size:60px;""> </div>","null","fixation","html-keyboard-response","503","1671822","0.0-6.0-0.71","2969609","co38692","norming","","","","","","",""
"null","../img/tt/1127tt.jpg","null","mooney1","image-keyboard-response","504","1674825","0.0-6.0-1.71","2969609","co38692","norming","","","","","","",""
"6289","","","post_mooney1_questions","survey-likert","505","1681116","0.0-6.0-2.71","2969609","co38692","norming","","","{""curiosity"":5,""confidence"":6}","[0,1]","../img/tt/1127tt.jpg","",""
"8425","","","recognition","survey-text","506","1689547","0.0-6.0-3.71","2969609","co38692","norming","","","{""guess"":""klaslokaal ""}","","../img/tt/1127tt.jpg","",""
"null","../img/gs/1127gs.jpg","null","reveal","image-keyboard-response","507","1691549","0.0-6.0-4.71","2969609","co38692","norming","","","","","","",""
"null","../img/tt/1127tt.jpg","null","mooney2","image-keyboard-response","508","1693551","0.0-6.0-5.71","2969609","co38692","norming","","","","","","",""
"14474","","","post_reveal_questions","survey-likert","509","1708029","0.0-6.0-6.71","2969609","co38692","norming","","","{""aha"":6}","[0]","../img/tt/1127tt.jpg","",""
"null","<div style=""font-size:60px;""> </div>","null","fixation","html-keyboard-response","510","1708231","0.0-6.0-0.72","2969609","co38692","norming","","","","","","",""
"null","../img/tt/1072tt.jpg","null","mooney1","image-keyboard-response","511","1711234","0.0-6.0-1.72","2969609","co38692","norming","","","","","","",""
"3600.000000000233","","","post_mooney1_questions","survey-likert","512","1714835","0.0-6.0-2.72","2969609","co38692","norming","","","{""curiosity"":5,""confidence"":5}","[0,1]","../img/tt/1072tt.jpg","",""
"2732","","","recognition","survey-text","513","1717573","0.0-6.0-3.72","2969609","co38692","norming","","","{""guess"":""keuken""}","","../img/tt/1072tt.jpg","",""
"null","../img/gs/1072gs.jpg","null","reveal","image-keyboard-response","514","1719575","0.0-6.0-4.72","2969609","co38692","norming","","","","","","",""
"null","../img/tt/1072tt.jpg","null","mooney2","image-keyboard-response","515","1721577","0.0-6.0-5.72","2969609","co38692","norming","","","","","","",""
"3165","","","post_reveal_questions","survey-likert","516","1724744","0.0-6.0-6.72","2969609","co38692","norming","","","{""aha"":5}","[0]","../img/tt/1072tt.jpg","",""
"null","<div style=""font-size:60px;""> </div>","null","fixation","html-keyboard-response","517","1724946","0.0-6.0-0.73","2969609","co38692","norming","","","","","","",""
"null","../img/tt/118tt.jpg","null","mooney1","image-keyboard-response","518","1727949","0.0-6.0-1.73","2969609","co38692","norming","","","","","","",""
"4652","","","post_mooney1_questions","survey-likert","519","1732602","0.0-6.0-2.73","2969609","co38692","norming","","","{""curiosity"":5,""confidence"":0}","[0,1]","../img/tt/118tt.jpg","",""
"602.0000000002328","","","recognition","survey-text","520","1733210","0.0-6.0-3.73","2969609","co38692","norming","","","{""guess"":""""}","","../img/tt/118tt.jpg","",""
"null","../img/gs/118gs.jpg","null","reveal","image-keyboard-response","521","1735212","0.0-6.0-4.73","2969609","co38692","norming","","","","","","",""
"null","../img/tt/118tt.jpg","null","mooney2","image-keyboard-response","522","1737214","0.0-6.0-5.73","2969609","co38692","norming","","","","","","",""
"2444","","","post_reveal_questions","survey-likert","523","1739660","0.0-6.0-6.73","2969609","co38692","norming","","","{""aha"":5}","[0]","../img/tt/118tt.jpg","",""
"null","<div style=""font-size:60px;""> </div>","null","fixation","html-keyboard-response","524","1739862","0.0-6.0-0.74","2969609","co38692","norming","","","","","","",""
"null","../img/tt/1048tt.jpg","null","mooney1","image-keyboard-response","525","1742865","0.0-6.0-1.74","2969609","co38692","norming","","","","","","",""
"4573","","","post_mooney1_questions","survey-likert","526","1747439","0.0-6.0-2.74","2969609","co38692","norming","","","{""curiosity"":5,""confidence"":5}","[0,1]","../img/tt/1048tt.jpg","",""
"2716","","","recognition","survey-text","527","1750161","0.0-6.0-3.74","2969609","co38692","norming","","","{""guess"":""paard""}","","../img/tt/1048tt.jpg","",""
"null","../img/gs/1048gs.jpg","null","reveal","image-keyboard-response","528","1752164","0.0-6.0-4.74","2969609","co38692","norming","","","","","","",""
"null","../img/tt/1048tt.jpg","null","mooney2","image-keyboard-response","529","1754166","0.0-6.0-5.74","2969609","co38692","norming","","","","","","",""
"2787","","","post_reveal_questions","survey-likert","530","1756954","0.0-6.0-6.74","2969609","co38692","norming","","","{""aha"":6}","[0]","../img/tt/1048tt.jpg","",""
"null","<div style=""font-size:60px;""> </div>","null","fixation","html-keyboard-response","531","1757156","0.0-6.0-0.75","2969609","co38692","norming","","","","","","",""
"null","../img/tt/603tt.jpg","null","mooney1","image-keyboard-response","532","1760159","0.0-6.0-1.75","2969609","co38692","norming","","","","","","",""
"6337","","","post_mooney1_questions","survey-likert","533","1766498","0.0-6.0-2.75","2969609","co38692","norming","","","{""curiosity"":1,""confidence"":4}","[0,1]","../img/tt/603tt.jpg","",""
"2410.000000000233","","","recognition","survey-text","534","1768915","0.0-6.0-3.75","2969609","co38692","norming","","","{""guess"":""kattenkop""}","","../img/tt/603tt.jpg","",""
"null","../img/gs/603gs.jpg","null","reveal","image-keyboard-response","535","1770917","0.0-6.0-4.75","2969609","co38692","norming","","","","","","",""
"null","../img/tt/603tt.jpg","null","mooney2","image-keyboard-response","536","1772920","0.0-6.0-5.75","2969609","co38692","norming","","","","","","",""
"3439","","","post_reveal_questions","survey-likert","537","1776361","0.0-6.0-6.75","2969609","co38692","norming","","","{""aha"":1}","[0]","../img/tt/603tt.jpg","",""
"null","<div style=""font-size:60px;""> </div>","null","fixation","html-keyboard-response","538","1776564","0.0-6.0-0.76","2969609","co38692","norming","","","","","","",""
"null","../img/tt/1283tt.jpg","null","mooney1","image-keyboard-response","539","1779566","0.0-6.0-1.76","2969609","co38692","norming","","","","","","",""
"5006","","","post_mooney1_questions","survey-likert","540","1784576","0.0-6.0-2.76","2969609","co38692","norming","","","{""curiosity"":5,""confidence"":4}","[0,1]","../img/tt/1283tt.jpg","",""
"3846","","","recognition","survey-text","541","1788428","0.0-6.0-3.76","2969609","co38692","norming","","","{""guess"":""varkenskop""}","","../img/tt/1283tt.jpg","",""
"null","../img/gs/1283gs.jpg","null","reveal","image-keyboard-response","542","1790430","0.0-6.0-4.76","2969609","co38692","norming","","","","","","",""
"null","../img/tt/1283tt.jpg","null","mooney2","image-keyboard-response","543","1792432","0.0-6.0-5.76","2969609","co38692","norming","","","","","","",""
"3551","","","post_reveal_questions","survey-likert","544","1795987","0.0-6.0-6.76","2969609","co38692","norming","","","{""aha"":5}","[0]","../img/tt/1283tt.jpg","",""
"null","<div style=""font-size:60px;""> </div>","null","fixation","html-keyboard-response","545","1796190","0.0-6.0-0.77","2969609","co38692","norming","","","","","","",""
"null","../img/tt/552tt.jpg","null","mooney1","image-keyboard-response","546","1799193","0.0-6.0-1.77","2969609","co38692","norming","","","","","","",""
"4795.999999999767","","","post_mooney1_questions","survey-likert","547","1803990","0.0-6.0-2.77","2969609","co38692","norming","","","{""curiosity"":1,""confidence"":6}","[0,1]","../img/tt/552tt.jpg","",""
"2685","","","recognition","survey-text","548","1806681","0.0-6.0-3.77","2969609","co38692","norming","","","{""guess"":""eekhoorn""}","","../img/tt/552tt.jpg","",""
"null","../img/gs/552gs.jpg","null","reveal","image-keyboard-response","549","1808683","0.0-6.0-4.77","2969609","co38692","norming","","","","","","",""
"null","../img/tt/552tt.jpg","null","mooney2","image-keyboard-response","550","1810686","0.0-6.0-5.77","2969609","co38692","norming","","","","","","",""
"2647","","","post_reveal_questions","survey-likert","551","1813335","0.0-6.0-6.77","2969609","co38692","norming","","","{""aha"":5}","[0]","../img/tt/552tt.jpg","",""
"null","<div style=""font-size:60px;""> </div>","null","fixation","html-keyboard-response","552","1813537","0.0-6.0-0.78","2969609","co38692","norming","","","","","","",""
"null","../img/tt/1101tt.jpg","null","mooney1","image-keyboard-response","553","1816540","0.0-6.0-1.78","2969609","co38692","norming","","","","","","",""
"3813","","","post_mooney1_questions","survey-likert","554","1820357","0.0-6.0-2.78","2969609","co38692","norming","","","{""curiosity"":5,""confidence"":5}","[0,1]","../img/tt/1101tt.jpg","",""
"3670","","","recognition","survey-text","555","1824033","0.0-6.0-3.78","2969609","co38692","norming","","","{""guess"":""sportman""}","","../img/tt/1101tt.jpg","",""
"null","../img/gs/1101gs.jpg","null","reveal","image-keyboard-response","556","1826035","0.0-6.0-4.78","2969609","co38692","norming","","","","","","",""
"null","../img/tt/1101tt.jpg","null","mooney2","image-keyboard-response","557","1828038","0.0-6.0-5.78","2969609","co38692","norming","","","","","","",""
"4604","","","post_reveal_questions","survey-likert","558","1832644","0.0-6.0-6.78","2969609","co38692","norming","","","{""aha"":3}","[0]","../img/tt/1101tt.jpg","",""
"null","<div style=""font-size:60px;""> </div>","null","fixation","html-keyboard-response","559","1832847","0.0-6.0-0.79","2969609","co38692","norming","","","","","","",""
"null","../img/tt/020tt.jpg","null","mooney1","image-keyboard-response","560","1835850","0.0-6.0-1.79","2969609","co38692","norming","","","","","","",""
"4323","","","post_mooney1_questions","survey-likert","561","1840175","0.0-6.0-2.79","2969609","co38692","norming","","","{""curiosity"":1,""confidence"":0}","[0,1]","../img/tt/020tt.jpg","",""
"1096","","","recognition","survey-text","562","1841277","0.0-6.0-3.79","2969609","co38692","norming","","","{""guess"":""""}","","../img/tt/020tt.jpg","",""
"null","../img/gs/020gs.jpg","null","reveal","image-keyboard-response","563","1843278","0.0-6.0-4.79","2969609","co38692","norming","","","","","","",""
"null","../img/tt/020tt.jpg","null","mooney2","image-keyboard-response","564","1845280","0.0-6.0-5.79","2969609","co38692","norming","","","","","","",""
"1990.0000000002328","","","post_reveal_questions","survey-likert","565","1847274","0.0-6.0-6.79","2969609","co38692","norming","","","{""aha"":3}","[0]","../img/tt/020tt.jpg","",""
