"rt","stimulus","key_press","test_part","trial_type","trial_index","time_elapsed","internal_node_id","totalTime","subject","experiment_name","button_pressed","success","responses","question_order","currentStim","old","correct"
"6642.674999999144","Welcome to the experiment. This is an online experiment so please don't close the tab/window until we say goodbye.  Press any key to begin.","13","instructions","html-keyboard-response","0","6682","0.0-0.0","3011055","co38938","norming","","","","","","",""
"45606.21000000174","<div style='word-wrap: break-word; width: 900px'><h3>Please consider this information carefully before deciding whether to participate in this research</h3><ul style='text-align: left; font-size: .8em;'><li><b>Purpose of the research</b>: To examine how people process images.</li><li><b>What you will do in this research</b>:  Stimuli (images) will be presented on the computer and you will be asked different questions about them.</li><li><b>Time required</b>: Participation will take between 45 and 60 minutes to complete.</li><li><b>Risks</b>:  There are no anticipated risks associated with participating in this study. The effects of participating should be comparable to those you would experience from viewing a computer monitor for 30 minutes and using a mouse or keyboard.</li><li><b>Benefits</b>:  This study provides no benefits to you individually except for the credit. The study provides important information about the nature of perception and learning.</li><li><b>Confidentiality</b>:  Your participation in this study will remain confidential. No personally identifiable information will be associated with your data. Your de-identified data may be shared with other researchers and used in future projects.</li><li><b>Participation and withdrawal</b>:  Your participation in this study is completely voluntary and you may refuse to participate or you may choose to withdraw at any time without penalty.</li><li><b>How to contact the researchers</b>: If you have questions or concerns about your participation or payment, or want to request a summary of research findings, please contact Sander Van de Cruys (KU Leuven), at sander.vandecruys@kuleuven.be.</li></ul><p>The nature and purpose of this research have been sufficiently explained and I agree to participate in this study.  I understand that I am free to withdraw at any time without incurring any penalty.</p><p>Please consent by clicking the button below to continue. Otherwise, please exit the study at this time.</p></div>","","instructions","html-button-response","1","52289","0.0-1.0","3011055","co38938","norming","0","","","","","",""
"","","","instructions","fullscreen","2","60236","0.0-2.0","3011055","co38938","norming","","true","","","","",""
"54794.38500000106","","","sona","survey-html-form","3","115025","0.0-3.0","3011055","co38938","norming","","","[{""name"":""sonaid"",""value"":""38938""},{""name"":""debrief"",""value"":""no""},{""name"":""datajoin"",""value"":""yes""}]","","","",""
"82378.81500000003","<div style='word-wrap: break-word; width: 900px'><h3>Instructions</h3><p>This experiment will have 3 parts. In the first part you will see a series of distorted images like the one below on the left. As you can see in the righthand image, the distorted images are derived from actual photographs. In what follows, you will <strong>briefly</strong> be presented with <strong>only</strong> the distorted image.</p> <div style='float: left; margin-right: 20px;'><img src='../img/018tt.jpg' height='250' width='250'></img></div><div style='float: right; margin-left: 20px;'><img src='../img/018gs.jpg' height='250' width='250'></img></div><p>Subsequently you will be asked a few questions about the image: One question on how <strong>curious</strong> you are about the solution and one on how <strong>confident</strong> you are that you know the solution.</p>Next, we ask you to make a guess on what is in the image. Note that it is OK to name just the <strong>basic level category</strong>. For example when you see a parrot in the image, 'parrot' will obviously be a correct answer but also correct is 'bird'. However, 'animal' will <strong>not</strong> be counted as a correct response. For the example above, 'rose' would be correct or 'flower', but not 'plant'. When soccer players are depicted, 'soccer', 'football', 'soccer players' will be correct, but not 'humans', 'outdoors', or 'sports'. You do not need to describe the image in full, just name the main object in it <strong>in one or two words</strong>. All images depict objects from one of the following broad level categories: animals, inanimate objects, plants, sports, vehicles, and food. Recognizing means knowing <strong>more</strong> than these broad labels for a given image. But we always encourage you to <strong>make a guess</strong> if you can. Note that you are allowed to use <strong>Dutch and English</strong> in your answers, whatever comes easiest for you.</p><p>Press any key to continue.</p></div>","13","instructions","html-keyboard-response","4","197417","0.0-4.0","3011055","co38938","norming","","","","","","",""
"42495.39999999979","<div style='word-wrap: break-word; width: 900px'><h3>Instructions</h3> <p>Next, the solution image will be revealed to you and you'll be asked to indicate how strong your <strong>aha-experience</strong> was after seeing the solution. This describes the positive feeling of the 'click' you sometimes experience, when the pieces of the 'puzzle' fall together and you suddenly have 'insight' in the image.</p><img src='aha.jpg' height='188' width='250'></img><p>Note that there are no right or wrong answers. We are interested in what <strong>you</strong> see in the image and how <strong>you</strong> feel about it.</p><p>Press any key to start the experiment.</p></div>","13","instructions","html-keyboard-response","5","239913","0.0-5.0","3011055","co38938","norming","","","","","","",""
"null","<div style=""font-size:60px;""> </div>","null","fixation","html-keyboard-response","6","240117","0.0-6.0-0.0","3011055","co38938","norming","","","","","","",""
"null","../img/tt/1283tt.jpg","null","mooney1","image-keyboard-response","7","243125","0.0-6.0-1.0","3011055","co38938","norming","","","","","","",""
"14856.784999999974","","","post_mooney1_questions","survey-likert","8","257985","0.0-6.0-2.0","3011055","co38938","norming","","","{""curiosity"":6,""confidence"":0}","[0,1]","../img/tt/1283tt.jpg","",""
"13765.599999998813","","","recognition","survey-text","9","271753","0.0-6.0-3.0","3011055","co38938","norming","","","{""guess"":""""}","","../img/tt/1283tt.jpg","",""
"null","../img/gs/1283gs.jpg","null","reveal","image-keyboard-response","10","273755","0.0-6.0-4.0","3011055","co38938","norming","","","","","","",""
"null","../img/tt/1283tt.jpg","null","mooney2","image-keyboard-response","11","275766","0.0-6.0-5.0","3011055","co38938","norming","","","","","","",""
"8328.029999996943","","","post_reveal_questions","survey-likert","12","284096","0.0-6.0-6.0","3011055","co38938","norming","","","{""aha"":4}","[0]","../img/tt/1283tt.jpg","",""
"null","<div style=""font-size:60px;""> </div>","null","fixation","html-keyboard-response","13","284300","0.0-6.0-0.1","3011055","co38938","norming","","","","","","",""
"null","../img/tt/010tt.jpg","null","mooney1","image-keyboard-response","14","287303","0.0-6.0-1.1","3011055","co38938","norming","","","","","","",""
"5872.149999999267","","","post_mooney1_questions","survey-likert","15","293177","0.0-6.0-2.1","3011055","co38938","norming","","","{""curiosity"":5,""confidence"":0}","[0,1]","../img/tt/010tt.jpg","",""
"9494.064999998955","","","recognition","survey-text","16","302672","0.0-6.0-3.1","3011055","co38938","norming","","","{""guess"":""vis""}","","../img/tt/010tt.jpg","",""
"null","../img/gs/010gs.jpg","null","reveal","image-keyboard-response","17","304677","0.0-6.0-4.1","3011055","co38938","norming","","","","","","",""
"null","../img/tt/010tt.jpg","null","mooney2","image-keyboard-response","18","306681","0.0-6.0-5.1","3011055","co38938","norming","","","","","","",""
"3319.0600000015693","","","post_reveal_questions","survey-likert","19","310001","0.0-6.0-6.1","3011055","co38938","norming","","","{""aha"":5}","[0]","../img/tt/010tt.jpg","",""
"null","<div style=""font-size:60px;""> </div>","null","fixation","html-keyboard-response","20","310202","0.0-6.0-0.2","3011055","co38938","norming","","","","","","",""
"null","../img/tt/1130tt.jpg","null","mooney1","image-keyboard-response","21","313208","0.0-6.0-1.2","3011055","co38938","norming","","","","","","",""
"7926.015000000887","","","post_mooney1_questions","survey-likert","22","321131","0.0-6.0-2.2","3011055","co38938","norming","","","{""curiosity"":4,""confidence"":2}","[0,1]","../img/tt/1130tt.jpg","",""
"10909.910000002128","","","recognition","survey-text","23","332042","0.0-6.0-3.2","3011055","co38938","norming","","","{""guess"":""een fietser""}","","../img/tt/1130tt.jpg","",""
"null","../img/gs/1130gs.jpg","null","reveal","image-keyboard-response","24","334049","0.0-6.0-4.2","3011055","co38938","norming","","","","","","",""
"null","../img/tt/1130tt.jpg","null","mooney2","image-keyboard-response","25","336052","0.0-6.0-5.2","3011055","co38938","norming","","","","","","",""
"2645.4199999971315","","","post_reveal_questions","survey-likert","26","338699","0.0-6.0-6.2","3011055","co38938","norming","","","{""aha"":0}","[0]","../img/tt/1130tt.jpg","",""
"null","<div style=""font-size:60px;""> </div>","null","fixation","html-keyboard-response","27","338908","0.0-6.0-0.3","3011055","co38938","norming","","","","","","",""
"null","../img/tt/140tt.jpg","null","mooney1","image-keyboard-response","28","341911","0.0-6.0-1.3","3011055","co38938","norming","","","","","","",""
"4649.235000000743","","","post_mooney1_questions","survey-likert","29","346563","0.0-6.0-2.3","3011055","co38938","norming","","","{""curiosity"":3,""confidence"":4}","[0,1]","../img/tt/140tt.jpg","",""
"7118.070000000473","","","recognition","survey-text","30","353683","0.0-6.0-3.3","3011055","co38938","norming","","","{""guess"":""2 vorken""}","","../img/tt/140tt.jpg","",""
"null","../img/gs/140gs.jpg","null","reveal","image-keyboard-response","31","355689","0.0-6.0-4.3","3011055","co38938","norming","","","","","","",""
"null","../img/tt/140tt.jpg","null","mooney2","image-keyboard-response","32","357696","0.0-6.0-5.3","3011055","co38938","norming","","","","","","",""
"2656.5599999994156","","","post_reveal_questions","survey-likert","33","360355","0.0-6.0-6.3","3011055","co38938","norming","","","{""aha"":0}","[0]","../img/tt/140tt.jpg","",""
"null","<div style=""font-size:60px;""> </div>","null","fixation","html-keyboard-response","34","360562","0.0-6.0-0.4","3011055","co38938","norming","","","","","","",""
"null","../img/tt/084tt.jpg","null","mooney1","image-keyboard-response","35","363572","0.0-6.0-1.4","3011055","co38938","norming","","","","","","",""
"4020.475000001199","","","post_mooney1_questions","survey-likert","36","367595","0.0-6.0-2.4","3011055","co38938","norming","","","{""curiosity"":2,""confidence"":3}","[0,1]","../img/tt/084tt.jpg","",""
"4574.334999997518","","","recognition","survey-text","37","372171","0.0-6.0-3.4","3011055","co38938","norming","","","{""guess"":""duif""}","","../img/tt/084tt.jpg","",""
"null","../img/gs/084gs.jpg","null","reveal","image-keyboard-response","38","374178","0.0-6.0-4.4","3011055","co38938","norming","","","","","","",""
"null","../img/tt/084tt.jpg","null","mooney2","image-keyboard-response","39","376181","0.0-6.0-5.4","3011055","co38938","norming","","","","","","",""
"3420.154999999795","","","post_reveal_questions","survey-likert","40","379609","0.0-6.0-6.4","3011055","co38938","norming","","","{""aha"":5}","[0]","../img/tt/084tt.jpg","",""
"null","<div style=""font-size:60px;""> </div>","null","fixation","html-keyboard-response","41","379810","0.0-6.0-0.5","3011055","co38938","norming","","","","","","",""
"null","../img/tt/060tt.jpg","null","mooney1","image-keyboard-response","42","382821","0.0-6.0-1.5","3011055","co38938","norming","","","","","","",""
"3985.5199999983306","","","post_mooney1_questions","survey-likert","43","386809","0.0-6.0-2.5","3011055","co38938","norming","","","{""curiosity"":6,""confidence"":0}","[0,1]","../img/tt/060tt.jpg","",""
"6062.194999998552","","","recognition","survey-text","44","392873","0.0-6.0-3.5","3011055","co38938","norming","","","{""guess"":""broodrooster""}","","../img/tt/060tt.jpg","",""
"null","../img/gs/060gs.jpg","null","reveal","image-keyboard-response","45","394874","0.0-6.0-4.5","3011055","co38938","norming","","","","","","",""
"null","../img/tt/060tt.jpg","null","mooney2","image-keyboard-response","46","396880","0.0-6.0-5.5","3011055","co38938","norming","","","","","","",""
"2272.3750000004657","","","post_reveal_questions","survey-likert","47","399153","0.0-6.0-6.5","3011055","co38938","norming","","","{""aha"":6}","[0]","../img/tt/060tt.jpg","",""
"null","<div style=""font-size:60px;""> </div>","null","fixation","html-keyboard-response","48","399356","0.0-6.0-0.6","3011055","co38938","norming","","","","","","",""
"null","../img/tt/1353tt.jpg","null","mooney1","image-keyboard-response","49","402367","0.0-6.0-1.6","3011055","co38938","norming","","","","","","",""
"4471.555000000109","","","post_mooney1_questions","survey-likert","50","406841","0.0-6.0-2.6","3011055","co38938","norming","","","{""curiosity"":6,""confidence"":0}","[0,1]","../img/tt/1353tt.jpg","",""
"6382.149999997695","","","recognition","survey-text","51","413225","0.0-6.0-3.6","3011055","co38938","norming","","","{""guess"":""""}","","../img/tt/1353tt.jpg","",""
"null","../img/gs/1353gs.jpg","null","reveal","image-keyboard-response","52","415231","0.0-6.0-4.6","3011055","co38938","norming","","","","","","",""
"null","../img/tt/1353tt.jpg","null","mooney2","image-keyboard-response","53","417239","0.0-6.0-5.6","3011055","co38938","norming","","","","","","",""
"3983.759999999136","","","post_reveal_questions","survey-likert","54","421225","0.0-6.0-6.6","3011055","co38938","norming","","","{""aha"":4}","[0]","../img/tt/1353tt.jpg","",""
"null","<div style=""font-size:60px;""> </div>","null","fixation","html-keyboard-response","55","421435","0.0-6.0-0.7","3011055","co38938","norming","","","","","","",""
"null","../img/tt/1069tt.jpg","null","mooney1","image-keyboard-response","56","424445","0.0-6.0-1.7","3011055","co38938","norming","","","","","","",""
"4913.340000002761","","","post_mooney1_questions","survey-likert","57","429361","0.0-6.0-2.7","3011055","co38938","norming","","","{""curiosity"":6,""confidence"":0}","[0,1]","../img/tt/1069tt.jpg","",""
"8126.140000000363","","","recognition","survey-text","58","437489","0.0-6.0-3.7","3011055","co38938","norming","","","{""guess"":""bos""}","","../img/tt/1069tt.jpg","",""
"null","../img/gs/1069gs.jpg","null","reveal","image-keyboard-response","59","439496","0.0-6.0-4.7","3011055","co38938","norming","","","","","","",""
"null","../img/tt/1069tt.jpg","null","mooney2","image-keyboard-response","60","441498","0.0-6.0-5.7","3011055","co38938","norming","","","","","","",""
"3456.1050000011455","","","post_reveal_questions","survey-likert","61","444956","0.0-6.0-6.7","3011055","co38938","norming","","","{""aha"":5}","[0]","../img/tt/1069tt.jpg","",""
"null","<div style=""font-size:60px;""> </div>","null","fixation","html-keyboard-response","62","445166","0.0-6.0-0.8","3011055","co38938","norming","","","","","","",""
"null","../img/tt/1255tt.jpg","null","mooney1","image-keyboard-response","63","448176","0.0-6.0-1.8","3011055","co38938","norming","","","","","","",""
"4226.94000000041","","","post_mooney1_questions","survey-likert","64","452404","0.0-6.0-2.8","3011055","co38938","norming","","","{""curiosity"":5,""confidence"":1}","[0,1]","../img/tt/1255tt.jpg","",""
"4662.045000000973","","","recognition","survey-text","65","457068","0.0-6.0-3.8","3011055","co38938","norming","","","{""guess"":""konijn""}","","../img/tt/1255tt.jpg","",""
"null","../img/gs/1255gs.jpg","null","reveal","image-keyboard-response","66","459073","0.0-6.0-4.8","3011055","co38938","norming","","","","","","",""
"null","../img/tt/1255tt.jpg","null","mooney2","image-keyboard-response","67","461076","0.0-6.0-5.8","3011055","co38938","norming","","","","","","",""
"3326.1249999995343","","","post_reveal_questions","survey-likert","68","464404","0.0-6.0-6.8","3011055","co38938","norming","","","{""aha"":4}","[0]","../img/tt/1255tt.jpg","",""
"null","<div style=""font-size:60px;""> </div>","null","fixation","html-keyboard-response","69","464607","0.0-6.0-0.9","3011055","co38938","norming","","","","","","",""
"null","../img/tt/1146tt.jpg","null","mooney1","image-keyboard-response","70","467613","0.0-6.0-1.9","3011055","co38938","norming","","","","","","",""
"4268.349999998463","","","post_mooney1_questions","survey-likert","71","471884","0.0-6.0-2.9","3011055","co38938","norming","","","{""curiosity"":6,""confidence"":0}","[0,1]","../img/tt/1146tt.jpg","",""
"13613.910000000033","","","recognition","survey-text","72","485500","0.0-6.0-3.9","3011055","co38938","norming","","","{""guess"":""""}","","../img/tt/1146tt.jpg","",""
"null","../img/gs/1146gs.jpg","null","reveal","image-keyboard-response","73","487510","0.0-6.0-4.9","3011055","co38938","norming","","","","","","",""
"null","../img/tt/1146tt.jpg","null","mooney2","image-keyboard-response","74","489521","0.0-6.0-5.9","3011055","co38938","norming","","","","","","",""
"2617.1350000004168","","","post_reveal_questions","survey-likert","75","492140","0.0-6.0-6.9","3011055","co38938","norming","","","{""aha"":5}","[0]","../img/tt/1146tt.jpg","",""
"null","<div style=""font-size:60px;""> </div>","null","fixation","html-keyboard-response","76","492350","0.0-6.0-0.10","3011055","co38938","norming","","","","","","",""
"null","../img/tt/098tt.jpg","null","mooney1","image-keyboard-response","77","495355","0.0-6.0-1.10","3011055","co38938","norming","","","","","","",""
"5927.059999998135","","","post_mooney1_questions","survey-likert","78","501284","0.0-6.0-2.10","3011055","co38938","norming","","","{""curiosity"":6,""confidence"":0}","[0,1]","../img/tt/098tt.jpg","",""
"2101.839999999327","","","recognition","survey-text","79","503388","0.0-6.0-3.10","3011055","co38938","norming","","","{""guess"":""""}","","../img/tt/098tt.jpg","",""
"null","../img/gs/098gs.jpg","null","reveal","image-keyboard-response","80","505395","0.0-6.0-4.10","3011055","co38938","norming","","","","","","",""
"null","../img/tt/098tt.jpg","null","mooney2","image-keyboard-response","81","507400","0.0-6.0-5.10","3011055","co38938","norming","","","","","","",""
"2426.585000001127","","","post_reveal_questions","survey-likert","82","509828","0.0-6.0-6.10","3011055","co38938","norming","","","{""aha"":5}","[0]","../img/tt/098tt.jpg","",""
"null","<div style=""font-size:60px;""> </div>","null","fixation","html-keyboard-response","83","510034","0.0-6.0-0.11","3011055","co38938","norming","","","","","","",""
"null","../img/tt/357tt.jpg","null","mooney1","image-keyboard-response","84","513041","0.0-6.0-1.11","3011055","co38938","norming","","","","","","",""
"5704.529999999038","","","post_mooney1_questions","survey-likert","85","518748","0.0-6.0-2.11","3011055","co38938","norming","","","{""curiosity"":6,""confidence"":0}","[0,1]","../img/tt/357tt.jpg","",""
"12533.995000001625","","","recognition","survey-text","86","531284","0.0-6.0-3.11","3011055","co38938","norming","","","{""guess"":""tak""}","","../img/tt/357tt.jpg","",""
"null","../img/gs/357gs.jpg","null","reveal","image-keyboard-response","87","533293","0.0-6.0-4.11","3011055","co38938","norming","","","","","","",""
"null","../img/tt/357tt.jpg","null","mooney2","image-keyboard-response","88","535295","0.0-6.0-5.11","3011055","co38938","norming","","","","","","",""
"2474.640000000363","","","post_reveal_questions","survey-likert","89","537772","0.0-6.0-6.11","3011055","co38938","norming","","","{""aha"":4}","[0]","../img/tt/357tt.jpg","",""
"null","<div style=""font-size:60px;""> </div>","null","fixation","html-keyboard-response","90","537978","0.0-6.0-0.12","3011055","co38938","norming","","","","","","",""
"null","../img/tt/319tt.jpg","null","mooney1","image-keyboard-response","91","540988","0.0-6.0-1.12","3011055","co38938","norming","","","","","","",""
"10213.224999999511","","","post_mooney1_questions","survey-likert","92","551204","0.0-6.0-2.12","3011055","co38938","norming","","","{""curiosity"":3,""confidence"":4}","[0,1]","../img/tt/319tt.jpg","",""
"3966.114999999292","","","recognition","survey-text","93","555172","0.0-6.0-3.12","3011055","co38938","norming","","","{""guess"":""2 ezels""}","","../img/tt/319tt.jpg","",""
"null","../img/gs/319gs.jpg","null","reveal","image-keyboard-response","94","557182","0.0-6.0-4.12","3011055","co38938","norming","","","","","","",""
"null","../img/tt/319tt.jpg","null","mooney2","image-keyboard-response","95","559184","0.0-6.0-5.12","3011055","co38938","norming","","","","","","",""
"2929.519999997923","","","post_reveal_questions","survey-likert","96","562118","0.0-6.0-6.12","3011055","co38938","norming","","","{""aha"":1}","[0]","../img/tt/319tt.jpg","",""
"null","<div style=""font-size:60px;""> </div>","null","fixation","html-keyboard-response","97","562319","0.0-6.0-0.13","3011055","co38938","norming","","","","","","",""
"null","../img/tt/1101tt.jpg","null","mooney1","image-keyboard-response","98","565326","0.0-6.0-1.13","3011055","co38938","norming","","","","","","",""
"5052.995000001858","","","post_mooney1_questions","survey-likert","99","570382","0.0-6.0-2.13","3011055","co38938","norming","","","{""curiosity"":4,""confidence"":2}","[0,1]","../img/tt/1101tt.jpg","",""
"3581.5699999984354","","","recognition","survey-text","100","573966","0.0-6.0-3.13","3011055","co38938","norming","","","{""guess"":""een man""}","","../img/tt/1101tt.jpg","",""
"null","../img/gs/1101gs.jpg","null","reveal","image-keyboard-response","101","575967","0.0-6.0-4.13","3011055","co38938","norming","","","","","","",""
"null","../img/tt/1101tt.jpg","null","mooney2","image-keyboard-response","102","577971","0.0-6.0-5.13","3011055","co38938","norming","","","","","","",""
"2946.2649999987334","","","post_reveal_questions","survey-likert","103","580918","0.0-6.0-6.13","3011055","co38938","norming","","","{""aha"":5}","[0]","../img/tt/1101tt.jpg","",""
"null","<div style=""font-size:60px;""> </div>","null","fixation","html-keyboard-response","104","581125","0.0-6.0-0.14","3011055","co38938","norming","","","","","","",""
"null","../img/tt/056tt.jpg","null","mooney1","image-keyboard-response","105","584134","0.0-6.0-1.14","3011055","co38938","norming","","","","","","",""
"4807.609999999753","","","post_mooney1_questions","survey-likert","106","588943","0.0-6.0-2.14","3011055","co38938","norming","","","{""curiosity"":5,""confidence"":1}","[0,1]","../img/tt/056tt.jpg","",""
"2046.214999998454","","","recognition","survey-text","107","590990","0.0-6.0-3.14","3011055","co38938","norming","","","{""guess"":""wolf""}","","../img/tt/056tt.jpg","",""
"null","../img/gs/056gs.jpg","null","reveal","image-keyboard-response","108","592997","0.0-6.0-4.14","3011055","co38938","norming","","","","","","",""
"null","../img/tt/056tt.jpg","null","mooney2","image-keyboard-response","109","595003","0.0-6.0-5.14","3011055","co38938","norming","","","","","","",""
"1961.1299999996554","","","post_reveal_questions","survey-likert","110","596966","0.0-6.0-6.14","3011055","co38938","norming","","","{""aha"":5}","[0]","../img/tt/056tt.jpg","",""
"null","<div style=""font-size:60px;""> </div>","null","fixation","html-keyboard-response","111","597173","0.0-6.0-0.15","3011055","co38938","norming","","","","","","",""
"null","../img/tt/126tt.jpg","null","mooney1","image-keyboard-response","112","600177","0.0-6.0-1.15","3011055","co38938","norming","","","","","","",""
"4164.5950000020675","","","post_mooney1_questions","survey-likert","113","604342","0.0-6.0-2.15","3011055","co38938","norming","","","{""curiosity"":6,""confidence"":0}","[0,1]","../img/tt/126tt.jpg","",""
"3510.155000000028","","","recognition","survey-text","114","607854","0.0-6.0-3.15","3011055","co38938","norming","","","{""guess"":""""}","","../img/tt/126tt.jpg","",""
"null","../img/gs/126gs.jpg","null","reveal","image-keyboard-response","115","609865","0.0-6.0-4.15","3011055","co38938","norming","","","","","","",""
"null","../img/tt/126tt.jpg","null","mooney2","image-keyboard-response","116","611867","0.0-6.0-5.15","3011055","co38938","norming","","","","","","",""
"2841.6899999974994","","","post_reveal_questions","survey-likert","117","614710","0.0-6.0-6.15","3011055","co38938","norming","","","{""aha"":6}","[0]","../img/tt/126tt.jpg","",""
"null","<div style=""font-size:60px;""> </div>","null","fixation","html-keyboard-response","118","614921","0.0-6.0-0.16","3011055","co38938","norming","","","","","","",""
"null","../img/tt/329tt.jpg","null","mooney1","image-keyboard-response","119","617926","0.0-6.0-1.16","3011055","co38938","norming","","","","","","",""
"5268.155000001658","","","post_mooney1_questions","survey-likert","120","623198","0.0-6.0-2.16","3011055","co38938","norming","","","{""curiosity"":6,""confidence"":0}","[0,1]","../img/tt/329tt.jpg","",""
"3302.400000000489","","","recognition","survey-text","121","626502","0.0-6.0-3.16","3011055","co38938","norming","","","{""guess"":""""}","","../img/tt/329tt.jpg","",""
"null","../img/gs/329gs.jpg","null","reveal","image-keyboard-response","122","628509","0.0-6.0-4.16","3011055","co38938","norming","","","","","","",""
"null","../img/tt/329tt.jpg","null","mooney2","image-keyboard-response","123","630519","0.0-6.0-5.16","3011055","co38938","norming","","","","","","",""
"2556.829999997746","","","post_reveal_questions","survey-likert","124","633078","0.0-6.0-6.16","3011055","co38938","norming","","","{""aha"":4}","[0]","../img/tt/329tt.jpg","",""
"null","<div style=""font-size:60px;""> </div>","null","fixation","html-keyboard-response","125","633285","0.0-6.0-0.17","3011055","co38938","norming","","","","","","",""
"null","../img/tt/549tt.jpg","null","mooney1","image-keyboard-response","126","636295","0.0-6.0-1.17","3011055","co38938","norming","","","","","","",""
"5084.555000001332","","","post_mooney1_questions","survey-likert","127","641382","0.0-6.0-2.17","3011055","co38938","norming","","","{""curiosity"":5,""confidence"":0}","[0,1]","../img/tt/549tt.jpg","",""
"5438.190000000759","","","recognition","survey-text","128","646822","0.0-6.0-3.17","3011055","co38938","norming","","","{""guess"":""spin""}","","../img/tt/549tt.jpg","",""
"null","../img/gs/549gs.jpg","null","reveal","image-keyboard-response","129","648827","0.0-6.0-4.17","3011055","co38938","norming","","","","","","",""
"null","../img/tt/549tt.jpg","null","mooney2","image-keyboard-response","130","650829","0.0-6.0-5.17","3011055","co38938","norming","","","","","","",""
"2214.5500000006286","","","post_reveal_questions","survey-likert","131","653046","0.0-6.0-6.17","3011055","co38938","norming","","","{""aha"":4}","[0]","../img/tt/549tt.jpg","",""
"null","<div style=""font-size:60px;""> </div>","null","fixation","html-keyboard-response","132","653249","0.0-6.0-0.18","3011055","co38938","norming","","","","","","",""
"null","../img/tt/1228tt.jpg","null","mooney1","image-keyboard-response","133","656258","0.0-6.0-1.18","3011055","co38938","norming","","","","","","",""
"4753.605000001728","","","post_mooney1_questions","survey-likert","134","661014","0.0-6.0-2.18","3011055","co38938","norming","","","{""curiosity"":5,""confidence"":1}","[0,1]","../img/tt/1228tt.jpg","",""
"5734.254999999423","","","recognition","survey-text","135","666750","0.0-6.0-3.18","3011055","co38938","norming","","","{""guess"":""vogel""}","","../img/tt/1228tt.jpg","",""
"null","../img/gs/1228gs.jpg","null","reveal","image-keyboard-response","136","668754","0.0-6.0-4.18","3011055","co38938","norming","","","","","","",""
"null","../img/tt/1228tt.jpg","null","mooney2","image-keyboard-response","137","670758","0.0-6.0-5.18","3011055","co38938","norming","","","","","","",""
"1917.6800000023795","","","post_reveal_questions","survey-likert","138","672678","0.0-6.0-6.18","3011055","co38938","norming","","","{""aha"":4}","[0]","../img/tt/1228tt.jpg","",""
"null","<div style=""font-size:60px;""> </div>","null","fixation","html-keyboard-response","139","672884","0.0-6.0-0.19","3011055","co38938","norming","","","","","","",""
"null","../img/tt/1142tt.jpg","null","mooney1","image-keyboard-response","140","675896","0.0-6.0-1.19","3011055","co38938","norming","","","","","","",""
"5828.050000000047","","","post_mooney1_questions","survey-likert","141","681726","0.0-6.0-2.19","3011055","co38938","norming","","","{""curiosity"":5,""confidence"":0}","[0,1]","../img/tt/1142tt.jpg","",""
"5621.820000000298","","","recognition","survey-text","142","687344","0.0-6.0-3.19","3011055","co38938","norming","","","{""guess"":""vrouw""}","","../img/tt/1142tt.jpg","",""
"null","../img/gs/1142gs.jpg","null","reveal","image-keyboard-response","143","689352","0.0-6.0-4.19","3011055","co38938","norming","","","","","","",""
"null","../img/tt/1142tt.jpg","null","mooney2","image-keyboard-response","144","691356","0.0-6.0-5.19","3011055","co38938","norming","","","","","","",""
"6057.985000003013","","","post_reveal_questions","survey-likert","145","697416","0.0-6.0-6.19","3011055","co38938","norming","","","{""aha"":3}","[0]","../img/tt/1142tt.jpg","",""
"null","<div style=""font-size:60px;""> </div>","null","fixation","html-keyboard-response","146","697620","0.0-6.0-0.20","3011055","co38938","norming","","","","","","",""
"null","../img/tt/1049tt.jpg","null","mooney1","image-keyboard-response","147","700624","0.0-6.0-1.20","3011055","co38938","norming","","","","","","",""
"4405.634999999194","","","post_mooney1_questions","survey-likert","148","705032","0.0-6.0-2.20","3011055","co38938","norming","","","{""curiosity"":5,""confidence"":0}","[0,1]","../img/tt/1049tt.jpg","",""
"6062.119999998715","","","recognition","survey-text","149","711096","0.0-6.0-3.20","3011055","co38938","norming","","","{""guess"":""schaap""}","","../img/tt/1049tt.jpg","",""
"null","../img/gs/1049gs.jpg","null","reveal","image-keyboard-response","150","713098","0.0-6.0-4.20","3011055","co38938","norming","","","","","","",""
"null","../img/tt/1049tt.jpg","null","mooney2","image-keyboard-response","151","715100","0.0-6.0-5.20","3011055","co38938","norming","","","","","","",""
"2410.084999999497","","","post_reveal_questions","survey-likert","152","717512","0.0-6.0-6.20","3011055","co38938","norming","","","{""aha"":3}","[0]","../img/tt/1049tt.jpg","",""
"null","<div style=""font-size:60px;""> </div>","null","fixation","html-keyboard-response","153","717718","0.0-6.0-0.21","3011055","co38938","norming","","","","","","",""
"null","../img/tt/1196tt.jpg","null","mooney1","image-keyboard-response","154","720724","0.0-6.0-1.21","3011055","co38938","norming","","","","","","",""
"4889.7050000014715","","","post_mooney1_questions","survey-likert","155","725616","0.0-6.0-2.21","3011055","co38938","norming","","","{""curiosity"":6,""confidence"":0}","[0,1]","../img/tt/1196tt.jpg","",""
"7109.844999999041","","","recognition","survey-text","156","732728","0.0-6.0-3.21","3011055","co38938","norming","","","{""guess"":""2 mannen""}","","../img/tt/1196tt.jpg","",""
"null","../img/gs/1196gs.jpg","null","reveal","image-keyboard-response","157","734730","0.0-6.0-4.21","3011055","co38938","norming","","","","","","",""
"null","../img/tt/1196tt.jpg","null","mooney2","image-keyboard-response","158","736731","0.0-6.0-5.21","3011055","co38938","norming","","","","","","",""
"2691.030000001774","","","post_reveal_questions","survey-likert","159","739424","0.0-6.0-6.21","3011055","co38938","norming","","","{""aha"":4}","[0]","../img/tt/1196tt.jpg","",""
"null","<div style=""font-size:60px;""> </div>","null","fixation","html-keyboard-response","160","739627","0.0-6.0-0.22","3011055","co38938","norming","","","","","","",""
"null","../img/tt/279tt.jpg","null","mooney1","image-keyboard-response","161","742638","0.0-6.0-1.22","3011055","co38938","norming","","","","","","",""
"5119.204999999143","","","post_mooney1_questions","survey-likert","162","747762","0.0-6.0-2.22","3011055","co38938","norming","","","{""curiosity"":3,""confidence"":5}","[0,1]","../img/tt/279tt.jpg","",""
"3734.215000000433","","","recognition","survey-text","163","751498","0.0-6.0-3.22","3011055","co38938","norming","","","{""guess"":""koala""}","","../img/tt/279tt.jpg","",""
"null","../img/gs/279gs.jpg","null","reveal","image-keyboard-response","164","753506","0.0-6.0-4.22","3011055","co38938","norming","","","","","","",""
"null","../img/tt/279tt.jpg","null","mooney2","image-keyboard-response","165","755514","0.0-6.0-5.22","3011055","co38938","norming","","","","","","",""
"2757.659999999334","","","post_reveal_questions","survey-likert","166","758274","0.0-6.0-6.22","3011055","co38938","norming","","","{""aha"":0}","[0]","../img/tt/279tt.jpg","",""
"null","<div style=""font-size:60px;""> </div>","null","fixation","html-keyboard-response","167","758482","0.0-6.0-0.23","3011055","co38938","norming","","","","","","",""
"null","../img/tt/1181tt.jpg","null","mooney1","image-keyboard-response","168","761493","0.0-6.0-1.23","3011055","co38938","norming","","","","","","",""
"4026.3400000003166","","","post_mooney1_questions","survey-likert","169","765522","0.0-6.0-2.23","3011055","co38938","norming","","","{""curiosity"":5,""confidence"":1}","[0,1]","../img/tt/1181tt.jpg","",""
"8326.02499999851","","","recognition","survey-text","170","773850","0.0-6.0-3.23","3011055","co38938","norming","","","{""guess"":""man met pet""}","","../img/tt/1181tt.jpg","",""
"null","../img/gs/1181gs.jpg","null","reveal","image-keyboard-response","171","775855","0.0-6.0-4.23","3011055","co38938","norming","","","","","","",""
"null","../img/tt/1181tt.jpg","null","mooney2","image-keyboard-response","172","777861","0.0-6.0-5.23","3011055","co38938","norming","","","","","","",""
"3858.8899999995483","","","post_reveal_questions","survey-likert","173","781722","0.0-6.0-6.23","3011055","co38938","norming","","","{""aha"":4}","[0]","../img/tt/1181tt.jpg","",""
"null","<div style=""font-size:60px;""> </div>","null","fixation","html-keyboard-response","174","781930","0.0-6.0-0.24","3011055","co38938","norming","","","","","","",""
"null","../img/tt/1044tt.jpg","null","mooney1","image-keyboard-response","175","784938","0.0-6.0-1.24","3011055","co38938","norming","","","","","","",""
"3556.925000000745","","","post_mooney1_questions","survey-likert","176","788498","0.0-6.0-2.24","3011055","co38938","norming","","","{""curiosity"":6,""confidence"":0}","[0,1]","../img/tt/1044tt.jpg","",""
"3758.2949999995762","","","recognition","survey-text","177","792258","0.0-6.0-3.24","3011055","co38938","norming","","","{""guess"":""""}","","../img/tt/1044tt.jpg","",""
"null","../img/gs/1044gs.jpg","null","reveal","image-keyboard-response","178","794260","0.0-6.0-4.24","3011055","co38938","norming","","","","","","",""
"null","../img/tt/1044tt.jpg","null","mooney2","image-keyboard-response","179","796270","0.0-6.0-5.24","3011055","co38938","norming","","","","","","",""
"2537.845000002533","","","post_reveal_questions","survey-likert","180","798810","0.0-6.0-6.24","3011055","co38938","norming","","","{""aha"":4}","[0]","../img/tt/1044tt.jpg","",""
"null","<div style=""font-size:60px;""> </div>","null","fixation","html-keyboard-response","181","799018","0.0-6.0-0.25","3011055","co38938","norming","","","","","","",""
"null","../img/tt/1275tt.jpg","null","mooney1","image-keyboard-response","182","802026","0.0-6.0-1.25","3011055","co38938","norming","","","","","","",""
"4157.64499999932","","","post_mooney1_questions","survey-likert","183","806189","0.0-6.0-2.25","3011055","co38938","norming","","","{""curiosity"":4,""confidence"":3}","[0,1]","../img/tt/1275tt.jpg","",""
"6126.199999998789","","","recognition","survey-text","184","812317","0.0-6.0-3.25","3011055","co38938","norming","","","{""guess"":""varken""}","","../img/tt/1275tt.jpg","",""
"null","../img/gs/1275gs.jpg","null","reveal","image-keyboard-response","185","814322","0.0-6.0-4.25","3011055","co38938","norming","","","","","","",""
"null","../img/tt/1275tt.jpg","null","mooney2","image-keyboard-response","186","816323","0.0-6.0-5.25","3011055","co38938","norming","","","","","","",""
"2255.685000000056","","","post_reveal_questions","survey-likert","187","818581","0.0-6.0-6.25","3011055","co38938","norming","","","{""aha"":4}","[0]","../img/tt/1275tt.jpg","",""
"null","<div style=""font-size:60px;""> </div>","null","fixation","html-keyboard-response","188","818785","0.0-6.0-0.26","3011055","co38938","norming","","","","","","",""
"null","../img/tt/300tt.jpg","null","mooney1","image-keyboard-response","189","821796","0.0-6.0-1.26","3011055","co38938","norming","","","","","","",""
"4358.570000000414","","","post_mooney1_questions","survey-likert","190","826157","0.0-6.0-2.26","3011055","co38938","norming","","","{""curiosity"":5,""confidence"":1}","[0,1]","../img/tt/300tt.jpg","",""
"5622.025000000605","","","recognition","survey-text","191","831781","0.0-6.0-3.26","3011055","co38938","norming","","","{""guess"":""zittende man""}","","../img/tt/300tt.jpg","",""
"null","../img/gs/300gs.jpg","null","reveal","image-keyboard-response","192","833784","0.0-6.0-4.26","3011055","co38938","norming","","","","","","",""
"null","../img/tt/300tt.jpg","null","mooney2","image-keyboard-response","193","835788","0.0-6.0-5.26","3011055","co38938","norming","","","","","","",""
"2206.915000002482","","","post_reveal_questions","survey-likert","194","837997","0.0-6.0-6.26","3011055","co38938","norming","","","{""aha"":4}","[0]","../img/tt/300tt.jpg","",""
"null","<div style=""font-size:60px;""> </div>","null","fixation","html-keyboard-response","195","838204","0.0-6.0-0.27","3011055","co38938","norming","","","","","","",""
"null","../img/tt/1125tt.jpg","null","mooney1","image-keyboard-response","196","841207","0.0-6.0-1.27","3011055","co38938","norming","","","","","","",""
"4693.664999998873","","","post_mooney1_questions","survey-likert","197","845901","0.0-6.0-2.27","3011055","co38938","norming","","","{""curiosity"":6,""confidence"":0}","[0,1]","../img/tt/1125tt.jpg","",""
"4366.060000000289","","","recognition","survey-text","198","850269","0.0-6.0-3.27","3011055","co38938","norming","","","{""guess"":""""}","","../img/tt/1125tt.jpg","",""
"null","../img/gs/1125gs.jpg","null","reveal","image-keyboard-response","199","852275","0.0-6.0-4.27","3011055","co38938","norming","","","","","","",""
"null","../img/tt/1125tt.jpg","null","mooney2","image-keyboard-response","200","854285","0.0-6.0-5.27","3011055","co38938","norming","","","","","","",""
"3365.7400000010384","","","post_reveal_questions","survey-likert","201","857653","0.0-6.0-6.27","3011055","co38938","norming","","","{""aha"":5}","[0]","../img/tt/1125tt.jpg","",""
"null","<div style=""font-size:60px;""> </div>","null","fixation","html-keyboard-response","202","857857","0.0-6.0-0.28","3011055","co38938","norming","","","","","","",""
"null","../img/tt/1272tt.jpg","null","mooney1","image-keyboard-response","203","860869","0.0-6.0-1.28","3011055","co38938","norming","","","","","","",""
"4237.589999996941","","","post_mooney1_questions","survey-likert","204","865110","0.0-6.0-2.28","3011055","co38938","norming","","","{""curiosity"":5,""confidence"":1}","[0,1]","../img/tt/1272tt.jpg","",""
"3141.8749999975553","","","recognition","survey-text","205","868248","0.0-6.0-3.28","3011055","co38938","norming","","","{""guess"":""varken""}","","../img/tt/1272tt.jpg","",""
"null","../img/gs/1272gs.jpg","null","reveal","image-keyboard-response","206","870250","0.0-6.0-4.28","3011055","co38938","norming","","","","","","",""
"null","../img/tt/1272tt.jpg","null","mooney2","image-keyboard-response","207","872253","0.0-6.0-5.28","3011055","co38938","norming","","","","","","",""
"2193.4800000017276","","","post_reveal_questions","survey-likert","208","874449","0.0-6.0-6.28","3011055","co38938","norming","","","{""aha"":4}","[0]","../img/tt/1272tt.jpg","",""
"null","<div style=""font-size:60px;""> </div>","null","fixation","html-keyboard-response","209","874653","0.0-6.0-0.29","3011055","co38938","norming","","","","","","",""
"null","../img/tt/416tt.jpg","null","mooney1","image-keyboard-response","210","877656","0.0-6.0-1.29","3011055","co38938","norming","","","","","","",""
"4087.744999997085","","","post_mooney1_questions","survey-likert","211","881745","0.0-6.0-2.29","3011055","co38938","norming","","","{""curiosity"":2,""confidence"":5}","[0,1]","../img/tt/416tt.jpg","",""
"4910.045000000624","","","recognition","survey-text","212","886657","0.0-6.0-3.29","3011055","co38938","norming","","","{""guess"":""struisvogels""}","","../img/tt/416tt.jpg","",""
"null","../img/gs/416gs.jpg","null","reveal","image-keyboard-response","213","888659","0.0-6.0-4.29","3011055","co38938","norming","","","","","","",""
"null","../img/tt/416tt.jpg","null","mooney2","image-keyboard-response","214","890661","0.0-6.0-5.29","3011055","co38938","norming","","","","","","",""
"2897.244999996503","","","post_reveal_questions","survey-likert","215","893561","0.0-6.0-6.29","3011055","co38938","norming","","","{""aha"":1}","[0]","../img/tt/416tt.jpg","",""
"null","<div style=""font-size:60px;""> </div>","null","fixation","html-keyboard-response","216","893771","0.0-6.0-0.30","3011055","co38938","norming","","","","","","",""
"null","../img/tt/1243tt.jpg","null","mooney1","image-keyboard-response","217","896779","0.0-6.0-1.30","3011055","co38938","norming","","","","","","",""
"3722.8950000025798","","","post_mooney1_questions","survey-likert","218","900505","0.0-6.0-2.30","3011055","co38938","norming","","","{""curiosity"":6,""confidence"":1}","[0,1]","../img/tt/1243tt.jpg","",""
"2710.3750000023283","","","recognition","survey-text","219","903217","0.0-6.0-3.30","3011055","co38938","norming","","","{""guess"":""aap""}","","../img/tt/1243tt.jpg","",""
"null","../img/gs/1243gs.jpg","null","reveal","image-keyboard-response","220","905225","0.0-6.0-4.30","3011055","co38938","norming","","","","","","",""
"null","../img/tt/1243tt.jpg","null","mooney2","image-keyboard-response","221","907235","0.0-6.0-5.30","3011055","co38938","norming","","","","","","",""
"2588.6800000007497","","","post_reveal_questions","survey-likert","222","909824","0.0-6.0-6.30","3011055","co38938","norming","","","{""aha"":4}","[0]","../img/tt/1243tt.jpg","",""
"null","<div style=""font-size:60px;""> </div>","null","fixation","html-keyboard-response","223","910027","0.0-6.0-0.31","3011055","co38938","norming","","","","","","",""
"null","../img/tt/1269tt.jpg","null","mooney1","image-keyboard-response","224","913030","0.0-6.0-1.31","3011055","co38938","norming","","","","","","",""
"5704.98000000231","","","post_mooney1_questions","survey-likert","225","918737","0.0-6.0-2.31","3011055","co38938","norming","","","{""curiosity"":1,""confidence"":6}","[0,1]","../img/tt/1269tt.jpg","",""
"3821.5199999976903","","","recognition","survey-text","226","922560","0.0-6.0-3.31","3011055","co38938","norming","","","{""guess"":""eekhoorn""}","","../img/tt/1269tt.jpg","",""
"null","../img/gs/1269gs.jpg","null","reveal","image-keyboard-response","227","924571","0.0-6.0-4.31","3011055","co38938","norming","","","","","","",""
"null","../img/tt/1269tt.jpg","null","mooney2","image-keyboard-response","228","926583","0.0-6.0-5.31","3011055","co38938","norming","","","","","","",""
"2953.5749999994878","","","post_reveal_questions","survey-likert","229","929538","0.0-6.0-6.31","3011055","co38938","norming","","","{""aha"":0}","[0]","../img/tt/1269tt.jpg","",""
"null","<div style=""font-size:60px;""> </div>","null","fixation","html-keyboard-response","230","929746","0.0-6.0-0.32","3011055","co38938","norming","","","","","","",""
"null","../img/tt/1053tt.jpg","null","mooney1","image-keyboard-response","231","932753","0.0-6.0-1.32","3011055","co38938","norming","","","","","","",""
"4336.980000000098","","","post_mooney1_questions","survey-likert","232","937091","0.0-6.0-2.32","3011055","co38938","norming","","","{""curiosity"":1,""confidence"":5}","[0,1]","../img/tt/1053tt.jpg","",""
"3598.9949999967357","","","recognition","survey-text","233","940698","0.0-6.0-3.32","3011055","co38938","norming","","","{""guess"":""koeien""}","","../img/tt/1053tt.jpg","",""
"null","../img/gs/1053gs.jpg","null","reveal","image-keyboard-response","234","942709","0.0-6.0-4.32","3011055","co38938","norming","","","","","","",""
"null","../img/tt/1053tt.jpg","null","mooney2","image-keyboard-response","235","944713","0.0-6.0-5.32","3011055","co38938","norming","","","","","","",""
"2648.2550000000047","","","post_reveal_questions","survey-likert","236","947362","0.0-6.0-6.32","3011055","co38938","norming","","","{""aha"":2}","[0]","../img/tt/1053tt.jpg","",""
"null","<div style=""font-size:60px;""> </div>","null","fixation","html-keyboard-response","237","947570","0.0-6.0-0.33","3011055","co38938","norming","","","","","","",""
"null","../img/tt/111tt.jpg","null","mooney1","image-keyboard-response","238","950581","0.0-6.0-1.33","3011055","co38938","norming","","","","","","",""
"4691.190000001341","","","post_mooney1_questions","survey-likert","239","955275","0.0-6.0-2.33","3011055","co38938","norming","","","{""curiosity"":6,""confidence"":0}","[0,1]","../img/tt/111tt.jpg","",""
"3902.0450000024866","","","recognition","survey-text","240","959178","0.0-6.0-3.33","3011055","co38938","norming","","","{""guess"":""boom""}","","../img/tt/111tt.jpg","",""
"null","../img/gs/111gs.jpg","null","reveal","image-keyboard-response","241","961184","0.0-6.0-4.33","3011055","co38938","norming","","","","","","",""
"null","../img/tt/111tt.jpg","null","mooney2","image-keyboard-response","242","963188","0.0-6.0-5.33","3011055","co38938","norming","","","","","","",""
"2923.7450000001118","","","post_reveal_questions","survey-likert","243","966114","0.0-6.0-6.33","3011055","co38938","norming","","","{""aha"":4}","[0]","../img/tt/111tt.jpg","",""
"null","<div style=""font-size:60px;""> </div>","null","fixation","html-keyboard-response","244","966317","0.0-6.0-0.34","3011055","co38938","norming","","","","","","",""
"null","../img/tt/456tt.jpg","null","mooney1","image-keyboard-response","245","969324","0.0-6.0-1.34","3011055","co38938","norming","","","","","","",""
"3715.895000001183","","","post_mooney1_questions","survey-likert","246","973042","0.0-6.0-2.34","3011055","co38938","norming","","","{""curiosity"":5,""confidence"":1}","[0,1]","../img/tt/456tt.jpg","",""
"7062.004999999772","","","recognition","survey-text","247","980106","0.0-6.0-3.34","3011055","co38938","norming","","","{""guess"":""krokodil""}","","../img/tt/456tt.jpg","",""
"null","../img/gs/456gs.jpg","null","reveal","image-keyboard-response","248","982112","0.0-6.0-4.34","3011055","co38938","norming","","","","","","",""
"null","../img/tt/456tt.jpg","null","mooney2","image-keyboard-response","249","984117","0.0-6.0-5.34","3011055","co38938","norming","","","","","","",""
"3300.3199999984354","","","post_reveal_questions","survey-likert","250","987416","0.0-6.0-6.34","3011055","co38938","norming","","","{""aha"":5}","[0]","../img/tt/456tt.jpg","",""
"null","<div style=""font-size:60px;""> </div>","null","fixation","html-keyboard-response","251","987618","0.0-6.0-0.35","3011055","co38938","norming","","","","","","",""
"null","../img/tt/1307tt.jpg","null","mooney1","image-keyboard-response","252","990627","0.0-6.0-1.35","3011055","co38938","norming","","","","","","",""
"5801.390000000596","","","post_mooney1_questions","survey-likert","253","996432","0.0-6.0-2.35","3011055","co38938","norming","","","{""curiosity"":5,""confidence"":0}","[0,1]","../img/tt/1307tt.jpg","",""
"7262.094999998109","","","recognition","survey-text","254","1003696","0.0-6.0-3.35","3011055","co38938","norming","","","{""guess"":""dak koepel""}","","../img/tt/1307tt.jpg","",""
"null","../img/gs/1307gs.jpg","null","reveal","image-keyboard-response","255","1005697","0.0-6.0-4.35","3011055","co38938","norming","","","","","","",""
"null","../img/tt/1307tt.jpg","null","mooney2","image-keyboard-response","256","1007698","0.0-6.0-5.35","3011055","co38938","norming","","","","","","",""
"2483.560000000638","","","post_reveal_questions","survey-likert","257","1010184","0.0-6.0-6.35","3011055","co38938","norming","","","{""aha"":4}","[0]","../img/tt/1307tt.jpg","",""
"null","<div style=""font-size:60px;""> </div>","null","fixation","html-keyboard-response","258","1010392","0.0-6.0-0.36","3011055","co38938","norming","","","","","","",""
"null","../img/tt/1046tt.jpg","null","mooney1","image-keyboard-response","259","1013398","0.0-6.0-1.36","3011055","co38938","norming","","","","","","",""
"3487.2649999996647","","","post_mooney1_questions","survey-likert","260","1016888","0.0-6.0-2.36","3011055","co38938","norming","","","{""curiosity"":6,""confidence"":0}","[0,1]","../img/tt/1046tt.jpg","",""
"3534.025000000838","","","recognition","survey-text","261","1020424","0.0-6.0-3.36","3011055","co38938","norming","","","{""guess"":""""}","","../img/tt/1046tt.jpg","",""
"null","../img/gs/1046gs.jpg","null","reveal","image-keyboard-response","262","1022434","0.0-6.0-4.36","3011055","co38938","norming","","","","","","",""
"null","../img/tt/1046tt.jpg","null","mooney2","image-keyboard-response","263","1024441","0.0-6.0-5.36","3011055","co38938","norming","","","","","","",""
"2589.350000001956","","","post_reveal_questions","survey-likert","264","1027032","0.0-6.0-6.36","3011055","co38938","norming","","","{""aha"":5}","[0]","../img/tt/1046tt.jpg","",""
"null","<div style=""font-size:60px;""> </div>","null","fixation","html-keyboard-response","265","1027237","0.0-6.0-0.37","3011055","co38938","norming","","","","","","",""
"null","../img/tt/1232tt.jpg","null","mooney1","image-keyboard-response","266","1030240","0.0-6.0-1.37","3011055","co38938","norming","","","","","","",""
"5565.750000001513","","","post_mooney1_questions","survey-likert","267","1035808","0.0-6.0-2.37","3011055","co38938","norming","","","{""curiosity"":6,""confidence"":0}","[0,1]","../img/tt/1232tt.jpg","",""
"4429.8149999994785","","","recognition","survey-text","268","1040239","0.0-6.0-3.37","3011055","co38938","norming","","","{""guess"":""""}","","../img/tt/1232tt.jpg","",""
"null","../img/gs/1232gs.jpg","null","reveal","image-keyboard-response","269","1042246","0.0-6.0-4.37","3011055","co38938","norming","","","","","","",""
"null","../img/tt/1232tt.jpg","null","mooney2","image-keyboard-response","270","1044249","0.0-6.0-5.37","3011055","co38938","norming","","","","","","",""
"2309.1450000030454","","","post_reveal_questions","survey-likert","271","1046560","0.0-6.0-6.37","3011055","co38938","norming","","","{""aha"":5}","[0]","../img/tt/1232tt.jpg","",""
"null","<div style=""font-size:60px;""> </div>","null","fixation","html-keyboard-response","272","1046770","0.0-6.0-0.38","3011055","co38938","norming","","","","","","",""
"null","../img/tt/1276tt.jpg","null","mooney1","image-keyboard-response","273","1049780","0.0-6.0-1.38","3011055","co38938","norming","","","","","","",""
"4019.9149999970105","","","post_mooney1_questions","survey-likert","274","1053803","0.0-6.0-2.38","3011055","co38938","norming","","","{""curiosity"":5,""confidence"":0}","[0,1]","../img/tt/1276tt.jpg","",""
"2878.0199999962933","","","recognition","survey-text","275","1056682","0.0-6.0-3.38","3011055","co38938","norming","","","{""guess"":""stier""}","","../img/tt/1276tt.jpg","",""
"null","../img/gs/1276gs.jpg","null","reveal","image-keyboard-response","276","1058686","0.0-6.0-4.38","3011055","co38938","norming","","","","","","",""
"null","../img/tt/1276tt.jpg","null","mooney2","image-keyboard-response","277","1060691","0.0-6.0-5.38","3011055","co38938","norming","","","","","","",""
"2155.380000000121","","","post_reveal_questions","survey-likert","278","1062850","0.0-6.0-6.38","3011055","co38938","norming","","","{""aha"":5}","[0]","../img/tt/1276tt.jpg","",""
"null","<div style=""font-size:60px;""> </div>","null","fixation","html-keyboard-response","279","1063051","0.0-6.0-0.39","3011055","co38938","norming","","","","","","",""
"null","../img/tt/189tt.jpg","null","mooney1","image-keyboard-response","280","1066060","0.0-6.0-1.39","3011055","co38938","norming","","","","","","",""
"5051.299999999348","","","post_mooney1_questions","survey-likert","281","1071115","0.0-6.0-2.39","3011055","co38938","norming","","","{""curiosity"":5,""confidence"":1}","[0,1]","../img/tt/189tt.jpg","",""
"6366.014999999665","","","recognition","survey-text","282","1077482","0.0-6.0-3.39","3011055","co38938","norming","","","{""guess"":""pauw""}","","../img/tt/189tt.jpg","",""
"null","../img/gs/189gs.jpg","null","reveal","image-keyboard-response","283","1079484","0.0-6.0-4.39","3011055","co38938","norming","","","","","","",""
"null","../img/tt/189tt.jpg","null","mooney2","image-keyboard-response","284","1081493","0.0-6.0-5.39","3011055","co38938","norming","","","","","","",""
"2506.9199999996927","","","post_reveal_questions","survey-likert","285","1084002","0.0-6.0-6.39","3011055","co38938","norming","","","{""aha"":4}","[0]","../img/tt/189tt.jpg","",""
"null","<div style=""font-size:60px;""> </div>","null","fixation","html-keyboard-response","286","1084206","0.0-6.0-0.40","3011055","co38938","norming","","","","","","",""
"null","../img/tt/1173tt.jpg","null","mooney1","image-keyboard-response","287","1087209","0.0-6.0-1.40","3011055","co38938","norming","","","","","","",""
"3478.910000001779","","","post_mooney1_questions","survey-likert","288","1090691","0.0-6.0-2.40","3011055","co38938","norming","","","{""curiosity"":5,""confidence"":2}","[0,1]","../img/tt/1173tt.jpg","",""
"3934.0800000028685","","","recognition","survey-text","289","1094626","0.0-6.0-3.40","3011055","co38938","norming","","","{""guess"":""hockey""}","","../img/tt/1173tt.jpg","",""
"null","../img/gs/1173gs.jpg","null","reveal","image-keyboard-response","290","1096636","0.0-6.0-4.40","3011055","co38938","norming","","","","","","",""
"null","../img/tt/1173tt.jpg","null","mooney2","image-keyboard-response","291","1098647","0.0-6.0-5.40","3011055","co38938","norming","","","","","","",""
"2945.175000000745","","","post_reveal_questions","survey-likert","292","1101595","0.0-6.0-6.40","3011055","co38938","norming","","","{""aha"":3}","[0]","../img/tt/1173tt.jpg","",""
"null","<div style=""font-size:60px;""> </div>","null","fixation","html-keyboard-response","293","1101800","0.0-6.0-0.41","3011055","co38938","norming","","","","","","",""
"null","../img/tt/135tt.jpg","null","mooney1","image-keyboard-response","294","1104809","0.0-6.0-1.41","3011055","co38938","norming","","","","","","",""
"3654.5850000001956","","","post_mooney1_questions","survey-likert","295","1108458","0.0-6.0-2.41","3011055","co38938","norming","","","{""curiosity"":2,""confidence"":5}","[0,1]","../img/tt/135tt.jpg","",""
"2590.1100000010338","","","recognition","survey-text","296","1111049","0.0-6.0-3.41","3011055","co38938","norming","","","{""guess"":""wc""}","","../img/tt/135tt.jpg","",""
"null","../img/gs/135gs.jpg","null","reveal","image-keyboard-response","297","1113056","0.0-6.0-4.41","3011055","co38938","norming","","","","","","",""
"null","../img/tt/135tt.jpg","null","mooney2","image-keyboard-response","298","1115062","0.0-6.0-5.41","3011055","co38938","norming","","","","","","",""
"2073.019999999786","","","post_reveal_questions","survey-likert","299","1117137","0.0-6.0-6.41","3011055","co38938","norming","","","{""aha"":0}","[0]","../img/tt/135tt.jpg","",""
"null","<div style=""font-size:60px;""> </div>","null","fixation","html-keyboard-response","300","1117340","0.0-6.0-0.42","3011055","co38938","norming","","","","","","",""
"null","../img/tt/438tt.jpg","null","mooney1","image-keyboard-response","301","1120344","0.0-6.0-1.42","3011055","co38938","norming","","","","","","",""
"3934.365000000922","","","post_mooney1_questions","survey-likert","302","1124282","0.0-6.0-2.42","3011055","co38938","norming","","","{""curiosity"":5,""confidence"":1}","[0,1]","../img/tt/438tt.jpg","",""
"4141.780000001658","","","recognition","survey-text","303","1128425","0.0-6.0-3.42","3011055","co38938","norming","","","{""guess"":""duif""}","","../img/tt/438tt.jpg","",""
"null","../img/gs/438gs.jpg","null","reveal","image-keyboard-response","304","1130430","0.0-6.0-4.42","3011055","co38938","norming","","","","","","",""
"null","../img/tt/438tt.jpg","null","mooney2","image-keyboard-response","305","1132434","0.0-6.0-5.42","3011055","co38938","norming","","","","","","",""
"3363.3150000022724","","","post_reveal_questions","survey-likert","306","1135802","0.0-6.0-6.42","3011055","co38938","norming","","","{""aha"":5}","[0]","../img/tt/438tt.jpg","",""
"null","<div style=""font-size:60px;""> </div>","null","fixation","html-keyboard-response","307","1136007","0.0-6.0-0.43","3011055","co38938","norming","","","","","","",""
"null","../img/tt/1148tt.jpg","null","mooney1","image-keyboard-response","308","1139019","0.0-6.0-1.43","3011055","co38938","norming","","","","","","",""
"4835.645000003045","","","post_mooney1_questions","survey-likert","309","1143858","0.0-6.0-2.43","3011055","co38938","norming","","","{""curiosity"":4,""confidence"":4}","[0,1]","../img/tt/1148tt.jpg","",""
"6573.66999999783","","","recognition","survey-text","310","1150433","0.0-6.0-3.43","3011055","co38938","norming","","","{""guess"":""goalkeeper""}","","../img/tt/1148tt.jpg","",""
"null","../img/gs/1148gs.jpg","null","reveal","image-keyboard-response","311","1152435","0.0-6.0-4.43","3011055","co38938","norming","","","","","","",""
"null","../img/tt/1148tt.jpg","null","mooney2","image-keyboard-response","312","1154446","0.0-6.0-5.43","3011055","co38938","norming","","","","","","",""
"3457.1250000006985","","","post_reveal_questions","survey-likert","313","1157906","0.0-6.0-6.43","3011055","co38938","norming","","","{""aha"":2}","[0]","../img/tt/1148tt.jpg","",""
"null","<div style=""font-size:60px;""> </div>","null","fixation","html-keyboard-response","314","1158112","0.0-6.0-0.44","3011055","co38938","norming","","","","","","",""
"null","../img/tt/1080tt.jpg","null","mooney1","image-keyboard-response","315","1161121","0.0-6.0-1.44","3011055","co38938","norming","","","","","","",""
"6653.340000000782","","","post_mooney1_questions","survey-likert","316","1167779","0.0-6.0-2.44","3011055","co38938","norming","","","{""curiosity"":5,""confidence"":1}","[0,1]","../img/tt/1080tt.jpg","",""
"3109.990000000689","","","recognition","survey-text","317","1170890","0.0-6.0-3.44","3011055","co38938","norming","","","{""guess"":""paard""}","","../img/tt/1080tt.jpg","",""
"null","../img/gs/1080gs.jpg","null","reveal","image-keyboard-response","318","1172900","0.0-6.0-4.44","3011055","co38938","norming","","","","","","",""
"null","../img/tt/1080tt.jpg","null","mooney2","image-keyboard-response","319","1174912","0.0-6.0-5.44","3011055","co38938","norming","","","","","","",""
"1928.110000000801","","","post_reveal_questions","survey-likert","320","1176843","0.0-6.0-6.44","3011055","co38938","norming","","","{""aha"":4}","[0]","../img/tt/1080tt.jpg","",""
"null","<div style=""font-size:60px;""> </div>","null","fixation","html-keyboard-response","321","1177049","0.0-6.0-0.45","3011055","co38938","norming","","","","","","",""
"null","../img/tt/1171tt.jpg","null","mooney1","image-keyboard-response","322","1180057","0.0-6.0-1.45","3011055","co38938","norming","","","","","","",""
"3302.3150000008754","","","post_mooney1_questions","survey-likert","323","1183363","0.0-6.0-2.45","3011055","co38938","norming","","","{""curiosity"":6,""confidence"":0}","[0,1]","../img/tt/1171tt.jpg","",""
"6382.084999997402","","","recognition","survey-text","324","1189746","0.0-6.0-3.45","3011055","co38938","norming","","","{""guess"":""""}","","../img/tt/1171tt.jpg","",""
"null","../img/gs/1171gs.jpg","null","reveal","image-keyboard-response","325","1191752","0.0-6.0-4.45","3011055","co38938","norming","","","","","","",""
"null","../img/tt/1171tt.jpg","null","mooney2","image-keyboard-response","326","1193763","0.0-6.0-5.45","3011055","co38938","norming","","","","","","",""
"2956.8849999995437","","","post_reveal_questions","survey-likert","327","1196722","0.0-6.0-6.45","3011055","co38938","norming","","","{""aha"":5}","[0]","../img/tt/1171tt.jpg","",""
"null","<div style=""font-size:60px;""> </div>","null","fixation","html-keyboard-response","328","1196923","0.0-6.0-0.46","3011055","co38938","norming","","","","","","",""
"null","../img/tt/055tt.jpg","null","mooney1","image-keyboard-response","329","1199934","0.0-6.0-1.46","3011055","co38938","norming","","","","","","",""
"3513.9000000017695","","","post_mooney1_questions","survey-likert","330","1203451","0.0-6.0-2.46","3011055","co38938","norming","","","{""curiosity"":6,""confidence"":0}","[0,1]","../img/tt/055tt.jpg","",""
"3478.1299999996554","","","recognition","survey-text","331","1206930","0.0-6.0-3.46","3011055","co38938","norming","","","{""guess"":""stoel""}","","../img/tt/055tt.jpg","",""
"null","../img/gs/055gs.jpg","null","reveal","image-keyboard-response","332","1208939","0.0-6.0-4.46","3011055","co38938","norming","","","","","","",""
"null","../img/tt/055tt.jpg","null","mooney2","image-keyboard-response","333","1210941","0.0-6.0-5.46","3011055","co38938","norming","","","","","","",""
"3018.669999997597","","","post_reveal_questions","survey-likert","334","1213963","0.0-6.0-6.46","3011055","co38938","norming","","","{""aha"":5}","[0]","../img/tt/055tt.jpg","",""
"null","<div style=""font-size:60px;""> </div>","null","fixation","html-keyboard-response","335","1214168","0.0-6.0-0.47","3011055","co38938","norming","","","","","","",""
"null","../img/tt/559tt.jpg","null","mooney1","image-keyboard-response","336","1217178","0.0-6.0-1.47","3011055","co38938","norming","","","","","","",""
"5589.875000001397","","","post_mooney1_questions","survey-likert","337","1222771","0.0-6.0-2.47","3011055","co38938","norming","","","{""curiosity"":4,""confidence"":4}","[0,1]","../img/tt/559tt.jpg","",""
"5357.200000002049","","","recognition","survey-text","338","1228139","0.0-6.0-3.47","3011055","co38938","norming","","","{""guess"":""naaimachine""}","","../img/tt/559tt.jpg","",""
"null","../img/gs/559gs.jpg","null","reveal","image-keyboard-response","339","1230140","0.0-6.0-4.47","3011055","co38938","norming","","","","","","",""
"null","../img/tt/559tt.jpg","null","mooney2","image-keyboard-response","340","1232143","0.0-6.0-5.47","3011055","co38938","norming","","","","","","",""
"2842.85499999905","","","post_reveal_questions","survey-likert","341","1234987","0.0-6.0-6.47","3011055","co38938","norming","","","{""aha"":0}","[0]","../img/tt/559tt.jpg","",""
"null","<div style=""font-size:60px;""> </div>","null","fixation","html-keyboard-response","342","1235197","0.0-6.0-0.48","3011055","co38938","norming","","","","","","",""
"null","../img/tt/1048tt.jpg","null","mooney1","image-keyboard-response","343","1238208","0.0-6.0-1.48","3011055","co38938","norming","","","","","","",""
"4002.290000000503","","","post_mooney1_questions","survey-likert","344","1242211","0.0-6.0-2.48","3011055","co38938","norming","","","{""curiosity"":6,""confidence"":0}","[0,1]","../img/tt/1048tt.jpg","",""
"3110.3999999978114","","","recognition","survey-text","345","1245323","0.0-6.0-3.48","3011055","co38938","norming","","","{""guess"":""berg""}","","../img/tt/1048tt.jpg","",""
"null","../img/gs/1048gs.jpg","null","reveal","image-keyboard-response","346","1247328","0.0-6.0-4.48","3011055","co38938","norming","","","","","","",""
"null","../img/tt/1048tt.jpg","null","mooney2","image-keyboard-response","347","1249333","0.0-6.0-5.48","3011055","co38938","norming","","","","","","",""
"3660.895000000717","","","post_reveal_questions","survey-likert","348","1252995","0.0-6.0-6.48","3011055","co38938","norming","","","{""aha"":4}","[0]","../img/tt/1048tt.jpg","",""
"null","<div style=""font-size:60px;""> </div>","null","fixation","html-keyboard-response","349","1253198","0.0-6.0-0.49","3011055","co38938","norming","","","","","","",""
"null","../img/tt/1189tt.jpg","null","mooney1","image-keyboard-response","350","1256204","0.0-6.0-1.49","3011055","co38938","norming","","","","","","",""
"3470.0699999993667","","","post_mooney1_questions","survey-likert","351","1259675","0.0-6.0-2.49","3011055","co38938","norming","","","{""curiosity"":6,""confidence"":0}","[0,1]","../img/tt/1189tt.jpg","",""
"2518.6900000006426","","","recognition","survey-text","352","1262196","0.0-6.0-3.49","3011055","co38938","norming","","","{""guess"":""zee""}","","../img/tt/1189tt.jpg","",""
"null","../img/gs/1189gs.jpg","null","reveal","image-keyboard-response","353","1264197","0.0-6.0-4.49","3011055","co38938","norming","","","","","","",""
"null","../img/tt/1189tt.jpg","null","mooney2","image-keyboard-response","354","1266199","0.0-6.0-5.49","3011055","co38938","norming","","","","","","",""
"4083.450000001816","","","post_reveal_questions","survey-likert","355","1270283","0.0-6.0-6.49","3011055","co38938","norming","","","{""aha"":4}","[0]","../img/tt/1189tt.jpg","",""
"null","<div style=""font-size:60px;""> </div>","null","fixation","html-keyboard-response","356","1270488","0.0-6.0-0.50","3011055","co38938","norming","","","","","","",""
"null","../img/tt/1118tt.jpg","null","mooney1","image-keyboard-response","357","1273492","0.0-6.0-1.50","3011055","co38938","norming","","","","","","",""
"4147.150000000838","","","post_mooney1_questions","survey-likert","358","1277643","0.0-6.0-2.50","3011055","co38938","norming","","","{""curiosity"":6,""confidence"":0}","[0,1]","../img/tt/1118tt.jpg","",""
"4493.549999999348","","","recognition","survey-text","359","1282139","0.0-6.0-3.50","3011055","co38938","norming","","","{""guess"":""boot""}","","../img/tt/1118tt.jpg","",""
"null","../img/gs/1118gs.jpg","null","reveal","image-keyboard-response","360","1284142","0.0-6.0-4.50","3011055","co38938","norming","","","","","","",""
"null","../img/tt/1118tt.jpg","null","mooney2","image-keyboard-response","361","1286145","0.0-6.0-5.50","3011055","co38938","norming","","","","","","",""
"3081.1100000028964","","","post_reveal_questions","survey-likert","362","1289218","0.0-6.0-6.50","3011055","co38938","norming","","","{""aha"":5}","[0]","../img/tt/1118tt.jpg","",""
"null","<div style=""font-size:60px;""> </div>","null","fixation","html-keyboard-response","363","1289421","0.0-6.0-0.51","3011055","co38938","norming","","","","","","",""
"null","../img/tt/1040tt.jpg","null","mooney1","image-keyboard-response","364","1292429","0.0-6.0-1.51","3011055","co38938","norming","","","","","","",""
"6338.299999999581","","","post_mooney1_questions","survey-likert","365","1298771","0.0-6.0-2.51","3011055","co38938","norming","","","{""curiosity"":6,""confidence"":0}","[0,1]","../img/tt/1040tt.jpg","",""
"3573.9399999983143","","","recognition","survey-text","366","1302346","0.0-6.0-3.51","3011055","co38938","norming","","","{""guess"":""""}","","../img/tt/1040tt.jpg","",""
"null","../img/gs/1040gs.jpg","null","reveal","image-keyboard-response","367","1304354","0.0-6.0-4.51","3011055","co38938","norming","","","","","","",""
"null","../img/tt/1040tt.jpg","null","mooney2","image-keyboard-response","368","1306362","0.0-6.0-5.51","3011055","co38938","norming","","","","","","",""
"2773.114999999758","","","post_reveal_questions","survey-likert","369","1309138","0.0-6.0-6.51","3011055","co38938","norming","","","{""aha"":4}","[0]","../img/tt/1040tt.jpg","",""
"null","<div style=""font-size:60px;""> </div>","null","fixation","html-keyboard-response","370","1309341","0.0-6.0-0.52","3011055","co38938","norming","","","","","","",""
"null","../img/tt/1211tt.jpg","null","mooney1","image-keyboard-response","371","1312345","0.0-6.0-1.52","3011055","co38938","norming","","","","","","",""
"4230.79499999946","","","post_mooney1_questions","survey-likert","372","1316579","0.0-6.0-2.52","3011055","co38938","norming","","","{""curiosity"":6,""confidence"":2}","[0,1]","../img/tt/1211tt.jpg","",""
"3494.0500000012107","","","recognition","survey-text","373","1320074","0.0-6.0-3.52","3011055","co38938","norming","","","{""guess"":""waterval""}","","../img/tt/1211tt.jpg","",""
"null","../img/gs/1211gs.jpg","null","reveal","image-keyboard-response","374","1322076","0.0-6.0-4.52","3011055","co38938","norming","","","","","","",""
"null","../img/tt/1211tt.jpg","null","mooney2","image-keyboard-response","375","1324085","0.0-6.0-5.52","3011055","co38938","norming","","","","","","",""
"4259.239999999525","","","post_reveal_questions","survey-likert","376","1328346","0.0-6.0-6.52","3011055","co38938","norming","","","{""aha"":3}","[0]","../img/tt/1211tt.jpg","",""
"null","<div style=""font-size:60px;""> </div>","null","fixation","html-keyboard-response","377","1328553","0.0-6.0-0.53","3011055","co38938","norming","","","","","","",""
"null","../img/tt/552tt.jpg","null","mooney1","image-keyboard-response","378","1331565","0.0-6.0-1.53","3011055","co38938","norming","","","","","","",""
"4962.540000000503","","","post_mooney1_questions","survey-likert","379","1336531","0.0-6.0-2.53","3011055","co38938","norming","","","{""curiosity"":6,""confidence"":0}","[0,1]","../img/tt/552tt.jpg","",""
"4230.084999999264","","","recognition","survey-text","380","1340762","0.0-6.0-3.53","3011055","co38938","norming","","","{""guess"":""lepel""}","","../img/tt/552tt.jpg","",""
"null","../img/gs/552gs.jpg","null","reveal","image-keyboard-response","381","1342766","0.0-6.0-4.53","3011055","co38938","norming","","","","","","",""
"null","../img/tt/552tt.jpg","null","mooney2","image-keyboard-response","382","1344776","0.0-6.0-5.53","3011055","co38938","norming","","","","","","",""
"2791.6100000001024","","","post_reveal_questions","survey-likert","383","1347570","0.0-6.0-6.53","3011055","co38938","norming","","","{""aha"":4}","[0]","../img/tt/552tt.jpg","",""
"null","<div style=""font-size:60px;""> </div>","null","fixation","html-keyboard-response","384","1347772","0.0-6.0-0.54","3011055","co38938","norming","","","","","","",""
"null","../img/tt/301tt.jpg","null","mooney1","image-keyboard-response","385","1350792","0.0-6.0-1.54","3011055","co38938","norming","","","","","","",""
"5688.519999999553","","","post_mooney1_questions","survey-likert","386","1356484","0.0-6.0-2.54","3011055","co38938","norming","","","{""curiosity"":6,""confidence"":0}","[0,1]","../img/tt/301tt.jpg","",""
"4349.965000001248","","","recognition","survey-text","387","1360835","0.0-6.0-3.54","3011055","co38938","norming","","","{""guess"":""ligzetel""}","","../img/tt/301tt.jpg","",""
"null","../img/gs/301gs.jpg","null","reveal","image-keyboard-response","388","1362837","0.0-6.0-4.54","3011055","co38938","norming","","","","","","",""
"null","../img/tt/301tt.jpg","null","mooney2","image-keyboard-response","389","1364839","0.0-6.0-5.54","3011055","co38938","norming","","","","","","",""
"2850.5000000004657","","","post_reveal_questions","survey-likert","390","1367692","0.0-6.0-6.54","3011055","co38938","norming","","","{""aha"":4}","[0]","../img/tt/301tt.jpg","",""
"null","<div style=""font-size:60px;""> </div>","null","fixation","html-keyboard-response","391","1367893","0.0-6.0-0.55","3011055","co38938","norming","","","","","","",""
"null","../img/tt/1063tt.jpg","null","mooney1","image-keyboard-response","392","1370901","0.0-6.0-1.55","3011055","co38938","norming","","","","","","",""
"3605.619999998482","","","post_mooney1_questions","survey-likert","393","1374508","0.0-6.0-2.55","3011055","co38938","norming","","","{""curiosity"":6,""confidence"":2}","[0,1]","../img/tt/1063tt.jpg","",""
"3270.4049999993294","","","recognition","survey-text","394","1377779","0.0-6.0-3.55","3011055","co38938","norming","","","{""guess"":""paard""}","","../img/tt/1063tt.jpg","",""
"null","../img/gs/1063gs.jpg","null","reveal","image-keyboard-response","395","1379781","0.0-6.0-4.55","3011055","co38938","norming","","","","","","",""
"null","../img/tt/1063tt.jpg","null","mooney2","image-keyboard-response","396","1381783","0.0-6.0-5.55","3011055","co38938","norming","","","","","","",""
"3066.249999999767","","","post_reveal_questions","survey-likert","397","1384852","0.0-6.0-6.55","3011055","co38938","norming","","","{""aha"":1}","[0]","../img/tt/1063tt.jpg","",""
"null","<div style=""font-size:60px;""> </div>","null","fixation","html-keyboard-response","398","1385059","0.0-6.0-0.56","3011055","co38938","norming","","","","","","",""
"null","../img/tt/121tt.jpg","null","mooney1","image-keyboard-response","399","1388063","0.0-6.0-1.56","3011055","co38938","norming","","","","","","",""
"4289.215000000782","","","post_mooney1_questions","survey-likert","400","1392356","0.0-6.0-2.56","3011055","co38938","norming","","","{""curiosity"":3,""confidence"":5}","[0,1]","../img/tt/121tt.jpg","",""
"3885.965000001248","","","recognition","survey-text","401","1396243","0.0-6.0-3.56","3011055","co38938","norming","","","{""guess"":""kangoeroe""}","","../img/tt/121tt.jpg","",""
"null","../img/gs/121gs.jpg","null","reveal","image-keyboard-response","402","1398248","0.0-6.0-4.56","3011055","co38938","norming","","","","","","",""
"null","../img/tt/121tt.jpg","null","mooney2","image-keyboard-response","403","1400250","0.0-6.0-5.56","3011055","co38938","norming","","","","","","",""
"2577.0149999989662","","","post_reveal_questions","survey-likert","404","1402828","0.0-6.0-6.56","3011055","co38938","norming","","","{""aha"":1}","[0]","../img/tt/121tt.jpg","",""
"null","<div style=""font-size:60px;""> </div>","null","fixation","html-keyboard-response","405","1403037","0.0-6.0-0.57","3011055","co38938","norming","","","","","","",""
"null","../img/tt/1096tt.jpg","null","mooney1","image-keyboard-response","406","1406045","0.0-6.0-1.57","3011055","co38938","norming","","","","","","",""
"4627.209999998799","","","post_mooney1_questions","survey-likert","407","1410675","0.0-6.0-2.57","3011055","co38938","norming","","","{""curiosity"":5,""confidence"":1}","[0,1]","../img/tt/1096tt.jpg","",""
"3614.320000000531","","","recognition","survey-text","408","1414287","0.0-6.0-3.57","3011055","co38938","norming","","","{""guess"":""trap""}","","../img/tt/1096tt.jpg","",""
"null","../img/gs/1096gs.jpg","null","reveal","image-keyboard-response","409","1416291","0.0-6.0-4.57","3011055","co38938","norming","","","","","","",""
"null","../img/tt/1096tt.jpg","null","mooney2","image-keyboard-response","410","1418294","0.0-6.0-5.57","3011055","co38938","norming","","","","","","",""
"2735.2949999985285","","","post_reveal_questions","survey-likert","411","1421031","0.0-6.0-6.57","3011055","co38938","norming","","","{""aha"":4}","[0]","../img/tt/1096tt.jpg","",""
"null","<div style=""font-size:60px;""> </div>","null","fixation","html-keyboard-response","412","1421242","0.0-6.0-0.58","3011055","co38938","norming","","","","","","",""
"null","../img/tt/1128tt.jpg","null","mooney1","image-keyboard-response","413","1424244","0.0-6.0-1.58","3011055","co38938","norming","","","","","","",""
"8449.709999997169","","","post_mooney1_questions","survey-likert","414","1432695","0.0-6.0-2.58","3011055","co38938","norming","","","{""curiosity"":5,""confidence"":1}","[0,1]","../img/tt/1128tt.jpg","",""
"2877.715000002412","","","recognition","survey-text","415","1435575","0.0-6.0-3.58","3011055","co38938","norming","","","{""guess"":""panda""}","","../img/tt/1128tt.jpg","",""
"null","../img/gs/1128gs.jpg","null","reveal","image-keyboard-response","416","1437580","0.0-6.0-4.58","3011055","co38938","norming","","","","","","",""
"null","../img/tt/1128tt.jpg","null","mooney2","image-keyboard-response","417","1439589","0.0-6.0-5.58","3011055","co38938","norming","","","","","","",""
"2319.8000000012107","","","post_reveal_questions","survey-likert","418","1441911","0.0-6.0-6.58","3011055","co38938","norming","","","{""aha"":5}","[0]","../img/tt/1128tt.jpg","",""
"null","<div style=""font-size:60px;""> </div>","null","fixation","html-keyboard-response","419","1442117","0.0-6.0-0.59","3011055","co38938","norming","","","","","","",""
"null","../img/tt/052tt.jpg","null","mooney1","image-keyboard-response","420","1445130","0.0-6.0-1.59","3011055","co38938","norming","","","","","","",""
"5090.349999998696","","","post_mooney1_questions","survey-likert","421","1450223","0.0-6.0-2.59","3011055","co38938","norming","","","{""curiosity"":6,""confidence"":2}","[0,1]","../img/tt/052tt.jpg","",""
"3149.9599999987986","","","recognition","survey-text","422","1453375","0.0-6.0-3.59","3011055","co38938","norming","","","{""guess"":""ring""}","","../img/tt/052tt.jpg","",""
"null","../img/gs/052gs.jpg","null","reveal","image-keyboard-response","423","1455385","0.0-6.0-4.59","3011055","co38938","norming","","","","","","",""
"null","../img/tt/052tt.jpg","null","mooney2","image-keyboard-response","424","1457393","0.0-6.0-5.59","3011055","co38938","norming","","","","","","",""
"2507.5599999981932","","","post_reveal_questions","survey-likert","425","1459903","0.0-6.0-6.59","3011055","co38938","norming","","","{""aha"":1}","[0]","../img/tt/052tt.jpg","",""
"null","<div style=""font-size:60px;""> </div>","null","fixation","html-keyboard-response","426","1460109","0.0-6.0-0.60","3011055","co38938","norming","","","","","","",""
"null","../img/tt/270tt.jpg","null","mooney1","image-keyboard-response","427","1463111","0.0-6.0-1.60","3011055","co38938","norming","","","","","","",""
"4093.894999998156","","","post_mooney1_questions","survey-likert","428","1467208","0.0-6.0-2.60","3011055","co38938","norming","","","{""curiosity"":5,""confidence"":3}","[0,1]","../img/tt/270tt.jpg","",""
"3829.845000000205","","","recognition","survey-text","429","1471039","0.0-6.0-3.60","3011055","co38938","norming","","","{""guess"":""rendier""}","","../img/tt/270tt.jpg","",""
"null","../img/gs/270gs.jpg","null","reveal","image-keyboard-response","430","1473045","0.0-6.0-4.60","3011055","co38938","norming","","","","","","",""
"null","../img/tt/270tt.jpg","null","mooney2","image-keyboard-response","431","1475053","0.0-6.0-5.60","3011055","co38938","norming","","","","","","",""
"2883.8250000008848","","","post_reveal_questions","survey-likert","432","1477940","0.0-6.0-6.60","3011055","co38938","norming","","","{""aha"":3}","[0]","../img/tt/270tt.jpg","",""
"null","<div style=""font-size:60px;""> </div>","null","fixation","html-keyboard-response","433","1478150","0.0-6.0-0.61","3011055","co38938","norming","","","","","","",""
"null","../img/tt/1254tt.jpg","null","mooney1","image-keyboard-response","434","1481159","0.0-6.0-1.61","3011055","co38938","norming","","","","","","",""
"4154.914999999106","","","post_mooney1_questions","survey-likert","435","1485316","0.0-6.0-2.61","3011055","co38938","norming","","","{""curiosity"":5,""confidence"":2}","[0,1]","../img/tt/1254tt.jpg","",""
"3822.0299999993294","","","recognition","survey-text","436","1489140","0.0-6.0-3.61","3011055","co38938","norming","","","{""guess"":""konijn""}","","../img/tt/1254tt.jpg","",""
"null","../img/gs/1254gs.jpg","null","reveal","image-keyboard-response","437","1491146","0.0-6.0-4.61","3011055","co38938","norming","","","","","","",""
"null","../img/tt/1254tt.jpg","null","mooney2","image-keyboard-response","438","1493151","0.0-6.0-5.61","3011055","co38938","norming","","","","","","",""
"2385.875","","","post_reveal_questions","survey-likert","439","1495540","0.0-6.0-6.61","3011055","co38938","norming","","","{""aha"":1}","[0]","../img/tt/1254tt.jpg","",""
"null","<div style=""font-size:60px;""> </div>","null","fixation","html-keyboard-response","440","1495751","0.0-6.0-0.62","3011055","co38938","norming","","","","","","",""
"null","../img/tt/307tt.jpg","null","mooney1","image-keyboard-response","441","1498756","0.0-6.0-1.62","3011055","co38938","norming","","","","","","",""
"4308.294999998994","","","post_mooney1_questions","survey-likert","442","1503068","0.0-6.0-2.62","3011055","co38938","norming","","","{""curiosity"":6,""confidence"":0}","[0,1]","../img/tt/307tt.jpg","",""
"4398.139999997569","","","recognition","survey-text","443","1507468","0.0-6.0-3.62","3011055","co38938","norming","","","{""guess"":""soepkom""}","","../img/tt/307tt.jpg","",""
"null","../img/gs/307gs.jpg","null","reveal","image-keyboard-response","444","1509470","0.0-6.0-4.62","3011055","co38938","norming","","","","","","",""
"null","../img/tt/307tt.jpg","null","mooney2","image-keyboard-response","445","1511472","0.0-6.0-5.62","3011055","co38938","norming","","","","","","",""
"2304.6900000008754","","","post_reveal_questions","survey-likert","446","1513780","0.0-6.0-6.62","3011055","co38938","norming","","","{""aha"":4}","[0]","../img/tt/307tt.jpg","",""
"null","<div style=""font-size:60px;""> </div>","null","fixation","html-keyboard-response","447","1513983","0.0-6.0-0.63","3011055","co38938","norming","","","","","","",""
"null","../img/tt/1362tt.jpg","null","mooney1","image-keyboard-response","448","1516992","0.0-6.0-1.63","3011055","co38938","norming","","","","","","",""
"4016.7900000014342","","","post_mooney1_questions","survey-likert","449","1521012","0.0-6.0-2.63","3011055","co38938","norming","","","{""curiosity"":6,""confidence"":0}","[0,1]","../img/tt/1362tt.jpg","",""
"5190.0549999990035","","","recognition","survey-text","450","1526204","0.0-6.0-3.63","3011055","co38938","norming","","","{""guess"":""eten""}","","../img/tt/1362tt.jpg","",""
"null","../img/gs/1362gs.jpg","null","reveal","image-keyboard-response","451","1528205","0.0-6.0-4.63","3011055","co38938","norming","","","","","","",""
"null","../img/tt/1362tt.jpg","null","mooney2","image-keyboard-response","452","1530208","0.0-6.0-5.63","3011055","co38938","norming","","","","","","",""
"2586.9899999999907","","","post_reveal_questions","survey-likert","453","1532796","0.0-6.0-6.63","3011055","co38938","norming","","","{""aha"":5}","[0]","../img/tt/1362tt.jpg","",""
"null","<div style=""font-size:60px;""> </div>","null","fixation","html-keyboard-response","454","1533003","0.0-6.0-0.64","3011055","co38938","norming","","","","","","",""
"null","../img/tt/112tt.jpg","null","mooney1","image-keyboard-response","455","1536011","0.0-6.0-1.64","3011055","co38938","norming","","","","","","",""
"3957.7049999972805","","","post_mooney1_questions","survey-likert","456","1539972","0.0-6.0-2.64","3011055","co38938","norming","","","{""curiosity"":5,""confidence"":1}","[0,1]","../img/tt/112tt.jpg","",""
"2877.669999998063","","","recognition","survey-text","457","1542852","0.0-6.0-3.64","3011055","co38938","norming","","","{""guess"":""horloge""}","","../img/tt/112tt.jpg","",""
"null","../img/gs/112gs.jpg","null","reveal","image-keyboard-response","458","1544862","0.0-6.0-4.64","3011055","co38938","norming","","","","","","",""
"null","../img/tt/112tt.jpg","null","mooney2","image-keyboard-response","459","1546872","0.0-6.0-5.64","3011055","co38938","norming","","","","","","",""
"2616.754999998957","","","post_reveal_questions","survey-likert","460","1549492","0.0-6.0-6.64","3011055","co38938","norming","","","{""aha"":4}","[0]","../img/tt/112tt.jpg","",""
"null","<div style=""font-size:60px;""> </div>","null","fixation","html-keyboard-response","461","1549693","0.0-6.0-0.65","3011055","co38938","norming","","","","","","",""
"null","../img/tt/517tt.jpg","null","mooney1","image-keyboard-response","462","1552700","0.0-6.0-1.65","3011055","co38938","norming","","","","","","",""
"4501.130000000587","","","post_mooney1_questions","survey-likert","463","1557204","0.0-6.0-2.65","3011055","co38938","norming","","","{""curiosity"":6,""confidence"":0}","[0,1]","../img/tt/517tt.jpg","",""
"4845.975000000326","","","recognition","survey-text","464","1562052","0.0-6.0-3.65","3011055","co38938","norming","","","{""guess"":""weiland""}","","../img/tt/517tt.jpg","",""
"null","../img/gs/517gs.jpg","null","reveal","image-keyboard-response","465","1564060","0.0-6.0-4.65","3011055","co38938","norming","","","","","","",""
"null","../img/tt/517tt.jpg","null","mooney2","image-keyboard-response","466","1566067","0.0-6.0-5.65","3011055","co38938","norming","","","","","","",""
"2071.124999998603","","","post_reveal_questions","survey-likert","467","1568140","0.0-6.0-6.65","3011055","co38938","norming","","","{""aha"":5}","[0]","../img/tt/517tt.jpg","",""
"null","<div style=""font-size:60px;""> </div>","null","fixation","html-keyboard-response","468","1568345","0.0-6.0-0.66","3011055","co38938","norming","","","","","","",""
"null","../img/tt/507tt.jpg","null","mooney1","image-keyboard-response","469","1571357","0.0-6.0-1.66","3011055","co38938","norming","","","","","","",""
"3587.045000000391","","","post_mooney1_questions","survey-likert","470","1574948","0.0-6.0-2.66","3011055","co38938","norming","","","{""curiosity"":6,""confidence"":2}","[0,1]","../img/tt/507tt.jpg","",""
"3685.9850000001024","","","recognition","survey-text","471","1578636","0.0-6.0-3.66","3011055","co38938","norming","","","{""guess"":""danseres""}","","../img/tt/507tt.jpg","",""
"null","../img/gs/507gs.jpg","null","reveal","image-keyboard-response","472","1580643","0.0-6.0-4.66","3011055","co38938","norming","","","","","","",""
"null","../img/tt/507tt.jpg","null","mooney2","image-keyboard-response","473","1582647","0.0-6.0-5.66","3011055","co38938","norming","","","","","","",""
"2113.9599999987986","","","post_reveal_questions","survey-likert","474","1584764","0.0-6.0-6.66","3011055","co38938","norming","","","{""aha"":3}","[0]","../img/tt/507tt.jpg","",""
"null","<div style=""font-size:60px;""> </div>","null","fixation","html-keyboard-response","475","1584972","0.0-6.0-0.67","3011055","co38938","norming","","","","","","",""
"null","../img/tt/590tt.jpg","null","mooney1","image-keyboard-response","476","1587983","0.0-6.0-1.67","3011055","co38938","norming","","","","","","",""
"3489.7050000000745","","","post_mooney1_questions","survey-likert","477","1591476","0.0-6.0-2.67","3011055","co38938","norming","","","{""curiosity"":6,""confidence"":3}","[0,1]","../img/tt/590tt.jpg","",""
"5662.079999998445","","","recognition","survey-text","478","1597132","0.0-6.0-3.67","3011055","co38938","norming","","","{""guess"":""schoolbank""}","","../img/tt/590tt.jpg","",""
"null","../img/gs/590gs.jpg","null","reveal","image-keyboard-response","479","1599136","0.0-6.0-4.67","3011055","co38938","norming","","","","","","",""
"null","../img/tt/590tt.jpg","null","mooney2","image-keyboard-response","480","1601145","0.0-6.0-5.67","3011055","co38938","norming","","","","","","",""
"2416.9050000018906","","","post_reveal_questions","survey-likert","481","1603564","0.0-6.0-6.67","3011055","co38938","norming","","","{""aha"":4}","[0]","../img/tt/590tt.jpg","",""
"null","<div style=""font-size:60px;""> </div>","null","fixation","html-keyboard-response","482","1603766","0.0-6.0-0.68","3011055","co38938","norming","","","","","","",""
"null","../img/tt/1251tt.jpg","null","mooney1","image-keyboard-response","483","1606775","0.0-6.0-1.68","3011055","co38938","norming","","","","","","",""
"4769.520000001648","","","post_mooney1_questions","survey-likert","484","1611549","0.0-6.0-2.68","3011055","co38938","norming","","","{""curiosity"":4,""confidence"":5}","[0,1]","../img/tt/1251tt.jpg","",""
"3166.0950000004377","","","recognition","survey-text","485","1614716","0.0-6.0-3.68","3011055","co38938","norming","","","{""guess"":""bruine beer""}","","../img/tt/1251tt.jpg","",""
"null","../img/gs/1251gs.jpg","null","reveal","image-keyboard-response","486","1616718","0.0-6.0-4.68","3011055","co38938","norming","","","","","","",""
"null","../img/tt/1251tt.jpg","null","mooney2","image-keyboard-response","487","1618722","0.0-6.0-5.68","3011055","co38938","norming","","","","","","",""
"2768.3049999978393","","","post_reveal_questions","survey-likert","488","1621492","0.0-6.0-6.68","3011055","co38938","norming","","","{""aha"":0}","[0]","../img/tt/1251tt.jpg","",""
"null","<div style=""font-size:60px;""> </div>","null","fixation","html-keyboard-response","489","1621699","0.0-6.0-0.69","3011055","co38938","norming","","","","","","",""
"null","../img/tt/1151tt.jpg","null","mooney1","image-keyboard-response","490","1624703","0.0-6.0-1.69","3011055","co38938","norming","","","","","","",""
"3850.60000000149","","","post_mooney1_questions","survey-likert","491","1628556","0.0-6.0-2.69","3011055","co38938","norming","","","{""curiosity"":6,""confidence"":0}","[0,1]","../img/tt/1151tt.jpg","",""
"3246.1049999983516","","","recognition","survey-text","492","1631804","0.0-6.0-3.69","3011055","co38938","norming","","","{""guess"":""druiven""}","","../img/tt/1151tt.jpg","",""
"null","../img/gs/1151gs.jpg","null","reveal","image-keyboard-response","493","1633811","0.0-6.0-4.69","3011055","co38938","norming","","","","","","",""
"null","../img/tt/1151tt.jpg","null","mooney2","image-keyboard-response","494","1635814","0.0-6.0-5.69","3011055","co38938","norming","","","","","","",""
"4283.6699999971315","","","post_reveal_questions","survey-likert","495","1640101","0.0-6.0-6.69","3011055","co38938","norming","","","{""aha"":4}","[0]","../img/tt/1151tt.jpg","",""
"null","<div style=""font-size:60px;""> </div>","null","fixation","html-keyboard-response","496","1640311","0.0-6.0-0.70","3011055","co38938","norming","","","","","","",""
"null","../img/tt/353tt.jpg","null","mooney1","image-keyboard-response","497","1643320","0.0-6.0-1.70","3011055","co38938","norming","","","","","","",""
"3929.5850000018254","","","post_mooney1_questions","survey-likert","498","1647253","0.0-6.0-2.70","3011055","co38938","norming","","","{""curiosity"":2,""confidence"":5}","[0,1]","../img/tt/353tt.jpg","",""
"5078.004999999423","","","recognition","survey-text","499","1652332","0.0-6.0-3.70","3011055","co38938","norming","","","{""guess"":""pingun""}","","../img/tt/353tt.jpg","",""
"null","../img/gs/353gs.jpg","null","reveal","image-keyboard-response","500","1654339","0.0-6.0-4.70","3011055","co38938","norming","","","","","","",""
"null","../img/tt/353tt.jpg","null","mooney2","image-keyboard-response","501","1656357","0.0-6.0-5.70","3011055","co38938","norming","","","","","","",""
"4220.4799999997485","","","post_reveal_questions","survey-likert","502","1660580","0.0-6.0-6.70","3011055","co38938","norming","","","{""aha"":0}","[0]","../img/tt/353tt.jpg","",""
"null","<div style=""font-size:60px;""> </div>","null","fixation","html-keyboard-response","503","1660785","0.0-6.0-0.71","3011055","co38938","norming","","","","","","",""
"null","../img/tt/477tt.jpg","null","mooney1","image-keyboard-response","504","1663798","0.0-6.0-1.71","3011055","co38938","norming","","","","","","",""
"3611.1100000017323","","","post_mooney1_questions","survey-likert","505","1667412","0.0-6.0-2.71","3011055","co38938","norming","","","{""curiosity"":6,""confidence"":0}","[0,1]","../img/tt/477tt.jpg","",""
"2126.06500000041","","","recognition","survey-text","506","1669540","0.0-6.0-3.71","3011055","co38938","norming","","","{""guess"":""kat""}","","../img/tt/477tt.jpg","",""
"null","../img/gs/477gs.jpg","null","reveal","image-keyboard-response","507","1671542","0.0-6.0-4.71","3011055","co38938","norming","","","","","","",""
"null","../img/tt/477tt.jpg","null","mooney2","image-keyboard-response","508","1673545","0.0-6.0-5.71","3011055","co38938","norming","","","","","","",""
"2176.2249999993946","","","post_reveal_questions","survey-likert","509","1675724","0.0-6.0-6.71","3011055","co38938","norming","","","{""aha"":5}","[0]","../img/tt/477tt.jpg","",""
"null","<div style=""font-size:60px;""> </div>","null","fixation","html-keyboard-response","510","1675926","0.0-6.0-0.72","3011055","co38938","norming","","","","","","",""
"null","../img/tt/406tt.jpg","null","mooney1","image-keyboard-response","511","1678935","0.0-6.0-1.72","3011055","co38938","norming","","","","","","",""
"3833.4949999989476","","","post_mooney1_questions","survey-likert","512","1682772","0.0-6.0-2.72","3011055","co38938","norming","","","{""curiosity"":6,""confidence"":0}","[0,1]","../img/tt/406tt.jpg","",""
"2085.885000000475","","","recognition","survey-text","513","1684860","0.0-6.0-3.72","3011055","co38938","norming","","","{""guess"":""""}","","../img/tt/406tt.jpg","",""
"null","../img/gs/406gs.jpg","null","reveal","image-keyboard-response","514","1686868","0.0-6.0-4.72","3011055","co38938","norming","","","","","","",""
"null","../img/tt/406tt.jpg","null","mooney2","image-keyboard-response","515","1688878","0.0-6.0-5.72","3011055","co38938","norming","","","","","","",""
"2658.3749999990687","","","post_reveal_questions","survey-likert","516","1691540","0.0-6.0-6.72","3011055","co38938","norming","","","{""aha"":6}","[0]","../img/tt/406tt.jpg","",""
"null","<div style=""font-size:60px;""> </div>","null","fixation","html-keyboard-response","517","1691742","0.0-6.0-0.73","3011055","co38938","norming","","","","","","",""
"null","../img/tt/019tt.jpg","null","mooney1","image-keyboard-response","518","1694749","0.0-6.0-1.73","3011055","co38938","norming","","","","","","",""
"5787.01500000176","","","post_mooney1_questions","survey-likert","519","1700540","0.0-6.0-2.73","3011055","co38938","norming","","","{""curiosity"":5,""confidence"":3}","[0,1]","../img/tt/019tt.jpg","",""
"3622.134999997914","","","recognition","survey-text","520","1704164","0.0-6.0-3.73","3011055","co38938","norming","","","{""guess"":""snoeischaar""}","","../img/tt/019tt.jpg","",""
"null","../img/gs/019gs.jpg","null","reveal","image-keyboard-response","521","1706170","0.0-6.0-4.73","3011055","co38938","norming","","","","","","",""
"null","../img/tt/019tt.jpg","null","mooney2","image-keyboard-response","522","1708176","0.0-6.0-5.73","3011055","co38938","norming","","","","","","",""
"2538.8149999997113","","","post_reveal_questions","survey-likert","523","1710716","0.0-6.0-6.73","3011055","co38938","norming","","","{""aha"":4}","[0]","../img/tt/019tt.jpg","",""
"null","<div style=""font-size:60px;""> </div>","null","fixation","html-keyboard-response","524","1710918","0.0-6.0-0.74","3011055","co38938","norming","","","","","","",""
"null","../img/tt/044tt.jpg","null","mooney1","image-keyboard-response","525","1713927","0.0-6.0-1.74","3011055","co38938","norming","","","","","","",""
"3609.570000000531","","","post_mooney1_questions","survey-likert","526","1717531","0.0-6.0-2.74","3011055","co38938","norming","","","{""curiosity"":6,""confidence"":2}","[0,1]","../img/tt/044tt.jpg","",""
"3038.010000000242","","","recognition","survey-text","527","1720571","0.0-6.0-3.74","3011055","co38938","norming","","","{""guess"":""computer""}","","../img/tt/044tt.jpg","",""
"null","../img/gs/044gs.jpg","null","reveal","image-keyboard-response","528","1722578","0.0-6.0-4.74","3011055","co38938","norming","","","","","","",""
"null","../img/tt/044tt.jpg","null","mooney2","image-keyboard-response","529","1724579","0.0-6.0-5.74","3011055","co38938","norming","","","","","","",""
"2076.704999999609","","","post_reveal_questions","survey-likert","530","1726659","0.0-6.0-6.74","3011055","co38938","norming","","","{""aha"":5}","[0]","../img/tt/044tt.jpg","",""
"null","<div style=""font-size:60px;""> </div>","null","fixation","html-keyboard-response","531","1726867","0.0-6.0-0.75","3011055","co38938","norming","","","","","","",""
"null","../img/tt/1006tt.jpg","null","mooney1","image-keyboard-response","532","1729874","0.0-6.0-1.75","3011055","co38938","norming","","","","","","",""
"3573.3000000000466","","","post_mooney1_questions","survey-likert","533","1733451","0.0-6.0-2.75","3011055","co38938","norming","","","{""curiosity"":6,""confidence"":0}","[0,1]","../img/tt/1006tt.jpg","",""
"4942.244999998482","","","recognition","survey-text","534","1738395","0.0-6.0-3.75","3011055","co38938","norming","","","{""guess"":""geiten""}","","../img/tt/1006tt.jpg","",""
"null","../img/gs/1006gs.jpg","null","reveal","image-keyboard-response","535","1740402","0.0-6.0-4.75","3011055","co38938","norming","","","","","","",""
"null","../img/tt/1006tt.jpg","null","mooney2","image-keyboard-response","536","1742405","0.0-6.0-5.75","3011055","co38938","norming","","","","","","",""
"3659.144999997923","","","post_reveal_questions","survey-likert","537","1746067","0.0-6.0-6.75","3011055","co38938","norming","","","{""aha"":3}","[0]","../img/tt/1006tt.jpg","",""
"null","<div style=""font-size:60px;""> </div>","null","fixation","html-keyboard-response","538","1746270","0.0-6.0-0.76","3011055","co38938","norming","","","","","","",""
"null","../img/tt/1250tt.jpg","null","mooney1","image-keyboard-response","539","1749276","0.0-6.0-1.76","3011055","co38938","norming","","","","","","",""
"3285.2950000013225","","","post_mooney1_questions","survey-likert","540","1752563","0.0-6.0-2.76","3011055","co38938","norming","","","{""curiosity"":6,""confidence"":4}","[0,1]","../img/tt/1250tt.jpg","",""
"2838.0550000001676","","","recognition","survey-text","541","1755403","0.0-6.0-3.76","3011055","co38938","norming","","","{""guess"":""zeehonden""}","","../img/tt/1250tt.jpg","",""
"null","../img/gs/1250gs.jpg","null","reveal","image-keyboard-response","542","1757412","0.0-6.0-4.76","3011055","co38938","norming","","","","","","",""
"null","../img/tt/1250tt.jpg","null","mooney2","image-keyboard-response","543","1759415","0.0-6.0-5.76","3011055","co38938","norming","","","","","","",""
"1913.329999999376","","","post_reveal_questions","survey-likert","544","1761331","0.0-6.0-6.76","3011055","co38938","norming","","","{""aha"":5}","[0]","../img/tt/1250tt.jpg","",""
"null","<div style=""font-size:60px;""> </div>","null","fixation","html-keyboard-response","545","1761535","0.0-6.0-0.77","3011055","co38938","norming","","","","","","",""
"null","../img/tt/049tt.jpg","null","mooney1","image-keyboard-response","546","1764541","0.0-6.0-1.77","3011055","co38938","norming","","","","","","",""
"3914.7399999999907","","","post_mooney1_questions","survey-likert","547","1768459","0.0-6.0-2.77","3011055","co38938","norming","","","{""curiosity"":6,""confidence"":0}","[0,1]","../img/tt/049tt.jpg","",""
"4013.9650000019465","","","recognition","survey-text","548","1772475","0.0-6.0-3.77","3011055","co38938","norming","","","{""guess"":""meloen""}","","../img/tt/049tt.jpg","",""
"null","../img/gs/049gs.jpg","null","reveal","image-keyboard-response","549","1774481","0.0-6.0-4.77","3011055","co38938","norming","","","","","","",""
"null","../img/tt/049tt.jpg","null","mooney2","image-keyboard-response","550","1776483","0.0-6.0-5.77","3011055","co38938","norming","","","","","","",""
"2557.564999999013","","","post_reveal_questions","survey-likert","551","1779043","0.0-6.0-6.77","3011055","co38938","norming","","","{""aha"":4}","[0]","../img/tt/049tt.jpg","",""
