"rt","stimulus","key_press","test_part","trial_type","trial_index","time_elapsed","internal_node_id","totalTime","subject","experiment_name","button_pressed","success","responses","question_order","currentStim","old","correct"
"10632.290000000012","Welcome to the experiment. This is an online experiment so please don't close the tab/window until we say goodbye.  Press any key to begin.","13","instructions","html-keyboard-response","0","10646","0.0-0.0","2848435","co38428","norming","","","","","","",""
"13638.129999999992","<div style='word-wrap: break-word; width: 900px'><h3>Please consider this information carefully before deciding whether to participate in this research</h3><ul style='text-align: left; font-size: .8em;'><li><b>Purpose of the research</b>: To examine how people process images.</li><li><b>What you will do in this research</b>:  Stimuli (images) will be presented on the computer and you will be asked different questions about them.</li><li><b>Time required</b>: Participation will take between 45 and 60 minutes to complete.</li><li><b>Risks</b>:  There are no anticipated risks associated with participating in this study. The effects of participating should be comparable to those you would experience from viewing a computer monitor for 30 minutes and using a mouse or keyboard.</li><li><b>Benefits</b>:  This study provides no benefits to you individually except for the credit. The study provides important information about the nature of perception and learning.</li><li><b>Confidentiality</b>:  Your participation in this study will remain confidential. No personally identifiable information will be associated with your data. Your de-identified data may be shared with other researchers and used in future projects.</li><li><b>Participation and withdrawal</b>:  Your participation in this study is completely voluntary and you may refuse to participate or you may choose to withdraw at any time without penalty.</li><li><b>How to contact the researchers</b>: If you have questions or concerns about your participation or payment, or want to request a summary of research findings, please contact Sander Van de Cruys (KU Leuven), at sander.vandecruys@kuleuven.be.</li></ul><p>The nature and purpose of this research have been sufficiently explained and I agree to participate in this study.  I understand that I am free to withdraw at any time without incurring any penalty.</p><p>Please consent by clicking the button below to continue. Otherwise, please exit the study at this time.</p></div>","","instructions","html-button-response","1","24651","0.0-1.0","2848435","co38428","norming","0","","","","","",""
"","","","instructions","fullscreen","2","31108","0.0-2.0","2848435","co38428","norming","","true","","","","",""
"49461.25499999994","","","sona","survey-html-form","3","80575","0.0-3.0","2848435","co38428","norming","","","[{""name"":""sonaid"",""value"":""38428""},{""name"":""debrief"",""value"":""yes""},{""name"":""datajoin"",""value"":""yes""}]","","","",""
"91858.53500000008","<div style='word-wrap: break-word; width: 900px'><h3>Instructions</h3><p>This experiment will have 3 parts. In the first part you will see a series of distorted images like the one below on the left. As you can see in the righthand image, the distorted images are derived from actual photographs. In what follows, you will <strong>briefly</strong> be presented with <strong>only</strong> the distorted image.</p> <div style='float: left; margin-right: 20px;'><img src='../img/018tt.jpg' height='250' width='250'></img></div><div style='float: right; margin-left: 20px;'><img src='../img/018gs.jpg' height='250' width='250'></img></div><p>Subsequently you will be asked a few questions about the image: One question on how <strong>curious</strong> you are about the solution and one on how <strong>confident</strong> you are that you know the solution.</p>Next, we ask you to make a guess on what is in the image. Note that it is OK to name just the <strong>basic level category</strong>. For example when you see a parrot in the image, 'parrot' will obviously be a correct answer but also correct is 'bird'. However, 'animal' will <strong>not</strong> be counted as a correct response. For the example above, 'rose' would be correct or 'flower', but not 'plant'. When soccer players are depicted, 'soccer', 'football', 'soccer players' will be correct, but not 'humans', 'outdoors', or 'sports'. You do not need to describe the image in full, just name the main object in it <strong>in one or two words</strong>. All images depict objects from one of the following broad level categories: animals, inanimate objects, plants, sports, vehicles, and food. Recognizing means knowing <strong>more</strong> than these broad labels for a given image. But we always encourage you to <strong>make a guess</strong> if you can. Note that you are allowed to use <strong>Dutch and English</strong> in your answers, whatever comes easiest for you.</p><p>Press any key to continue.</p></div>","13","instructions","html-keyboard-response","4","173210","0.0-4.0","2848435","co38428","norming","","","","","","",""
"71006.82000000007","<div style='word-wrap: break-word; width: 900px'><h3>Instructions</h3> <p>Next, the solution image will be revealed to you and you'll be asked to indicate how strong your <strong>aha-experience</strong> was after seeing the solution. This describes the positive feeling of the 'click' you sometimes experience, when the pieces of the 'puzzle' fall together and you suddenly have 'insight' in the image.</p><img src='aha.jpg' height='188' width='250'></img><p>Note that there are no right or wrong answers. We are interested in what <strong>you</strong> see in the image and how <strong>you</strong> feel about it.</p><p>Press any key to start the experiment.</p></div>","32","instructions","html-keyboard-response","5","244220","0.0-5.0","2848435","co38428","norming","","","","","","",""
"null","<div style=""font-size:60px;""> </div>","null","fixation","html-keyboard-response","6","244421","0.0-6.0-0.0","2848435","co38428","norming","","","","","","",""
"null","../img/tt/189tt.jpg","null","mooney1","image-keyboard-response","7","247425","0.0-6.0-1.0","2848435","co38428","norming","","","","","","",""
"9698.280000000057","","","post_mooney1_questions","survey-likert","8","257125","0.0-6.0-2.0","2848435","co38428","norming","","","{""curiosity"":2,""confidence"":6}","[0,1]","../img/tt/189tt.jpg","",""
"5213.515000000043","","","recognition","survey-text","9","262340","0.0-6.0-3.0","2848435","co38428","norming","","","{""guess"":""man""}","","../img/tt/189tt.jpg","",""
"null","../img/gs/189gs.jpg","null","reveal","image-keyboard-response","10","264344","0.0-6.0-4.0","2848435","co38428","norming","","","","","","",""
"null","../img/tt/189tt.jpg","null","mooney2","image-keyboard-response","11","266346","0.0-6.0-5.0","2848435","co38428","norming","","","","","","",""
"6217.790000000037","","","post_reveal_questions","survey-likert","12","272565","0.0-6.0-6.0","2848435","co38428","norming","","","{""aha"":3}","[0]","../img/tt/189tt.jpg","",""
"null","<div style=""font-size:60px;""> </div>","null","fixation","html-keyboard-response","13","272768","0.0-6.0-0.1","2848435","co38428","norming","","","","","","",""
"null","../img/tt/1148tt.jpg","null","mooney1","image-keyboard-response","14","275777","0.0-6.0-1.1","2848435","co38428","norming","","","","","","",""
"9874.94000000006","","","post_mooney1_questions","survey-likert","15","285653","0.0-6.0-2.1","2848435","co38428","norming","","","{""curiosity"":4,""confidence"":5}","[0,1]","../img/tt/1148tt.jpg","",""
"2646.070000000007","","","recognition","survey-text","16","288301","0.0-6.0-3.1","2848435","co38428","norming","","","{""guess"":""woman""}","","../img/tt/1148tt.jpg","",""
"null","../img/gs/1148gs.jpg","null","reveal","image-keyboard-response","17","290311","0.0-6.0-4.1","2848435","co38428","norming","","","","","","",""
"null","../img/tt/1148tt.jpg","null","mooney2","image-keyboard-response","18","292316","0.0-6.0-5.1","2848435","co38428","norming","","","","","","",""
"1975.1599999999162","","","post_reveal_questions","survey-likert","19","294292","0.0-6.0-6.1","2848435","co38428","norming","","","{""aha"":6}","[0]","../img/tt/1148tt.jpg","",""
"null","<div style=""font-size:60px;""> </div>","null","fixation","html-keyboard-response","20","294495","0.0-6.0-0.2","2848435","co38428","norming","","","","","","",""
"null","../img/tt/1006tt.jpg","null","mooney1","image-keyboard-response","21","297505","0.0-6.0-1.2","2848435","co38428","norming","","","","","","",""
"8369.714999999967","","","post_mooney1_questions","survey-likert","22","305873","0.0-6.0-2.2","2848435","co38428","norming","","","{""curiosity"":6,""confidence"":0}","[0,1]","../img/tt/1006tt.jpg","",""
"5509.820000000007","","","recognition","survey-text","23","311384","0.0-6.0-3.2","2848435","co38428","norming","","","{""guess"":""""}","","../img/tt/1006tt.jpg","",""
"null","../img/gs/1006gs.jpg","null","reveal","image-keyboard-response","24","313392","0.0-6.0-4.2","2848435","co38428","norming","","","","","","",""
"null","../img/tt/1006tt.jpg","null","mooney2","image-keyboard-response","25","315396","0.0-6.0-5.2","2848435","co38428","norming","","","","","","",""
"2707.380000000063","","","post_reveal_questions","survey-likert","26","318105","0.0-6.0-6.2","2848435","co38428","norming","","","{""aha"":6}","[0]","../img/tt/1006tt.jpg","",""
"null","<div style=""font-size:60px;""> </div>","null","fixation","html-keyboard-response","27","318307","0.0-6.0-0.3","2848435","co38428","norming","","","","","","",""
"null","../img/tt/549tt.jpg","null","mooney1","image-keyboard-response","28","321310","0.0-6.0-1.3","2848435","co38428","norming","","","","","","",""
"6449.614999999991","","","post_mooney1_questions","survey-likert","29","327761","0.0-6.0-2.3","2848435","co38428","norming","","","{""curiosity"":5,""confidence"":0}","[0,1]","../img/tt/549tt.jpg","",""
"1541.9249999999884","","","recognition","survey-text","30","329304","0.0-6.0-3.3","2848435","co38428","norming","","","{""guess"":""""}","","../img/tt/549tt.jpg","",""
"null","../img/gs/549gs.jpg","null","reveal","image-keyboard-response","31","331313","0.0-6.0-4.3","2848435","co38428","norming","","","","","","",""
"null","../img/tt/549tt.jpg","null","mooney2","image-keyboard-response","32","333318","0.0-6.0-5.3","2848435","co38428","norming","","","","","","",""
"1793.4849999999278","","","post_reveal_questions","survey-likert","33","335113","0.0-6.0-6.3","2848435","co38428","norming","","","{""aha"":6}","[0]","../img/tt/549tt.jpg","",""
"null","<div style=""font-size:60px;""> </div>","null","fixation","html-keyboard-response","34","335315","0.0-6.0-0.4","2848435","co38428","norming","","","","","","",""
"null","../img/tt/112tt.jpg","null","mooney1","image-keyboard-response","35","338316","0.0-6.0-1.4","2848435","co38428","norming","","","","","","",""
"11715.305000000051","","","post_mooney1_questions","survey-likert","36","350033","0.0-6.0-2.4","2848435","co38428","norming","","","{""curiosity"":4,""confidence"":1}","[0,1]","../img/tt/112tt.jpg","",""
"3037.8799999999464","","","recognition","survey-text","37","353072","0.0-6.0-3.4","2848435","co38428","norming","","","{""guess"":""car""}","","../img/tt/112tt.jpg","",""
"null","../img/gs/112gs.jpg","null","reveal","image-keyboard-response","38","355080","0.0-6.0-4.4","2848435","co38428","norming","","","","","","",""
"null","../img/tt/112tt.jpg","null","mooney2","image-keyboard-response","39","357082","0.0-6.0-5.4","2848435","co38428","norming","","","","","","",""
"2189.6149999999907","","","post_reveal_questions","survey-likert","40","359272","0.0-6.0-6.4","2848435","co38428","norming","","","{""aha"":5}","[0]","../img/tt/112tt.jpg","",""
"null","<div style=""font-size:60px;""> </div>","null","fixation","html-keyboard-response","41","359474","0.0-6.0-0.5","2848435","co38428","norming","","","","","","",""
"null","../img/tt/456tt.jpg","null","mooney1","image-keyboard-response","42","362476","0.0-6.0-1.5","2848435","co38428","norming","","","","","","",""
"8203.755000000005","","","post_mooney1_questions","survey-likert","43","370684","0.0-6.0-2.5","2848435","co38428","norming","","","{""curiosity"":4,""confidence"":2}","[0,1]","../img/tt/456tt.jpg","",""
"3373.990000000049","","","recognition","survey-text","44","374060","0.0-6.0-3.5","2848435","co38428","norming","","","{""guess"":""monkey""}","","../img/tt/456tt.jpg","",""
"null","../img/gs/456gs.jpg","null","reveal","image-keyboard-response","45","376061","0.0-6.0-4.5","2848435","co38428","norming","","","","","","",""
"null","../img/tt/456tt.jpg","null","mooney2","image-keyboard-response","46","378067","0.0-6.0-5.5","2848435","co38428","norming","","","","","","",""
"5007.294999999984","","","post_reveal_questions","survey-likert","47","383076","0.0-6.0-6.5","2848435","co38428","norming","","","{""aha"":3}","[0]","../img/tt/456tt.jpg","",""
"null","<div style=""font-size:60px;""> </div>","null","fixation","html-keyboard-response","48","383277","0.0-6.0-0.6","2848435","co38428","norming","","","","","","",""
"null","../img/tt/1234tt.jpg","null","mooney1","image-keyboard-response","49","386282","0.0-6.0-1.6","2848435","co38428","norming","","","","","","",""
"5952.630000000005","","","post_mooney1_questions","survey-likert","50","392236","0.0-6.0-2.6","2848435","co38428","norming","","","{""curiosity"":4,""confidence"":4}","[0,1]","../img/tt/1234tt.jpg","",""
"1934.0400000000955","","","recognition","survey-text","51","394172","0.0-6.0-3.6","2848435","co38428","norming","","","{""guess"":""man""}","","../img/tt/1234tt.jpg","",""
"null","../img/gs/1234gs.jpg","null","reveal","image-keyboard-response","52","396173","0.0-6.0-4.6","2848435","co38428","norming","","","","","","",""
"null","../img/tt/1234tt.jpg","null","mooney2","image-keyboard-response","53","398183","0.0-6.0-5.6","2848435","co38428","norming","","","","","","",""
"5643.535000000091","","","post_reveal_questions","survey-likert","54","403828","0.0-6.0-6.6","2848435","co38428","norming","","","{""aha"":5}","[0]","../img/tt/1234tt.jpg","",""
"null","<div style=""font-size:60px;""> </div>","null","fixation","html-keyboard-response","55","404029","0.0-6.0-0.7","2848435","co38428","norming","","","","","","",""
"null","../img/tt/140tt.jpg","null","mooney1","image-keyboard-response","56","407037","0.0-6.0-1.7","2848435","co38428","norming","","","","","","",""
"10405.975000000035","","","post_mooney1_questions","survey-likert","57","417444","0.0-6.0-2.7","2848435","co38428","norming","","","{""curiosity"":5,""confidence"":0}","[0,1]","../img/tt/140tt.jpg","",""
"845.9500000000116","","","recognition","survey-text","58","418291","0.0-6.0-3.7","2848435","co38428","norming","","","{""guess"":""""}","","../img/tt/140tt.jpg","",""
"null","../img/gs/140gs.jpg","null","reveal","image-keyboard-response","59","420297","0.0-6.0-4.7","2848435","co38428","norming","","","","","","",""
"null","../img/tt/140tt.jpg","null","mooney2","image-keyboard-response","60","422299","0.0-6.0-5.7","2848435","co38428","norming","","","","","","",""
"5800.020000000019","","","post_reveal_questions","survey-likert","61","428097","0.0-6.0-6.7","2848435","co38428","norming","","","{""aha"":2}","[0]","../img/tt/140tt.jpg","",""
"null","<div style=""font-size:60px;""> </div>","null","fixation","html-keyboard-response","62","428300","0.0-6.0-0.8","2848435","co38428","norming","","","","","","",""
"null","../img/tt/296tt.jpg","null","mooney1","image-keyboard-response","63","431301","0.0-6.0-1.8","2848435","co38428","norming","","","","","","",""
"7203.669999999984","","","post_mooney1_questions","survey-likert","64","438506","0.0-6.0-2.8","2848435","co38428","norming","","","{""curiosity"":4,""confidence"":3}","[0,1]","../img/tt/296tt.jpg","",""
"3598.030000000028","","","recognition","survey-text","65","442105","0.0-6.0-3.8","2848435","co38428","norming","","","{""guess"":""café""}","","../img/tt/296tt.jpg","",""
"null","../img/gs/296gs.jpg","null","reveal","image-keyboard-response","66","444107","0.0-6.0-4.8","2848435","co38428","norming","","","","","","",""
"null","../img/tt/296tt.jpg","null","mooney2","image-keyboard-response","67","446108","0.0-6.0-5.8","2848435","co38428","norming","","","","","","",""
"3356","","","post_reveal_questions","survey-likert","68","449465","0.0-6.0-6.8","2848435","co38428","norming","","","{""aha"":3}","[0]","../img/tt/296tt.jpg","",""
"null","<div style=""font-size:60px;""> </div>","null","fixation","html-keyboard-response","69","449668","0.0-6.0-0.9","2848435","co38428","norming","","","","","","",""
"null","../img/tt/1224tt.jpg","null","mooney1","image-keyboard-response","70","452670","0.0-6.0-1.9","2848435","co38428","norming","","","","","","",""
"7610.535000000033","","","post_mooney1_questions","survey-likert","71","460282","0.0-6.0-2.9","2848435","co38428","norming","","","{""curiosity"":6,""confidence"":3}","[0,1]","../img/tt/1224tt.jpg","",""
"2269.7350000001024","","","recognition","survey-text","72","462553","0.0-6.0-3.9","2848435","co38428","norming","","","{""guess"":""tandarts""}","","../img/tt/1224tt.jpg","",""
"null","../img/gs/1224gs.jpg","null","reveal","image-keyboard-response","73","464561","0.0-6.0-4.9","2848435","co38428","norming","","","","","","",""
"null","../img/tt/1224tt.jpg","null","mooney2","image-keyboard-response","74","466569","0.0-6.0-5.9","2848435","co38428","norming","","","","","","",""
"2583.8150000000023","","","post_reveal_questions","survey-likert","75","469153","0.0-6.0-6.9","2848435","co38428","norming","","","{""aha"":5}","[0]","../img/tt/1224tt.jpg","",""
"null","<div style=""font-size:60px;""> </div>","null","fixation","html-keyboard-response","76","469355","0.0-6.0-0.10","2848435","co38428","norming","","","","","","",""
"null","../img/tt/1053tt.jpg","null","mooney1","image-keyboard-response","77","472361","0.0-6.0-1.10","2848435","co38428","norming","","","","","","",""
"8175.794999999984","","","post_mooney1_questions","survey-likert","78","480538","0.0-6.0-2.10","2848435","co38428","norming","","","{""curiosity"":6,""confidence"":0}","[0,1]","../img/tt/1053tt.jpg","",""
"941.5849999999045","","","recognition","survey-text","79","481481","0.0-6.0-3.10","2848435","co38428","norming","","","{""guess"":""""}","","../img/tt/1053tt.jpg","",""
"null","../img/gs/1053gs.jpg","null","reveal","image-keyboard-response","80","483488","0.0-6.0-4.10","2848435","co38428","norming","","","","","","",""
"null","../img/tt/1053tt.jpg","null","mooney2","image-keyboard-response","81","485493","0.0-6.0-5.10","2848435","co38428","norming","","","","","","",""
"4314.645000000077","","","post_reveal_questions","survey-likert","82","489813","0.0-6.0-6.10","2848435","co38428","norming","","","{""aha"":4}","[0]","../img/tt/1053tt.jpg","",""
"null","<div style=""font-size:60px;""> </div>","null","fixation","html-keyboard-response","83","490015","0.0-6.0-0.11","2848435","co38428","norming","","","","","","",""
"null","../img/tt/435tt.jpg","null","mooney1","image-keyboard-response","84","493022","0.0-6.0-1.11","2848435","co38428","norming","","","","","","",""
"12542.830000000016","","","post_mooney1_questions","survey-likert","85","505566","0.0-6.0-2.11","2848435","co38428","norming","","","{""curiosity"":2,""confidence"":0}","[0,1]","../img/tt/435tt.jpg","",""
"981.5899999999674","","","recognition","survey-text","86","506549","0.0-6.0-3.11","2848435","co38428","norming","","","{""guess"":""""}","","../img/tt/435tt.jpg","",""
"null","../img/gs/435gs.jpg","null","reveal","image-keyboard-response","87","508557","0.0-6.0-4.11","2848435","co38428","norming","","","","","","",""
"null","../img/tt/435tt.jpg","null","mooney2","image-keyboard-response","88","510562","0.0-6.0-5.11","2848435","co38428","norming","","","","","","",""
"2785.945000000065","","","post_reveal_questions","survey-likert","89","513349","0.0-6.0-6.11","2848435","co38428","norming","","","{""aha"":2}","[0]","../img/tt/435tt.jpg","",""
"null","<div style=""font-size:60px;""> </div>","null","fixation","html-keyboard-response","90","513551","0.0-6.0-0.12","2848435","co38428","norming","","","","","","",""
"null","../img/tt/1275tt.jpg","null","mooney1","image-keyboard-response","91","516555","0.0-6.0-1.12","2848435","co38428","norming","","","","","","",""
"6297.710000000021","","","post_mooney1_questions","survey-likert","92","522854","0.0-6.0-2.12","2848435","co38428","norming","","","{""curiosity"":5,""confidence"":3}","[0,1]","../img/tt/1275tt.jpg","",""
"1429.6600000000326","","","recognition","survey-text","93","524285","0.0-6.0-3.12","2848435","co38428","norming","","","{""guess"":""vos""}","","../img/tt/1275tt.jpg","",""
"null","../img/gs/1275gs.jpg","null","reveal","image-keyboard-response","94","526293","0.0-6.0-4.12","2848435","co38428","norming","","","","","","",""
"null","../img/tt/1275tt.jpg","null","mooney2","image-keyboard-response","95","528302","0.0-6.0-5.12","2848435","co38428","norming","","","","","","",""
"4285.6699999999255","","","post_reveal_questions","survey-likert","96","532589","0.0-6.0-6.12","2848435","co38428","norming","","","{""aha"":3}","[0]","../img/tt/1275tt.jpg","",""
"null","<div style=""font-size:60px;""> </div>","null","fixation","html-keyboard-response","97","532792","0.0-6.0-0.13","2848435","co38428","norming","","","","","","",""
"null","../img/tt/1290tt.jpg","null","mooney1","image-keyboard-response","98","535798","0.0-6.0-1.13","2848435","co38428","norming","","","","","","",""
"9226.595000000088","","","post_mooney1_questions","survey-likert","99","545030","0.0-6.0-2.13","2848435","co38428","norming","","","{""curiosity"":5,""confidence"":2}","[0,1]","../img/tt/1290tt.jpg","",""
"1637.8600000001024","","","recognition","survey-text","100","546669","0.0-6.0-3.13","2848435","co38428","norming","","","{""guess"":""mens""}","","../img/tt/1290tt.jpg","",""
"null","../img/gs/1290gs.jpg","null","reveal","image-keyboard-response","101","548672","0.0-6.0-4.13","2848435","co38428","norming","","","","","","",""
"null","../img/tt/1290tt.jpg","null","mooney2","image-keyboard-response","102","550680","0.0-6.0-5.13","2848435","co38428","norming","","","","","","",""
"2244.2149999999674","","","post_reveal_questions","survey-likert","103","552925","0.0-6.0-6.13","2848435","co38428","norming","","","{""aha"":4}","[0]","../img/tt/1290tt.jpg","",""
"null","<div style=""font-size:60px;""> </div>","null","fixation","html-keyboard-response","104","553134","0.0-6.0-0.14","2848435","co38428","norming","","","","","","",""
"null","../img/tt/1128tt.jpg","null","mooney1","image-keyboard-response","105","556137","0.0-6.0-1.14","2848435","co38428","norming","","","","","","",""
"5561.854999999865","","","post_mooney1_questions","survey-likert","106","561702","0.0-6.0-2.14","2848435","co38428","norming","","","{""curiosity"":6,""confidence"":0}","[0,1]","../img/tt/1128tt.jpg","",""
"902.5100000001257","","","recognition","survey-text","107","562606","0.0-6.0-3.14","2848435","co38428","norming","","","{""guess"":""""}","","../img/tt/1128tt.jpg","",""
"null","../img/gs/1128gs.jpg","null","reveal","image-keyboard-response","108","564615","0.0-6.0-4.14","2848435","co38428","norming","","","","","","",""
"null","../img/tt/1128tt.jpg","null","mooney2","image-keyboard-response","109","566617","0.0-6.0-5.14","2848435","co38428","norming","","","","","","",""
"5033.5950000000885","","","post_reveal_questions","survey-likert","110","571653","0.0-6.0-6.14","2848435","co38428","norming","","","{""aha"":2}","[0]","../img/tt/1128tt.jpg","",""
"null","<div style=""font-size:60px;""> </div>","null","fixation","html-keyboard-response","111","571855","0.0-6.0-0.15","2848435","co38428","norming","","","","","","",""
"null","../img/tt/1269tt.jpg","null","mooney1","image-keyboard-response","112","574859","0.0-6.0-1.15","2848435","co38428","norming","","","","","","",""
"8215.929999999818","","","post_mooney1_questions","survey-likert","113","583078","0.0-6.0-2.15","2848435","co38428","norming","","","{""curiosity"":4,""confidence"":2}","[0,1]","../img/tt/1269tt.jpg","",""
"1366.1199999999953","","","recognition","survey-text","114","584445","0.0-6.0-3.15","2848435","co38428","norming","","","{""guess"":""vos""}","","../img/tt/1269tt.jpg","",""
"null","../img/gs/1269gs.jpg","null","reveal","image-keyboard-response","115","586450","0.0-6.0-4.15","2848435","co38428","norming","","","","","","",""
"null","../img/tt/1269tt.jpg","null","mooney2","image-keyboard-response","116","588461","0.0-6.0-5.15","2848435","co38428","norming","","","","","","",""
"2838.484999999986","","","post_reveal_questions","survey-likert","117","591301","0.0-6.0-6.15","2848435","co38428","norming","","","{""aha"":4}","[0]","../img/tt/1269tt.jpg","",""
"null","<div style=""font-size:60px;""> </div>","null","fixation","html-keyboard-response","118","591505","0.0-6.0-0.16","2848435","co38428","norming","","","","","","",""
"null","../img/tt/121tt.jpg","null","mooney1","image-keyboard-response","119","594513","0.0-6.0-1.16","2848435","co38428","norming","","","","","","",""
"4482.110000000102","","","post_mooney1_questions","survey-likert","120","598998","0.0-6.0-2.16","2848435","co38428","norming","","","{""curiosity"":4,""confidence"":1}","[0,1]","../img/tt/121tt.jpg","",""
"1558.0900000000838","","","recognition","survey-text","121","600557","0.0-6.0-3.16","2848435","co38428","norming","","","{""guess"":""bergen""}","","../img/tt/121tt.jpg","",""
"null","../img/gs/121gs.jpg","null","reveal","image-keyboard-response","122","602564","0.0-6.0-4.16","2848435","co38428","norming","","","","","","",""
"null","../img/tt/121tt.jpg","null","mooney2","image-keyboard-response","123","604575","0.0-6.0-5.16","2848435","co38428","norming","","","","","","",""
"3588.014999999781","","","post_reveal_questions","survey-likert","124","608165","0.0-6.0-6.16","2848435","co38428","norming","","","{""aha"":2}","[0]","../img/tt/121tt.jpg","",""
"null","<div style=""font-size:60px;""> </div>","null","fixation","html-keyboard-response","125","608367","0.0-6.0-0.17","2848435","co38428","norming","","","","","","",""
"null","../img/tt/406tt.jpg","null","mooney1","image-keyboard-response","126","611370","0.0-6.0-1.17","2848435","co38428","norming","","","","","","",""
"8602.545000000158","","","post_mooney1_questions","survey-likert","127","619974","0.0-6.0-2.17","2848435","co38428","norming","","","{""curiosity"":5,""confidence"":1}","[0,1]","../img/tt/406tt.jpg","",""
"3142.170000000042","","","recognition","survey-text","128","623117","0.0-6.0-3.17","2848435","co38428","norming","","","{""guess"":""pompoen""}","","../img/tt/406tt.jpg","",""
"null","../img/gs/406gs.jpg","null","reveal","image-keyboard-response","129","625118","0.0-6.0-4.17","2848435","co38428","norming","","","","","","",""
"null","../img/tt/406tt.jpg","null","mooney2","image-keyboard-response","130","627120","0.0-6.0-5.17","2848435","co38428","norming","","","","","","",""
"2435.5749999999534","","","post_reveal_questions","survey-likert","131","629557","0.0-6.0-6.17","2848435","co38428","norming","","","{""aha"":5}","[0]","../img/tt/406tt.jpg","",""
"null","<div style=""font-size:60px;""> </div>","null","fixation","html-keyboard-response","132","629759","0.0-6.0-0.18","2848435","co38428","norming","","","","","","",""
"null","../img/tt/273tt.jpg","null","mooney1","image-keyboard-response","133","632761","0.0-6.0-1.18","2848435","co38428","norming","","","","","","",""
"5745.554999999935","","","post_mooney1_questions","survey-likert","134","638509","0.0-6.0-2.18","2848435","co38428","norming","","","{""curiosity"":1,""confidence"":6}","[0,1]","../img/tt/273tt.jpg","",""
"1902.155000000028","","","recognition","survey-text","135","640413","0.0-6.0-3.18","2848435","co38428","norming","","","{""guess"":""mond""}","","../img/tt/273tt.jpg","",""
"null","../img/gs/273gs.jpg","null","reveal","image-keyboard-response","136","642419","0.0-6.0-4.18","2848435","co38428","norming","","","","","","",""
"null","../img/tt/273tt.jpg","null","mooney2","image-keyboard-response","137","644422","0.0-6.0-5.18","2848435","co38428","norming","","","","","","",""
"3445.434999999823","","","post_reveal_questions","survey-likert","138","647869","0.0-6.0-6.18","2848435","co38428","norming","","","{""aha"":0}","[0]","../img/tt/273tt.jpg","",""
"null","<div style=""font-size:60px;""> </div>","null","fixation","html-keyboard-response","139","648071","0.0-6.0-0.19","2848435","co38428","norming","","","","","","",""
"null","../img/tt/1097tt.jpg","null","mooney1","image-keyboard-response","140","651075","0.0-6.0-1.19","2848435","co38428","norming","","","","","","",""
"7095.805000000168","","","post_mooney1_questions","survey-likert","141","658173","0.0-6.0-2.19","2848435","co38428","norming","","","{""curiosity"":3,""confidence"":4}","[0,1]","../img/tt/1097tt.jpg","",""
"1758.329999999958","","","recognition","survey-text","142","659933","0.0-6.0-3.19","2848435","co38428","norming","","","{""guess"":""boer""}","","../img/tt/1097tt.jpg","",""
"null","../img/gs/1097gs.jpg","null","reveal","image-keyboard-response","143","661944","0.0-6.0-4.19","2848435","co38428","norming","","","","","","",""
"null","../img/tt/1097tt.jpg","null","mooney2","image-keyboard-response","144","663947","0.0-6.0-5.19","2848435","co38428","norming","","","","","","",""
"3367.725000000093","","","post_reveal_questions","survey-likert","145","667317","0.0-6.0-6.19","2848435","co38428","norming","","","{""aha"":2}","[0]","../img/tt/1097tt.jpg","",""
"null","<div style=""font-size:60px;""> </div>","null","fixation","html-keyboard-response","146","667520","0.0-6.0-0.20","2848435","co38428","norming","","","","","","",""
"null","../img/tt/1236tt.jpg","null","mooney1","image-keyboard-response","147","670531","0.0-6.0-1.20","2848435","co38428","norming","","","","","","",""
"4048.4599999999627","","","post_mooney1_questions","survey-likert","148","674581","0.0-6.0-2.20","2848435","co38428","norming","","","{""curiosity"":6,""confidence"":0}","[0,1]","../img/tt/1236tt.jpg","",""
"1461.9100000000326","","","recognition","survey-text","149","676045","0.0-6.0-3.20","2848435","co38428","norming","","","{""guess"":""""}","","../img/tt/1236tt.jpg","",""
"null","../img/gs/1236gs.jpg","null","reveal","image-keyboard-response","150","678052","0.0-6.0-4.20","2848435","co38428","norming","","","","","","",""
"null","../img/tt/1236tt.jpg","null","mooney2","image-keyboard-response","151","680054","0.0-6.0-5.20","2848435","co38428","norming","","","","","","",""
"5236.079999999842","","","post_reveal_questions","survey-likert","152","685293","0.0-6.0-6.20","2848435","co38428","norming","","","{""aha"":4}","[0]","../img/tt/1236tt.jpg","",""
"null","<div style=""font-size:60px;""> </div>","null","fixation","html-keyboard-response","153","685494","0.0-6.0-0.21","2848435","co38428","norming","","","","","","",""
"null","../img/tt/1078tt.jpg","null","mooney1","image-keyboard-response","154","688499","0.0-6.0-1.21","2848435","co38428","norming","","","","","","",""
"4951.0299999999115","","","post_mooney1_questions","survey-likert","155","693453","0.0-6.0-2.21","2848435","co38428","norming","","","{""curiosity"":5,""confidence"":2}","[0,1]","../img/tt/1078tt.jpg","",""
"2589.969999999972","","","recognition","survey-text","156","696045","0.0-6.0-3.21","2848435","co38428","norming","","","{""guess"":""pianospeler""}","","../img/tt/1078tt.jpg","",""
"null","../img/gs/1078gs.jpg","null","reveal","image-keyboard-response","157","698053","0.0-6.0-4.21","2848435","co38428","norming","","","","","","",""
"null","../img/tt/1078tt.jpg","null","mooney2","image-keyboard-response","158","700055","0.0-6.0-5.21","2848435","co38428","norming","","","","","","",""
"2155.935000000056","","","post_reveal_questions","survey-likert","159","702213","0.0-6.0-6.21","2848435","co38428","norming","","","{""aha"":5}","[0]","../img/tt/1078tt.jpg","",""
"null","<div style=""font-size:60px;""> </div>","null","fixation","html-keyboard-response","160","702414","0.0-6.0-0.22","2848435","co38428","norming","","","","","","",""
"null","../img/tt/418tt.jpg","null","mooney1","image-keyboard-response","161","705425","0.0-6.0-1.22","2848435","co38428","norming","","","","","","",""
"7370.194999999949","","","post_mooney1_questions","survey-likert","162","712797","0.0-6.0-2.22","2848435","co38428","norming","","","{""curiosity"":4,""confidence"":0}","[0,1]","../img/tt/418tt.jpg","",""
"1358.015000000014","","","recognition","survey-text","163","714157","0.0-6.0-3.22","2848435","co38428","norming","","","{""guess"":""""}","","../img/tt/418tt.jpg","",""
"null","../img/gs/418gs.jpg","null","reveal","image-keyboard-response","164","716161","0.0-6.0-4.22","2848435","co38428","norming","","","","","","",""
"null","../img/tt/418tt.jpg","null","mooney2","image-keyboard-response","165","718170","0.0-6.0-5.22","2848435","co38428","norming","","","","","","",""
"5872.849999999977","","","post_reveal_questions","survey-likert","166","724045","0.0-6.0-6.22","2848435","co38428","norming","","","{""aha"":5}","[0]","../img/tt/418tt.jpg","",""
"null","<div style=""font-size:60px;""> </div>","null","fixation","html-keyboard-response","167","724247","0.0-6.0-0.23","2848435","co38428","norming","","","","","","",""
"null","../img/tt/318tt.jpg","null","mooney1","image-keyboard-response","168","727255","0.0-6.0-1.23","2848435","co38428","norming","","","","","","",""
"6028.050000000047","","","post_mooney1_questions","survey-likert","169","733279","0.0-6.0-2.23","2848435","co38428","norming","","","{""curiosity"":5,""confidence"":1}","[0,1]","../img/tt/318tt.jpg","",""
"4294.175000000047","","","recognition","survey-text","170","737575","0.0-6.0-3.23","2848435","co38428","norming","","","{""guess"":""hockeyspeler""}","","../img/tt/318tt.jpg","",""
"null","../img/gs/318gs.jpg","null","reveal","image-keyboard-response","171","739579","0.0-6.0-4.23","2848435","co38428","norming","","","","","","",""
"null","../img/tt/318tt.jpg","null","mooney2","image-keyboard-response","172","741581","0.0-6.0-5.23","2848435","co38428","norming","","","","","","",""
"3319.694999999949","","","post_reveal_questions","survey-likert","173","744903","0.0-6.0-6.23","2848435","co38428","norming","","","{""aha"":3}","[0]","../img/tt/318tt.jpg","",""
"null","<div style=""font-size:60px;""> </div>","null","fixation","html-keyboard-response","174","745105","0.0-6.0-0.24","2848435","co38428","norming","","","","","","",""
"null","../img/tt/1043tt.jpg","null","mooney1","image-keyboard-response","175","748113","0.0-6.0-1.24","2848435","co38428","norming","","","","","","",""
"6203.520000000019","","","post_mooney1_questions","survey-likert","176","754319","0.0-6.0-2.24","2848435","co38428","norming","","","{""curiosity"":6,""confidence"":0}","[0,1]","../img/tt/1043tt.jpg","",""
"1557.6599999999162","","","recognition","survey-text","177","755879","0.0-6.0-3.24","2848435","co38428","norming","","","{""guess"":""""}","","../img/tt/1043tt.jpg","",""
"null","../img/gs/1043gs.jpg","null","reveal","image-keyboard-response","178","757884","0.0-6.0-4.24","2848435","co38428","norming","","","","","","",""
"null","../img/tt/1043tt.jpg","null","mooney2","image-keyboard-response","179","759888","0.0-6.0-5.24","2848435","co38428","norming","","","","","","",""
"1941.2250000000931","","","post_reveal_questions","survey-likert","180","761831","0.0-6.0-6.24","2848435","co38428","norming","","","{""aha"":4}","[0]","../img/tt/1043tt.jpg","",""
"null","<div style=""font-size:60px;""> </div>","null","fixation","html-keyboard-response","181","762035","0.0-6.0-0.25","2848435","co38428","norming","","","","","","",""
"null","../img/tt/358tt.jpg","null","mooney1","image-keyboard-response","182","765041","0.0-6.0-1.25","2848435","co38428","norming","","","","","","",""
"5060.635000000009","","","post_mooney1_questions","survey-likert","183","770103","0.0-6.0-2.25","2848435","co38428","norming","","","{""curiosity"":4,""confidence"":2}","[0,1]","../img/tt/358tt.jpg","",""
"2654.045000000042","","","recognition","survey-text","184","772759","0.0-6.0-3.25","2848435","co38428","norming","","","{""guess"":""hond""}","","../img/tt/358tt.jpg","",""
"null","../img/gs/358gs.jpg","null","reveal","image-keyboard-response","185","774760","0.0-6.0-4.25","2848435","co38428","norming","","","","","","",""
"null","../img/tt/358tt.jpg","null","mooney2","image-keyboard-response","186","776762","0.0-6.0-5.25","2848435","co38428","norming","","","","","","",""
"3395.0849999998463","","","post_reveal_questions","survey-likert","187","780159","0.0-6.0-6.25","2848435","co38428","norming","","","{""aha"":5}","[0]","../img/tt/358tt.jpg","",""
"null","<div style=""font-size:60px;""> </div>","null","fixation","html-keyboard-response","188","780360","0.0-6.0-0.26","2848435","co38428","norming","","","","","","",""
"null","../img/tt/515tt.jpg","null","mooney1","image-keyboard-response","189","783365","0.0-6.0-1.26","2848435","co38428","norming","","","","","","",""
"9529.03999999992","","","post_mooney1_questions","survey-likert","190","792895","0.0-6.0-2.26","2848435","co38428","norming","","","{""curiosity"":4,""confidence"":0}","[0,1]","../img/tt/515tt.jpg","",""
"901.9499999999534","","","recognition","survey-text","191","793802","0.0-6.0-3.26","2848435","co38428","norming","","","{""guess"":""""}","","../img/tt/515tt.jpg","",""
"null","../img/gs/515gs.jpg","null","reveal","image-keyboard-response","192","795810","0.0-6.0-4.26","2848435","co38428","norming","","","","","","",""
"null","../img/tt/515tt.jpg","null","mooney2","image-keyboard-response","193","797812","0.0-6.0-5.26","2848435","co38428","norming","","","","","","",""
"3843.42499999993","","","post_reveal_questions","survey-likert","194","801658","0.0-6.0-6.26","2848435","co38428","norming","","","{""aha"":4}","[0]","../img/tt/515tt.jpg","",""
"null","<div style=""font-size:60px;""> </div>","null","fixation","html-keyboard-response","195","801860","0.0-6.0-0.27","2848435","co38428","norming","","","","","","",""
"null","../img/tt/194tt.jpg","null","mooney1","image-keyboard-response","196","804869","0.0-6.0-1.27","2848435","co38428","norming","","","","","","",""
"4635.185000000172","","","post_mooney1_questions","survey-likert","197","809506","0.0-6.0-2.27","2848435","co38428","norming","","","{""curiosity"":2,""confidence"":5}","[0,1]","../img/tt/194tt.jpg","",""
"2261.9849999998696","","","recognition","survey-text","198","811770","0.0-6.0-3.27","2848435","co38428","norming","","","{""guess"":""muzikant""}","","../img/tt/194tt.jpg","",""
"null","../img/gs/194gs.jpg","null","reveal","image-keyboard-response","199","813772","0.0-6.0-4.27","2848435","co38428","norming","","","","","","",""
"null","../img/tt/194tt.jpg","null","mooney2","image-keyboard-response","200","815773","0.0-6.0-5.27","2848435","co38428","norming","","","","","","",""
"3434.7649999998976","","","post_reveal_questions","survey-likert","201","819210","0.0-6.0-6.27","2848435","co38428","norming","","","{""aha"":0}","[0]","../img/tt/194tt.jpg","",""
"null","<div style=""font-size:60px;""> </div>","null","fixation","html-keyboard-response","202","819413","0.0-6.0-0.28","2848435","co38428","norming","","","","","","",""
"null","../img/tt/477tt.jpg","null","mooney1","image-keyboard-response","203","822423","0.0-6.0-1.28","2848435","co38428","norming","","","","","","",""
"3696.6249999998836","","","post_mooney1_questions","survey-likert","204","826122","0.0-6.0-2.28","2848435","co38428","norming","","","{""curiosity"":5,""confidence"":0}","[0,1]","../img/tt/477tt.jpg","",""
"1237.7899999999208","","","recognition","survey-text","205","827362","0.0-6.0-3.28","2848435","co38428","norming","","","{""guess"":""""}","","../img/tt/477tt.jpg","",""
"null","../img/gs/477gs.jpg","null","reveal","image-keyboard-response","206","829364","0.0-6.0-4.28","2848435","co38428","norming","","","","","","",""
"null","../img/tt/477tt.jpg","null","mooney2","image-keyboard-response","207","831373","0.0-6.0-5.28","2848435","co38428","norming","","","","","","",""
"2004.1499999999069","","","post_reveal_questions","survey-likert","208","833378","0.0-6.0-6.28","2848435","co38428","norming","","","{""aha"":2}","[0]","../img/tt/477tt.jpg","",""
"null","<div style=""font-size:60px;""> </div>","null","fixation","html-keyboard-response","209","833579","0.0-6.0-0.29","2848435","co38428","norming","","","","","","",""
"null","../img/tt/081tt.jpg","null","mooney1","image-keyboard-response","210","836591","0.0-6.0-1.29","2848435","co38428","norming","","","","","","",""
"9897.069999999949","","","post_mooney1_questions","survey-likert","211","846491","0.0-6.0-2.29","2848435","co38428","norming","","","{""curiosity"":5,""confidence"":0}","[0,1]","../img/tt/081tt.jpg","",""
"1206.0249999999069","","","recognition","survey-text","212","847698","0.0-6.0-3.29","2848435","co38428","norming","","","{""guess"":""""}","","../img/tt/081tt.jpg","",""
"null","../img/gs/081gs.jpg","null","reveal","image-keyboard-response","213","849702","0.0-6.0-4.29","2848435","co38428","norming","","","","","","",""
"null","../img/tt/081tt.jpg","null","mooney2","image-keyboard-response","214","851704","0.0-6.0-5.29","2848435","co38428","norming","","","","","","",""
"1623.6700000001583","","","post_reveal_questions","survey-likert","215","853330","0.0-6.0-6.29","2848435","co38428","norming","","","{""aha"":5}","[0]","../img/tt/081tt.jpg","",""
"null","<div style=""font-size:60px;""> </div>","null","fixation","html-keyboard-response","216","853531","0.0-6.0-0.30","2848435","co38428","norming","","","","","","",""
"null","../img/tt/1146tt.jpg","null","mooney1","image-keyboard-response","217","856544","0.0-6.0-1.30","2848435","co38428","norming","","","","","","",""
"10210.8400000002","","","post_mooney1_questions","survey-likert","218","866758","0.0-6.0-2.30","2848435","co38428","norming","","","{""curiosity"":5,""confidence"":3}","[0,1]","../img/tt/1146tt.jpg","",""
"1942.0200000000186","","","recognition","survey-text","219","868701","0.0-6.0-3.30","2848435","co38428","norming","","","{""guess"":""man""}","","../img/tt/1146tt.jpg","",""
"null","../img/gs/1146gs.jpg","null","reveal","image-keyboard-response","220","870707","0.0-6.0-4.30","2848435","co38428","norming","","","","","","",""
"null","../img/tt/1146tt.jpg","null","mooney2","image-keyboard-response","221","872717","0.0-6.0-5.30","2848435","co38428","norming","","","","","","",""
"2925.640000000014","","","post_reveal_questions","survey-likert","222","875645","0.0-6.0-6.30","2848435","co38428","norming","","","{""aha"":3}","[0]","../img/tt/1146tt.jpg","",""
"null","<div style=""font-size:60px;""> </div>","null","fixation","html-keyboard-response","223","875846","0.0-6.0-0.31","2848435","co38428","norming","","","","","","",""
"null","../img/tt/1037tt.jpg","null","mooney1","image-keyboard-response","224","878852","0.0-6.0-1.31","2848435","co38428","norming","","","","","","",""
"3272.144999999902","","","post_mooney1_questions","survey-likert","225","882126","0.0-6.0-2.31","2848435","co38428","norming","","","{""curiosity"":4,""confidence"":3}","[0,1]","../img/tt/1037tt.jpg","",""
"1630.2099999999627","","","recognition","survey-text","226","883758","0.0-6.0-3.31","2848435","co38428","norming","","","{""guess"":""uil""}","","../img/tt/1037tt.jpg","",""
"null","../img/gs/1037gs.jpg","null","reveal","image-keyboard-response","227","885759","0.0-6.0-4.31","2848435","co38428","norming","","","","","","",""
"null","../img/tt/1037tt.jpg","null","mooney2","image-keyboard-response","228","887761","0.0-6.0-5.31","2848435","co38428","norming","","","","","","",""
"3400.644999999902","","","post_reveal_questions","survey-likert","229","891165","0.0-6.0-6.31","2848435","co38428","norming","","","{""aha"":2}","[0]","../img/tt/1037tt.jpg","",""
"null","<div style=""font-size:60px;""> </div>","null","fixation","html-keyboard-response","230","891366","0.0-6.0-0.32","2848435","co38428","norming","","","","","","",""
"null","../img/tt/1243tt.jpg","null","mooney1","image-keyboard-response","231","894375","0.0-6.0-1.32","2848435","co38428","norming","","","","","","",""
"7299.675000000163","","","post_mooney1_questions","survey-likert","232","901678","0.0-6.0-2.32","2848435","co38428","norming","","","{""curiosity"":4,""confidence"":3}","[0,1]","../img/tt/1243tt.jpg","",""
"1854.214999999851","","","recognition","survey-text","233","903533","0.0-6.0-3.32","2848435","co38428","norming","","","{""guess"":""aap""}","","../img/tt/1243tt.jpg","",""
"null","../img/gs/1243gs.jpg","null","reveal","image-keyboard-response","234","905540","0.0-6.0-4.32","2848435","co38428","norming","","","","","","",""
"null","../img/tt/1243tt.jpg","null","mooney2","image-keyboard-response","235","907542","0.0-6.0-5.32","2848435","co38428","norming","","","","","","",""
"2996.565000000177","","","post_reveal_questions","survey-likert","236","910541","0.0-6.0-6.32","2848435","co38428","norming","","","{""aha"":4}","[0]","../img/tt/1243tt.jpg","",""
"null","<div style=""font-size:60px;""> </div>","null","fixation","html-keyboard-response","237","910742","0.0-6.0-0.33","2848435","co38428","norming","","","","","","",""
"null","../img/tt/032tt.jpg","null","mooney1","image-keyboard-response","238","913752","0.0-6.0-1.33","2848435","co38428","norming","","","","","","",""
"4964.074999999837","","","post_mooney1_questions","survey-likert","239","918717","0.0-6.0-2.33","2848435","co38428","norming","","","{""curiosity"":2,""confidence"":4}","[0,1]","../img/tt/032tt.jpg","",""
"1678.1699999999255","","","recognition","survey-text","240","920397","0.0-6.0-3.33","2848435","co38428","norming","","","{""guess"":""koe""}","","../img/tt/032tt.jpg","",""
"null","../img/gs/032gs.jpg","null","reveal","image-keyboard-response","241","922399","0.0-6.0-4.33","2848435","co38428","norming","","","","","","",""
"null","../img/tt/032tt.jpg","null","mooney2","image-keyboard-response","242","924408","0.0-6.0-5.33","2848435","co38428","norming","","","","","","",""
"6122.355000000214","","","post_reveal_questions","survey-likert","243","930533","0.0-6.0-6.33","2848435","co38428","norming","","","{""aha"":6}","[0]","../img/tt/032tt.jpg","",""
"null","<div style=""font-size:60px;""> </div>","null","fixation","html-keyboard-response","244","930734","0.0-6.0-0.34","2848435","co38428","norming","","","","","","",""
"null","../img/tt/1070tt.jpg","null","mooney1","image-keyboard-response","245","933744","0.0-6.0-1.34","2848435","co38428","norming","","","","","","",""
"6650.9049999999115","","","post_mooney1_questions","survey-likert","246","940397","0.0-6.0-2.34","2848435","co38428","norming","","","{""curiosity"":4,""confidence"":1}","[0,1]","../img/tt/1070tt.jpg","",""
"1758.155000000028","","","recognition","survey-text","247","942157","0.0-6.0-3.34","2848435","co38428","norming","","","{""guess"":""brood""}","","../img/tt/1070tt.jpg","",""
"null","../img/gs/1070gs.jpg","null","reveal","image-keyboard-response","248","944163","0.0-6.0-4.34","2848435","co38428","norming","","","","","","",""
"null","../img/tt/1070tt.jpg","null","mooney2","image-keyboard-response","249","946166","0.0-6.0-5.34","2848435","co38428","norming","","","","","","",""
"4125.170000000042","","","post_reveal_questions","survey-likert","250","950293","0.0-6.0-6.34","2848435","co38428","norming","","","{""aha"":2}","[0]","../img/tt/1070tt.jpg","",""
"null","<div style=""font-size:60px;""> </div>","null","fixation","html-keyboard-response","251","950494","0.0-6.0-0.35","2848435","co38428","norming","","","","","","",""
"null","../img/tt/584tt.jpg","null","mooney1","image-keyboard-response","252","953506","0.0-6.0-1.35","2848435","co38428","norming","","","","","","",""
"11336.16499999992","","","post_mooney1_questions","survey-likert","253","964845","0.0-6.0-2.35","2848435","co38428","norming","","","{""curiosity"":5,""confidence"":2}","[0,1]","../img/tt/584tt.jpg","",""
"2493.905000000028","","","recognition","survey-text","254","967341","0.0-6.0-3.35","2848435","co38428","norming","","","{""guess"":""vingers""}","","../img/tt/584tt.jpg","",""
"null","../img/gs/584gs.jpg","null","reveal","image-keyboard-response","255","969344","0.0-6.0-4.35","2848435","co38428","norming","","","","","","",""
"null","../img/tt/584tt.jpg","null","mooney2","image-keyboard-response","256","971348","0.0-6.0-5.35","2848435","co38428","norming","","","","","","",""
"4759.820000000065","","","post_reveal_questions","survey-likert","257","976109","0.0-6.0-6.35","2848435","co38428","norming","","","{""aha"":2}","[0]","../img/tt/584tt.jpg","",""
"null","<div style=""font-size:60px;""> </div>","null","fixation","html-keyboard-response","258","976310","0.0-6.0-0.36","2848435","co38428","norming","","","","","","",""
"null","../img/tt/1127tt.jpg","null","mooney1","image-keyboard-response","259","979314","0.0-6.0-1.36","2848435","co38428","norming","","","","","","",""
"4178.479999999981","","","post_mooney1_questions","survey-likert","260","983494","0.0-6.0-2.36","2848435","co38428","norming","","","{""curiosity"":3,""confidence"":3}","[0,1]","../img/tt/1127tt.jpg","",""
"2646.70000000007","","","recognition","survey-text","261","986142","0.0-6.0-3.36","2848435","co38428","norming","","","{""guess"":""klaslokaal""}","","../img/tt/1127tt.jpg","",""
"null","../img/gs/1127gs.jpg","null","reveal","image-keyboard-response","262","988148","0.0-6.0-4.36","2848435","co38428","norming","","","","","","",""
"null","../img/tt/1127tt.jpg","null","mooney2","image-keyboard-response","263","990150","0.0-6.0-5.36","2848435","co38428","norming","","","","","","",""
"2765.1300000000047","","","post_reveal_questions","survey-likert","264","992918","0.0-6.0-6.36","2848435","co38428","norming","","","{""aha"":5}","[0]","../img/tt/1127tt.jpg","",""
"null","<div style=""font-size:60px;""> </div>","null","fixation","html-keyboard-response","265","993119","0.0-6.0-0.37","2848435","co38428","norming","","","","","","",""
"null","../img/tt/1048tt.jpg","null","mooney1","image-keyboard-response","266","996127","0.0-6.0-1.37","2848435","co38428","norming","","","","","","",""
"6579.5099999997765","","","post_mooney1_questions","survey-likert","267","1002710","0.0-6.0-2.37","2848435","co38428","norming","","","{""curiosity"":3,""confidence"":2}","[0,1]","../img/tt/1048tt.jpg","",""
"2022.0849999999627","","","recognition","survey-text","268","1004733","0.0-6.0-3.37","2848435","co38428","norming","","","{""guess"":""boom""}","","../img/tt/1048tt.jpg","",""
"null","../img/gs/1048gs.jpg","null","reveal","image-keyboard-response","269","1006741","0.0-6.0-4.37","2848435","co38428","norming","","","","","","",""
"null","../img/tt/1048tt.jpg","null","mooney2","image-keyboard-response","270","1008751","0.0-6.0-5.37","2848435","co38428","norming","","","","","","",""
"5844.75","","","post_reveal_questions","survey-likert","271","1014598","0.0-6.0-6.37","2848435","co38428","norming","","","{""aha"":2}","[0]","../img/tt/1048tt.jpg","",""
"null","<div style=""font-size:60px;""> </div>","null","fixation","html-keyboard-response","272","1014799","0.0-6.0-0.38","2848435","co38428","norming","","","","","","",""
"null","../img/tt/440tt.jpg","null","mooney1","image-keyboard-response","273","1017810","0.0-6.0-1.38","2848435","co38428","norming","","","","","","",""
"6544.464999999967","","","post_mooney1_questions","survey-likert","274","1024358","0.0-6.0-2.38","2848435","co38428","norming","","","{""curiosity"":5,""confidence"":2}","[0,1]","../img/tt/440tt.jpg","",""
"1861.4799999999814","","","recognition","survey-text","275","1026221","0.0-6.0-3.38","2848435","co38428","norming","","","{""guess"":""wei""}","","../img/tt/440tt.jpg","",""
"null","../img/gs/440gs.jpg","null","reveal","image-keyboard-response","276","1028229","0.0-6.0-4.38","2848435","co38428","norming","","","","","","",""
"null","../img/tt/440tt.jpg","null","mooney2","image-keyboard-response","277","1030240","0.0-6.0-5.38","2848435","co38428","norming","","","","","","",""
"5419.515000000014","","","post_reveal_questions","survey-likert","278","1035662","0.0-6.0-6.38","2848435","co38428","norming","","","{""aha"":5}","[0]","../img/tt/440tt.jpg","",""
"null","<div style=""font-size:60px;""> </div>","null","fixation","html-keyboard-response","279","1035863","0.0-6.0-0.39","2848435","co38428","norming","","","","","","",""
"null","../img/tt/020tt.jpg","null","mooney1","image-keyboard-response","280","1038866","0.0-6.0-1.39","2848435","co38428","norming","","","","","","",""
"4673.180000000051","","","post_mooney1_questions","survey-likert","281","1043541","0.0-6.0-2.39","2848435","co38428","norming","","","{""curiosity"":4,""confidence"":2}","[0,1]","../img/tt/020tt.jpg","",""
"4038.1500000000233","","","recognition","survey-text","282","1047581","0.0-6.0-3.39","2848435","co38428","norming","","","{""guess"":""jezus figuur""}","","../img/tt/020tt.jpg","",""
"null","../img/gs/020gs.jpg","null","reveal","image-keyboard-response","283","1049583","0.0-6.0-4.39","2848435","co38428","norming","","","","","","",""
"null","../img/tt/020tt.jpg","null","mooney2","image-keyboard-response","284","1051584","0.0-6.0-5.39","2848435","co38428","norming","","","","","","",""
"2884.5400000000373","","","post_reveal_questions","survey-likert","285","1054469","0.0-6.0-6.39","2848435","co38428","norming","","","{""aha"":0}","[0]","../img/tt/020tt.jpg","",""
"null","<div style=""font-size:60px;""> </div>","null","fixation","html-keyboard-response","286","1054671","0.0-6.0-0.40","2848435","co38428","norming","","","","","","",""
"null","../img/tt/1186tt.jpg","null","mooney1","image-keyboard-response","287","1057677","0.0-6.0-1.40","2848435","co38428","norming","","","","","","",""
"5349.935000000056","","","post_mooney1_questions","survey-likert","288","1063029","0.0-6.0-2.40","2848435","co38428","norming","","","{""curiosity"":2,""confidence"":4}","[0,1]","../img/tt/1186tt.jpg","",""
"4198.01500000013","","","recognition","survey-text","289","1067229","0.0-6.0-3.40","2848435","co38428","norming","","","{""guess"":""rollerskater""}","","../img/tt/1186tt.jpg","",""
"null","../img/gs/1186gs.jpg","null","reveal","image-keyboard-response","290","1069237","0.0-6.0-4.40","2848435","co38428","norming","","","","","","",""
"null","../img/tt/1186tt.jpg","null","mooney2","image-keyboard-response","291","1071244","0.0-6.0-5.40","2848435","co38428","norming","","","","","","",""
"3175.2249999998603","","","post_reveal_questions","survey-likert","292","1074421","0.0-6.0-6.40","2848435","co38428","norming","","","{""aha"":0}","[0]","../img/tt/1186tt.jpg","",""
"null","<div style=""font-size:60px;""> </div>","null","fixation","html-keyboard-response","293","1074623","0.0-6.0-0.41","2848435","co38428","norming","","","","","","",""
"null","../img/tt/1362tt.jpg","null","mooney1","image-keyboard-response","294","1077630","0.0-6.0-1.41","2848435","co38428","norming","","","","","","",""
"5726.479999999981","","","post_mooney1_questions","survey-likert","295","1083358","0.0-6.0-2.41","2848435","co38428","norming","","","{""curiosity"":3,""confidence"":3}","[0,1]","../img/tt/1362tt.jpg","",""
"2701.975000000093","","","recognition","survey-text","296","1086061","0.0-6.0-3.41","2848435","co38428","norming","","","{""guess"":""platenspeler""}","","../img/tt/1362tt.jpg","",""
"null","../img/gs/1362gs.jpg","null","reveal","image-keyboard-response","297","1088065","0.0-6.0-4.41","2848435","co38428","norming","","","","","","",""
"null","../img/tt/1362tt.jpg","null","mooney2","image-keyboard-response","298","1090074","0.0-6.0-5.41","2848435","co38428","norming","","","","","","",""
"2313.2050000003073","","","post_reveal_questions","survey-likert","299","1092389","0.0-6.0-6.41","2848435","co38428","norming","","","{""aha"":5}","[0]","../img/tt/1362tt.jpg","",""
"null","<div style=""font-size:60px;""> </div>","null","fixation","html-keyboard-response","300","1092590","0.0-6.0-0.42","2848435","co38428","norming","","","","","","",""
"null","../img/tt/603tt.jpg","null","mooney1","image-keyboard-response","301","1095602","0.0-6.0-1.42","2848435","co38428","norming","","","","","","",""
"3312.685000000056","","","post_mooney1_questions","survey-likert","302","1098917","0.0-6.0-2.42","2848435","co38428","norming","","","{""curiosity"":6,""confidence"":0}","[0,1]","../img/tt/603tt.jpg","",""
"862.1799999999348","","","recognition","survey-text","303","1099781","0.0-6.0-3.42","2848435","co38428","norming","","","{""guess"":""""}","","../img/tt/603tt.jpg","",""
"null","../img/gs/603gs.jpg","null","reveal","image-keyboard-response","304","1101788","0.0-6.0-4.42","2848435","co38428","norming","","","","","","",""
"null","../img/tt/603tt.jpg","null","mooney2","image-keyboard-response","305","1103800","0.0-6.0-5.42","2848435","co38428","norming","","","","","","",""
"2584.7899999998044","","","post_reveal_questions","survey-likert","306","1106390","0.0-6.0-6.42","2848435","co38428","norming","","","{""aha"":5}","[0]","../img/tt/603tt.jpg","",""
"null","<div style=""font-size:60px;""> </div>","null","fixation","html-keyboard-response","307","1106592","0.0-6.0-0.43","2848435","co38428","norming","","","","","","",""
"null","../img/tt/007tt.jpg","null","mooney1","image-keyboard-response","308","1109602","0.0-6.0-1.43","2848435","co38428","norming","","","","","","",""
"6488.550000000047","","","post_mooney1_questions","survey-likert","309","1116093","0.0-6.0-2.43","2848435","co38428","norming","","","{""curiosity"":5,""confidence"":0}","[0,1]","../img/tt/007tt.jpg","",""
"694.0950000002049","","","recognition","survey-text","310","1116789","0.0-6.0-3.43","2848435","co38428","norming","","","{""guess"":""""}","","../img/tt/007tt.jpg","",""
"null","../img/gs/007gs.jpg","null","reveal","image-keyboard-response","311","1118795","0.0-6.0-4.43","2848435","co38428","norming","","","","","","",""
"null","../img/tt/007tt.jpg","null","mooney2","image-keyboard-response","312","1120807","0.0-6.0-5.43","2848435","co38428","norming","","","","","","",""
"3708.0150000001304","","","post_reveal_questions","survey-likert","313","1124517","0.0-6.0-6.43","2848435","co38428","norming","","","{""aha"":5}","[0]","../img/tt/007tt.jpg","",""
"null","<div style=""font-size:60px;""> </div>","null","fixation","html-keyboard-response","314","1124719","0.0-6.0-0.44","2848435","co38428","norming","","","","","","",""
"null","../img/tt/1175tt.jpg","null","mooney1","image-keyboard-response","315","1127727","0.0-6.0-1.44","2848435","co38428","norming","","","","","","",""
"4380.814999999944","","","post_mooney1_questions","survey-likert","316","1132109","0.0-6.0-2.44","2848435","co38428","norming","","","{""curiosity"":4,""confidence"":0}","[0,1]","../img/tt/1175tt.jpg","",""
"965.4500000001863","","","recognition","survey-text","317","1133077","0.0-6.0-3.44","2848435","co38428","norming","","","{""guess"":""""}","","../img/tt/1175tt.jpg","",""
"null","../img/gs/1175gs.jpg","null","reveal","image-keyboard-response","318","1135079","0.0-6.0-4.44","2848435","co38428","norming","","","","","","",""
"null","../img/tt/1175tt.jpg","null","mooney2","image-keyboard-response","319","1137087","0.0-6.0-5.44","2848435","co38428","norming","","","","","","",""
"3588.005000000121","","","post_reveal_questions","survey-likert","320","1140677","0.0-6.0-6.44","2848435","co38428","norming","","","{""aha"":4}","[0]","../img/tt/1175tt.jpg","",""
"null","<div style=""font-size:60px;""> </div>","null","fixation","html-keyboard-response","321","1140878","0.0-6.0-0.45","2848435","co38428","norming","","","","","","",""
"null","../img/tt/098tt.jpg","null","mooney1","image-keyboard-response","322","1143883","0.0-6.0-1.45","2848435","co38428","norming","","","","","","",""
"12126.88500000001","","","post_mooney1_questions","survey-likert","323","1156013","0.0-6.0-2.45","2848435","co38428","norming","","","{""curiosity"":5,""confidence"":0}","[0,1]","../img/tt/098tt.jpg","",""
"773.9849999998696","","","recognition","survey-text","324","1156789","0.0-6.0-3.45","2848435","co38428","norming","","","{""guess"":""""}","","../img/tt/098tt.jpg","",""
"null","../img/gs/098gs.jpg","null","reveal","image-keyboard-response","325","1158798","0.0-6.0-4.45","2848435","co38428","norming","","","","","","",""
"null","../img/tt/098tt.jpg","null","mooney2","image-keyboard-response","326","1160800","0.0-6.0-5.45","2848435","co38428","norming","","","","","","",""
"4091.6299999998882","","","post_reveal_questions","survey-likert","327","1164893","0.0-6.0-6.45","2848435","co38428","norming","","","{""aha"":4}","[0]","../img/tt/098tt.jpg","",""
"null","<div style=""font-size:60px;""> </div>","null","fixation","html-keyboard-response","328","1165096","0.0-6.0-0.46","2848435","co38428","norming","","","","","","",""
"null","../img/tt/1190tt.jpg","null","mooney1","image-keyboard-response","329","1168100","0.0-6.0-1.46","2848435","co38428","norming","","","","","","",""
"2710.195000000065","","","post_mooney1_questions","survey-likert","330","1170814","0.0-6.0-2.46","2848435","co38428","norming","","","{""curiosity"":4,""confidence"":4}","[0,1]","../img/tt/1190tt.jpg","",""
"3662.255000000121","","","recognition","survey-text","331","1174477","0.0-6.0-3.46","2848435","co38428","norming","","","{""guess"":""bergbeklimmer""}","","../img/tt/1190tt.jpg","",""
"null","../img/gs/1190gs.jpg","null","reveal","image-keyboard-response","332","1176479","0.0-6.0-4.46","2848435","co38428","norming","","","","","","",""
"null","../img/tt/1190tt.jpg","null","mooney2","image-keyboard-response","333","1178481","0.0-6.0-5.46","2848435","co38428","norming","","","","","","",""
"3121.4250000000466","","","post_reveal_questions","survey-likert","334","1181605","0.0-6.0-6.46","2848435","co38428","norming","","","{""aha"":0}","[0]","../img/tt/1190tt.jpg","",""
"null","<div style=""font-size:60px;""> </div>","null","fixation","html-keyboard-response","335","1181807","0.0-6.0-0.47","2848435","co38428","norming","","","","","","",""
"null","../img/tt/1102tt.jpg","null","mooney1","image-keyboard-response","336","1184813","0.0-6.0-1.47","2848435","co38428","norming","","","","","","",""
"4484.995000000112","","","post_mooney1_questions","survey-likert","337","1189301","0.0-6.0-2.47","2848435","co38428","norming","","","{""curiosity"":4,""confidence"":1}","[0,1]","../img/tt/1102tt.jpg","",""
"3334.1500000001397","","","recognition","survey-text","338","1192637","0.0-6.0-3.47","2848435","co38428","norming","","","{""guess"":""palmboom""}","","../img/tt/1102tt.jpg","",""
"null","../img/gs/1102gs.jpg","null","reveal","image-keyboard-response","339","1194639","0.0-6.0-4.47","2848435","co38428","norming","","","","","","",""
"null","../img/tt/1102tt.jpg","null","mooney2","image-keyboard-response","340","1196646","0.0-6.0-5.47","2848435","co38428","norming","","","","","","",""
"2948.269999999786","","","post_reveal_questions","survey-likert","341","1199597","0.0-6.0-6.47","2848435","co38428","norming","","","{""aha"":6}","[0]","../img/tt/1102tt.jpg","",""
"null","<div style=""font-size:60px;""> </div>","null","fixation","html-keyboard-response","342","1199799","0.0-6.0-0.48","2848435","co38428","norming","","","","","","",""
"null","../img/tt/412tt.jpg","null","mooney1","image-keyboard-response","343","1202804","0.0-6.0-1.48","2848435","co38428","norming","","","","","","",""
"4533.800000000047","","","post_mooney1_questions","survey-likert","344","1207341","0.0-6.0-2.48","2848435","co38428","norming","","","{""curiosity"":4,""confidence"":2}","[0,1]","../img/tt/412tt.jpg","",""
"3422.344999999972","","","recognition","survey-text","345","1210765","0.0-6.0-3.48","2848435","co38428","norming","","","{""guess"":""fotograaf""}","","../img/tt/412tt.jpg","",""
"null","../img/gs/412gs.jpg","null","reveal","image-keyboard-response","346","1212772","0.0-6.0-4.48","2848435","co38428","norming","","","","","","",""
"null","../img/tt/412tt.jpg","null","mooney2","image-keyboard-response","347","1214783","0.0-6.0-5.48","2848435","co38428","norming","","","","","","",""
"2659.5","","","post_reveal_questions","survey-likert","348","1217445","0.0-6.0-6.48","2848435","co38428","norming","","","{""aha"":2}","[0]","../img/tt/412tt.jpg","",""
"null","<div style=""font-size:60px;""> </div>","null","fixation","html-keyboard-response","349","1217646","0.0-6.0-0.49","2848435","co38428","norming","","","","","","",""
"null","../img/tt/1091tt.jpg","null","mooney1","image-keyboard-response","350","1220657","0.0-6.0-1.49","2848435","co38428","norming","","","","","","",""
"5569.054999999935","","","post_mooney1_questions","survey-likert","351","1226222","0.0-6.0-2.49","2848435","co38428","norming","","","{""curiosity"":4,""confidence"":4}","[0,1]","../img/tt/1091tt.jpg","",""
"1350.119999999879","","","recognition","survey-text","352","1227574","0.0-6.0-3.49","2848435","co38428","norming","","","{""guess"":""koe""}","","../img/tt/1091tt.jpg","",""
"null","../img/gs/1091gs.jpg","null","reveal","image-keyboard-response","353","1229575","0.0-6.0-4.49","2848435","co38428","norming","","","","","","",""
"null","../img/tt/1091tt.jpg","null","mooney2","image-keyboard-response","354","1231585","0.0-6.0-5.49","2848435","co38428","norming","","","","","","",""
"4128.689999999944","","","post_reveal_questions","survey-likert","355","1235718","0.0-6.0-6.49","2848435","co38428","norming","","","{""aha"":1}","[0]","../img/tt/1091tt.jpg","",""
"null","<div style=""font-size:60px;""> </div>","null","fixation","html-keyboard-response","356","1235926","0.0-6.0-0.50","2848435","co38428","norming","","","","","","",""
"null","../img/tt/1069tt.jpg","null","mooney1","image-keyboard-response","357","1238930","0.0-6.0-1.50","2848435","co38428","norming","","","","","","",""
"9192.564999999944","","","post_mooney1_questions","survey-likert","358","1248126","0.0-6.0-2.50","2848435","co38428","norming","","","{""curiosity"":2,""confidence"":5}","[0,1]","../img/tt/1069tt.jpg","",""
"2182.0150000001304","","","recognition","survey-text","359","1250310","0.0-6.0-3.50","2848435","co38428","norming","","","{""guess"":""ram""}","","../img/tt/1069tt.jpg","",""
"null","../img/gs/1069gs.jpg","null","reveal","image-keyboard-response","360","1252311","0.0-6.0-4.50","2848435","co38428","norming","","","","","","",""
"null","../img/tt/1069tt.jpg","null","mooney2","image-keyboard-response","361","1254313","0.0-6.0-5.50","2848435","co38428","norming","","","","","","",""
"2394.100000000093","","","post_reveal_questions","survey-likert","362","1256710","0.0-6.0-6.50","2848435","co38428","norming","","","{""aha"":0}","[0]","../img/tt/1069tt.jpg","",""
"null","<div style=""font-size:60px;""> </div>","null","fixation","html-keyboard-response","363","1256921","0.0-6.0-0.51","2848435","co38428","norming","","","","","","",""
"null","../img/tt/064tt.jpg","null","mooney1","image-keyboard-response","364","1259927","0.0-6.0-1.51","2848435","co38428","norming","","","","","","",""
"5651.75","","","post_mooney1_questions","survey-likert","365","1265582","0.0-6.0-2.51","2848435","co38428","norming","","","{""curiosity"":5,""confidence"":2}","[0,1]","../img/tt/064tt.jpg","",""
"2693.940000000177","","","recognition","survey-text","366","1268278","0.0-6.0-3.51","2848435","co38428","norming","","","{""guess"":""luiaard""}","","../img/tt/064tt.jpg","",""
"null","../img/gs/064gs.jpg","null","reveal","image-keyboard-response","367","1270288","0.0-6.0-4.51","2848435","co38428","norming","","","","","","",""
"null","../img/tt/064tt.jpg","null","mooney2","image-keyboard-response","368","1272290","0.0-6.0-5.51","2848435","co38428","norming","","","","","","",""
"2289.3599999998696","","","post_reveal_questions","survey-likert","369","1274582","0.0-6.0-6.51","2848435","co38428","norming","","","{""aha"":5}","[0]","../img/tt/064tt.jpg","",""
"null","<div style=""font-size:60px;""> </div>","null","fixation","html-keyboard-response","370","1274784","0.0-6.0-0.52","2848435","co38428","norming","","","","","","",""
"null","../img/tt/405tt.jpg","null","mooney1","image-keyboard-response","371","1277786","0.0-6.0-1.52","2848435","co38428","norming","","","","","","",""
"4424.574999999953","","","post_mooney1_questions","survey-likert","372","1282214","0.0-6.0-2.52","2848435","co38428","norming","","","{""curiosity"":4,""confidence"":1}","[0,1]","../img/tt/405tt.jpg","",""
"4206.159999999916","","","recognition","survey-text","373","1286423","0.0-6.0-3.52","2848435","co38428","norming","","","{""guess"":""katten""}","","../img/tt/405tt.jpg","",""
"null","../img/gs/405gs.jpg","null","reveal","image-keyboard-response","374","1288434","0.0-6.0-4.52","2848435","co38428","norming","","","","","","",""
"null","../img/tt/405tt.jpg","null","mooney2","image-keyboard-response","375","1290438","0.0-6.0-5.52","2848435","co38428","norming","","","","","","",""
"3638.910000000149","","","post_reveal_questions","survey-likert","376","1294079","0.0-6.0-6.52","2848435","co38428","norming","","","{""aha"":5}","[0]","../img/tt/405tt.jpg","",""
"null","<div style=""font-size:60px;""> </div>","null","fixation","html-keyboard-response","377","1294280","0.0-6.0-0.53","2848435","co38428","norming","","","","","","",""
"null","../img/tt/1270tt.jpg","null","mooney1","image-keyboard-response","378","1297283","0.0-6.0-1.53","2848435","co38428","norming","","","","","","",""
"9392.889999999898","","","post_mooney1_questions","survey-likert","379","1306679","0.0-6.0-2.53","2848435","co38428","norming","","","{""curiosity"":5,""confidence"":0}","[0,1]","../img/tt/1270tt.jpg","",""
"814.1299999998882","","","recognition","survey-text","380","1307495","0.0-6.0-3.53","2848435","co38428","norming","","","{""guess"":""""}","","../img/tt/1270tt.jpg","",""
"null","../img/gs/1270gs.jpg","null","reveal","image-keyboard-response","381","1309496","0.0-6.0-4.53","2848435","co38428","norming","","","","","","",""
"null","../img/tt/1270tt.jpg","null","mooney2","image-keyboard-response","382","1311504","0.0-6.0-5.53","2848435","co38428","norming","","","","","","",""
"2132.215000000084","","","post_reveal_questions","survey-likert","383","1313639","0.0-6.0-6.53","2848435","co38428","norming","","","{""aha"":5}","[0]","../img/tt/1270tt.jpg","",""
"null","<div style=""font-size:60px;""> </div>","null","fixation","html-keyboard-response","384","1313840","0.0-6.0-0.54","2848435","co38428","norming","","","","","","",""
"null","../img/tt/013tt.jpg","null","mooney1","image-keyboard-response","385","1316853","0.0-6.0-1.54","2848435","co38428","norming","","","","","","",""
"8727.360000000102","","","post_mooney1_questions","survey-likert","386","1325583","0.0-6.0-2.54","2848435","co38428","norming","","","{""curiosity"":6,""confidence"":0}","[0,1]","../img/tt/013tt.jpg","",""
"1309.8950000000186","","","recognition","survey-text","387","1326895","0.0-6.0-3.54","2848435","co38428","norming","","","{""guess"":""""}","","../img/tt/013tt.jpg","",""
"null","../img/gs/013gs.jpg","null","reveal","image-keyboard-response","388","1328900","0.0-6.0-4.54","2848435","co38428","norming","","","","","","",""
"null","../img/tt/013tt.jpg","null","mooney2","image-keyboard-response","389","1330907","0.0-6.0-5.54","2848435","co38428","norming","","","","","","",""
"4713.655000000028","","","post_reveal_questions","survey-likert","390","1335623","0.0-6.0-6.54","2848435","co38428","norming","","","{""aha"":5}","[0]","../img/tt/013tt.jpg","",""
"null","<div style=""font-size:60px;""> </div>","null","fixation","html-keyboard-response","391","1335826","0.0-6.0-0.55","2848435","co38428","norming","","","","","","",""
"null","../img/tt/442tt.jpg","null","mooney1","image-keyboard-response","392","1338838","0.0-6.0-1.55","2848435","co38428","norming","","","","","","",""
"4413.399999999907","","","post_mooney1_questions","survey-likert","393","1343255","0.0-6.0-2.55","2848435","co38428","norming","","","{""curiosity"":5,""confidence"":1}","[0,1]","../img/tt/442tt.jpg","",""
"1469.9650000000838","","","recognition","survey-text","394","1344732","0.0-6.0-3.55","2848435","co38428","norming","","","{""guess"":""fruit""}","","../img/tt/442tt.jpg","",""
"null","../img/gs/442gs.jpg","null","reveal","image-keyboard-response","395","1346739","0.0-6.0-4.55","2848435","co38428","norming","","","","","","",""
"null","../img/tt/442tt.jpg","null","mooney2","image-keyboard-response","396","1348740","0.0-6.0-5.55","2848435","co38428","norming","","","","","","",""
"3053.6749999998137","","","post_reveal_questions","survey-likert","397","1351796","0.0-6.0-6.55","2848435","co38428","norming","","","{""aha"":4}","[0]","../img/tt/442tt.jpg","",""
"null","<div style=""font-size:60px;""> </div>","null","fixation","html-keyboard-response","398","1351997","0.0-6.0-0.56","2848435","co38428","norming","","","","","","",""
"null","../img/tt/416tt.jpg","null","mooney1","image-keyboard-response","399","1355005","0.0-6.0-1.56","2848435","co38428","norming","","","","","","",""
"5572.310000000056","","","post_mooney1_questions","survey-likert","400","1360580","0.0-6.0-2.56","2848435","co38428","norming","","","{""curiosity"":4,""confidence"":1}","[0,1]","../img/tt/416tt.jpg","",""
"2230.350000000093","","","recognition","survey-text","401","1362813","0.0-6.0-3.56","2848435","co38428","norming","","","{""guess"":""struisvogels""}","","../img/tt/416tt.jpg","",""
"null","../img/gs/416gs.jpg","null","reveal","image-keyboard-response","402","1364822","0.0-6.0-4.56","2848435","co38428","norming","","","","","","",""
"null","../img/tt/416tt.jpg","null","mooney2","image-keyboard-response","403","1366831","0.0-6.0-5.56","2848435","co38428","norming","","","","","","",""
"3338.3300000000745","","","post_reveal_questions","survey-likert","404","1370172","0.0-6.0-6.56","2848435","co38428","norming","","","{""aha"":2}","[0]","../img/tt/416tt.jpg","",""
"null","<div style=""font-size:60px;""> </div>","null","fixation","html-keyboard-response","405","1370374","0.0-6.0-0.57","2848435","co38428","norming","","","","","","",""
"null","../img/tt/1086tt.jpg","null","mooney1","image-keyboard-response","406","1373381","0.0-6.0-1.57","2848435","co38428","norming","","","","","","",""
"3846.8249999997206","","","post_mooney1_questions","survey-likert","407","1377229","0.0-6.0-2.57","2848435","co38428","norming","","","{""curiosity"":6,""confidence"":0}","[0,1]","../img/tt/1086tt.jpg","",""
"2150.2049999998417","","","recognition","survey-text","408","1379380","0.0-6.0-3.57","2848435","co38428","norming","","","{""guess"":""""}","","../img/tt/1086tt.jpg","",""
"null","../img/gs/1086gs.jpg","null","reveal","image-keyboard-response","409","1381387","0.0-6.0-4.57","2848435","co38428","norming","","","","","","",""
"null","../img/tt/1086tt.jpg","null","mooney2","image-keyboard-response","410","1383396","0.0-6.0-5.57","2848435","co38428","norming","","","","","","",""
"3535.5149999998976","","","post_reveal_questions","survey-likert","411","1386932","0.0-6.0-6.57","2848435","co38428","norming","","","{""aha"":6}","[0]","../img/tt/1086tt.jpg","",""
"null","<div style=""font-size:60px;""> </div>","null","fixation","html-keyboard-response","412","1387133","0.0-6.0-0.58","2848435","co38428","norming","","","","","","",""
"null","../img/tt/1159tt.jpg","null","mooney1","image-keyboard-response","413","1390137","0.0-6.0-1.58","2848435","co38428","norming","","","","","","",""
"4160.375","","","post_mooney1_questions","survey-likert","414","1394301","0.0-6.0-2.58","2848435","co38428","norming","","","{""curiosity"":5,""confidence"":2}","[0,1]","../img/tt/1159tt.jpg","",""
"1565.9600000001956","","","recognition","survey-text","415","1395868","0.0-6.0-3.58","2848435","co38428","norming","","","{""guess"":""park""}","","../img/tt/1159tt.jpg","",""
"null","../img/gs/1159gs.jpg","null","reveal","image-keyboard-response","416","1397872","0.0-6.0-4.58","2848435","co38428","norming","","","","","","",""
"null","../img/tt/1159tt.jpg","null","mooney2","image-keyboard-response","417","1399879","0.0-6.0-5.58","2848435","co38428","norming","","","","","","",""
"2115.3649999999907","","","post_reveal_questions","survey-likert","418","1401996","0.0-6.0-6.58","2848435","co38428","norming","","","{""aha"":4}","[0]","../img/tt/1159tt.jpg","",""
"null","<div style=""font-size:60px;""> </div>","null","fixation","html-keyboard-response","419","1402198","0.0-6.0-0.59","2848435","co38428","norming","","","","","","",""
"null","../img/tt/1276tt.jpg","null","mooney1","image-keyboard-response","420","1405210","0.0-6.0-1.59","2848435","co38428","norming","","","","","","",""
"4143.074999999953","","","post_mooney1_questions","survey-likert","421","1409356","0.0-6.0-2.59","2848435","co38428","norming","","","{""curiosity"":6,""confidence"":0}","[0,1]","../img/tt/1276tt.jpg","",""
"573.9800000002142","","","recognition","survey-text","422","1409932","0.0-6.0-3.59","2848435","co38428","norming","","","{""guess"":""""}","","../img/tt/1276tt.jpg","",""
"null","../img/gs/1276gs.jpg","null","reveal","image-keyboard-response","423","1411943","0.0-6.0-4.59","2848435","co38428","norming","","","","","","",""
"null","../img/tt/1276tt.jpg","null","mooney2","image-keyboard-response","424","1413955","0.0-6.0-5.59","2848435","co38428","norming","","","","","","",""
"2303.1400000001304","","","post_reveal_questions","survey-likert","425","1416260","0.0-6.0-6.59","2848435","co38428","norming","","","{""aha"":4}","[0]","../img/tt/1276tt.jpg","",""
"null","<div style=""font-size:60px;""> </div>","null","fixation","html-keyboard-response","426","1416469","0.0-6.0-0.60","2848435","co38428","norming","","","","","","",""
"null","../img/tt/1089tt.jpg","null","mooney1","image-keyboard-response","427","1419472","0.0-6.0-1.60","2848435","co38428","norming","","","","","","",""
"2865.5799999998417","","","post_mooney1_questions","survey-likert","428","1422341","0.0-6.0-2.60","2848435","co38428","norming","","","{""curiosity"":2,""confidence"":6}","[0,1]","../img/tt/1089tt.jpg","",""
"3222.1649999998044","","","recognition","survey-text","429","1425564","0.0-6.0-3.60","2848435","co38428","norming","","","{""guess"":""olifanten""}","","../img/tt/1089tt.jpg","",""
"null","../img/gs/1089gs.jpg","null","reveal","image-keyboard-response","430","1427565","0.0-6.0-4.60","2848435","co38428","norming","","","","","","",""
"null","../img/tt/1089tt.jpg","null","mooney2","image-keyboard-response","431","1429568","0.0-6.0-5.60","2848435","co38428","norming","","","","","","",""
"1889.4350000000559","","","post_reveal_questions","survey-likert","432","1431460","0.0-6.0-6.60","2848435","co38428","norming","","","{""aha"":0}","[0]","../img/tt/1089tt.jpg","",""
"null","<div style=""font-size:60px;""> </div>","null","fixation","html-keyboard-response","433","1431662","0.0-6.0-0.61","2848435","co38428","norming","","","","","","",""
"null","../img/tt/306tt.jpg","null","mooney1","image-keyboard-response","434","1434673","0.0-6.0-1.61","2848435","co38428","norming","","","","","","",""
"5288.170000000158","","","post_mooney1_questions","survey-likert","435","1439965","0.0-6.0-2.61","2848435","co38428","norming","","","{""curiosity"":3,""confidence"":0}","[0,1]","../img/tt/306tt.jpg","",""
"734.0850000001956","","","recognition","survey-text","436","1440700","0.0-6.0-3.61","2848435","co38428","norming","","","{""guess"":""""}","","../img/tt/306tt.jpg","",""
"null","../img/gs/306gs.jpg","null","reveal","image-keyboard-response","437","1442708","0.0-6.0-4.61","2848435","co38428","norming","","","","","","",""
"null","../img/tt/306tt.jpg","null","mooney2","image-keyboard-response","438","1444710","0.0-6.0-5.61","2848435","co38428","norming","","","","","","",""
"1219.8199999998324","","","post_reveal_questions","survey-likert","439","1445932","0.0-6.0-6.61","2848435","co38428","norming","","","{""aha"":2}","[0]","../img/tt/306tt.jpg","",""
"null","<div style=""font-size:60px;""> </div>","null","fixation","html-keyboard-response","440","1446134","0.0-6.0-0.62","2848435","co38428","norming","","","","","","",""
"null","../img/tt/1143tt.jpg","null","mooney1","image-keyboard-response","441","1449146","0.0-6.0-1.62","2848435","co38428","norming","","","","","","",""
"6935.604999999981","","","post_mooney1_questions","survey-likert","442","1456084","0.0-6.0-2.62","2848435","co38428","norming","","","{""curiosity"":5,""confidence"":0}","[0,1]","../img/tt/1143tt.jpg","",""
"1237.9350000000559","","","recognition","survey-text","443","1457324","0.0-6.0-3.62","2848435","co38428","norming","","","{""guess"":""""}","","../img/tt/1143tt.jpg","",""
"null","../img/gs/1143gs.jpg","null","reveal","image-keyboard-response","444","1459329","0.0-6.0-4.62","2848435","co38428","norming","","","","","","",""
"null","../img/tt/1143tt.jpg","null","mooney2","image-keyboard-response","445","1461336","0.0-6.0-5.62","2848435","co38428","norming","","","","","","",""
"3227.600000000093","","","post_reveal_questions","survey-likert","446","1464564","0.0-6.0-6.62","2848435","co38428","norming","","","{""aha"":5}","[0]","../img/tt/1143tt.jpg","",""
"null","<div style=""font-size:60px;""> </div>","null","fixation","html-keyboard-response","447","1464775","0.0-6.0-0.63","2848435","co38428","norming","","","","","","",""
"null","../img/tt/1027tt.jpg","null","mooney1","image-keyboard-response","448","1467782","0.0-6.0-1.63","2848435","co38428","norming","","","","","","",""
"6907.459999999963","","","post_mooney1_questions","survey-likert","449","1474693","0.0-6.0-2.63","2848435","co38428","norming","","","{""curiosity"":5,""confidence"":1}","[0,1]","../img/tt/1027tt.jpg","",""
"1461.9599999999627","","","recognition","survey-text","450","1476156","0.0-6.0-3.63","2848435","co38428","norming","","","{""guess"":""weide""}","","../img/tt/1027tt.jpg","",""
"null","../img/gs/1027gs.jpg","null","reveal","image-keyboard-response","451","1478158","0.0-6.0-4.63","2848435","co38428","norming","","","","","","",""
"null","../img/tt/1027tt.jpg","null","mooney2","image-keyboard-response","452","1480166","0.0-6.0-5.63","2848435","co38428","norming","","","","","","",""
"3067.475000000093","","","post_reveal_questions","survey-likert","453","1483237","0.0-6.0-6.63","2848435","co38428","norming","","","{""aha"":4}","[0]","../img/tt/1027tt.jpg","",""
"null","<div style=""font-size:60px;""> </div>","null","fixation","html-keyboard-response","454","1483437","0.0-6.0-0.64","2848435","co38428","norming","","","","","","",""
"null","../img/tt/124tt.jpg","null","mooney1","image-keyboard-response","455","1486445","0.0-6.0-1.64","2848435","co38428","norming","","","","","","",""
"9659.175000000047","","","post_mooney1_questions","survey-likert","456","1496109","0.0-6.0-2.64","2848435","co38428","norming","","","{""curiosity"":5,""confidence"":2}","[0,1]","../img/tt/124tt.jpg","",""
"5006.070000000298","","","recognition","survey-text","457","1501117","0.0-6.0-3.64","2848435","co38428","norming","","","{""guess"":""beer""}","","../img/tt/124tt.jpg","",""
"null","../img/gs/124gs.jpg","null","reveal","image-keyboard-response","458","1503118","0.0-6.0-4.64","2848435","co38428","norming","","","","","","",""
"null","../img/tt/124tt.jpg","null","mooney2","image-keyboard-response","459","1505129","0.0-6.0-5.64","2848435","co38428","norming","","","","","","",""
"6992.23499999987","","","post_reveal_questions","survey-likert","460","1512124","0.0-6.0-6.64","2848435","co38428","norming","","","{""aha"":3}","[0]","../img/tt/124tt.jpg","",""
"null","<div style=""font-size:60px;""> </div>","null","fixation","html-keyboard-response","461","1512329","0.0-6.0-0.65","2848435","co38428","norming","","","","","","",""
"null","../img/tt/300tt.jpg","null","mooney1","image-keyboard-response","462","1515332","0.0-6.0-1.65","2848435","co38428","norming","","","","","","",""
"4839.094999999972","","","post_mooney1_questions","survey-likert","463","1520173","0.0-6.0-2.65","2848435","co38428","norming","","","{""curiosity"":4,""confidence"":2}","[0,1]","../img/tt/300tt.jpg","",""
"1326.1350000000093","","","recognition","survey-text","464","1521500","0.0-6.0-3.65","2848435","co38428","norming","","","{""guess"":""apen""}","","../img/tt/300tt.jpg","",""
"null","../img/gs/300gs.jpg","null","reveal","image-keyboard-response","465","1523508","0.0-6.0-4.65","2848435","co38428","norming","","","","","","",""
"null","../img/tt/300tt.jpg","null","mooney2","image-keyboard-response","466","1525518","0.0-6.0-5.65","2848435","co38428","norming","","","","","","",""
"3093.5550000001676","","","post_reveal_questions","survey-likert","467","1528606","0.0-6.0-6.65","2848435","co38428","norming","","","{""aha"":5}","[0]","../img/tt/300tt.jpg","",""
"null","<div style=""font-size:60px;""> </div>","null","fixation","html-keyboard-response","468","1528808","0.0-6.0-0.66","2848435","co38428","norming","","","","","","",""
"null","../img/tt/599tt.jpg","null","mooney1","image-keyboard-response","469","1531811","0.0-6.0-1.66","2848435","co38428","norming","","","","","","",""
"4399.619999999879","","","post_mooney1_questions","survey-likert","470","1536214","0.0-6.0-2.66","2848435","co38428","norming","","","{""curiosity"":5,""confidence"":0}","[0,1]","../img/tt/599tt.jpg","",""
"846.1300000001211","","","recognition","survey-text","471","1537062","0.0-6.0-3.66","2848435","co38428","norming","","","{""guess"":""""}","","../img/tt/599tt.jpg","",""
"null","../img/gs/599gs.jpg","null","reveal","image-keyboard-response","472","1539068","0.0-6.0-4.66","2848435","co38428","norming","","","","","","",""
"null","../img/tt/599tt.jpg","null","mooney2","image-keyboard-response","473","1541078","0.0-6.0-5.66","2848435","co38428","norming","","","","","","",""
"3342.975000000093","","","post_reveal_questions","survey-likert","474","1544422","0.0-6.0-6.66","2848435","co38428","norming","","","{""aha"":6}","[0]","../img/tt/599tt.jpg","",""
"null","<div style=""font-size:60px;""> </div>","null","fixation","html-keyboard-response","475","1544623","0.0-6.0-0.67","2848435","co38428","norming","","","","","","",""
"null","../img/tt/567tt.jpg","null","mooney1","image-keyboard-response","476","1547628","0.0-6.0-1.67","2848435","co38428","norming","","","","","","",""
"4702.875","","","post_mooney1_questions","survey-likert","477","1552334","0.0-6.0-2.67","2848435","co38428","norming","","","{""curiosity"":3,""confidence"":2}","[0,1]","../img/tt/567tt.jpg","",""
"1990.3200000000652","","","recognition","survey-text","478","1554326","0.0-6.0-3.67","2848435","co38428","norming","","","{""guess"":""kikker""}","","../img/tt/567tt.jpg","",""
"null","../img/gs/567gs.jpg","null","reveal","image-keyboard-response","479","1556332","0.0-6.0-4.67","2848435","co38428","norming","","","","","","",""
"null","../img/tt/567tt.jpg","null","mooney2","image-keyboard-response","480","1558343","0.0-6.0-5.67","2848435","co38428","norming","","","","","","",""
"2796.0200000000186","","","post_reveal_questions","survey-likert","481","1561142","0.0-6.0-6.67","2848435","co38428","norming","","","{""aha"":4}","[0]","../img/tt/567tt.jpg","",""
"null","<div style=""font-size:60px;""> </div>","null","fixation","html-keyboard-response","482","1561344","0.0-6.0-0.68","2848435","co38428","norming","","","","","","",""
"null","../img/tt/1196tt.jpg","null","mooney1","image-keyboard-response","483","1564348","0.0-6.0-1.68","2848435","co38428","norming","","","","","","",""
"9182.040000000037","","","post_mooney1_questions","survey-likert","484","1573534","0.0-6.0-2.68","2848435","co38428","norming","","","{""curiosity"":2,""confidence"":0}","[0,1]","../img/tt/1196tt.jpg","",""
"1070.0200000002515","","","recognition","survey-text","485","1574606","0.0-6.0-3.68","2848435","co38428","norming","","","{""guess"":""""}","","../img/tt/1196tt.jpg","",""
"null","../img/gs/1196gs.jpg","null","reveal","image-keyboard-response","486","1576613","0.0-6.0-4.68","2848435","co38428","norming","","","","","","",""
"null","../img/tt/1196tt.jpg","null","mooney2","image-keyboard-response","487","1578615","0.0-6.0-5.68","2848435","co38428","norming","","","","","","",""
"2647.7349999998696","","","post_reveal_questions","survey-likert","488","1581270","0.0-6.0-6.68","2848435","co38428","norming","","","{""aha"":5}","[0]","../img/tt/1196tt.jpg","",""
"null","<div style=""font-size:60px;""> </div>","null","fixation","html-keyboard-response","489","1581472","0.0-6.0-0.69","2848435","co38428","norming","","","","","","",""
"null","../img/tt/079tt.jpg","null","mooney1","image-keyboard-response","490","1584480","0.0-6.0-1.69","2848435","co38428","norming","","","","","","",""
"3779.2800000002608","","","post_mooney1_questions","survey-likert","491","1588262","0.0-6.0-2.69","2848435","co38428","norming","","","{""curiosity"":4,""confidence"":4}","[0,1]","../img/tt/079tt.jpg","",""
"1326.434999999823","","","recognition","survey-text","492","1589590","0.0-6.0-3.69","2848435","co38428","norming","","","{""guess"":""beer""}","","../img/tt/079tt.jpg","",""
"null","../img/gs/079gs.jpg","null","reveal","image-keyboard-response","493","1591599","0.0-6.0-4.69","2848435","co38428","norming","","","","","","",""
"null","../img/tt/079tt.jpg","null","mooney2","image-keyboard-response","494","1593601","0.0-6.0-5.69","2848435","co38428","norming","","","","","","",""
"3066.4499999997206","","","post_reveal_questions","survey-likert","495","1596670","0.0-6.0-6.69","2848435","co38428","norming","","","{""aha"":0}","[0]","../img/tt/079tt.jpg","",""
"null","<div style=""font-size:60px;""> </div>","null","fixation","html-keyboard-response","496","1596872","0.0-6.0-0.70","2848435","co38428","norming","","","","","","",""
"null","../img/tt/1181tt.jpg","null","mooney1","image-keyboard-response","497","1599881","0.0-6.0-1.70","2848435","co38428","norming","","","","","","",""
"4449.34999999986","","","post_mooney1_questions","survey-likert","498","1604334","0.0-6.0-2.70","2848435","co38428","norming","","","{""curiosity"":5,""confidence"":2}","[0,1]","../img/tt/1181tt.jpg","",""
"4901.899999999907","","","recognition","survey-text","499","1609238","0.0-6.0-3.70","2848435","co38428","norming","","","{""guess"":""knuffelende mensen""}","","../img/tt/1181tt.jpg","",""
"null","../img/gs/1181gs.jpg","null","reveal","image-keyboard-response","500","1611243","0.0-6.0-4.70","2848435","co38428","norming","","","","","","",""
"null","../img/tt/1181tt.jpg","null","mooney2","image-keyboard-response","501","1613250","0.0-6.0-5.70","2848435","co38428","norming","","","","","","",""
"1065.2050000003073","","","post_reveal_questions","survey-likert","502","1614318","0.0-6.0-6.70","2848435","co38428","norming","","","{""aha"":5}","[0]","../img/tt/1181tt.jpg","",""
"null","<div style=""font-size:60px;""> </div>","null","fixation","html-keyboard-response","503","1614519","0.0-6.0-0.71","2848435","co38428","norming","","","","","","",""
"null","../img/tt/019tt.jpg","null","mooney1","image-keyboard-response","504","1617524","0.0-6.0-1.71","2848435","co38428","norming","","","","","","",""
"3462.375","","","post_mooney1_questions","survey-likert","505","1620990","0.0-6.0-2.71","2848435","co38428","norming","","","{""curiosity"":4,""confidence"":2}","[0,1]","../img/tt/019tt.jpg","",""
"1462.1350000002421","","","recognition","survey-text","506","1622454","0.0-6.0-3.71","2848435","co38428","norming","","","{""guess"":""tang""}","","../img/tt/019tt.jpg","",""
"null","../img/gs/019gs.jpg","null","reveal","image-keyboard-response","507","1624460","0.0-6.0-4.71","2848435","co38428","norming","","","","","","",""
"null","../img/tt/019tt.jpg","null","mooney2","image-keyboard-response","508","1626464","0.0-6.0-5.71","2848435","co38428","norming","","","","","","",""
"2250.435000000056","","","post_reveal_questions","survey-likert","509","1628718","0.0-6.0-6.71","2848435","co38428","norming","","","{""aha"":0}","[0]","../img/tt/019tt.jpg","",""
"null","<div style=""font-size:60px;""> </div>","null","fixation","html-keyboard-response","510","1628920","0.0-6.0-0.72","2848435","co38428","norming","","","","","","",""
"null","../img/tt/522tt.jpg","null","mooney1","image-keyboard-response","511","1631929","0.0-6.0-1.72","2848435","co38428","norming","","","","","","",""
"5048.995000000112","","","post_mooney1_questions","survey-likert","512","1636982","0.0-6.0-2.72","2848435","co38428","norming","","","{""curiosity"":6,""confidence"":0}","[0,1]","../img/tt/522tt.jpg","",""
"1070.0400000000373","","","recognition","survey-text","513","1638054","0.0-6.0-3.72","2848435","co38428","norming","","","{""guess"":""""}","","../img/tt/522tt.jpg","",""
"null","../img/gs/522gs.jpg","null","reveal","image-keyboard-response","514","1640063","0.0-6.0-4.72","2848435","co38428","norming","","","","","","",""
"null","../img/tt/522tt.jpg","null","mooney2","image-keyboard-response","515","1642071","0.0-6.0-5.72","2848435","co38428","norming","","","","","","",""
"2187.695000000065","","","post_reveal_questions","survey-likert","516","1644262","0.0-6.0-6.72","2848435","co38428","norming","","","{""aha"":3}","[0]","../img/tt/522tt.jpg","",""
"null","<div style=""font-size:60px;""> </div>","null","fixation","html-keyboard-response","517","1644463","0.0-6.0-0.73","2848435","co38428","norming","","","","","","",""
"null","../img/tt/353tt.jpg","null","mooney1","image-keyboard-response","518","1647469","0.0-6.0-1.73","2848435","co38428","norming","","","","","","",""
"3190.8349999999627","","","post_mooney1_questions","survey-likert","519","1650664","0.0-6.0-2.73","2848435","co38428","norming","","","{""curiosity"":4,""confidence"":1}","[0,1]","../img/tt/353tt.jpg","",""
"2126.0999999998603","","","recognition","survey-text","520","1652792","0.0-6.0-3.73","2848435","co38428","norming","","","{""guess"":""pinguin""}","","../img/tt/353tt.jpg","",""
"null","../img/gs/353gs.jpg","null","reveal","image-keyboard-response","521","1654801","0.0-6.0-4.73","2848435","co38428","norming","","","","","","",""
"null","../img/tt/353tt.jpg","null","mooney2","image-keyboard-response","522","1656803","0.0-6.0-5.73","2848435","co38428","norming","","","","","","",""
"2914.2899999995716","","","post_reveal_questions","survey-likert","523","1659720","0.0-6.0-6.73","2848435","co38428","norming","","","{""aha"":2}","[0]","../img/tt/353tt.jpg","",""
"null","<div style=""font-size:60px;""> </div>","null","fixation","html-keyboard-response","524","1659921","0.0-6.0-0.74","2848435","co38428","norming","","","","","","",""
"null","../img/tt/056tt.jpg","null","mooney1","image-keyboard-response","525","1662925","0.0-6.0-1.74","2848435","co38428","norming","","","","","","",""
"5023.465000000084","","","post_mooney1_questions","survey-likert","526","1667952","0.0-6.0-2.74","2848435","co38428","norming","","","{""curiosity"":5,""confidence"":5}","[0,1]","../img/tt/056tt.jpg","",""
"1654.0049999996554","","","recognition","survey-text","527","1669608","0.0-6.0-3.74","2848435","co38428","norming","","","{""guess"":""wolf""}","","../img/tt/056tt.jpg","",""
"null","../img/gs/056gs.jpg","null","reveal","image-keyboard-response","528","1671618","0.0-6.0-4.74","2848435","co38428","norming","","","","","","",""
"null","../img/tt/056tt.jpg","null","mooney2","image-keyboard-response","529","1673625","0.0-6.0-5.74","2848435","co38428","norming","","","","","","",""
"3987.8349999999627","","","post_reveal_questions","survey-likert","530","1677616","0.0-6.0-6.74","2848435","co38428","norming","","","{""aha"":5}","[0]","../img/tt/056tt.jpg","",""
"null","<div style=""font-size:60px;""> </div>","null","fixation","html-keyboard-response","531","1677817","0.0-6.0-0.75","2848435","co38428","norming","","","","","","",""
"null","../img/tt/1161tt.jpg","null","mooney1","image-keyboard-response","532","1680828","0.0-6.0-1.75","2848435","co38428","norming","","","","","","",""
"4872.084999999963","","","post_mooney1_questions","survey-likert","533","1685704","0.0-6.0-2.75","2848435","co38428","norming","","","{""curiosity"":5,""confidence"":2}","[0,1]","../img/tt/1161tt.jpg","",""
"1325.9550000003073","","","recognition","survey-text","534","1687032","0.0-6.0-3.75","2848435","co38428","norming","","","{""guess"":""berg""}","","../img/tt/1161tt.jpg","",""
"null","../img/gs/1161gs.jpg","null","reveal","image-keyboard-response","535","1689034","0.0-6.0-4.75","2848435","co38428","norming","","","","","","",""
"null","../img/tt/1161tt.jpg","null","mooney2","image-keyboard-response","536","1691043","0.0-6.0-5.75","2848435","co38428","norming","","","","","","",""
"1850.8200000000652","","","post_reveal_questions","survey-likert","537","1692896","0.0-6.0-6.75","2848435","co38428","norming","","","{""aha"":4}","[0]","../img/tt/1161tt.jpg","",""
"null","<div style=""font-size:60px;""> </div>","null","fixation","html-keyboard-response","538","1693097","0.0-6.0-0.76","2848435","co38428","norming","","","","","","",""
"null","../img/tt/031tt.jpg","null","mooney1","image-keyboard-response","539","1696102","0.0-6.0-1.76","2848435","co38428","norming","","","","","","",""
"4757.675000000279","","","post_mooney1_questions","survey-likert","540","1700864","0.0-6.0-2.76","2848435","co38428","norming","","","{""curiosity"":6,""confidence"":0}","[0,1]","../img/tt/031tt.jpg","",""
"630.0849999999627","","","recognition","survey-text","541","1701496","0.0-6.0-3.76","2848435","co38428","norming","","","{""guess"":""""}","","../img/tt/031tt.jpg","",""
"null","../img/gs/031gs.jpg","null","reveal","image-keyboard-response","542","1703506","0.0-6.0-4.76","2848435","co38428","norming","","","","","","",""
"null","../img/tt/031tt.jpg","null","mooney2","image-keyboard-response","543","1705508","0.0-6.0-5.76","2848435","co38428","norming","","","","","","",""
"1721.0149999998976","","","post_reveal_questions","survey-likert","544","1707232","0.0-6.0-6.76","2848435","co38428","norming","","","{""aha"":5}","[0]","../img/tt/031tt.jpg","",""
"null","<div style=""font-size:60px;""> </div>","null","fixation","html-keyboard-response","545","1707434","0.0-6.0-0.77","2848435","co38428","norming","","","","","","",""
"null","../img/tt/436tt.jpg","null","mooney1","image-keyboard-response","546","1710450","0.0-6.0-1.77","2848435","co38428","norming","","","","","","",""
"4530.584999999963","","","post_mooney1_questions","survey-likert","547","1714984","0.0-6.0-2.77","2848435","co38428","norming","","","{""curiosity"":5,""confidence"":3}","[0,1]","../img/tt/436tt.jpg","",""
"2038.0549999999348","","","recognition","survey-text","548","1717023","0.0-6.0-3.77","2848435","co38428","norming","","","{""guess"":""ravaan""}","","../img/tt/436tt.jpg","",""
"null","../img/gs/436gs.jpg","null","reveal","image-keyboard-response","549","1719029","0.0-6.0-4.77","2848435","co38428","norming","","","","","","",""
"null","../img/tt/436tt.jpg","null","mooney2","image-keyboard-response","550","1721031","0.0-6.0-5.77","2848435","co38428","norming","","","","","","",""
"1685.4950000003446","","","post_reveal_questions","survey-likert","551","1722720","0.0-6.0-6.77","2848435","co38428","norming","","","{""aha"":0}","[0]","../img/tt/436tt.jpg","",""
"null","<div style=""font-size:60px;""> </div>","null","fixation","html-keyboard-response","552","1722925","0.0-6.0-0.78","2848435","co38428","norming","","","","","","",""
"null","../img/tt/1228tt.jpg","null","mooney1","image-keyboard-response","553","1725931","0.0-6.0-1.78","2848435","co38428","norming","","","","","","",""
