"rt","stimulus","key_press","test_part","trial_type","trial_index","time_elapsed","internal_node_id","totalTime","subject","experiment_name","button_pressed","success","responses","question_order","currentStim","old","correct"
"7965.5299999994895","Welcome to the experiment. This is an online experiment so please don't close the tab/window until we say goodbye.  Press any key to begin.","13","instructions","html-keyboard-response","0","7979","0.0-0.0","3496553","co38917","norming","","","","","","",""
"58622.1800000003","<div style='word-wrap: break-word; width: 900px'><h3>Please consider this information carefully before deciding whether to participate in this research</h3><ul style='text-align: left; font-size: .8em;'><li><b>Purpose of the research</b>: To examine how people process images.</li><li><b>What you will do in this research</b>:  Stimuli (images) will be presented on the computer and you will be asked different questions about them.</li><li><b>Time required</b>: Participation will take between 45 and 60 minutes to complete.</li><li><b>Risks</b>:  There are no anticipated risks associated with participating in this study. The effects of participating should be comparable to those you would experience from viewing a computer monitor for 30 minutes and using a mouse or keyboard.</li><li><b>Benefits</b>:  This study provides no benefits to you individually except for the credit. The study provides important information about the nature of perception and learning.</li><li><b>Confidentiality</b>:  Your participation in this study will remain confidential. No personally identifiable information will be associated with your data. Your de-identified data may be shared with other researchers and used in future projects.</li><li><b>Participation and withdrawal</b>:  Your participation in this study is completely voluntary and you may refuse to participate or you may choose to withdraw at any time without penalty.</li><li><b>How to contact the researchers</b>: If you have questions or concerns about your participation or payment, or want to request a summary of research findings, please contact Sander Van de Cruys (KU Leuven), at sander.vandecruys@kuleuven.be.</li></ul><p>The nature and purpose of this research have been sufficiently explained and I agree to participate in this study.  I understand that I am free to withdraw at any time without incurring any penalty.</p><p>Please consent by clicking the button below to continue. Otherwise, please exit the study at this time.</p></div>","","instructions","html-button-response","1","66596","0.0-1.0","3496553","co38917","norming","0","","","","","",""
"","","","instructions","fullscreen","2","73859","0.0-2.0","3496553","co38917","norming","","true","","","","",""
"39374.55500000033","","","sona","survey-html-form","3","113241","0.0-3.0","3496553","co38917","norming","","","[{""name"":""sonaid"",""value"":""38917""},{""name"":""debrief"",""value"":""yes""},{""name"":""datajoin"",""value"":""yes""}]","","","",""
"92218.3299999997","<div style='word-wrap: break-word; width: 900px'><h3>Instructions</h3><p>This experiment will have 3 parts. In the first part you will see a series of distorted images like the one below on the left. As you can see in the righthand image, the distorted images are derived from actual photographs. In what follows, you will <strong>briefly</strong> be presented with <strong>only</strong> the distorted image.</p> <div style='float: left; margin-right: 20px;'><img src='../img/018tt.jpg' height='250' width='250'></img></div><div style='float: right; margin-left: 20px;'><img src='../img/018gs.jpg' height='250' width='250'></img></div><p>Subsequently you will be asked a few questions about the image: One question on how <strong>curious</strong> you are about the solution and one on how <strong>confident</strong> you are that you know the solution.</p>Next, we ask you to make a guess on what is in the image. Note that it is OK to name just the <strong>basic level category</strong>. For example when you see a parrot in the image, 'parrot' will obviously be a correct answer but also correct is 'bird'. However, 'animal' will <strong>not</strong> be counted as a correct response. For the example above, 'rose' would be correct or 'flower', but not 'plant'. When soccer players are depicted, 'soccer', 'football', 'soccer players' will be correct, but not 'humans', 'outdoors', or 'sports'. You do not need to describe the image in full, just name the main object in it <strong>in one or two words</strong>. All images depict objects from one of the following broad level categories: animals, inanimate objects, plants, sports, vehicles, and food. Recognizing means knowing <strong>more</strong> than these broad labels for a given image. But we always encourage you to <strong>make a guess</strong> if you can. Note that you are allowed to use <strong>Dutch and English</strong> in your answers, whatever comes easiest for you.</p><p>Press any key to continue.</p></div>","13","instructions","html-keyboard-response","4","205461","0.0-4.0","3496553","co38917","norming","","","","","","",""
"78431.28500000056","<div style='word-wrap: break-word; width: 900px'><h3>Instructions</h3> <p>Next, the solution image will be revealed to you and you'll be asked to indicate how strong your <strong>aha-experience</strong> was after seeing the solution. This describes the positive feeling of the 'click' you sometimes experience, when the pieces of the 'puzzle' fall together and you suddenly have 'insight' in the image.</p><img src='aha.jpg' height='188' width='250'></img><p>Note that there are no right or wrong answers. We are interested in what <strong>you</strong> see in the image and how <strong>you</strong> feel about it.</p><p>Press any key to start the experiment.</p></div>","13","instructions","html-keyboard-response","5","283900","0.0-5.0","3496553","co38917","norming","","","","","","",""
"null","<div style=""font-size:60px;""> </div>","null","fixation","html-keyboard-response","6","284110","0.0-6.0-0.0","3496553","co38917","norming","","","","","","",""
"null","../img/tt/052tt.jpg","null","mooney1","image-keyboard-response","7","287123","0.0-6.0-1.0","3496553","co38917","norming","","","","","","",""
"11582.414999998931","","","post_mooney1_questions","survey-likert","8","298709","0.0-6.0-2.0","3496553","co38917","norming","","","{""curiosity"":4,""confidence"":0}","[0,1]","../img/tt/052tt.jpg","",""
"9757.49499999982","","","recognition","survey-text","9","308468","0.0-6.0-3.0","3496553","co38917","norming","","","{""guess"":""wiel""}","","../img/tt/052tt.jpg","",""
"null","../img/gs/052gs.jpg","null","reveal","image-keyboard-response","10","310475","0.0-6.0-4.0","3496553","co38917","norming","","","","","","",""
"null","../img/tt/052tt.jpg","null","mooney2","image-keyboard-response","11","312485","0.0-6.0-5.0","3496553","co38917","norming","","","","","","",""
"7869.195000001171","","","post_reveal_questions","survey-likert","12","320356","0.0-6.0-6.0","3496553","co38917","norming","","","{""aha"":6}","[0]","../img/tt/052tt.jpg","",""
"null","<div style=""font-size:60px;""> </div>","null","fixation","html-keyboard-response","13","320567","0.0-6.0-0.1","3496553","co38917","norming","","","","","","",""
"null","../img/tt/055tt.jpg","null","mooney1","image-keyboard-response","14","323569","0.0-6.0-1.1","3496553","co38917","norming","","","","","","",""
"10737.885000000475","","","post_mooney1_questions","survey-likert","15","334308","0.0-6.0-2.1","3496553","co38917","norming","","","{""curiosity"":4,""confidence"":1}","[0,1]","../img/tt/055tt.jpg","",""
"4086.160000000731","","","recognition","survey-text","16","338396","0.0-6.0-3.1","3496553","co38917","norming","","","{""guess"":""verfpot""}","","../img/tt/055tt.jpg","",""
"null","../img/gs/055gs.jpg","null","reveal","image-keyboard-response","17","340405","0.0-6.0-4.1","3496553","co38917","norming","","","","","","",""
"null","../img/tt/055tt.jpg","null","mooney2","image-keyboard-response","18","342414","0.0-6.0-5.1","3496553","co38917","norming","","","","","","",""
"6259.834999998915","","","post_reveal_questions","survey-likert","19","348671","0.0-6.0-6.1","3496553","co38917","norming","","","{""aha"":3}","[0]","../img/tt/055tt.jpg","",""
"null","<div style=""font-size:60px;""> </div>","null","fixation","html-keyboard-response","20","348875","0.0-6.0-0.2","3496553","co38917","norming","","","","","","",""
"null","../img/tt/1237tt.jpg","null","mooney1","image-keyboard-response","21","351880","0.0-6.0-1.2","3496553","co38917","norming","","","","","","",""
"9588.964999998978","","","post_mooney1_questions","survey-likert","22","361472","0.0-6.0-2.2","3496553","co38917","norming","","","{""curiosity"":4,""confidence"":0}","[0,1]","../img/tt/1237tt.jpg","",""
"4454.12499999837","","","recognition","survey-text","23","365927","0.0-6.0-3.2","3496553","co38917","norming","","","{""guess"":""""}","","../img/tt/1237tt.jpg","",""
"null","../img/gs/1237gs.jpg","null","reveal","image-keyboard-response","24","367935","0.0-6.0-4.2","3496553","co38917","norming","","","","","","",""
"null","../img/tt/1237tt.jpg","null","mooney2","image-keyboard-response","25","369943","0.0-6.0-5.2","3496553","co38917","norming","","","","","","",""
"3215.0600000004633","","","post_reveal_questions","survey-likert","26","373159","0.0-6.0-6.2","3496553","co38917","norming","","","{""aha"":1}","[0]","../img/tt/1237tt.jpg","",""
"null","<div style=""font-size:60px;""> </div>","null","fixation","html-keyboard-response","27","373365","0.0-6.0-0.3","3496553","co38917","norming","","","","","","",""
"null","../img/tt/1200tt.jpg","null","mooney1","image-keyboard-response","28","376373","0.0-6.0-1.3","3496553","co38917","norming","","","","","","",""
"12312.560000000347","","","post_mooney1_questions","survey-likert","29","388688","0.0-6.0-2.3","3496553","co38917","norming","","","{""curiosity"":5,""confidence"":0}","[0,1]","../img/tt/1200tt.jpg","",""
"902.1300000003539","","","recognition","survey-text","30","389591","0.0-6.0-3.3","3496553","co38917","norming","","","{""guess"":""""}","","../img/tt/1200tt.jpg","",""
"null","../img/gs/1200gs.jpg","null","reveal","image-keyboard-response","31","391595","0.0-6.0-4.3","3496553","co38917","norming","","","","","","",""
"null","../img/tt/1200tt.jpg","null","mooney2","image-keyboard-response","32","393597","0.0-6.0-5.3","3496553","co38917","norming","","","","","","",""
"3336.1050000003306","","","post_reveal_questions","survey-likert","33","396935","0.0-6.0-6.3","3496553","co38917","norming","","","{""aha"":2}","[0]","../img/tt/1200tt.jpg","",""
"null","<div style=""font-size:60px;""> </div>","null","fixation","html-keyboard-response","34","397139","0.0-6.0-0.4","3496553","co38917","norming","","","","","","",""
"null","../img/tt/418tt.jpg","null","mooney1","image-keyboard-response","35","400149","0.0-6.0-1.4","3496553","co38917","norming","","","","","","",""
"14375.804999999702","","","post_mooney1_questions","survey-likert","36","414525","0.0-6.0-2.4","3496553","co38917","norming","","","{""curiosity"":4,""confidence"":0}","[0,1]","../img/tt/418tt.jpg","",""
"2558.220000000787","","","recognition","survey-text","37","417085","0.0-6.0-3.4","3496553","co38917","norming","","","{""guess"":""""}","","../img/tt/418tt.jpg","",""
"null","../img/gs/418gs.jpg","null","reveal","image-keyboard-response","38","419088","0.0-6.0-4.4","3496553","co38917","norming","","","","","","",""
"null","../img/tt/418tt.jpg","null","mooney2","image-keyboard-response","39","421100","0.0-6.0-5.4","3496553","co38917","norming","","","","","","",""
"4039.640000000887","","","post_reveal_questions","survey-likert","40","425141","0.0-6.0-6.4","3496553","co38917","norming","","","{""aha"":2}","[0]","../img/tt/418tt.jpg","",""
"null","<div style=""font-size:60px;""> </div>","null","fixation","html-keyboard-response","41","425347","0.0-6.0-0.5","3496553","co38917","norming","","","","","","",""
"null","../img/tt/1053tt.jpg","null","mooney1","image-keyboard-response","42","428354","0.0-6.0-1.5","3496553","co38917","norming","","","","","","",""
"14784.454999999085","","","post_mooney1_questions","survey-likert","43","443141","0.0-6.0-2.5","3496553","co38917","norming","","","{""curiosity"":4,""confidence"":0}","[0,1]","../img/tt/1053tt.jpg","",""
"1086.274999999674","","","recognition","survey-text","44","444229","0.0-6.0-3.5","3496553","co38917","norming","","","{""guess"":""""}","","../img/tt/1053tt.jpg","",""
"null","../img/gs/1053gs.jpg","null","reveal","image-keyboard-response","45","446230","0.0-6.0-4.5","3496553","co38917","norming","","","","","","",""
"null","../img/tt/1053tt.jpg","null","mooney2","image-keyboard-response","46","448235","0.0-6.0-5.5","3496553","co38917","norming","","","","","","",""
"7296.070000000298","","","post_reveal_questions","survey-likert","47","455533","0.0-6.0-6.5","3496553","co38917","norming","","","{""aha"":2}","[0]","../img/tt/1053tt.jpg","",""
"null","<div style=""font-size:60px;""> </div>","null","fixation","html-keyboard-response","48","455736","0.0-6.0-0.6","3496553","co38917","norming","","","","","","",""
"null","../img/tt/1126tt.jpg","null","mooney1","image-keyboard-response","49","458745","0.0-6.0-1.6","3496553","co38917","norming","","","","","","",""
"7945.7299999994575","","","post_mooney1_questions","survey-likert","50","466693","0.0-6.0-2.6","3496553","co38917","norming","","","{""curiosity"":5,""confidence"":1}","[0,1]","../img/tt/1126tt.jpg","",""
"3437.9850000004517","","","recognition","survey-text","51","470133","0.0-6.0-3.6","3496553","co38917","norming","","","{""guess"":""weg""}","","../img/tt/1126tt.jpg","",""
"null","../img/gs/1126gs.jpg","null","reveal","image-keyboard-response","52","472134","0.0-6.0-4.6","3496553","co38917","norming","","","","","","",""
"null","../img/tt/1126tt.jpg","null","mooney2","image-keyboard-response","53","474150","0.0-6.0-5.6","3496553","co38917","norming","","","","","","",""
"3235.9050000013667","","","post_reveal_questions","survey-likert","54","477388","0.0-6.0-6.6","3496553","co38917","norming","","","{""aha"":0}","[0]","../img/tt/1126tt.jpg","",""
"null","<div style=""font-size:60px;""> </div>","null","fixation","html-keyboard-response","55","477589","0.0-6.0-0.7","3496553","co38917","norming","","","","","","",""
"null","../img/tt/056tt.jpg","null","mooney1","image-keyboard-response","56","480593","0.0-6.0-1.7","3496553","co38917","norming","","","","","","",""
"14017.959999999206","","","post_mooney1_questions","survey-likert","57","494612","0.0-6.0-2.7","3496553","co38917","norming","","","{""curiosity"":6,""confidence"":0}","[0,1]","../img/tt/056tt.jpg","",""
"1326.190000001574","","","recognition","survey-text","58","495940","0.0-6.0-3.7","3496553","co38917","norming","","","{""guess"":""""}","","../img/tt/056tt.jpg","",""
"null","../img/gs/056gs.jpg","null","reveal","image-keyboard-response","59","497950","0.0-6.0-4.7","3496553","co38917","norming","","","","","","",""
"null","../img/tt/056tt.jpg","null","mooney2","image-keyboard-response","60","499952","0.0-6.0-5.7","3496553","co38917","norming","","","","","","",""
"3546.184999999241","","","post_reveal_questions","survey-likert","61","503500","0.0-6.0-6.7","3496553","co38917","norming","","","{""aha"":0}","[0]","../img/tt/056tt.jpg","",""
"null","<div style=""font-size:60px;""> </div>","null","fixation","html-keyboard-response","62","503707","0.0-6.0-0.8","3496553","co38917","norming","","","","","","",""
"null","../img/tt/1143tt.jpg","null","mooney1","image-keyboard-response","63","506719","0.0-6.0-1.8","3496553","co38917","norming","","","","","","",""
"6907.804999998887","","","post_mooney1_questions","survey-likert","64","513629","0.0-6.0-2.8","3496553","co38917","norming","","","{""curiosity"":6,""confidence"":1}","[0,1]","../img/tt/1143tt.jpg","",""
"3902.149999999907","","","recognition","survey-text","65","517532","0.0-6.0-3.8","3496553","co38917","norming","","","{""guess"":""piano""}","","../img/tt/1143tt.jpg","",""
"null","../img/gs/1143gs.jpg","null","reveal","image-keyboard-response","66","519543","0.0-6.0-4.8","3496553","co38917","norming","","","","","","",""
"null","../img/tt/1143tt.jpg","null","mooney2","image-keyboard-response","67","521548","0.0-6.0-5.8","3496553","co38917","norming","","","","","","",""
"4669.939999999711","","","post_reveal_questions","survey-likert","68","526220","0.0-6.0-6.8","3496553","co38917","norming","","","{""aha"":1}","[0]","../img/tt/1143tt.jpg","",""
"null","<div style=""font-size:60px;""> </div>","null","fixation","html-keyboard-response","69","526430","0.0-6.0-0.9","3496553","co38917","norming","","","","","","",""
"null","../img/tt/1363tt.jpg","null","mooney1","image-keyboard-response","70","529441","0.0-6.0-1.9","3496553","co38917","norming","","","","","","",""
"15441.184999999707","","","post_mooney1_questions","survey-likert","71","544876","0.0-6.0-2.9","3496553","co38917","norming","","","{""curiosity"":6,""confidence"":1}","[0,1]","../img/tt/1363tt.jpg","",""
"2549.869999998831","","","recognition","survey-text","72","547428","0.0-6.0-3.9","3496553","co38917","norming","","","{""guess"":""eend""}","","../img/tt/1363tt.jpg","",""
"null","../img/gs/1363gs.jpg","null","reveal","image-keyboard-response","73","549432","0.0-6.0-4.9","3496553","co38917","norming","","","","","","",""
"null","../img/tt/1363tt.jpg","null","mooney2","image-keyboard-response","74","551444","0.0-6.0-5.9","3496553","co38917","norming","","","","","","",""
"3941.694999999483","","","post_reveal_questions","survey-likert","75","555387","0.0-6.0-6.9","3496553","co38917","norming","","","{""aha"":3}","[0]","../img/tt/1363tt.jpg","",""
"null","<div style=""font-size:60px;""> </div>","null","fixation","html-keyboard-response","76","555590","0.0-6.0-0.10","3496553","co38917","norming","","","","","","",""
"null","../img/tt/1171tt.jpg","null","mooney1","image-keyboard-response","77","558594","0.0-6.0-1.10","3496553","co38917","norming","","","","","","",""
"17016.52000000095","","","post_mooney1_questions","survey-likert","78","575612","0.0-6.0-2.10","3496553","co38917","norming","","","{""curiosity"":5,""confidence"":0}","[0,1]","../img/tt/1171tt.jpg","",""
"812.8350000006612","","","recognition","survey-text","79","576427","0.0-6.0-3.10","3496553","co38917","norming","","","{""guess"":""""}","","../img/tt/1171tt.jpg","",""
"null","../img/gs/1171gs.jpg","null","reveal","image-keyboard-response","80","578429","0.0-6.0-4.10","3496553","co38917","norming","","","","","","",""
"null","../img/tt/1171tt.jpg","null","mooney2","image-keyboard-response","81","580433","0.0-6.0-5.10","3496553","co38917","norming","","","","","","",""
"6760.215000000317","","","post_reveal_questions","survey-likert","82","587196","0.0-6.0-6.10","3496553","co38917","norming","","","{""aha"":1}","[0]","../img/tt/1171tt.jpg","",""
"null","<div style=""font-size:60px;""> </div>","null","fixation","html-keyboard-response","83","587397","0.0-6.0-0.11","3496553","co38917","norming","","","","","","",""
"null","../img/tt/435tt.jpg","null","mooney1","image-keyboard-response","84","590401","0.0-6.0-1.11","3496553","co38917","norming","","","","","","",""
"8792.255000000237","","","post_mooney1_questions","survey-likert","85","599205","0.0-6.0-2.11","3496553","co38917","norming","","","{""curiosity"":6,""confidence"":1}","[0,1]","../img/tt/435tt.jpg","",""
"6357.9349999999395","","","recognition","survey-text","86","605564","0.0-6.0-3.11","3496553","co38917","norming","","","{""guess"":""klaslokaal""}","","../img/tt/435tt.jpg","",""
"null","../img/gs/435gs.jpg","null","reveal","image-keyboard-response","87","607569","0.0-6.0-4.11","3496553","co38917","norming","","","","","","",""
"null","../img/tt/435tt.jpg","null","mooney2","image-keyboard-response","88","609575","0.0-6.0-5.11","3496553","co38917","norming","","","","","","",""
"10235.090000000084","","","post_reveal_questions","survey-likert","89","619812","0.0-6.0-6.11","3496553","co38917","norming","","","{""aha"":5}","[0]","../img/tt/435tt.jpg","",""
"null","<div style=""font-size:60px;""> </div>","null","fixation","html-keyboard-response","90","620022","0.0-6.0-0.12","3496553","co38917","norming","","","","","","",""
"null","../img/tt/1142tt.jpg","null","mooney1","image-keyboard-response","91","623031","0.0-6.0-1.12","3496553","co38917","norming","","","","","","",""
"16018.855000000214","","","post_mooney1_questions","survey-likert","92","639053","0.0-6.0-2.12","3496553","co38917","norming","","","{""curiosity"":4,""confidence"":1}","[0,1]","../img/tt/1142tt.jpg","",""
"3102.2800000010757","","","recognition","survey-text","93","642156","0.0-6.0-3.12","3496553","co38917","norming","","","{""guess"":""kajak""}","","../img/tt/1142tt.jpg","",""
"null","../img/gs/1142gs.jpg","null","reveal","image-keyboard-response","94","644163","0.0-6.0-4.12","3496553","co38917","norming","","","","","","",""
"null","../img/tt/1142tt.jpg","null","mooney2","image-keyboard-response","95","646165","0.0-6.0-5.12","3496553","co38917","norming","","","","","","",""
"4005.7199999992736","","","post_reveal_questions","survey-likert","96","650173","0.0-6.0-6.12","3496553","co38917","norming","","","{""aha"":4}","[0]","../img/tt/1142tt.jpg","",""
"null","<div style=""font-size:60px;""> </div>","null","fixation","html-keyboard-response","97","650378","0.0-6.0-0.13","3496553","co38917","norming","","","","","","",""
"null","../img/tt/1002tt.jpg","null","mooney1","image-keyboard-response","98","653386","0.0-6.0-1.13","3496553","co38917","norming","","","","","","",""
"10712.089999999152","","","post_mooney1_questions","survey-likert","99","664098","0.0-6.0-2.13","3496553","co38917","norming","","","{""curiosity"":5,""confidence"":0}","[0,1]","../img/tt/1002tt.jpg","",""
"2517.805000001332","","","recognition","survey-text","100","666618","0.0-6.0-3.13","3496553","co38917","norming","","","{""guess"":""""}","","../img/tt/1002tt.jpg","",""
"null","../img/gs/1002gs.jpg","null","reveal","image-keyboard-response","101","668623","0.0-6.0-4.13","3496553","co38917","norming","","","","","","",""
"null","../img/tt/1002tt.jpg","null","mooney2","image-keyboard-response","102","670633","0.0-6.0-5.13","3496553","co38917","norming","","","","","","",""
"6832.739999999758","","","post_reveal_questions","survey-likert","103","677466","0.0-6.0-6.13","3496553","co38917","norming","","","{""aha"":0}","[0]","../img/tt/1002tt.jpg","",""
"null","<div style=""font-size:60px;""> </div>","null","fixation","html-keyboard-response","104","677668","0.0-6.0-0.14","3496553","co38917","norming","","","","","","",""
"null","../img/tt/1024tt.jpg","null","mooney1","image-keyboard-response","105","680679","0.0-6.0-1.14","3496553","co38917","norming","","","","","","",""
"10938.24500000116","","","post_mooney1_questions","survey-likert","106","691619","0.0-6.0-2.14","3496553","co38917","norming","","","{""curiosity"":6,""confidence"":1}","[0,1]","../img/tt/1024tt.jpg","",""
"2901.7649999987334","","","recognition","survey-text","107","694522","0.0-6.0-3.14","3496553","co38917","norming","","","{""guess"":""beer""}","","../img/tt/1024tt.jpg","",""
"null","../img/gs/1024gs.jpg","null","reveal","image-keyboard-response","108","696525","0.0-6.0-4.14","3496553","co38917","norming","","","","","","",""
"null","../img/tt/1024tt.jpg","null","mooney2","image-keyboard-response","109","698528","0.0-6.0-5.14","3496553","co38917","norming","","","","","","",""
"5896.084999998449","","","post_reveal_questions","survey-likert","110","704426","0.0-6.0-6.14","3496553","co38917","norming","","","{""aha"":4}","[0]","../img/tt/1024tt.jpg","",""
"null","<div style=""font-size:60px;""> </div>","null","fixation","html-keyboard-response","111","704636","0.0-6.0-0.15","3496553","co38917","norming","","","","","","",""
"null","../img/tt/442tt.jpg","null","mooney1","image-keyboard-response","112","707643","0.0-6.0-1.15","3496553","co38917","norming","","","","","","",""
"10268.860000000102","","","post_mooney1_questions","survey-likert","113","717915","0.0-6.0-2.15","3496553","co38917","norming","","","{""curiosity"":4,""confidence"":3}","[0,1]","../img/tt/442tt.jpg","",""
"2302.1499999995576","","","recognition","survey-text","114","720218","0.0-6.0-3.15","3496553","co38917","norming","","","{""guess"":""bomen""}","","../img/tt/442tt.jpg","",""
"null","../img/gs/442gs.jpg","null","reveal","image-keyboard-response","115","722229","0.0-6.0-4.15","3496553","co38917","norming","","","","","","",""
"null","../img/tt/442tt.jpg","null","mooney2","image-keyboard-response","116","724240","0.0-6.0-5.15","3496553","co38917","norming","","","","","","",""
"4116.980000000796","","","post_reveal_questions","survey-likert","117","728359","0.0-6.0-6.15","3496553","co38917","norming","","","{""aha"":2}","[0]","../img/tt/442tt.jpg","",""
"null","<div style=""font-size:60px;""> </div>","null","fixation","html-keyboard-response","118","728563","0.0-6.0-0.16","3496553","co38917","norming","","","","","","",""
"null","../img/tt/416tt.jpg","null","mooney1","image-keyboard-response","119","731571","0.0-6.0-1.16","3496553","co38917","norming","","","","","","",""
"10257.7849999998","","","post_mooney1_questions","survey-likert","120","741831","0.0-6.0-2.16","3496553","co38917","norming","","","{""curiosity"":4,""confidence"":1}","[0,1]","../img/tt/416tt.jpg","",""
"2150.150000001304","","","recognition","survey-text","121","743983","0.0-6.0-3.16","3496553","co38917","norming","","","{""guess"":""pot""}","","../img/tt/416tt.jpg","",""
"null","../img/gs/416gs.jpg","null","reveal","image-keyboard-response","122","745985","0.0-6.0-4.16","3496553","co38917","norming","","","","","","",""
"null","../img/tt/416tt.jpg","null","mooney2","image-keyboard-response","123","747992","0.0-6.0-5.16","3496553","co38917","norming","","","","","","",""
"6028.909999999101","","","post_reveal_questions","survey-likert","124","754023","0.0-6.0-6.16","3496553","co38917","norming","","","{""aha"":1}","[0]","../img/tt/416tt.jpg","",""
"null","<div style=""font-size:60px;""> </div>","null","fixation","html-keyboard-response","125","754231","0.0-6.0-0.17","3496553","co38917","norming","","","","","","",""
"null","../img/tt/1130tt.jpg","null","mooney1","image-keyboard-response","126","757238","0.0-6.0-1.17","3496553","co38917","norming","","","","","","",""
"11846.994999999879","","","post_mooney1_questions","survey-likert","127","769088","0.0-6.0-2.17","3496553","co38917","norming","","","{""curiosity"":5,""confidence"":0}","[0,1]","../img/tt/1130tt.jpg","",""
"1429.7800000003772","","","recognition","survey-text","128","770519","0.0-6.0-3.17","3496553","co38917","norming","","","{""guess"":""""}","","../img/tt/1130tt.jpg","",""
"null","../img/gs/1130gs.jpg","null","reveal","image-keyboard-response","129","772523","0.0-6.0-4.17","3496553","co38917","norming","","","","","","",""
"null","../img/tt/1130tt.jpg","null","mooney2","image-keyboard-response","130","774526","0.0-6.0-5.17","3496553","co38917","norming","","","","","","",""
"2271.6349999991944","","","post_reveal_questions","survey-likert","131","776799","0.0-6.0-6.17","3496553","co38917","norming","","","{""aha"":6}","[0]","../img/tt/1130tt.jpg","",""
"null","<div style=""font-size:60px;""> </div>","null","fixation","html-keyboard-response","132","777001","0.0-6.0-0.18","3496553","co38917","norming","","","","","","",""
"null","../img/tt/1069tt.jpg","null","mooney1","image-keyboard-response","133","780004","0.0-6.0-1.18","3496553","co38917","norming","","","","","","",""
"10688.829999999143","","","post_mooney1_questions","survey-likert","134","790695","0.0-6.0-2.18","3496553","co38917","norming","","","{""curiosity"":6,""confidence"":1}","[0,1]","../img/tt/1069tt.jpg","",""
"7349.860000000335","","","recognition","survey-text","135","798047","0.0-6.0-3.18","3496553","co38917","norming","","","{""guess"":""struisvogel""}","","../img/tt/1069tt.jpg","",""
"null","../img/gs/1069gs.jpg","null","reveal","image-keyboard-response","136","800055","0.0-6.0-4.18","3496553","co38917","norming","","","","","","",""
"null","../img/tt/1069tt.jpg","null","mooney2","image-keyboard-response","137","802057","0.0-6.0-5.18","3496553","co38917","norming","","","","","","",""
"3371.660000000731","","","post_reveal_questions","survey-likert","138","805431","0.0-6.0-6.18","3496553","co38917","norming","","","{""aha"":3}","[0]","../img/tt/1069tt.jpg","",""
"null","<div style=""font-size:60px;""> </div>","null","fixation","html-keyboard-response","139","805639","0.0-6.0-0.19","3496553","co38917","norming","","","","","","",""
"null","../img/tt/534tt.jpg","null","mooney1","image-keyboard-response","140","808645","0.0-6.0-1.19","3496553","co38917","norming","","","","","","",""
"17408.82500000042","","","post_mooney1_questions","survey-likert","141","826055","0.0-6.0-2.19","3496553","co38917","norming","","","{""curiosity"":6,""confidence"":1}","[0,1]","../img/tt/534tt.jpg","",""
"6182.055000001099","","","recognition","survey-text","142","832239","0.0-6.0-3.19","3496553","co38917","norming","","","{""guess"":""cactussen""}","","../img/tt/534tt.jpg","",""
"null","../img/gs/534gs.jpg","null","reveal","image-keyboard-response","143","834248","0.0-6.0-4.19","3496553","co38917","norming","","","","","","",""
"null","../img/tt/534tt.jpg","null","mooney2","image-keyboard-response","144","836255","0.0-6.0-5.19","3496553","co38917","norming","","","","","","",""
"3189.899999999441","","","post_reveal_questions","survey-likert","145","839447","0.0-6.0-6.19","3496553","co38917","norming","","","{""aha"":5}","[0]","../img/tt/534tt.jpg","",""
"null","<div style=""font-size:60px;""> </div>","null","fixation","html-keyboard-response","146","839655","0.0-6.0-0.20","3496553","co38917","norming","","","","","","",""
"null","../img/tt/118tt.jpg","null","mooney1","image-keyboard-response","147","842661","0.0-6.0-1.20","3496553","co38917","norming","","","","","","",""
"9769.279999998515","","","post_mooney1_questions","survey-likert","148","852433","0.0-6.0-2.20","3496553","co38917","norming","","","{""curiosity"":5,""confidence"":4}","[0,1]","../img/tt/118tt.jpg","",""
"2365.705000000191","","","recognition","survey-text","149","854801","0.0-6.0-3.20","3496553","co38917","norming","","","{""guess"":""brug""}","","../img/tt/118tt.jpg","",""
"null","../img/gs/118gs.jpg","null","reveal","image-keyboard-response","150","856809","0.0-6.0-4.20","3496553","co38917","norming","","","","","","",""
"null","../img/tt/118tt.jpg","null","mooney2","image-keyboard-response","151","858810","0.0-6.0-5.20","3496553","co38917","norming","","","","","","",""
"5260.655000000028","","","post_reveal_questions","survey-likert","152","864073","0.0-6.0-6.20","3496553","co38917","norming","","","{""aha"":5}","[0]","../img/tt/118tt.jpg","",""
"null","<div style=""font-size:60px;""> </div>","null","fixation","html-keyboard-response","153","864281","0.0-6.0-0.21","3496553","co38917","norming","","","","","","",""
"null","../img/tt/1228tt.jpg","null","mooney1","image-keyboard-response","154","867291","0.0-6.0-1.21","3496553","co38917","norming","","","","","","",""
"4683.924999999348","","","post_mooney1_questions","survey-likert","155","871977","0.0-6.0-2.21","3496553","co38917","norming","","","{""curiosity"":6,""confidence"":2}","[0,1]","../img/tt/1228tt.jpg","",""
"5029.934999998659","","","recognition","survey-text","156","877009","0.0-6.0-3.21","3496553","co38917","norming","","","{""guess"":""vogel""}","","../img/tt/1228tt.jpg","",""
"null","../img/gs/1228gs.jpg","null","reveal","image-keyboard-response","157","879017","0.0-6.0-4.21","3496553","co38917","norming","","","","","","",""
"null","../img/tt/1228tt.jpg","null","mooney2","image-keyboard-response","158","881018","0.0-6.0-5.21","3496553","co38917","norming","","","","","","",""
"4916.160000000731","","","post_reveal_questions","survey-likert","159","885937","0.0-6.0-6.21","3496553","co38917","norming","","","{""aha"":1}","[0]","../img/tt/1228tt.jpg","",""
"null","<div style=""font-size:60px;""> </div>","null","fixation","html-keyboard-response","160","886143","0.0-6.0-0.22","3496553","co38917","norming","","","","","","",""
"null","../img/tt/1046tt.jpg","null","mooney1","image-keyboard-response","161","889149","0.0-6.0-1.22","3496553","co38917","norming","","","","","","",""
"7034.004999999539","","","post_mooney1_questions","survey-likert","162","896185","0.0-6.0-2.22","3496553","co38917","norming","","","{""curiosity"":0,""confidence"":0}","[0,1]","../img/tt/1046tt.jpg","",""
"1621.9650000002002","","","recognition","survey-text","163","897809","0.0-6.0-3.22","3496553","co38917","norming","","","{""guess"":""""}","","../img/tt/1046tt.jpg","",""
"null","../img/gs/1046gs.jpg","null","reveal","image-keyboard-response","164","899812","0.0-6.0-4.22","3496553","co38917","norming","","","","","","",""
"null","../img/tt/1046tt.jpg","null","mooney2","image-keyboard-response","165","901818","0.0-6.0-5.22","3496553","co38917","norming","","","","","","",""
"2813.7700000006007","","","post_reveal_questions","survey-likert","166","904633","0.0-6.0-6.22","3496553","co38917","norming","","","{""aha"":6}","[0]","../img/tt/1046tt.jpg","",""
"null","<div style=""font-size:60px;""> </div>","null","fixation","html-keyboard-response","167","904839","0.0-6.0-0.23","3496553","co38917","norming","","","","","","",""
"null","../img/tt/1048tt.jpg","null","mooney1","image-keyboard-response","168","907843","0.0-6.0-1.23","3496553","co38917","norming","","","","","","",""
"9932.824999999953","","","post_mooney1_questions","survey-likert","169","917778","0.0-6.0-2.23","3496553","co38917","norming","","","{""curiosity"":6,""confidence"":0}","[0,1]","../img/tt/1048tt.jpg","",""
"1366.3799999994226","","","recognition","survey-text","170","919146","0.0-6.0-3.23","3496553","co38917","norming","","","{""guess"":""""}","","../img/tt/1048tt.jpg","",""
"null","../img/gs/1048gs.jpg","null","reveal","image-keyboard-response","171","921156","0.0-6.0-4.23","3496553","co38917","norming","","","","","","",""
"null","../img/tt/1048tt.jpg","null","mooney2","image-keyboard-response","172","923166","0.0-6.0-5.23","3496553","co38917","norming","","","","","","",""
"1939.0599999987753","","","post_reveal_questions","survey-likert","173","925106","0.0-6.0-6.23","3496553","co38917","norming","","","{""aha"":6}","[0]","../img/tt/1048tt.jpg","",""
"null","<div style=""font-size:60px;""> </div>","null","fixation","html-keyboard-response","174","925309","0.0-6.0-0.24","3496553","co38917","norming","","","","","","",""
"null","../img/tt/001tt.jpg","null","mooney1","image-keyboard-response","175","928313","0.0-6.0-1.24","3496553","co38917","norming","","","","","","",""
"10591.525000001653","","","post_mooney1_questions","survey-likert","176","938906","0.0-6.0-2.24","3496553","co38917","norming","","","{""curiosity"":6,""confidence"":1}","[0,1]","../img/tt/001tt.jpg","",""
"4965.894999999437","","","recognition","survey-text","177","943874","0.0-6.0-3.24","3496553","co38917","norming","","","{""guess"":""beer""}","","../img/tt/001tt.jpg","",""
"null","../img/gs/001gs.jpg","null","reveal","image-keyboard-response","178","945876","0.0-6.0-4.24","3496553","co38917","norming","","","","","","",""
"null","../img/tt/001tt.jpg","null","mooney2","image-keyboard-response","179","947883","0.0-6.0-5.24","3496553","co38917","norming","","","","","","",""
"2645.7350000001024","","","post_reveal_questions","survey-likert","180","950530","0.0-6.0-6.24","3496553","co38917","norming","","","{""aha"":0}","[0]","../img/tt/001tt.jpg","",""
"null","<div style=""font-size:60px;""> </div>","null","fixation","html-keyboard-response","181","950738","0.0-6.0-0.25","3496553","co38917","norming","","","","","","",""
"null","../img/tt/412tt.jpg","null","mooney1","image-keyboard-response","182","953743","0.0-6.0-1.25","3496553","co38917","norming","","","","","","",""
"11209.78999999899","","","post_mooney1_questions","survey-likert","183","964954","0.0-6.0-2.25","3496553","co38917","norming","","","{""curiosity"":5,""confidence"":1}","[0,1]","../img/tt/412tt.jpg","",""
"3846.3449999998556","","","recognition","survey-text","184","968802","0.0-6.0-3.25","3496553","co38917","norming","","","{""guess"":""eend""}","","../img/tt/412tt.jpg","",""
"null","../img/gs/412gs.jpg","null","reveal","image-keyboard-response","185","970811","0.0-6.0-4.25","3496553","co38917","norming","","","","","","",""
"null","../img/tt/412tt.jpg","null","mooney2","image-keyboard-response","186","972822","0.0-6.0-5.25","3496553","co38917","norming","","","","","","",""
"3698.1000000013737","","","post_reveal_questions","survey-likert","187","976522","0.0-6.0-6.25","3496553","co38917","norming","","","{""aha"":4}","[0]","../img/tt/412tt.jpg","",""
"null","<div style=""font-size:60px;""> </div>","null","fixation","html-keyboard-response","188","976725","0.0-6.0-0.26","3496553","co38917","norming","","","","","","",""
"null","../img/tt/1242tt.jpg","null","mooney1","image-keyboard-response","189","979728","0.0-6.0-1.26","3496553","co38917","norming","","","","","","",""
"5569.280000001541","","","post_mooney1_questions","survey-likert","190","985298","0.0-6.0-2.26","3496553","co38917","norming","","","{""curiosity"":5,""confidence"":4}","[0,1]","../img/tt/1242tt.jpg","",""
"2077.909999999916","","","recognition","survey-text","191","987378","0.0-6.0-3.26","3496553","co38917","norming","","","{""guess"":""krab""}","","../img/tt/1242tt.jpg","",""
"null","../img/gs/1242gs.jpg","null","reveal","image-keyboard-response","192","989385","0.0-6.0-4.26","3496553","co38917","norming","","","","","","",""
"null","../img/tt/1242tt.jpg","null","mooney2","image-keyboard-response","193","991388","0.0-6.0-5.26","3496553","co38917","norming","","","","","","",""
"4843.58999999857","","","post_reveal_questions","survey-likert","194","996234","0.0-6.0-6.26","3496553","co38917","norming","","","{""aha"":1}","[0]","../img/tt/1242tt.jpg","",""
"null","<div style=""font-size:60px;""> </div>","null","fixation","html-keyboard-response","195","996444","0.0-6.0-0.27","3496553","co38917","norming","","","","","","",""
"null","../img/tt/094tt.jpg","null","mooney1","image-keyboard-response","196","999453","0.0-6.0-1.27","3496553","co38917","norming","","","","","","",""
"15035.775000000373","","","post_mooney1_questions","survey-likert","197","1014490","0.0-6.0-2.27","3496553","co38917","norming","","","{""curiosity"":5,""confidence"":1}","[0,1]","../img/tt/094tt.jpg","",""
"3702.175000000396","","","recognition","survey-text","198","1018194","0.0-6.0-3.27","3496553","co38917","norming","","","{""guess"":""monster""}","","../img/tt/094tt.jpg","",""
"null","../img/gs/094gs.jpg","null","reveal","image-keyboard-response","199","1020200","0.0-6.0-4.27","3496553","co38917","norming","","","","","","",""
"null","../img/tt/094tt.jpg","null","mooney2","image-keyboard-response","200","1022204","0.0-6.0-5.27","3496553","co38917","norming","","","","","","",""
"4316.344999999274","","","post_reveal_questions","survey-likert","201","1026522","0.0-6.0-6.27","3496553","co38917","norming","","","{""aha"":3}","[0]","../img/tt/094tt.jpg","",""
"null","<div style=""font-size:60px;""> </div>","null","fixation","html-keyboard-response","202","1026725","0.0-6.0-0.28","3496553","co38917","norming","","","","","","",""
"null","../img/tt/1353tt.jpg","null","mooney1","image-keyboard-response","203","1029731","0.0-6.0-1.28","3496553","co38917","norming","","","","","","",""
"17005.79499999911","","","post_mooney1_questions","survey-likert","204","1046740","0.0-6.0-2.28","3496553","co38917","norming","","","{""curiosity"":6,""confidence"":0}","[0,1]","../img/tt/1353tt.jpg","",""
"1230.155000001192","","","recognition","survey-text","205","1047972","0.0-6.0-3.28","3496553","co38917","norming","","","{""guess"":""""}","","../img/tt/1353tt.jpg","",""
"null","../img/gs/1353gs.jpg","null","reveal","image-keyboard-response","206","1049978","0.0-6.0-4.28","3496553","co38917","norming","","","","","","",""
"null","../img/tt/1353tt.jpg","null","mooney2","image-keyboard-response","207","1051984","0.0-6.0-5.28","3496553","co38917","norming","","","","","","",""
"3425.4299999992363","","","post_reveal_questions","survey-likert","208","1055412","0.0-6.0-6.28","3496553","co38917","norming","","","{""aha"":6}","[0]","../img/tt/1353tt.jpg","",""
"null","<div style=""font-size:60px;""> </div>","null","fixation","html-keyboard-response","209","1055622","0.0-6.0-0.29","3496553","co38917","norming","","","","","","",""
"null","../img/tt/222tt.jpg","null","mooney1","image-keyboard-response","210","1058630","0.0-6.0-1.29","3496553","co38917","norming","","","","","","",""
"4917.184999998193","","","post_mooney1_questions","survey-likert","211","1063548","0.0-6.0-2.29","3496553","co38917","norming","","","{""curiosity"":6,""confidence"":2}","[0,1]","../img/tt/222tt.jpg","",""
"2182.075000000652","","","recognition","survey-text","212","1065732","0.0-6.0-3.29","3496553","co38917","norming","","","{""guess"":""boot""}","","../img/tt/222tt.jpg","",""
"null","../img/gs/222gs.jpg","null","reveal","image-keyboard-response","213","1067738","0.0-6.0-4.29","3496553","co38917","norming","","","","","","",""
"null","../img/tt/222tt.jpg","null","mooney2","image-keyboard-response","214","1069740","0.0-6.0-5.29","3496553","co38917","norming","","","","","","",""
"3125.6250000004657","","","post_reveal_questions","survey-likert","215","1072868","0.0-6.0-6.29","3496553","co38917","norming","","","{""aha"":5}","[0]","../img/tt/222tt.jpg","",""
"null","<div style=""font-size:60px;""> </div>","null","fixation","html-keyboard-response","216","1073075","0.0-6.0-0.30","3496553","co38917","norming","","","","","","",""
"null","../img/tt/590tt.jpg","null","mooney1","image-keyboard-response","217","1076084","0.0-6.0-1.30","3496553","co38917","norming","","","","","","",""
"10213.074999999488","","","post_mooney1_questions","survey-likert","218","1086300","0.0-6.0-2.30","3496553","co38917","norming","","","{""curiosity"":5,""confidence"":0}","[0,1]","../img/tt/590tt.jpg","",""
"1118.1049999995157","","","recognition","survey-text","219","1087420","0.0-6.0-3.30","3496553","co38917","norming","","","{""guess"":""""}","","../img/tt/590tt.jpg","",""
"null","../img/gs/590gs.jpg","null","reveal","image-keyboard-response","220","1089430","0.0-6.0-4.30","3496553","co38917","norming","","","","","","",""
"null","../img/tt/590tt.jpg","null","mooney2","image-keyboard-response","221","1091441","0.0-6.0-5.30","3496553","co38917","norming","","","","","","",""
"2497.4599999987986","","","post_reveal_questions","survey-likert","222","1093940","0.0-6.0-6.30","3496553","co38917","norming","","","{""aha"":3}","[0]","../img/tt/590tt.jpg","",""
"null","<div style=""font-size:60px;""> </div>","null","fixation","html-keyboard-response","223","1094145","0.0-6.0-0.31","3496553","co38917","norming","","","","","","",""
"null","../img/tt/1261tt.jpg","null","mooney1","image-keyboard-response","224","1097150","0.0-6.0-1.31","3496553","co38917","norming","","","","","","",""
"5299.540000000037","","","post_mooney1_questions","survey-likert","225","1102452","0.0-6.0-2.31","3496553","co38917","norming","","","{""curiosity"":5,""confidence"":4}","[0,1]","../img/tt/1261tt.jpg","",""
"2398.1600000006147","","","recognition","survey-text","226","1104852","0.0-6.0-3.31","3496553","co38917","norming","","","{""guess"":""koe""}","","../img/tt/1261tt.jpg","",""
"null","../img/gs/1261gs.jpg","null","reveal","image-keyboard-response","227","1106861","0.0-6.0-4.31","3496553","co38917","norming","","","","","","",""
"null","../img/tt/1261tt.jpg","null","mooney2","image-keyboard-response","228","1108871","0.0-6.0-5.31","3496553","co38917","norming","","","","","","",""
"4874.520000001183","","","post_reveal_questions","survey-likert","229","1113748","0.0-6.0-6.31","3496553","co38917","norming","","","{""aha"":5}","[0]","../img/tt/1261tt.jpg","",""
"null","<div style=""font-size:60px;""> </div>","null","fixation","html-keyboard-response","230","1113952","0.0-6.0-0.32","3496553","co38917","norming","","","","","","",""
"null","../img/tt/1107tt.jpg","null","mooney1","image-keyboard-response","231","1116955","0.0-6.0-1.32","3496553","co38917","norming","","","","","","",""
"8413.370000000112","","","post_mooney1_questions","survey-likert","232","1125372","0.0-6.0-2.32","3496553","co38917","norming","","","{""curiosity"":6,""confidence"":1}","[0,1]","../img/tt/1107tt.jpg","",""
"2006.0799999991432","","","recognition","survey-text","233","1127380","0.0-6.0-3.32","3496553","co38917","norming","","","{""guess"":""vis""}","","../img/tt/1107tt.jpg","",""
"null","../img/gs/1107gs.jpg","null","reveal","image-keyboard-response","234","1129382","0.0-6.0-4.32","3496553","co38917","norming","","","","","","",""
"null","../img/tt/1107tt.jpg","null","mooney2","image-keyboard-response","235","1131385","0.0-6.0-5.32","3496553","co38917","norming","","","","","","",""
"2825.5000000009313","","","post_reveal_questions","survey-likert","236","1134212","0.0-6.0-6.32","3496553","co38917","norming","","","{""aha"":0}","[0]","../img/tt/1107tt.jpg","",""
"null","<div style=""font-size:60px;""> </div>","null","fixation","html-keyboard-response","237","1134415","0.0-6.0-0.33","3496553","co38917","norming","","","","","","",""
"null","../img/tt/1101tt.jpg","null","mooney1","image-keyboard-response","238","1137423","0.0-6.0-1.33","3496553","co38917","norming","","","","","","",""
"7250.545000000857","","","post_mooney1_questions","survey-likert","239","1144676","0.0-6.0-2.33","3496553","co38917","norming","","","{""curiosity"":5,""confidence"":5}","[0,1]","../img/tt/1101tt.jpg","",""
"2590.4899999985937","","","recognition","survey-text","240","1147268","0.0-6.0-3.33","3496553","co38917","norming","","","{""guess"":""meneer""}","","../img/tt/1101tt.jpg","",""
"null","../img/gs/1101gs.jpg","null","reveal","image-keyboard-response","241","1149279","0.0-6.0-4.33","3496553","co38917","norming","","","","","","",""
"null","../img/tt/1101tt.jpg","null","mooney2","image-keyboard-response","242","1151281","0.0-6.0-5.33","3496553","co38917","norming","","","","","","",""
"5665.399999999907","","","post_reveal_questions","survey-likert","243","1156942","0.0-6.0-6.33","3496553","co38917","norming","","","{""aha"":6}","[0]","../img/tt/1101tt.jpg","",""
"null","<div style=""font-size:60px;""> </div>","null","fixation","html-keyboard-response","244","1157147","0.0-6.0-0.34","3496553","co38917","norming","","","","","","",""
"null","../img/tt/1227tt.jpg","null","mooney1","image-keyboard-response","245","1160160","0.0-6.0-1.34","3496553","co38917","norming","","","","","","",""
"6203.050000000047","","","post_mooney1_questions","survey-likert","246","1166366","0.0-6.0-2.34","3496553","co38917","norming","","","{""curiosity"":6,""confidence"":1}","[0,1]","../img/tt/1227tt.jpg","",""
"2445.980000000447","","","recognition","survey-text","247","1168813","0.0-6.0-3.34","3496553","co38917","norming","","","{""guess"":""strand""}","","../img/tt/1227tt.jpg","",""
"null","../img/gs/1227gs.jpg","null","reveal","image-keyboard-response","248","1170815","0.0-6.0-4.34","3496553","co38917","norming","","","","","","",""
"null","../img/tt/1227tt.jpg","null","mooney2","image-keyboard-response","249","1172819","0.0-6.0-5.34","3496553","co38917","norming","","","","","","",""
"5048.724999998696","","","post_reveal_questions","survey-likert","250","1177870","0.0-6.0-6.34","3496553","co38917","norming","","","{""aha"":5}","[0]","../img/tt/1227tt.jpg","",""
"null","<div style=""font-size:60px;""> </div>","null","fixation","html-keyboard-response","251","1178077","0.0-6.0-0.35","3496553","co38917","norming","","","","","","",""
"null","../img/tt/111tt.jpg","null","mooney1","image-keyboard-response","252","1181082","0.0-6.0-1.35","3496553","co38917","norming","","","","","","",""
"18384.790000000037","","","post_mooney1_questions","survey-likert","253","1199470","0.0-6.0-2.35","3496553","co38917","norming","","","{""curiosity"":4,""confidence"":0}","[0,1]","../img/tt/111tt.jpg","",""
"837.8400000000838","","","recognition","survey-text","254","1200309","0.0-6.0-3.35","3496553","co38917","norming","","","{""guess"":""""}","","../img/tt/111tt.jpg","",""
"null","../img/gs/111gs.jpg","null","reveal","image-keyboard-response","255","1202313","0.0-6.0-4.35","3496553","co38917","norming","","","","","","",""
"null","../img/tt/111tt.jpg","null","mooney2","image-keyboard-response","256","1204315","0.0-6.0-5.35","3496553","co38917","norming","","","","","","",""
"11687.86499999999","","","post_reveal_questions","survey-likert","257","1216006","0.0-6.0-6.35","3496553","co38917","norming","","","{""aha"":6}","[0]","../img/tt/111tt.jpg","",""
"null","<div style=""font-size:60px;""> </div>","null","fixation","html-keyboard-response","258","1216220","0.0-6.0-0.36","3496553","co38917","norming","","","","","","",""
"null","../img/tt/598tt.jpg","null","mooney1","image-keyboard-response","259","1219226","0.0-6.0-1.36","3496553","co38917","norming","","","","","","",""
"14168.604999998817","","","post_mooney1_questions","survey-likert","260","1233398","0.0-6.0-2.36","3496553","co38917","norming","","","{""curiosity"":6,""confidence"":1}","[0,1]","../img/tt/598tt.jpg","",""
"3438.194999998901","","","recognition","survey-text","261","1236837","0.0-6.0-3.36","3496553","co38917","norming","","","{""guess"":""oude man""}","","../img/tt/598tt.jpg","",""
"null","../img/gs/598gs.jpg","null","reveal","image-keyboard-response","262","1238839","0.0-6.0-4.36","3496553","co38917","norming","","","","","","",""
"null","../img/tt/598tt.jpg","null","mooney2","image-keyboard-response","263","1240843","0.0-6.0-5.36","3496553","co38917","norming","","","","","","",""
"2824.1450000004843","","","post_reveal_questions","survey-likert","264","1243670","0.0-6.0-6.36","3496553","co38917","norming","","","{""aha"":1}","[0]","../img/tt/598tt.jpg","",""
"null","<div style=""font-size:60px;""> </div>","null","fixation","html-keyboard-response","265","1243874","0.0-6.0-0.37","3496553","co38917","norming","","","","","","",""
"null","../img/tt/1191tt.jpg","null","mooney1","image-keyboard-response","266","1246882","0.0-6.0-1.37","3496553","co38917","norming","","","","","","",""
"5345.0699999995995","","","post_mooney1_questions","survey-likert","267","1252230","0.0-6.0-2.37","3496553","co38917","norming","","","{""curiosity"":6,""confidence"":4}","[0,1]","../img/tt/1191tt.jpg","",""
"2062.1749999991152","","","recognition","survey-text","268","1254294","0.0-6.0-3.37","3496553","co38917","norming","","","{""guess"":""hert""}","","../img/tt/1191tt.jpg","",""
"null","../img/gs/1191gs.jpg","null","reveal","image-keyboard-response","269","1256300","0.0-6.0-4.37","3496553","co38917","norming","","","","","","",""
"null","../img/tt/1191tt.jpg","null","mooney2","image-keyboard-response","270","1258302","0.0-6.0-5.37","3496553","co38917","norming","","","","","","",""
"2821.5049999998882","","","post_reveal_questions","survey-likert","271","1261126","0.0-6.0-6.37","3496553","co38917","norming","","","{""aha"":4}","[0]","../img/tt/1191tt.jpg","",""
"null","<div style=""font-size:60px;""> </div>","null","fixation","html-keyboard-response","272","1261334","0.0-6.0-0.38","3496553","co38917","norming","","","","","","",""
"null","../img/tt/1122tt.jpg","null","mooney1","image-keyboard-response","273","1264339","0.0-6.0-1.38","3496553","co38917","norming","","","","","","",""
"8423.790000000736","","","post_mooney1_questions","survey-likert","274","1272766","0.0-6.0-2.38","3496553","co38917","norming","","","{""curiosity"":6,""confidence"":5}","[0,1]","../img/tt/1122tt.jpg","",""
"2294.1000000010245","","","recognition","survey-text","275","1275062","0.0-6.0-3.38","3496553","co38917","norming","","","{""guess"":""auto""}","","../img/tt/1122tt.jpg","",""
"null","../img/gs/1122gs.jpg","null","reveal","image-keyboard-response","276","1277072","0.0-6.0-4.38","3496553","co38917","norming","","","","","","",""
"null","../img/tt/1122tt.jpg","null","mooney2","image-keyboard-response","277","1279075","0.0-6.0-5.38","3496553","co38917","norming","","","","","","",""
"5871.629999999655","","","post_reveal_questions","survey-likert","278","1284950","0.0-6.0-6.38","3496553","co38917","norming","","","{""aha"":3}","[0]","../img/tt/1122tt.jpg","",""
"null","<div style=""font-size:60px;""> </div>","null","fixation","html-keyboard-response","279","1285159","0.0-6.0-0.39","3496553","co38917","norming","","","","","","",""
"null","../img/tt/1080tt.jpg","null","mooney1","image-keyboard-response","280","1288167","0.0-6.0-1.39","3496553","co38917","norming","","","","","","",""
"16459.83499999973","","","post_mooney1_questions","survey-likert","281","1304630","0.0-6.0-2.39","3496553","co38917","norming","","","{""curiosity"":6,""confidence"":1}","[0,1]","../img/tt/1080tt.jpg","",""
"2558.3100000002887","","","recognition","survey-text","282","1307190","0.0-6.0-3.39","3496553","co38917","norming","","","{""guess"":""kippen""}","","../img/tt/1080tt.jpg","",""
"null","../img/gs/1080gs.jpg","null","reveal","image-keyboard-response","283","1309193","0.0-6.0-4.39","3496553","co38917","norming","","","","","","",""
"null","../img/tt/1080tt.jpg","null","mooney2","image-keyboard-response","284","1311205","0.0-6.0-5.39","3496553","co38917","norming","","","","","","",""
"5766.93499999959","","","post_reveal_questions","survey-likert","285","1316974","0.0-6.0-6.39","3496553","co38917","norming","","","{""aha"":6}","[0]","../img/tt/1080tt.jpg","",""
"null","<div style=""font-size:60px;""> </div>","null","fixation","html-keyboard-response","286","1317179","0.0-6.0-0.40","3496553","co38917","norming","","","","","","",""
"null","../img/tt/1186tt.jpg","null","mooney1","image-keyboard-response","287","1320187","0.0-6.0-1.40","3496553","co38917","norming","","","","","","",""
"10311.840000000317","","","post_mooney1_questions","survey-likert","288","1330502","0.0-6.0-2.40","3496553","co38917","norming","","","{""curiosity"":6,""confidence"":1}","[0,1]","../img/tt/1186tt.jpg","",""
"4606.225000001257","","","recognition","survey-text","289","1335110","0.0-6.0-3.40","3496553","co38917","norming","","","{""guess"":""man""}","","../img/tt/1186tt.jpg","",""
"null","../img/gs/1186gs.jpg","null","reveal","image-keyboard-response","290","1337120","0.0-6.0-4.40","3496553","co38917","norming","","","","","","",""
"null","../img/tt/1186tt.jpg","null","mooney2","image-keyboard-response","291","1339123","0.0-6.0-5.40","3496553","co38917","norming","","","","","","",""
"2904.790000000503","","","post_reveal_questions","survey-likert","292","1342030","0.0-6.0-6.40","3496553","co38917","norming","","","{""aha"":6}","[0]","../img/tt/1186tt.jpg","",""
"null","<div style=""font-size:60px;""> </div>","null","fixation","html-keyboard-response","293","1342238","0.0-6.0-0.41","3496553","co38917","norming","","","","","","",""
"null","../img/tt/307tt.jpg","null","mooney1","image-keyboard-response","294","1345241","0.0-6.0-1.41","3496553","co38917","norming","","","","","","",""
"6730.695000000065","","","post_mooney1_questions","survey-likert","295","1351974","0.0-6.0-2.41","3496553","co38917","norming","","","{""curiosity"":6,""confidence"":1}","[0,1]","../img/tt/307tt.jpg","",""
"2638.4099999996834","","","recognition","survey-text","296","1354614","0.0-6.0-3.41","3496553","co38917","norming","","","{""guess"":""kreeft""}","","../img/tt/307tt.jpg","",""
"null","../img/gs/307gs.jpg","null","reveal","image-keyboard-response","297","1356623","0.0-6.0-4.41","3496553","co38917","norming","","","","","","",""
"null","../img/tt/307tt.jpg","null","mooney2","image-keyboard-response","298","1358624","0.0-6.0-5.41","3496553","co38917","norming","","","","","","",""
"5443.789999999339","","","post_reveal_questions","survey-likert","299","1364071","0.0-6.0-6.41","3496553","co38917","norming","","","{""aha"":6}","[0]","../img/tt/307tt.jpg","",""
"null","<div style=""font-size:60px;""> </div>","null","fixation","html-keyboard-response","300","1364275","0.0-6.0-0.42","3496553","co38917","norming","","","","","","",""
"null","../img/tt/063tt.jpg","null","mooney1","image-keyboard-response","301","1367279","0.0-6.0-1.42","3496553","co38917","norming","","","","","","",""
"9100.4300000004","","","post_mooney1_questions","survey-likert","302","1376382","0.0-6.0-2.42","3496553","co38917","norming","","","{""curiosity"":6,""confidence"":4}","[0,1]","../img/tt/063tt.jpg","",""
"3878.275000000838","","","recognition","survey-text","303","1380262","0.0-6.0-3.42","3496553","co38917","norming","","","{""guess"":""accordeon""}","","../img/tt/063tt.jpg","",""
"null","../img/gs/063gs.jpg","null","reveal","image-keyboard-response","304","1382265","0.0-6.0-4.42","3496553","co38917","norming","","","","","","",""
"null","../img/tt/063tt.jpg","null","mooney2","image-keyboard-response","305","1384267","0.0-6.0-5.42","3496553","co38917","norming","","","","","","",""
"4014.1899999997113","","","post_reveal_questions","survey-likert","306","1388287","0.0-6.0-6.42","3496553","co38917","norming","","","{""aha"":6}","[0]","../img/tt/063tt.jpg","",""
"null","<div style=""font-size:60px;""> </div>","null","fixation","html-keyboard-response","307","1388493","0.0-6.0-0.43","3496553","co38917","norming","","","","","","",""
"null","../img/tt/296tt.jpg","null","mooney1","image-keyboard-response","308","1391503","0.0-6.0-1.43","3496553","co38917","norming","","","","","","",""
"4684.209999999264","","","post_mooney1_questions","survey-likert","309","1396191","0.0-6.0-2.43","3496553","co38917","norming","","","{""curiosity"":5,""confidence"":4}","[0,1]","../img/tt/296tt.jpg","",""
"2021.984999999404","","","recognition","survey-text","310","1398214","0.0-6.0-3.43","3496553","co38917","norming","","","{""guess"":""zetel""}","","../img/tt/296tt.jpg","",""
"null","../img/gs/296gs.jpg","null","reveal","image-keyboard-response","311","1400225","0.0-6.0-4.43","3496553","co38917","norming","","","","","","",""
"null","../img/tt/296tt.jpg","null","mooney2","image-keyboard-response","312","1402234","0.0-6.0-5.43","3496553","co38917","norming","","","","","","",""
"3945.4700000006706","","","post_reveal_questions","survey-likert","313","1406182","0.0-6.0-6.43","3496553","co38917","norming","","","{""aha"":6}","[0]","../img/tt/296tt.jpg","",""
"null","<div style=""font-size:60px;""> </div>","null","fixation","html-keyboard-response","314","1406390","0.0-6.0-0.44","3496553","co38917","norming","","","","","","",""
"null","../img/tt/1283tt.jpg","null","mooney1","image-keyboard-response","315","1409402","0.0-6.0-1.44","3496553","co38917","norming","","","","","","",""
"5072.7949999999255","","","post_mooney1_questions","survey-likert","316","1414478","0.0-6.0-2.44","3496553","co38917","norming","","","{""curiosity"":6,""confidence"":0}","[0,1]","../img/tt/1283tt.jpg","",""
"917.864999999525","","","recognition","survey-text","317","1415398","0.0-6.0-3.44","3496553","co38917","norming","","","{""guess"":""""}","","../img/tt/1283tt.jpg","",""
"null","../img/gs/1283gs.jpg","null","reveal","image-keyboard-response","318","1417400","0.0-6.0-4.44","3496553","co38917","norming","","","","","","",""
"null","../img/tt/1283tt.jpg","null","mooney2","image-keyboard-response","319","1419411","0.0-6.0-5.44","3496553","co38917","norming","","","","","","",""
"2472.025000000838","","","post_reveal_questions","survey-likert","320","1421886","0.0-6.0-6.44","3496553","co38917","norming","","","{""aha"":2}","[0]","../img/tt/1283tt.jpg","",""
"null","<div style=""font-size:60px;""> </div>","null","fixation","html-keyboard-response","321","1422089","0.0-6.0-0.45","3496553","co38917","norming","","","","","","",""
"null","../img/tt/194tt.jpg","null","mooney1","image-keyboard-response","322","1425096","0.0-6.0-1.45","3496553","co38917","norming","","","","","","",""
"5467.165000000037","","","post_mooney1_questions","survey-likert","323","1430566","0.0-6.0-2.45","3496553","co38917","norming","","","{""curiosity"":6,""confidence"":0}","[0,1]","../img/tt/194tt.jpg","",""
"918.0699999995995","","","recognition","survey-text","324","1431486","0.0-6.0-3.45","3496553","co38917","norming","","","{""guess"":""""}","","../img/tt/194tt.jpg","",""
"null","../img/gs/194gs.jpg","null","reveal","image-keyboard-response","325","1433495","0.0-6.0-4.45","3496553","co38917","norming","","","","","","",""
"null","../img/tt/194tt.jpg","null","mooney2","image-keyboard-response","326","1435499","0.0-6.0-5.45","3496553","co38917","norming","","","","","","",""
"4216.0549999990035","","","post_reveal_questions","survey-likert","327","1439718","0.0-6.0-6.45","3496553","co38917","norming","","","{""aha"":5}","[0]","../img/tt/194tt.jpg","",""
"null","<div style=""font-size:60px;""> </div>","null","fixation","html-keyboard-response","328","1439922","0.0-6.0-0.46","3496553","co38917","norming","","","","","","",""
"null","../img/tt/124tt.jpg","null","mooney1","image-keyboard-response","329","1442930","0.0-6.0-1.46","3496553","co38917","norming","","","","","","",""
"14281.184999999823","","","post_mooney1_questions","survey-likert","330","1457216","0.0-6.0-2.46","3496553","co38917","norming","","","{""curiosity"":5,""confidence"":0}","[0,1]","../img/tt/124tt.jpg","",""
"717.8899999998976","","","recognition","survey-text","331","1457935","0.0-6.0-3.46","3496553","co38917","norming","","","{""guess"":""""}","","../img/tt/124tt.jpg","",""
"null","../img/gs/124gs.jpg","null","reveal","image-keyboard-response","332","1459939","0.0-6.0-4.46","3496553","co38917","norming","","","","","","",""
"null","../img/tt/124tt.jpg","null","mooney2","image-keyboard-response","333","1461941","0.0-6.0-5.46","3496553","co38917","norming","","","","","","",""
"1848.3799999996554","","","post_reveal_questions","survey-likert","334","1463791","0.0-6.0-6.46","3496553","co38917","norming","","","{""aha"":0}","[0]","../img/tt/124tt.jpg","",""
"null","<div style=""font-size:60px;""> </div>","null","fixation","html-keyboard-response","335","1464001","0.0-6.0-0.47","3496553","co38917","norming","","","","","","",""
"null","../img/tt/121tt.jpg","null","mooney1","image-keyboard-response","336","1467006","0.0-6.0-1.47","3496553","co38917","norming","","","","","","",""
"10614.819999998901","","","post_mooney1_questions","survey-likert","337","1477623","0.0-6.0-2.47","3496553","co38917","norming","","","{""curiosity"":6,""confidence"":1}","[0,1]","../img/tt/121tt.jpg","",""
"2045.8000000000466","","","recognition","survey-text","338","1479671","0.0-6.0-3.47","3496553","co38917","norming","","","{""guess"":""beek""}","","../img/tt/121tt.jpg","",""
"null","../img/gs/121gs.jpg","null","reveal","image-keyboard-response","339","1481680","0.0-6.0-4.47","3496553","co38917","norming","","","","","","",""
"null","../img/tt/121tt.jpg","null","mooney2","image-keyboard-response","340","1483682","0.0-6.0-5.47","3496553","co38917","norming","","","","","","",""
"2251.459999999497","","","post_reveal_questions","survey-likert","341","1485936","0.0-6.0-6.47","3496553","co38917","norming","","","{""aha"":4}","[0]","../img/tt/121tt.jpg","",""
"null","<div style=""font-size:60px;""> </div>","null","fixation","html-keyboard-response","342","1486146","0.0-6.0-0.48","3496553","co38917","norming","","","","","","",""
"null","../img/tt/140tt.jpg","null","mooney1","image-keyboard-response","343","1489151","0.0-6.0-1.48","3496553","co38917","norming","","","","","","",""
"6533.770000000019","","","post_mooney1_questions","survey-likert","344","1495688","0.0-6.0-2.48","3496553","co38917","norming","","","{""curiosity"":5,""confidence"":2}","[0,1]","../img/tt/140tt.jpg","",""
"1918.0799999996088","","","recognition","survey-text","345","1497608","0.0-6.0-3.48","3496553","co38917","norming","","","{""guess"":""hond""}","","../img/tt/140tt.jpg","",""
"null","../img/gs/140gs.jpg","null","reveal","image-keyboard-response","346","1499617","0.0-6.0-4.48","3496553","co38917","norming","","","","","","",""
"null","../img/tt/140tt.jpg","null","mooney2","image-keyboard-response","347","1501626","0.0-6.0-5.48","3496553","co38917","norming","","","","","","",""
"3931.0349999996834","","","post_reveal_questions","survey-likert","348","1505560","0.0-6.0-6.48","3496553","co38917","norming","","","{""aha"":6}","[0]","../img/tt/140tt.jpg","",""
"null","<div style=""font-size:60px;""> </div>","null","fixation","html-keyboard-response","349","1505764","0.0-6.0-0.49","3496553","co38917","norming","","","","","","",""
"null","../img/tt/1037tt.jpg","null","mooney1","image-keyboard-response","350","1508767","0.0-6.0-1.49","3496553","co38917","norming","","","","","","",""
"15471.270000000019","","","post_mooney1_questions","survey-likert","351","1524231","0.0-6.0-2.49","3496553","co38917","norming","","","{""curiosity"":6,""confidence"":1}","[0,1]","../img/tt/1037tt.jpg","",""
"4085.9799999997485","","","recognition","survey-text","352","1528319","0.0-6.0-3.49","3496553","co38917","norming","","","{""guess"":""knuffel""}","","../img/tt/1037tt.jpg","",""
"null","../img/gs/1037gs.jpg","null","reveal","image-keyboard-response","353","1530325","0.0-6.0-4.49","3496553","co38917","norming","","","","","","",""
"null","../img/tt/1037tt.jpg","null","mooney2","image-keyboard-response","354","1532336","0.0-6.0-5.49","3496553","co38917","norming","","","","","","",""
"3532.4000000001397","","","post_reveal_questions","survey-likert","355","1535871","0.0-6.0-6.49","3496553","co38917","norming","","","{""aha"":2}","[0]","../img/tt/1037tt.jpg","",""
"null","<div style=""font-size:60px;""> </div>","null","fixation","html-keyboard-response","356","1536076","0.0-6.0-0.50","3496553","co38917","norming","","","","","","",""
"null","../img/tt/126tt.jpg","null","mooney1","image-keyboard-response","357","1539085","0.0-6.0-1.50","3496553","co38917","norming","","","","","","",""
"7757.249999998836","","","post_mooney1_questions","survey-likert","358","1546847","0.0-6.0-2.50","3496553","co38917","norming","","","{""curiosity"":5,""confidence"":2}","[0,1]","../img/tt/126tt.jpg","",""
"2526.1200000005774","","","recognition","survey-text","359","1549375","0.0-6.0-3.50","3496553","co38917","norming","","","{""guess"":""bergen""}","","../img/tt/126tt.jpg","",""
"null","../img/gs/126gs.jpg","null","reveal","image-keyboard-response","360","1551383","0.0-6.0-4.50","3496553","co38917","norming","","","","","","",""
"null","../img/tt/126tt.jpg","null","mooney2","image-keyboard-response","361","1553385","0.0-6.0-5.50","3496553","co38917","norming","","","","","","",""
"4644.040000000969","","","post_reveal_questions","survey-likert","362","1558031","0.0-6.0-6.50","3496553","co38917","norming","","","{""aha"":4}","[0]","../img/tt/126tt.jpg","",""
"null","<div style=""font-size:60px;""> </div>","null","fixation","html-keyboard-response","363","1558242","0.0-6.0-0.51","3496553","co38917","norming","","","","","","",""
"null","../img/tt/1033tt.jpg","null","mooney1","image-keyboard-response","364","1561249","0.0-6.0-1.51","3496553","co38917","norming","","","","","","",""
"6931.375","","","post_mooney1_questions","survey-likert","365","1568183","0.0-6.0-2.51","3496553","co38917","norming","","","{""curiosity"":6,""confidence"":1}","[0,1]","../img/tt/1033tt.jpg","",""
"3606.1149999988265","","","recognition","survey-text","366","1571791","0.0-6.0-3.51","3496553","co38917","norming","","","{""guess"":""breinaalden""}","","../img/tt/1033tt.jpg","",""
"null","../img/gs/1033gs.jpg","null","reveal","image-keyboard-response","367","1573795","0.0-6.0-4.51","3496553","co38917","norming","","","","","","",""
"null","../img/tt/1033tt.jpg","null","mooney2","image-keyboard-response","368","1575801","0.0-6.0-5.51","3496553","co38917","norming","","","","","","",""
"7564.075000000186","","","post_reveal_questions","survey-likert","369","1583371","0.0-6.0-6.51","3496553","co38917","norming","","","{""aha"":6}","[0]","../img/tt/1033tt.jpg","",""
"null","<div style=""font-size:60px;""> </div>","null","fixation","html-keyboard-response","370","1583577","0.0-6.0-0.52","3496553","co38917","norming","","","","","","",""
"null","../img/tt/315tt.jpg","null","mooney1","image-keyboard-response","371","1586589","0.0-6.0-1.52","3496553","co38917","norming","","","","","","",""
"5658.9650000005495","","","post_mooney1_questions","survey-likert","372","1592251","0.0-6.0-2.52","3496553","co38917","norming","","","{""curiosity"":6,""confidence"":0}","[0,1]","../img/tt/315tt.jpg","",""
"1830.1799999990035","","","recognition","survey-text","373","1594083","0.0-6.0-3.52","3496553","co38917","norming","","","{""guess"":""""}","","../img/tt/315tt.jpg","",""
"null","../img/gs/315gs.jpg","null","reveal","image-keyboard-response","374","1596086","0.0-6.0-4.52","3496553","co38917","norming","","","","","","",""
"null","../img/tt/315tt.jpg","null","mooney2","image-keyboard-response","375","1598093","0.0-6.0-5.52","3496553","co38917","norming","","","","","","",""
"2187.5400000007357","","","post_reveal_questions","survey-likert","376","1600283","0.0-6.0-6.52","3496553","co38917","norming","","","{""aha"":0}","[0]","../img/tt/315tt.jpg","",""
"null","<div style=""font-size:60px;""> </div>","null","fixation","html-keyboard-response","377","1600494","0.0-6.0-0.53","3496553","co38917","norming","","","","","","",""
"null","../img/tt/1159tt.jpg","null","mooney1","image-keyboard-response","378","1603502","0.0-6.0-1.53","3496553","co38917","norming","","","","","","",""
"4562.7750000003725","","","post_mooney1_questions","survey-likert","379","1608067","0.0-6.0-2.53","3496553","co38917","norming","","","{""curiosity"":6,""confidence"":2}","[0,1]","../img/tt/1159tt.jpg","",""
"2334.0649999992456","","","recognition","survey-text","380","1610403","0.0-6.0-3.53","3496553","co38917","norming","","","{""guess"":""kajak""}","","../img/tt/1159tt.jpg","",""
"null","../img/gs/1159gs.jpg","null","reveal","image-keyboard-response","381","1612406","0.0-6.0-4.53","3496553","co38917","norming","","","","","","",""
"null","../img/tt/1159tt.jpg","null","mooney2","image-keyboard-response","382","1614416","0.0-6.0-5.53","3496553","co38917","norming","","","","","","",""
"4296.679999999469","","","post_reveal_questions","survey-likert","383","1618715","0.0-6.0-6.53","3496553","co38917","norming","","","{""aha"":5}","[0]","../img/tt/1159tt.jpg","",""
"null","<div style=""font-size:60px;""> </div>","null","fixation","html-keyboard-response","384","1618921","0.0-6.0-0.54","3496553","co38917","norming","","","","","","",""
"null","../img/tt/019tt.jpg","null","mooney1","image-keyboard-response","385","1621925","0.0-6.0-1.54","3496553","co38917","norming","","","","","","",""
"6811.0899999991525","","","post_mooney1_questions","survey-likert","386","1628739","0.0-6.0-2.54","3496553","co38917","norming","","","{""curiosity"":6,""confidence"":1}","[0,1]","../img/tt/019tt.jpg","",""
"10222.420000000158","","","recognition","survey-text","387","1638963","0.0-6.0-3.54","3496553","co38917","norming","","","{""guess"":""kniptang""}","","../img/tt/019tt.jpg","",""
"null","../img/gs/019gs.jpg","null","reveal","image-keyboard-response","388","1640965","0.0-6.0-4.54","3496553","co38917","norming","","","","","","",""
"null","../img/tt/019tt.jpg","null","mooney2","image-keyboard-response","389","1642972","0.0-6.0-5.54","3496553","co38917","norming","","","","","","",""
"3170.415000000503","","","post_reveal_questions","survey-likert","390","1646145","0.0-6.0-6.54","3496553","co38917","norming","","","{""aha"":6}","[0]","../img/tt/019tt.jpg","",""
"null","<div style=""font-size:60px;""> </div>","null","fixation","html-keyboard-response","391","1646354","0.0-6.0-0.55","3496553","co38917","norming","","","","","","",""
"null","../img/tt/1027tt.jpg","null","mooney1","image-keyboard-response","392","1649358","0.0-6.0-1.55","3496553","co38917","norming","","","","","","",""
"4166.225000000792","","","post_mooney1_questions","survey-likert","393","1653529","0.0-6.0-2.55","3496553","co38917","norming","","","{""curiosity"":6,""confidence"":2}","[0,1]","../img/tt/1027tt.jpg","",""
"2062.0500000005122","","","recognition","survey-text","394","1655593","0.0-6.0-3.55","3496553","co38917","norming","","","{""guess"":""hond""}","","../img/tt/1027tt.jpg","",""
"null","../img/gs/1027gs.jpg","null","reveal","image-keyboard-response","395","1657603","0.0-6.0-4.55","3496553","co38917","norming","","","","","","",""
"null","../img/tt/1027tt.jpg","null","mooney2","image-keyboard-response","396","1659614","0.0-6.0-5.55","3496553","co38917","norming","","","","","","",""
"2952.079999999143","","","post_reveal_questions","survey-likert","397","1662569","0.0-6.0-6.55","3496553","co38917","norming","","","{""aha"":2}","[0]","../img/tt/1027tt.jpg","",""
"null","<div style=""font-size:60px;""> </div>","null","fixation","html-keyboard-response","398","1662770","0.0-6.0-0.56","3496553","co38917","norming","","","","","","",""
"null","../img/tt/507tt.jpg","null","mooney1","image-keyboard-response","399","1665774","0.0-6.0-1.56","3496553","co38917","norming","","","","","","",""
"4320.130000000121","","","post_mooney1_questions","survey-likert","400","1670097","0.0-6.0-2.56","3496553","co38917","norming","","","{""curiosity"":6,""confidence"":2}","[0,1]","../img/tt/507tt.jpg","",""
"2485.979999999283","","","recognition","survey-text","401","1672585","0.0-6.0-3.56","3496553","co38917","norming","","","{""guess"":""toneel""}","","../img/tt/507tt.jpg","",""
"null","../img/gs/507gs.jpg","null","reveal","image-keyboard-response","402","1674586","0.0-6.0-4.56","3496553","co38917","norming","","","","","","",""
"null","../img/tt/507tt.jpg","null","mooney2","image-keyboard-response","403","1676588","0.0-6.0-5.56","3496553","co38917","norming","","","","","","",""
"3802.644999999786","","","post_reveal_questions","survey-likert","404","1680393","0.0-6.0-6.56","3496553","co38917","norming","","","{""aha"":4}","[0]","../img/tt/507tt.jpg","",""
"null","<div style=""font-size:60px;""> </div>","null","fixation","html-keyboard-response","405","1680604","0.0-6.0-0.57","3496553","co38917","norming","","","","","","",""
"null","../img/tt/522tt.jpg","null","mooney1","image-keyboard-response","406","1683615","0.0-6.0-1.57","3496553","co38917","norming","","","","","","",""
"5254.5200000002515","","","post_mooney1_questions","survey-likert","407","1688873","0.0-6.0-2.57","3496553","co38917","norming","","","{""curiosity"":6,""confidence"":1}","[0,1]","../img/tt/522tt.jpg","",""
"2126.114999999292","","","recognition","survey-text","408","1691001","0.0-6.0-3.57","3496553","co38917","norming","","","{""guess"":""kat""}","","../img/tt/522tt.jpg","",""
"null","../img/gs/522gs.jpg","null","reveal","image-keyboard-response","409","1693010","0.0-6.0-4.57","3496553","co38917","norming","","","","","","",""
"null","../img/tt/522tt.jpg","null","mooney2","image-keyboard-response","410","1695015","0.0-6.0-5.57","3496553","co38917","norming","","","","","","",""
"5591.11999999918","","","post_reveal_questions","survey-likert","411","1700609","0.0-6.0-6.57","3496553","co38917","norming","","","{""aha"":6}","[0]","../img/tt/522tt.jpg","",""
"null","<div style=""font-size:60px;""> </div>","null","fixation","html-keyboard-response","412","1700817","0.0-6.0-0.58","3496553","co38917","norming","","","","","","",""
"null","../img/tt/096tt.jpg","null","mooney1","image-keyboard-response","413","1703821","0.0-6.0-1.58","3496553","co38917","norming","","","","","","",""
"4465.394999999087","","","post_mooney1_questions","survey-likert","414","1708289","0.0-6.0-2.58","3496553","co38917","norming","","","{""curiosity"":6,""confidence"":3}","[0,1]","../img/tt/096tt.jpg","",""
"3110.109999999637","","","recognition","survey-text","415","1711401","0.0-6.0-3.58","3496553","co38917","norming","","","{""guess"":""piano""}","","../img/tt/096tt.jpg","",""
"null","../img/gs/096gs.jpg","null","reveal","image-keyboard-response","416","1713409","0.0-6.0-4.58","3496553","co38917","norming","","","","","","",""
"null","../img/tt/096tt.jpg","null","mooney2","image-keyboard-response","417","1715410","0.0-6.0-5.58","3496553","co38917","norming","","","","","","",""
"2708.1550000002608","","","post_reveal_questions","survey-likert","418","1718121","0.0-6.0-6.58","3496553","co38917","norming","","","{""aha"":6}","[0]","../img/tt/096tt.jpg","",""
"null","<div style=""font-size:60px;""> </div>","null","fixation","html-keyboard-response","419","1718324","0.0-6.0-0.59","3496553","co38917","norming","","","","","","",""
"null","../img/tt/032tt.jpg","null","mooney1","image-keyboard-response","420","1721329","0.0-6.0-1.59","3496553","co38917","norming","","","","","","",""
"5021.134999999078","","","post_mooney1_questions","survey-likert","421","1726353","0.0-6.0-2.59","3496553","co38917","norming","","","{""curiosity"":6,""confidence"":0}","[0,1]","../img/tt/032tt.jpg","",""
"829.6000000010245","","","recognition","survey-text","422","1727185","0.0-6.0-3.59","3496553","co38917","norming","","","{""guess"":""""}","","../img/tt/032tt.jpg","",""
"null","../img/gs/032gs.jpg","null","reveal","image-keyboard-response","423","1729196","0.0-6.0-4.59","3496553","co38917","norming","","","","","","",""
"null","../img/tt/032tt.jpg","null","mooney2","image-keyboard-response","424","1731206","0.0-6.0-5.59","3496553","co38917","norming","","","","","","",""
"3368.3599999984726","","","post_reveal_questions","survey-likert","425","1734577","0.0-6.0-6.59","3496553","co38917","norming","","","{""aha"":5}","[0]","../img/tt/032tt.jpg","",""
"null","<div style=""font-size:60px;""> </div>","null","fixation","html-keyboard-response","426","1734780","0.0-6.0-0.60","3496553","co38917","norming","","","","","","",""
"null","../img/tt/1255tt.jpg","null","mooney1","image-keyboard-response","427","1737781","0.0-6.0-1.60","3496553","co38917","norming","","","","","","",""
"4353.074999999022","","","post_mooney1_questions","survey-likert","428","1742137","0.0-6.0-2.60","3496553","co38917","norming","","","{""curiosity"":4,""confidence"":0}","[0,1]","../img/tt/1255tt.jpg","",""
"974.0500000007451","","","recognition","survey-text","429","1743113","0.0-6.0-3.60","3496553","co38917","norming","","","{""guess"":""""}","","../img/tt/1255tt.jpg","",""
"null","../img/gs/1255gs.jpg","null","reveal","image-keyboard-response","430","1745124","0.0-6.0-4.60","3496553","co38917","norming","","","","","","",""
"null","../img/tt/1255tt.jpg","null","mooney2","image-keyboard-response","431","1747126","0.0-6.0-5.60","3496553","co38917","norming","","","","","","",""
"2168.655000001192","","","post_reveal_questions","survey-likert","432","1749297","0.0-6.0-6.60","3496553","co38917","norming","","","{""aha"":0}","[0]","../img/tt/1255tt.jpg","",""
"null","<div style=""font-size:60px;""> </div>","null","fixation","html-keyboard-response","433","1749498","0.0-6.0-0.61","3496553","co38917","norming","","","","","","",""
"null","../img/tt/301tt.jpg","null","mooney1","image-keyboard-response","434","1752503","0.0-6.0-1.61","3496553","co38917","norming","","","","","","",""
"9726.984999999171","","","post_mooney1_questions","survey-likert","435","1762233","0.0-6.0-2.61","3496553","co38917","norming","","","{""curiosity"":6,""confidence"":1}","[0,1]","../img/tt/301tt.jpg","",""
"2157.8300000000745","","","recognition","survey-text","436","1764391","0.0-6.0-3.61","3496553","co38917","norming","","","{""guess"":""hakken""}","","../img/tt/301tt.jpg","",""
"null","../img/gs/301gs.jpg","null","reveal","image-keyboard-response","437","1766402","0.0-6.0-4.61","3496553","co38917","norming","","","","","","",""
"null","../img/tt/301tt.jpg","null","mooney2","image-keyboard-response","438","1768411","0.0-6.0-5.61","3496553","co38917","norming","","","","","","",""
"4689.925000000745","","","post_reveal_questions","survey-likert","439","1773104","0.0-6.0-6.61","3496553","co38917","norming","","","{""aha"":4}","[0]","../img/tt/301tt.jpg","",""
"null","<div style=""font-size:60px;""> </div>","null","fixation","html-keyboard-response","440","1773309","0.0-6.0-0.62","3496553","co38917","norming","","","","","","",""
"null","../img/tt/123tt.jpg","null","mooney1","image-keyboard-response","441","1776321","0.0-6.0-1.62","3496553","co38917","norming","","","","","","",""
"5756.054999999702","","","post_mooney1_questions","survey-likert","442","1782080","0.0-6.0-2.62","3496553","co38917","norming","","","{""curiosity"":4,""confidence"":1}","[0,1]","../img/tt/123tt.jpg","",""
"2325.885000000242","","","recognition","survey-text","443","1784408","0.0-6.0-3.62","3496553","co38917","norming","","","{""guess"":""koffer""}","","../img/tt/123tt.jpg","",""
"null","../img/gs/123gs.jpg","null","reveal","image-keyboard-response","444","1786414","0.0-6.0-4.62","3496553","co38917","norming","","","","","","",""
"null","../img/tt/123tt.jpg","null","mooney2","image-keyboard-response","445","1788416","0.0-6.0-5.62","3496553","co38917","norming","","","","","","",""
"3988.559999999823","","","post_reveal_questions","survey-likert","446","1792408","0.0-6.0-6.62","3496553","co38917","norming","","","{""aha"":5}","[0]","../img/tt/123tt.jpg","",""
"null","<div style=""font-size:60px;""> </div>","null","fixation","html-keyboard-response","447","1792612","0.0-6.0-0.63","3496553","co38917","norming","","","","","","",""
"null","../img/tt/1251tt.jpg","null","mooney1","image-keyboard-response","448","1795619","0.0-6.0-1.63","3496553","co38917","norming","","","","","","",""
"6864.76500000013","","","post_mooney1_questions","survey-likert","449","1802488","0.0-6.0-2.63","3496553","co38917","norming","","","{""curiosity"":5,""confidence"":3}","[0,1]","../img/tt/1251tt.jpg","",""
"6173.940000000643","","","recognition","survey-text","450","1808663","0.0-6.0-3.63","3496553","co38917","norming","","","{""guess"":""man op zetel""}","","../img/tt/1251tt.jpg","",""
"null","../img/gs/1251gs.jpg","null","reveal","image-keyboard-response","451","1810671","0.0-6.0-4.63","3496553","co38917","norming","","","","","","",""
"null","../img/tt/1251tt.jpg","null","mooney2","image-keyboard-response","452","1812680","0.0-6.0-5.63","3496553","co38917","norming","","","","","","",""
"3062.714999999851","","","post_reveal_questions","survey-likert","453","1815743","0.0-6.0-6.63","3496553","co38917","norming","","","{""aha"":2}","[0]","../img/tt/1251tt.jpg","",""
"null","<div style=""font-size:60px;""> </div>","null","fixation","html-keyboard-response","454","1815951","0.0-6.0-0.64","3496553","co38917","norming","","","","","","",""
"null","../img/tt/098tt.jpg","null","mooney1","image-keyboard-response","455","1818954","0.0-6.0-1.64","3496553","co38917","norming","","","","","","",""
"4502.145000000484","","","post_mooney1_questions","survey-likert","456","1823459","0.0-6.0-2.64","3496553","co38917","norming","","","{""curiosity"":5,""confidence"":0}","[0,1]","../img/tt/098tt.jpg","",""
"1153.940000000177","","","recognition","survey-text","457","1824618","0.0-6.0-3.64","3496553","co38917","norming","","","{""guess"":""""}","","../img/tt/098tt.jpg","",""
"null","../img/gs/098gs.jpg","null","reveal","image-keyboard-response","458","1826628","0.0-6.0-4.64","3496553","co38917","norming","","","","","","",""
"null","../img/tt/098tt.jpg","null","mooney2","image-keyboard-response","459","1828632","0.0-6.0-5.64","3496553","co38917","norming","","","","","","",""
"2288.8199999998324","","","post_reveal_questions","survey-likert","460","1830922","0.0-6.0-6.64","3496553","co38917","norming","","","{""aha"":1}","[0]","../img/tt/098tt.jpg","",""
"null","<div style=""font-size:60px;""> </div>","null","fixation","html-keyboard-response","461","1831126","0.0-6.0-0.65","3496553","co38917","norming","","","","","","",""
"null","../img/tt/378tt.jpg","null","mooney1","image-keyboard-response","462","1834134","0.0-6.0-1.65","3496553","co38917","norming","","","","","","",""
"8800.770000001648","","","post_mooney1_questions","survey-likert","463","1842938","0.0-6.0-2.65","3496553","co38917","norming","","","{""curiosity"":6,""confidence"":0}","[0,1]","../img/tt/378tt.jpg","",""
"957.8899999996647","","","recognition","survey-text","464","1843898","0.0-6.0-3.65","3496553","co38917","norming","","","{""guess"":""""}","","../img/tt/378tt.jpg","",""
"null","../img/gs/378gs.jpg","null","reveal","image-keyboard-response","465","1845908","0.0-6.0-4.65","3496553","co38917","norming","","","","","","",""
"null","../img/tt/378tt.jpg","null","mooney2","image-keyboard-response","466","1847917","0.0-6.0-5.65","3496553","co38917","norming","","","","","","",""
"1914.4350000005215","","","post_reveal_questions","survey-likert","467","1849834","0.0-6.0-6.65","3496553","co38917","norming","","","{""aha"":0}","[0]","../img/tt/378tt.jpg","",""
"null","<div style=""font-size:60px;""> </div>","null","fixation","html-keyboard-response","468","1850041","0.0-6.0-0.66","3496553","co38917","norming","","","","","","",""
"null","../img/tt/517tt.jpg","null","mooney1","image-keyboard-response","469","1853044","0.0-6.0-1.66","3496553","co38917","norming","","","","","","",""
"3969.9000000001397","","","post_mooney1_questions","survey-likert","470","1857018","0.0-6.0-2.66","3496553","co38917","norming","","","{""curiosity"":6,""confidence"":1}","[0,1]","../img/tt/517tt.jpg","",""
"3454.2700000002515","","","recognition","survey-text","471","1860474","0.0-6.0-3.66","3496553","co38917","norming","","","{""guess"":""paard""}","","../img/tt/517tt.jpg","",""
"null","../img/gs/517gs.jpg","null","reveal","image-keyboard-response","472","1862481","0.0-6.0-4.66","3496553","co38917","norming","","","","","","",""
"null","../img/tt/517tt.jpg","null","mooney2","image-keyboard-response","473","1864492","0.0-6.0-5.66","3496553","co38917","norming","","","","","","",""
"5923.595000000205","","","post_reveal_questions","survey-likert","474","1870418","0.0-6.0-6.66","3496553","co38917","norming","","","{""aha"":1}","[0]","../img/tt/517tt.jpg","",""
"null","<div style=""font-size:60px;""> </div>","null","fixation","html-keyboard-response","475","1870625","0.0-6.0-0.67","3496553","co38917","norming","","","","","","",""
"null","../img/tt/405tt.jpg","null","mooney1","image-keyboard-response","476","1873629","0.0-6.0-1.67","3496553","co38917","norming","","","","","","",""
"3817.704999999609","","","post_mooney1_questions","survey-likert","477","1877450","0.0-6.0-2.67","3496553","co38917","norming","","","{""curiosity"":5,""confidence"":1}","[0,1]","../img/tt/405tt.jpg","",""
"2221.784999999916","","","recognition","survey-text","478","1879673","0.0-6.0-3.67","3496553","co38917","norming","","","{""guess"":""konijn""}","","../img/tt/405tt.jpg","",""
"null","../img/gs/405gs.jpg","null","reveal","image-keyboard-response","479","1881682","0.0-6.0-4.67","3496553","co38917","norming","","","","","","",""
"null","../img/tt/405tt.jpg","null","mooney2","image-keyboard-response","480","1883691","0.0-6.0-5.67","3496553","co38917","norming","","","","","","",""
"2459.445000000531","","","post_reveal_questions","survey-likert","481","1886153","0.0-6.0-6.67","3496553","co38917","norming","","","{""aha"":1}","[0]","../img/tt/405tt.jpg","",""
"null","<div style=""font-size:60px;""> </div>","null","fixation","html-keyboard-response","482","1886356","0.0-6.0-0.68","3496553","co38917","norming","","","","","","",""
"null","../img/tt/1091tt.jpg","null","mooney1","image-keyboard-response","483","1889363","0.0-6.0-1.68","3496553","co38917","norming","","","","","","",""
"5481.954999999376","","","post_mooney1_questions","survey-likert","484","1894849","0.0-6.0-2.68","3496553","co38917","norming","","","{""curiosity"":6,""confidence"":2}","[0,1]","../img/tt/1091tt.jpg","",""
"2181.875000000233","","","recognition","survey-text","485","1897033","0.0-6.0-3.68","3496553","co38917","norming","","","{""guess"":""olifant""}","","../img/tt/1091tt.jpg","",""
"null","../img/gs/1091gs.jpg","null","reveal","image-keyboard-response","486","1899039","0.0-6.0-4.68","3496553","co38917","norming","","","","","","",""
"null","../img/tt/1091tt.jpg","null","mooney2","image-keyboard-response","487","1901041","0.0-6.0-5.68","3496553","co38917","norming","","","","","","",""
"3644.3799999996554","","","post_reveal_questions","survey-likert","488","1904689","0.0-6.0-6.68","3496553","co38917","norming","","","{""aha"":6}","[0]","../img/tt/1091tt.jpg","",""
"null","<div style=""font-size:60px;""> </div>","null","fixation","html-keyboard-response","489","1904897","0.0-6.0-0.69","3496553","co38917","norming","","","","","","",""
"null","../img/tt/559tt.jpg","null","mooney1","image-keyboard-response","490","1907899","0.0-6.0-1.69","3496553","co38917","norming","","","","","","",""
"12123.164999999106","","","post_mooney1_questions","survey-likert","491","1920025","0.0-6.0-2.69","3496553","co38917","norming","","","{""curiosity"":5,""confidence"":1}","[0,1]","../img/tt/559tt.jpg","",""
"2061.435000001453","","","recognition","survey-text","492","1922089","0.0-6.0-3.69","3496553","co38917","norming","","","{""guess"":""zetel""}","","../img/tt/559tt.jpg","",""
"null","../img/gs/559gs.jpg","null","reveal","image-keyboard-response","493","1924097","0.0-6.0-4.69","3496553","co38917","norming","","","","","","",""
"null","../img/tt/559tt.jpg","null","mooney2","image-keyboard-response","494","1926100","0.0-6.0-5.69","3496553","co38917","norming","","","","","","",""
"3466.575000000419","","","post_reveal_questions","survey-likert","495","1929569","0.0-6.0-6.69","3496553","co38917","norming","","","{""aha"":1}","[0]","../img/tt/559tt.jpg","",""
"null","<div style=""font-size:60px;""> </div>","null","fixation","html-keyboard-response","496","1929772","0.0-6.0-0.70","3496553","co38917","norming","","","","","","",""
"null","../img/tt/163tt.jpg","null","mooney1","image-keyboard-response","497","1932780","0.0-6.0-1.70","3496553","co38917","norming","","","","","","",""
"4060.509999999311","","","post_mooney1_questions","survey-likert","498","1936841","0.0-6.0-2.70","3496553","co38917","norming","","","{""curiosity"":6,""confidence"":4}","[0,1]","../img/tt/163tt.jpg","",""
"2126.174999999348","","","recognition","survey-text","499","1938969","0.0-6.0-3.70","3496553","co38917","norming","","","{""guess"":""koala""}","","../img/tt/163tt.jpg","",""
"null","../img/gs/163gs.jpg","null","reveal","image-keyboard-response","500","1940977","0.0-6.0-4.70","3496553","co38917","norming","","","","","","",""
"null","../img/tt/163tt.jpg","null","mooney2","image-keyboard-response","501","1942980","0.0-6.0-5.70","3496553","co38917","norming","","","","","","",""
"3202.359999999404","","","post_reveal_questions","survey-likert","502","1946182","0.0-6.0-6.70","3496553","co38917","norming","","","{""aha"":4}","[0]","../img/tt/163tt.jpg","",""
"null","<div style=""font-size:60px;""> </div>","null","fixation","html-keyboard-response","503","1946388","0.0-6.0-0.71","3496553","co38917","norming","","","","","","",""
"null","../img/tt/599tt.jpg","null","mooney1","image-keyboard-response","504","1949397","0.0-6.0-1.71","3496553","co38917","norming","","","","","","",""
"4070.2350000010338","","","post_mooney1_questions","survey-likert","505","1953471","0.0-6.0-2.71","3496553","co38917","norming","","","{""curiosity"":5,""confidence"":0}","[0,1]","../img/tt/599tt.jpg","",""
"926.0350000003818","","","recognition","survey-text","506","1954398","0.0-6.0-3.71","3496553","co38917","norming","","","{""guess"":""""}","","../img/tt/599tt.jpg","",""
"null","../img/gs/599gs.jpg","null","reveal","image-keyboard-response","507","1956404","0.0-6.0-4.71","3496553","co38917","norming","","","","","","",""
"null","../img/tt/599tt.jpg","null","mooney2","image-keyboard-response","508","1958412","0.0-6.0-5.71","3496553","co38917","norming","","","","","","",""
"2423.8249999997206","","","post_reveal_questions","survey-likert","509","1960838","0.0-6.0-6.71","3496553","co38917","norming","","","{""aha"":6}","[0]","../img/tt/599tt.jpg","",""
"null","<div style=""font-size:60px;""> </div>","null","fixation","html-keyboard-response","510","1961043","0.0-6.0-0.72","3496553","co38917","norming","","","","","","",""
"null","../img/tt/1199tt.jpg","null","mooney1","image-keyboard-response","511","1964046","0.0-6.0-1.72","3496553","co38917","norming","","","","","","",""
"4740.8400000005495","","","post_mooney1_questions","survey-likert","512","1968790","0.0-6.0-2.72","3496553","co38917","norming","","","{""curiosity"":4,""confidence"":0}","[0,1]","../img/tt/1199tt.jpg","",""
"886.1500000003725","","","recognition","survey-text","513","1969678","0.0-6.0-3.72","3496553","co38917","norming","","","{""guess"":""""}","","../img/tt/1199tt.jpg","",""
"null","../img/gs/1199gs.jpg","null","reveal","image-keyboard-response","514","1971688","0.0-6.0-4.72","3496553","co38917","norming","","","","","","",""
"null","../img/tt/1199tt.jpg","null","mooney2","image-keyboard-response","515","1973691","0.0-6.0-5.72","3496553","co38917","norming","","","","","","",""
"2399.650000001304","","","post_reveal_questions","survey-likert","516","1976095","0.0-6.0-6.72","3496553","co38917","norming","","","{""aha"":0}","[0]","../img/tt/1199tt.jpg","",""
"null","<div style=""font-size:60px;""> </div>","null","fixation","html-keyboard-response","517","1976298","0.0-6.0-0.73","3496553","co38917","norming","","","","","","",""
"null","../img/tt/080tt.jpg","null","mooney1","image-keyboard-response","518","1979305","0.0-6.0-1.73","3496553","co38917","norming","","","","","","",""
"4458.040000001434","","","post_mooney1_questions","survey-likert","519","1983767","0.0-6.0-2.73","3496553","co38917","norming","","","{""curiosity"":4,""confidence"":1}","[0,1]","../img/tt/080tt.jpg","",""
"2286.039999998873","","","recognition","survey-text","520","1986054","0.0-6.0-3.73","3496553","co38917","norming","","","{""guess"":""lamp""}","","../img/tt/080tt.jpg","",""
"null","../img/gs/080gs.jpg","null","reveal","image-keyboard-response","521","1988057","0.0-6.0-4.73","3496553","co38917","norming","","","","","","",""
"null","../img/tt/080tt.jpg","null","mooney2","image-keyboard-response","522","1990059","0.0-6.0-5.73","3496553","co38917","norming","","","","","","",""
"9152.845000000438","","","post_reveal_questions","survey-likert","523","1999214","0.0-6.0-6.73","3496553","co38917","norming","","","{""aha"":4}","[0]","../img/tt/080tt.jpg","",""
"null","<div style=""font-size:60px;""> </div>","null","fixation","html-keyboard-response","524","1999420","0.0-6.0-0.74","3496553","co38917","norming","","","","","","",""
"null","../img/tt/1269tt.jpg","null","mooney1","image-keyboard-response","525","2002432","0.0-6.0-1.74","3496553","co38917","norming","","","","","","",""
"3531.094999998575","","","post_mooney1_questions","survey-likert","526","2005963","0.0-6.0-2.74","3496553","co38917","norming","","","{""curiosity"":6,""confidence"":0}","[0,1]","../img/tt/1269tt.jpg","",""
"1413.6699999999255","","","recognition","survey-text","527","2007378","0.0-6.0-3.74","3496553","co38917","norming","","","{""guess"":""""}","","../img/tt/1269tt.jpg","",""
"null","../img/gs/1269gs.jpg","null","reveal","image-keyboard-response","528","2009383","0.0-6.0-4.74","3496553","co38917","norming","","","","","","",""
"null","../img/tt/1269tt.jpg","null","mooney2","image-keyboard-response","529","2011385","0.0-6.0-5.74","3496553","co38917","norming","","","","","","",""
"3126.80999999959","","","post_reveal_questions","survey-likert","530","2014515","0.0-6.0-6.74","3496553","co38917","norming","","","{""aha"":0}","[0]","../img/tt/1269tt.jpg","",""
"null","<div style=""font-size:60px;""> </div>","null","fixation","html-keyboard-response","531","2014724","0.0-6.0-0.75","3496553","co38917","norming","","","","","","",""
"null","../img/tt/184tt.jpg","null","mooney1","image-keyboard-response","532","2017732","0.0-6.0-1.75","3496553","co38917","norming","","","","","","",""
"6324.090000000084","","","post_mooney1_questions","survey-likert","533","2024059","0.0-6.0-2.75","3496553","co38917","norming","","","{""curiosity"":5,""confidence"":0}","[0,1]","../img/tt/184tt.jpg","",""
"5574.010000000242","","","recognition","survey-text","534","2029635","0.0-6.0-3.75","3496553","co38917","norming","","","{""guess"":""""}","","../img/tt/184tt.jpg","",""
"null","../img/gs/184gs.jpg","null","reveal","image-keyboard-response","535","2031640","0.0-6.0-4.75","3496553","co38917","norming","","","","","","",""
"null","../img/tt/184tt.jpg","null","mooney2","image-keyboard-response","536","2033651","0.0-6.0-5.75","3496553","co38917","norming","","","","","","",""
"2341.024999999674","","","post_reveal_questions","survey-likert","537","2035995","0.0-6.0-6.75","3496553","co38917","norming","","","{""aha"":3}","[0]","../img/tt/184tt.jpg","",""
"null","<div style=""font-size:60px;""> </div>","null","fixation","html-keyboard-response","538","2036202","0.0-6.0-0.76","3496553","co38917","norming","","","","","","",""
"null","../img/tt/438tt.jpg","null","mooney1","image-keyboard-response","539","2039212","0.0-6.0-1.76","3496553","co38917","norming","","","","","","",""
"9227.71499999892","","","post_mooney1_questions","survey-likert","540","2048443","0.0-6.0-2.76","3496553","co38917","norming","","","{""curiosity"":4,""confidence"":1}","[0,1]","../img/tt/438tt.jpg","",""
"2869.8899999998976","","","recognition","survey-text","541","2051315","0.0-6.0-3.76","3496553","co38917","norming","","","{""guess"":""boterham""}","","../img/tt/438tt.jpg","",""
"null","../img/gs/438gs.jpg","null","reveal","image-keyboard-response","542","2053317","0.0-6.0-4.76","3496553","co38917","norming","","","","","","",""
"null","../img/tt/438tt.jpg","null","mooney2","image-keyboard-response","543","2055319","0.0-6.0-5.76","3496553","co38917","norming","","","","","","",""
"3351.3850000000093","","","post_reveal_questions","survey-likert","544","2058675","0.0-6.0-6.76","3496553","co38917","norming","","","{""aha"":4}","[0]","../img/tt/438tt.jpg","",""
"null","<div style=""font-size:60px;""> </div>","null","fixation","html-keyboard-response","545","2058878","0.0-6.0-0.77","3496553","co38917","norming","","","","","","",""
"null","../img/tt/1012tt.jpg","null","mooney1","image-keyboard-response","546","2061882","0.0-6.0-1.77","3496553","co38917","norming","","","","","","",""
"5789.720000000671","","","post_mooney1_questions","survey-likert","547","2067677","0.0-6.0-2.77","3496553","co38917","norming","","","{""curiosity"":4,""confidence"":1}","[0,1]","../img/tt/1012tt.jpg","",""
"1766.0300000007264","","","recognition","survey-text","548","2069444","0.0-6.0-3.77","3496553","co38917","norming","","","{""guess"":""tijger""}","","../img/tt/1012tt.jpg","",""
"null","../img/gs/1012gs.jpg","null","reveal","image-keyboard-response","549","2071453","0.0-6.0-4.77","3496553","co38917","norming","","","","","","",""
"null","../img/tt/1012tt.jpg","null","mooney2","image-keyboard-response","550","2073455","0.0-6.0-5.77","3496553","co38917","norming","","","","","","",""
"3730.4600000006612","","","post_reveal_questions","survey-likert","551","2077189","0.0-6.0-6.77","3496553","co38917","norming","","","{""aha"":4}","[0]","../img/tt/1012tt.jpg","",""
"null","<div style=""font-size:60px;""> </div>","null","fixation","html-keyboard-response","552","2077394","0.0-6.0-0.78","3496553","co38917","norming","","","","","","",""
