"rt","stimulus","key_press","test_part","trial_type","trial_index","time_elapsed","internal_node_id","totalTime","subject","experiment_name","button_pressed","success","responses","question_order","currentStim","old","correct"
"7857.6599999999535","Welcome to the experiment. This is an online experiment so please don't close the tab/window until we say goodbye.  Press any key to begin.","13","instructions","html-keyboard-response","0","7871","0.0-0.0","2627352","co38662","norming","","","","","","",""
"55526.884999999995","<div style='word-wrap: break-word; width: 900px'><h3>Please consider this information carefully before deciding whether to participate in this research</h3><ul style='text-align: left; font-size: .8em;'><li><b>Purpose of the research</b>: To examine how people process images.</li><li><b>What you will do in this research</b>:  Stimuli (images) will be presented on the computer and you will be asked different questions about them.</li><li><b>Time required</b>: Participation will take between 45 and 60 minutes to complete.</li><li><b>Risks</b>:  There are no anticipated risks associated with participating in this study. The effects of participating should be comparable to those you would experience from viewing a computer monitor for 30 minutes and using a mouse or keyboard.</li><li><b>Benefits</b>:  This study provides no benefits to you individually except for the credit. The study provides important information about the nature of perception and learning.</li><li><b>Confidentiality</b>:  Your participation in this study will remain confidential. No personally identifiable information will be associated with your data. Your de-identified data may be shared with other researchers and used in future projects.</li><li><b>Participation and withdrawal</b>:  Your participation in this study is completely voluntary and you may refuse to participate or you may choose to withdraw at any time without penalty.</li><li><b>How to contact the researchers</b>: If you have questions or concerns about your participation or payment, or want to request a summary of research findings, please contact Sander Van de Cruys (KU Leuven), at sander.vandecruys@kuleuven.be.</li></ul><p>The nature and purpose of this research have been sufficiently explained and I agree to participate in this study.  I understand that I am free to withdraw at any time without incurring any penalty.</p><p>Please consent by clicking the button below to continue. Otherwise, please exit the study at this time.</p></div>","","instructions","html-button-response","1","63095","0.0-1.0","2627352","co38662","norming","0","","","","","",""
"","","","instructions","fullscreen","2","69387","0.0-2.0","2627352","co38662","norming","","true","","","","",""
"25895.319999999978","","","sona","survey-html-form","3","95287","0.0-3.0","2627352","co38662","norming","","","[{""name"":""sonaid"",""value"":""38662""},{""name"":""debrief"",""value"":""no""},{""name"":""datajoin"",""value"":""yes""}]","","","",""
"78662.20499999996","<div style='word-wrap: break-word; width: 900px'><h3>Instructions</h3><p>This experiment will have 3 parts. In the first part you will see a series of distorted images like the one below on the left. As you can see in the righthand image, the distorted images are derived from actual photographs. In what follows, you will <strong>briefly</strong> be presented with <strong>only</strong> the distorted image.</p> <div style='float: left; margin-right: 20px;'><img src='../img/018tt.jpg' height='250' width='250'></img></div><div style='float: right; margin-left: 20px;'><img src='../img/018gs.jpg' height='250' width='250'></img></div><p>Subsequently you will be asked a few questions about the image: One question on how <strong>curious</strong> you are about the solution and one on how <strong>confident</strong> you are that you know the solution.</p>Next, we ask you to make a guess on what is in the image. Note that it is OK to name just the <strong>basic level category</strong>. For example when you see a parrot in the image, 'parrot' will obviously be a correct answer but also correct is 'bird'. However, 'animal' will <strong>not</strong> be counted as a correct response. For the example above, 'rose' would be correct or 'flower', but not 'plant'. When soccer players are depicted, 'soccer', 'football', 'soccer players' will be correct, but not 'humans', 'outdoors', or 'sports'. You do not need to describe the image in full, just name the main object in it <strong>in one or two words</strong>. All images depict objects from one of the following broad level categories: animals, inanimate objects, plants, sports, vehicles, and food. Recognizing means knowing <strong>more</strong> than these broad labels for a given image. But we always encourage you to <strong>make a guess</strong> if you can. Note that you are allowed to use <strong>Dutch and English</strong> in your answers, whatever comes easiest for you.</p><p>Press any key to continue.</p></div>","13","instructions","html-keyboard-response","4","173485","0.0-4.0","2627352","co38662","norming","","","","","","",""
"38015.58499999999","<div style='word-wrap: break-word; width: 900px'><h3>Instructions</h3> <p>Next, the solution image will be revealed to you and you'll be asked to indicate how strong your <strong>aha-experience</strong> was after seeing the solution. This describes the positive feeling of the 'click' you sometimes experience, when the pieces of the 'puzzle' fall together and you suddenly have 'insight' in the image.</p><img src='aha.jpg' height='188' width='250'></img><p>Note that there are no right or wrong answers. We are interested in what <strong>you</strong> see in the image and how <strong>you</strong> feel about it.</p><p>Press any key to start the experiment.</p></div>","13","instructions","html-keyboard-response","5","211501","0.0-5.0","2627352","co38662","norming","","","","","","",""
"null","<div style=""font-size:60px;""> </div>","null","fixation","html-keyboard-response","6","211702","0.0-6.0-0.0","2627352","co38662","norming","","","","","","",""
"null","../img/tt/056tt.jpg","null","mooney1","image-keyboard-response","7","214714","0.0-6.0-1.0","2627352","co38662","norming","","","","","","",""
"14631.020000000019","","","post_mooney1_questions","survey-likert","8","229349","0.0-6.0-2.0","2627352","co38662","norming","","","{""curiosity"":4,""confidence"":0}","[0,1]","../img/tt/056tt.jpg","",""
"11509.5","","","recognition","survey-text","9","240665","0.0-6.0-3.0","2627352","co38662","norming","","","{""guess"":""""}","","../img/tt/056tt.jpg","",""
"null","../img/gs/056gs.jpg","null","reveal","image-keyboard-response","10","242675","0.0-6.0-4.0","2627352","co38662","norming","","","","","","",""
"null","../img/tt/056tt.jpg","null","mooney2","image-keyboard-response","11","244677","0.0-6.0-5.0","2627352","co38662","norming","","","","","","",""
"6665.9550000000745","","","post_reveal_questions","survey-likert","12","251345","0.0-6.0-6.0","2627352","co38662","norming","","","{""aha"":3}","[0]","../img/tt/056tt.jpg","",""
"null","<div style=""font-size:60px;""> </div>","null","fixation","html-keyboard-response","13","251551","0.0-6.0-0.1","2627352","co38662","norming","","","","","","",""
"null","../img/tt/1217tt.jpg","null","mooney1","image-keyboard-response","14","254559","0.0-6.0-1.1","2627352","co38662","norming","","","","","","",""
"7728.389999999985","","","post_mooney1_questions","survey-likert","15","262290","0.0-6.0-2.1","2627352","co38662","norming","","","{""curiosity"":1,""confidence"":1}","[0,1]","../img/tt/1217tt.jpg","",""
"3014.0800000000163","","","recognition","survey-text","16","265305","0.0-6.0-3.1","2627352","co38662","norming","","","{""guess"":""cow""}","","../img/tt/1217tt.jpg","",""
"null","../img/gs/1217gs.jpg","null","reveal","image-keyboard-response","17","267309","0.0-6.0-4.1","2627352","co38662","norming","","","","","","",""
"null","../img/tt/1217tt.jpg","null","mooney2","image-keyboard-response","18","269313","0.0-6.0-5.1","2627352","co38662","norming","","","","","","",""
"7927.249999999942","","","post_reveal_questions","survey-likert","19","277241","0.0-6.0-6.1","2627352","co38662","norming","","","{""aha"":3}","[0]","../img/tt/1217tt.jpg","",""
"null","<div style=""font-size:60px;""> </div>","null","fixation","html-keyboard-response","20","277451","0.0-6.0-0.2","2627352","co38662","norming","","","","","","",""
"null","../img/tt/123tt.jpg","null","mooney1","image-keyboard-response","21","280454","0.0-6.0-1.2","2627352","co38662","norming","","","","","","",""
"10562.250000000058","","","post_mooney1_questions","survey-likert","22","291018","0.0-6.0-2.2","2627352","co38662","norming","","","{""curiosity"":1,""confidence"":1}","[0,1]","../img/tt/123tt.jpg","",""
"4686.125000000058","","","recognition","survey-text","23","295701","0.0-6.0-3.2","2627352","co38662","norming","","","{""guess"":""car dashboard""}","","../img/tt/123tt.jpg","",""
"null","../img/gs/123gs.jpg","null","reveal","image-keyboard-response","24","297703","0.0-6.0-4.2","2627352","co38662","norming","","","","","","",""
"null","../img/tt/123tt.jpg","null","mooney2","image-keyboard-response","25","299708","0.0-6.0-5.2","2627352","co38662","norming","","","","","","",""
"3423.8400000000256","","","post_reveal_questions","survey-likert","26","303132","0.0-6.0-6.2","2627352","co38662","norming","","","{""aha"":2}","[0]","../img/tt/123tt.jpg","",""
"null","<div style=""font-size:60px;""> </div>","null","fixation","html-keyboard-response","27","303340","0.0-6.0-0.3","2627352","co38662","norming","","","","","","",""
"null","../img/tt/549tt.jpg","null","mooney1","image-keyboard-response","28","306347","0.0-6.0-1.3","2627352","co38662","norming","","","","","","",""
"4270.5100000000675","","","post_mooney1_questions","survey-likert","29","310621","0.0-6.0-2.3","2627352","co38662","norming","","","{""curiosity"":6,""confidence"":0}","[0,1]","../img/tt/549tt.jpg","",""
"1150.0449999999837","","","recognition","survey-text","30","311772","0.0-6.0-3.3","2627352","co38662","norming","","","{""guess"":""""}","","../img/tt/549tt.jpg","",""
"null","../img/gs/549gs.jpg","null","reveal","image-keyboard-response","31","313780","0.0-6.0-4.3","2627352","co38662","norming","","","","","","",""
"null","../img/tt/549tt.jpg","null","mooney2","image-keyboard-response","32","315782","0.0-6.0-5.3","2627352","co38662","norming","","","","","","",""
"3812.9850000000442","","","post_reveal_questions","survey-likert","33","319597","0.0-6.0-6.3","2627352","co38662","norming","","","{""aha"":6}","[0]","../img/tt/549tt.jpg","",""
"null","<div style=""font-size:60px;""> </div>","null","fixation","html-keyboard-response","34","319807","0.0-6.0-0.4","2627352","co38662","norming","","","","","","",""
"null","../img/tt/273tt.jpg","null","mooney1","image-keyboard-response","35","322812","0.0-6.0-1.4","2627352","co38662","norming","","","","","","",""
"3453.7449999999953","","","post_mooney1_questions","survey-likert","36","326269","0.0-6.0-2.4","2627352","co38662","norming","","","{""curiosity"":0,""confidence"":5}","[0,1]","../img/tt/273tt.jpg","",""
"2054.134999999951","","","recognition","survey-text","37","328325","0.0-6.0-3.4","2627352","co38662","norming","","","{""guess"":""mouth""}","","../img/tt/273tt.jpg","",""
"null","../img/gs/273gs.jpg","null","reveal","image-keyboard-response","38","330326","0.0-6.0-4.4","2627352","co38662","norming","","","","","","",""
"null","../img/tt/273tt.jpg","null","mooney2","image-keyboard-response","39","332330","0.0-6.0-5.4","2627352","co38662","norming","","","","","","",""
"1479.9199999999837","","","post_reveal_questions","survey-likert","40","333813","0.0-6.0-6.4","2627352","co38662","norming","","","{""aha"":0}","[0]","../img/tt/273tt.jpg","",""
"null","<div style=""font-size:60px;""> </div>","null","fixation","html-keyboard-response","41","334017","0.0-6.0-0.5","2627352","co38662","norming","","","","","","",""
"null","../img/tt/052tt.jpg","null","mooney1","image-keyboard-response","42","337019","0.0-6.0-1.5","2627352","co38662","norming","","","","","","",""
"5174.770000000019","","","post_mooney1_questions","survey-likert","43","342197","0.0-6.0-2.5","2627352","co38662","norming","","","{""curiosity"":1,""confidence"":3}","[0,1]","../img/tt/052tt.jpg","",""
"2717.984999999986","","","recognition","survey-text","44","344917","0.0-6.0-3.5","2627352","co38662","norming","","","{""guess"":""belt""}","","../img/tt/052tt.jpg","",""
"null","../img/gs/052gs.jpg","null","reveal","image-keyboard-response","45","346919","0.0-6.0-4.5","2627352","co38662","norming","","","","","","",""
"null","../img/tt/052tt.jpg","null","mooney2","image-keyboard-response","46","348922","0.0-6.0-5.5","2627352","co38662","norming","","","","","","",""
"2952.2049999999","","","post_reveal_questions","survey-likert","47","351876","0.0-6.0-6.5","2627352","co38662","norming","","","{""aha"":2}","[0]","../img/tt/052tt.jpg","",""
"null","<div style=""font-size:60px;""> </div>","null","fixation","html-keyboard-response","48","352084","0.0-6.0-0.6","2627352","co38662","norming","","","","","","",""
"null","../img/tt/1272tt.jpg","null","mooney1","image-keyboard-response","49","355103","0.0-6.0-1.6","2627352","co38662","norming","","","","","","",""
"6650.75","","","post_mooney1_questions","survey-likert","50","361757","0.0-6.0-2.6","2627352","co38662","norming","","","{""curiosity"":1,""confidence"":5}","[0,1]","../img/tt/1272tt.jpg","",""
"1262.1750000000466","","","recognition","survey-text","51","363021","0.0-6.0-3.6","2627352","co38662","norming","","","{""guess"":""dog""}","","../img/tt/1272tt.jpg","",""
"null","../img/gs/1272gs.jpg","null","reveal","image-keyboard-response","52","365030","0.0-6.0-4.6","2627352","co38662","norming","","","","","","",""
"null","../img/tt/1272tt.jpg","null","mooney2","image-keyboard-response","53","367031","0.0-6.0-5.6","2627352","co38662","norming","","","","","","",""
"2994.9899999999907","","","post_reveal_questions","survey-likert","54","370029","0.0-6.0-6.6","2627352","co38662","norming","","","{""aha"":3}","[0]","../img/tt/1272tt.jpg","",""
"null","<div style=""font-size:60px;""> </div>","null","fixation","html-keyboard-response","55","370233","0.0-6.0-0.7","2627352","co38662","norming","","","","","","",""
"null","../img/tt/105tt.jpg","null","mooney1","image-keyboard-response","56","373237","0.0-6.0-1.7","2627352","co38662","norming","","","","","","",""
"4476.555000000109","","","post_mooney1_questions","survey-likert","57","377717","0.0-6.0-2.7","2627352","co38662","norming","","","{""curiosity"":3,""confidence"":2}","[0,1]","../img/tt/105tt.jpg","",""
"9606.044999999984","","","recognition","survey-text","58","387324","0.0-6.0-3.7","2627352","co38662","norming","","","{""guess"":""house plant""}","","../img/tt/105tt.jpg","",""
"null","../img/gs/105gs.jpg","null","reveal","image-keyboard-response","59","389326","0.0-6.0-4.7","2627352","co38662","norming","","","","","","",""
"null","../img/tt/105tt.jpg","null","mooney2","image-keyboard-response","60","391331","0.0-6.0-5.7","2627352","co38662","norming","","","","","","",""
"2311.1849999998813","","","post_reveal_questions","survey-likert","61","393644","0.0-6.0-6.7","2627352","co38662","norming","","","{""aha"":4}","[0]","../img/tt/105tt.jpg","",""
"null","<div style=""font-size:60px;""> </div>","null","fixation","html-keyboard-response","62","393847","0.0-6.0-0.8","2627352","co38662","norming","","","","","","",""
"null","../img/tt/1091tt.jpg","null","mooney1","image-keyboard-response","63","396849","0.0-6.0-1.8","2627352","co38662","norming","","","","","","",""
"3584.664999999921","","","post_mooney1_questions","survey-likert","64","400436","0.0-6.0-2.8","2627352","co38662","norming","","","{""curiosity"":1,""confidence"":5}","[0,1]","../img/tt/1091tt.jpg","",""
"1334.304999999993","","","recognition","survey-text","65","401772","0.0-6.0-3.8","2627352","co38662","norming","","","{""guess"":""horse""}","","../img/tt/1091tt.jpg","",""
"null","../img/gs/1091gs.jpg","null","reveal","image-keyboard-response","66","403778","0.0-6.0-4.8","2627352","co38662","norming","","","","","","",""
"null","../img/tt/1091tt.jpg","null","mooney2","image-keyboard-response","67","405781","0.0-6.0-5.8","2627352","co38662","norming","","","","","","",""
"2757.4400000000605","","","post_reveal_questions","survey-likert","68","408540","0.0-6.0-6.8","2627352","co38662","norming","","","{""aha"":0}","[0]","../img/tt/1091tt.jpg","",""
"null","<div style=""font-size:60px;""> </div>","null","fixation","html-keyboard-response","69","408744","0.0-6.0-0.9","2627352","co38662","norming","","","","","","",""
"null","../img/tt/118tt.jpg","null","mooney1","image-keyboard-response","70","411750","0.0-6.0-1.9","2627352","co38662","norming","","","","","","",""
"5525.679999999935","","","post_mooney1_questions","survey-likert","71","417274","0.0-6.0-2.9","2627352","co38662","norming","","","{""curiosity"":5,""confidence"":0}","[0,1]","../img/tt/118tt.jpg","",""
"1318.1799999999348","","","recognition","survey-text","72","418594","0.0-6.0-3.9","2627352","co38662","norming","","","{""guess"":""""}","","../img/tt/118tt.jpg","",""
"null","../img/gs/118gs.jpg","null","reveal","image-keyboard-response","73","420598","0.0-6.0-4.9","2627352","co38662","norming","","","","","","",""
"null","../img/tt/118tt.jpg","null","mooney2","image-keyboard-response","74","422603","0.0-6.0-5.9","2627352","co38662","norming","","","","","","",""
"2734.210000000079","","","post_reveal_questions","survey-likert","75","425338","0.0-6.0-6.9","2627352","co38662","norming","","","{""aha"":4}","[0]","../img/tt/118tt.jpg","",""
"null","<div style=""font-size:60px;""> </div>","null","fixation","html-keyboard-response","76","425545","0.0-6.0-0.10","2627352","co38662","norming","","","","","","",""
"null","../img/tt/085tt.jpg","null","mooney1","image-keyboard-response","77","428547","0.0-6.0-1.10","2627352","co38662","norming","","","","","","",""
"15325.969999999972","","","post_mooney1_questions","survey-likert","78","443874","0.0-6.0-2.10","2627352","co38662","norming","","","{""curiosity"":4,""confidence"":1}","[0,1]","../img/tt/085tt.jpg","",""
"3494.0849999999627","","","recognition","survey-text","79","447370","0.0-6.0-3.10","2627352","co38662","norming","","","{""guess"":""grasshoper""}","","../img/tt/085tt.jpg","",""
"null","../img/gs/085gs.jpg","null","reveal","image-keyboard-response","80","449373","0.0-6.0-4.10","2627352","co38662","norming","","","","","","",""
"null","../img/tt/085tt.jpg","null","mooney2","image-keyboard-response","81","451379","0.0-6.0-5.10","2627352","co38662","norming","","","","","","",""
"5357.494999999937","","","post_reveal_questions","survey-likert","82","456738","0.0-6.0-6.10","2627352","co38662","norming","","","{""aha"":1}","[0]","../img/tt/085tt.jpg","",""
"null","<div style=""font-size:60px;""> </div>","null","fixation","html-keyboard-response","83","456944","0.0-6.0-0.11","2627352","co38662","norming","","","","","","",""
"null","../img/tt/1279tt.jpg","null","mooney1","image-keyboard-response","84","459953","0.0-6.0-1.11","2627352","co38662","norming","","","","","","",""
"6367.870000000054","","","post_mooney1_questions","survey-likert","85","466322","0.0-6.0-2.11","2627352","co38662","norming","","","{""curiosity"":3,""confidence"":1}","[0,1]","../img/tt/1279tt.jpg","",""
"5045.919999999867","","","recognition","survey-text","86","471370","0.0-6.0-3.11","2627352","co38662","norming","","","{""guess"":""football players""}","","../img/tt/1279tt.jpg","",""
"null","../img/gs/1279gs.jpg","null","reveal","image-keyboard-response","87","473372","0.0-6.0-4.11","2627352","co38662","norming","","","","","","",""
"null","../img/tt/1279tt.jpg","null","mooney2","image-keyboard-response","88","475383","0.0-6.0-5.11","2627352","co38662","norming","","","","","","",""
"2613.0349999999744","","","post_reveal_questions","survey-likert","89","477997","0.0-6.0-6.11","2627352","co38662","norming","","","{""aha"":5}","[0]","../img/tt/1279tt.jpg","",""
"null","<div style=""font-size:60px;""> </div>","null","fixation","html-keyboard-response","90","478204","0.0-6.0-0.12","2627352","co38662","norming","","","","","","",""
"null","../img/tt/481tt.jpg","null","mooney1","image-keyboard-response","91","481211","0.0-6.0-1.12","2627352","co38662","norming","","","","","","",""
"3544.7450000000536","","","post_mooney1_questions","survey-likert","92","484757","0.0-6.0-2.12","2627352","co38662","norming","","","{""curiosity"":4,""confidence"":1}","[0,1]","../img/tt/481tt.jpg","",""
"1174.0200000000768","","","recognition","survey-text","93","485932","0.0-6.0-3.12","2627352","co38662","norming","","","{""guess"":""dog""}","","../img/tt/481tt.jpg","",""
"null","../img/gs/481gs.jpg","null","reveal","image-keyboard-response","94","487936","0.0-6.0-4.12","2627352","co38662","norming","","","","","","",""
"null","../img/tt/481tt.jpg","null","mooney2","image-keyboard-response","95","489937","0.0-6.0-5.12","2627352","co38662","norming","","","","","","",""
"1714.5950000000303","","","post_reveal_questions","survey-likert","96","491652","0.0-6.0-6.12","2627352","co38662","norming","","","{""aha"":3}","[0]","../img/tt/481tt.jpg","",""
"null","<div style=""font-size:60px;""> </div>","null","fixation","html-keyboard-response","97","491860","0.0-6.0-0.13","2627352","co38662","norming","","","","","","",""
"null","../img/tt/140tt.jpg","null","mooney1","image-keyboard-response","98","494861","0.0-6.0-1.13","2627352","co38662","norming","","","","","","",""
"4093.064999999944","","","post_mooney1_questions","survey-likert","99","498957","0.0-6.0-2.13","2627352","co38662","norming","","","{""curiosity"":1,""confidence"":5}","[0,1]","../img/tt/140tt.jpg","",""
"1405.6499999999069","","","recognition","survey-text","100","500364","0.0-6.0-3.13","2627352","co38662","norming","","","{""guess"":""forks""}","","../img/tt/140tt.jpg","",""
"null","../img/gs/140gs.jpg","null","reveal","image-keyboard-response","101","502375","0.0-6.0-4.13","2627352","co38662","norming","","","","","","",""
"null","../img/tt/140tt.jpg","null","mooney2","image-keyboard-response","102","504381","0.0-6.0-5.13","2627352","co38662","norming","","","","","","",""
"3831.0650000000023","","","post_reveal_questions","survey-likert","103","508212","0.0-6.0-6.13","2627352","co38662","norming","","","{""aha"":0}","[0]","../img/tt/140tt.jpg","",""
"null","<div style=""font-size:60px;""> </div>","null","fixation","html-keyboard-response","104","508414","0.0-6.0-0.14","2627352","co38662","norming","","","","","","",""
"null","../img/tt/060tt.jpg","null","mooney1","image-keyboard-response","105","511419","0.0-6.0-1.14","2627352","co38662","norming","","","","","","",""
"3360.2250000001513","","","post_mooney1_questions","survey-likert","106","514781","0.0-6.0-2.14","2627352","co38662","norming","","","{""curiosity"":5,""confidence"":0}","[0,1]","../img/tt/060tt.jpg","",""
"2517.9349999998813","","","recognition","survey-text","107","517300","0.0-6.0-3.14","2627352","co38662","norming","","","{""guess"":""""}","","../img/tt/060tt.jpg","",""
"null","../img/gs/060gs.jpg","null","reveal","image-keyboard-response","108","519302","0.0-6.0-4.14","2627352","co38662","norming","","","","","","",""
"null","../img/tt/060tt.jpg","null","mooney2","image-keyboard-response","109","521307","0.0-6.0-5.14","2627352","co38662","norming","","","","","","",""
"2552.4199999999837","","","post_reveal_questions","survey-likert","110","523860","0.0-6.0-6.14","2627352","co38662","norming","","","{""aha"":5}","[0]","../img/tt/060tt.jpg","",""
"null","<div style=""font-size:60px;""> </div>","null","fixation","html-keyboard-response","111","524068","0.0-6.0-0.15","2627352","co38662","norming","","","","","","",""
"null","../img/tt/1004tt.jpg","null","mooney1","image-keyboard-response","112","527072","0.0-6.0-1.15","2627352","co38662","norming","","","","","","",""
"9665.079999999958","","","post_mooney1_questions","survey-likert","113","536733","0.0-6.0-2.15","2627352","co38662","norming","","","{""curiosity"":5,""confidence"":1}","[0,1]","../img/tt/1004tt.jpg","",""
"1253.734999999986","","","recognition","survey-text","114","537989","0.0-6.0-3.15","2627352","co38662","norming","","","{""guess"":""dog""}","","../img/tt/1004tt.jpg","",""
"null","../img/gs/1004gs.jpg","null","reveal","image-keyboard-response","115","539990","0.0-6.0-4.15","2627352","co38662","norming","","","","","","",""
"null","../img/tt/1004tt.jpg","null","mooney2","image-keyboard-response","116","541991","0.0-6.0-5.15","2627352","co38662","norming","","","","","","",""
"2893.2399999999907","","","post_reveal_questions","survey-likert","117","544885","0.0-6.0-6.15","2627352","co38662","norming","","","{""aha"":5}","[0]","../img/tt/1004tt.jpg","",""
"null","<div style=""font-size:60px;""> </div>","null","fixation","html-keyboard-response","118","545089","0.0-6.0-0.16","2627352","co38662","norming","","","","","","",""
"null","../img/tt/064tt.jpg","null","mooney1","image-keyboard-response","119","548097","0.0-6.0-1.16","2627352","co38662","norming","","","","","","",""
"3139.6350000000093","","","post_mooney1_questions","survey-likert","120","551237","0.0-6.0-2.16","2627352","co38662","norming","","","{""curiosity"":3,""confidence"":0}","[0,1]","../img/tt/064tt.jpg","",""
"677.4899999998743","","","recognition","survey-text","121","551917","0.0-6.0-3.16","2627352","co38662","norming","","","{""guess"":""""}","","../img/tt/064tt.jpg","",""
"null","../img/gs/064gs.jpg","null","reveal","image-keyboard-response","122","553921","0.0-6.0-4.16","2627352","co38662","norming","","","","","","",""
"null","../img/tt/064tt.jpg","null","mooney2","image-keyboard-response","123","555923","0.0-6.0-5.16","2627352","co38662","norming","","","","","","",""
"2385.479999999865","","","post_reveal_questions","survey-likert","124","558309","0.0-6.0-6.16","2627352","co38662","norming","","","{""aha"":4}","[0]","../img/tt/064tt.jpg","",""
"null","<div style=""font-size:60px;""> </div>","null","fixation","html-keyboard-response","125","558510","0.0-6.0-0.17","2627352","co38662","norming","","","","","","",""
"null","../img/tt/1107tt.jpg","null","mooney1","image-keyboard-response","126","561518","0.0-6.0-1.17","2627352","co38662","norming","","","","","","",""
"5164.639999999898","","","post_mooney1_questions","survey-likert","127","566685","0.0-6.0-2.17","2627352","co38662","norming","","","{""curiosity"":0,""confidence"":0}","[0,1]","../img/tt/1107tt.jpg","",""
"750.109999999986","","","recognition","survey-text","128","567437","0.0-6.0-3.17","2627352","co38662","norming","","","{""guess"":""""}","","../img/tt/1107tt.jpg","",""
"null","../img/gs/1107gs.jpg","null","reveal","image-keyboard-response","129","569443","0.0-6.0-4.17","2627352","co38662","norming","","","","","","",""
"null","../img/tt/1107tt.jpg","null","mooney2","image-keyboard-response","130","571450","0.0-6.0-5.17","2627352","co38662","norming","","","","","","",""
"3201.0300000001444","","","post_reveal_questions","survey-likert","131","574653","0.0-6.0-6.17","2627352","co38662","norming","","","{""aha"":3}","[0]","../img/tt/1107tt.jpg","",""
"null","<div style=""font-size:60px;""> </div>","null","fixation","html-keyboard-response","132","574860","0.0-6.0-0.18","2627352","co38662","norming","","","","","","",""
"null","../img/tt/1101tt.jpg","null","mooney1","image-keyboard-response","133","577862","0.0-6.0-1.18","2627352","co38662","norming","","","","","","",""
"5388.39999999979","","","post_mooney1_questions","survey-likert","134","583253","0.0-6.0-2.18","2627352","co38662","norming","","","{""curiosity"":4,""confidence"":1}","[0,1]","../img/tt/1101tt.jpg","",""
"8541.96000000008","","","recognition","survey-text","135","591797","0.0-6.0-3.18","2627352","co38662","norming","","","{""guess"":""volleyball player""}","","../img/tt/1101tt.jpg","",""
"null","../img/gs/1101gs.jpg","null","reveal","image-keyboard-response","136","593807","0.0-6.0-4.18","2627352","co38662","norming","","","","","","",""
"null","../img/tt/1101tt.jpg","null","mooney2","image-keyboard-response","137","595808","0.0-6.0-5.18","2627352","co38662","norming","","","","","","",""
"2657.9199999999255","","","post_reveal_questions","survey-likert","138","598469","0.0-6.0-6.18","2627352","co38662","norming","","","{""aha"":2}","[0]","../img/tt/1101tt.jpg","",""
"null","<div style=""font-size:60px;""> </div>","null","fixation","html-keyboard-response","139","598672","0.0-6.0-0.19","2627352","co38662","norming","","","","","","",""
"null","../img/tt/1118tt.jpg","null","mooney1","image-keyboard-response","140","601675","0.0-6.0-1.19","2627352","co38662","norming","","","","","","",""
"4250.070000000065","","","post_mooney1_questions","survey-likert","141","605926","0.0-6.0-2.19","2627352","co38662","norming","","","{""curiosity"":0,""confidence"":0}","[0,1]","../img/tt/1118tt.jpg","",""
"622.1649999999208","","","recognition","survey-text","142","606549","0.0-6.0-3.19","2627352","co38662","norming","","","{""guess"":""""}","","../img/tt/1118tt.jpg","",""
"null","../img/gs/1118gs.jpg","null","reveal","image-keyboard-response","143","608556","0.0-6.0-4.19","2627352","co38662","norming","","","","","","",""
"null","../img/tt/1118tt.jpg","null","mooney2","image-keyboard-response","144","610562","0.0-6.0-5.19","2627352","co38662","norming","","","","","","",""
"1200.654999999795","","","post_reveal_questions","survey-likert","145","611765","0.0-6.0-6.19","2627352","co38662","norming","","","{""aha"":1}","[0]","../img/tt/1118tt.jpg","",""
"null","<div style=""font-size:60px;""> </div>","null","fixation","html-keyboard-response","146","611971","0.0-6.0-0.20","2627352","co38662","norming","","","","","","",""
"null","../img/tt/1161tt.jpg","null","mooney1","image-keyboard-response","147","614973","0.0-6.0-1.20","2627352","co38662","norming","","","","","","",""
"2910.3699999999953","","","post_mooney1_questions","survey-likert","148","617886","0.0-6.0-2.20","2627352","co38662","norming","","","{""curiosity"":4,""confidence"":1}","[0,1]","../img/tt/1161tt.jpg","",""
"2982.199999999837","","","recognition","survey-text","149","620869","0.0-6.0-3.20","2627352","co38662","norming","","","{""guess"":""rock climber""}","","../img/tt/1161tt.jpg","",""
"null","../img/gs/1161gs.jpg","null","reveal","image-keyboard-response","150","622872","0.0-6.0-4.20","2627352","co38662","norming","","","","","","",""
"null","../img/tt/1161tt.jpg","null","mooney2","image-keyboard-response","151","624878","0.0-6.0-5.20","2627352","co38662","norming","","","","","","",""
"4604.980000000098","","","post_reveal_questions","survey-likert","152","629485","0.0-6.0-6.20","2627352","co38662","norming","","","{""aha"":4}","[0]","../img/tt/1161tt.jpg","",""
"null","<div style=""font-size:60px;""> </div>","null","fixation","html-keyboard-response","153","629694","0.0-6.0-0.21","2627352","co38662","norming","","","","","","",""
"null","../img/tt/416tt.jpg","null","mooney1","image-keyboard-response","154","632701","0.0-6.0-1.21","2627352","co38662","norming","","","","","","",""
"6005.59999999986","","","post_mooney1_questions","survey-likert","155","638710","0.0-6.0-2.21","2627352","co38662","norming","","","{""curiosity"":2,""confidence"":2}","[0,1]","../img/tt/416tt.jpg","",""
"2142.0150000001304","","","recognition","survey-text","156","640853","0.0-6.0-3.21","2627352","co38662","norming","","","{""guess"":""ostrich""}","","../img/tt/416tt.jpg","",""
"null","../img/gs/416gs.jpg","null","reveal","image-keyboard-response","157","642864","0.0-6.0-4.21","2627352","co38662","norming","","","","","","",""
"null","../img/tt/416tt.jpg","null","mooney2","image-keyboard-response","158","644869","0.0-6.0-5.21","2627352","co38662","norming","","","","","","",""
"4046.719999999972","","","post_reveal_questions","survey-likert","159","648917","0.0-6.0-6.21","2627352","co38662","norming","","","{""aha"":1}","[0]","../img/tt/416tt.jpg","",""
"null","<div style=""font-size:60px;""> </div>","null","fixation","html-keyboard-response","160","649120","0.0-6.0-0.22","2627352","co38662","norming","","","","","","",""
"null","../img/tt/084tt.jpg","null","mooney1","image-keyboard-response","161","652123","0.0-6.0-1.22","2627352","co38662","norming","","","","","","",""
"3375.810000000056","","","post_mooney1_questions","survey-likert","162","655502","0.0-6.0-2.22","2627352","co38662","norming","","","{""curiosity"":3,""confidence"":2}","[0,1]","../img/tt/084tt.jpg","",""
"1350.0849999998463","","","recognition","survey-text","163","656853","0.0-6.0-3.22","2627352","co38662","norming","","","{""guess"":""duck""}","","../img/tt/084tt.jpg","",""
"null","../img/gs/084gs.jpg","null","reveal","image-keyboard-response","164","658862","0.0-6.0-4.22","2627352","co38662","norming","","","","","","",""
"null","../img/tt/084tt.jpg","null","mooney2","image-keyboard-response","165","660863","0.0-6.0-5.22","2627352","co38662","norming","","","","","","",""
"2251.2099999999627","","","post_reveal_questions","survey-likert","166","663117","0.0-6.0-6.22","2627352","co38662","norming","","","{""aha"":0}","[0]","../img/tt/084tt.jpg","",""
"null","<div style=""font-size:60px;""> </div>","null","fixation","html-keyboard-response","167","663326","0.0-6.0-0.23","2627352","co38662","norming","","","","","","",""
"null","../img/tt/598tt.jpg","null","mooney1","image-keyboard-response","168","666332","0.0-6.0-1.23","2627352","co38662","norming","","","","","","",""
"7062.955000000191","","","post_mooney1_questions","survey-likert","169","673397","0.0-6.0-2.23","2627352","co38662","norming","","","{""curiosity"":4,""confidence"":0}","[0,1]","../img/tt/598tt.jpg","",""
"645.8049999999348","","","recognition","survey-text","170","674045","0.0-6.0-3.23","2627352","co38662","norming","","","{""guess"":""""}","","../img/tt/598tt.jpg","",""
"null","../img/gs/598gs.jpg","null","reveal","image-keyboard-response","171","676054","0.0-6.0-4.23","2627352","co38662","norming","","","","","","",""
"null","../img/tt/598tt.jpg","null","mooney2","image-keyboard-response","172","678055","0.0-6.0-5.23","2627352","co38662","norming","","","","","","",""
"1658.8800000002375","","","post_reveal_questions","survey-likert","173","679717","0.0-6.0-6.23","2627352","co38662","norming","","","{""aha"":5}","[0]","../img/tt/598tt.jpg","",""
"null","<div style=""font-size:60px;""> </div>","null","fixation","html-keyboard-response","174","679922","0.0-6.0-0.24","2627352","co38662","norming","","","","","","",""
"null","../img/tt/319tt.jpg","null","mooney1","image-keyboard-response","175","682932","0.0-6.0-1.24","2627352","co38662","norming","","","","","","",""
"5710.050000000163","","","post_mooney1_questions","survey-likert","176","688645","0.0-6.0-2.24","2627352","co38662","norming","","","{""curiosity"":5,""confidence"":0}","[0,1]","../img/tt/319tt.jpg","",""
"582.1550000000279","","","recognition","survey-text","177","689229","0.0-6.0-3.24","2627352","co38662","norming","","","{""guess"":""""}","","../img/tt/319tt.jpg","",""
"null","../img/gs/319gs.jpg","null","reveal","image-keyboard-response","178","691231","0.0-6.0-4.24","2627352","co38662","norming","","","","","","",""
"null","../img/tt/319tt.jpg","null","mooney2","image-keyboard-response","179","693233","0.0-6.0-5.24","2627352","co38662","norming","","","","","","",""
"3329.255000000121","","","post_reveal_questions","survey-likert","180","696565","0.0-6.0-6.24","2627352","co38662","norming","","","{""aha"":5}","[0]","../img/tt/319tt.jpg","",""
"null","<div style=""font-size:60px;""> </div>","null","fixation","html-keyboard-response","181","696766","0.0-6.0-0.25","2627352","co38662","norming","","","","","","",""
"null","../img/tt/076tt.jpg","null","mooney1","image-keyboard-response","182","699769","0.0-6.0-1.25","2627352","co38662","norming","","","","","","",""
"4482.969999999972","","","post_mooney1_questions","survey-likert","183","704253","0.0-6.0-2.25","2627352","co38662","norming","","","{""curiosity"":3,""confidence"":1}","[0,1]","../img/tt/076tt.jpg","",""
"3086.2650000001304","","","recognition","survey-text","184","707341","0.0-6.0-3.25","2627352","co38662","norming","","","{""guess"":""skates""}","","../img/tt/076tt.jpg","",""
"null","../img/gs/076gs.jpg","null","reveal","image-keyboard-response","185","709343","0.0-6.0-4.25","2627352","co38662","norming","","","","","","",""
"null","../img/tt/076tt.jpg","null","mooney2","image-keyboard-response","186","711350","0.0-6.0-5.25","2627352","co38662","norming","","","","","","",""
"2884.2199999998556","","","post_reveal_questions","survey-likert","187","714237","0.0-6.0-6.25","2627352","co38662","norming","","","{""aha"":1}","[0]","../img/tt/076tt.jpg","",""
"null","<div style=""font-size:60px;""> </div>","null","fixation","html-keyboard-response","188","714444","0.0-6.0-0.26","2627352","co38662","norming","","","","","","",""
"null","../img/tt/1126tt.jpg","null","mooney1","image-keyboard-response","189","717448","0.0-6.0-1.26","2627352","co38662","norming","","","","","","",""
"4586.14000000013","","","post_mooney1_questions","survey-likert","190","722036","0.0-6.0-2.26","2627352","co38662","norming","","","{""curiosity"":1,""confidence"":0}","[0,1]","../img/tt/1126tt.jpg","",""
"893.9850000001024","","","recognition","survey-text","191","722931","0.0-6.0-3.26","2627352","co38662","norming","","","{""guess"":""""}","","../img/tt/1126tt.jpg","",""
"null","../img/gs/1126gs.jpg","null","reveal","image-keyboard-response","192","724937","0.0-6.0-4.26","2627352","co38662","norming","","","","","","",""
"null","../img/tt/1126tt.jpg","null","mooney2","image-keyboard-response","193","726947","0.0-6.0-5.26","2627352","co38662","norming","","","","","","",""
"2958.230000000214","","","post_reveal_questions","survey-likert","194","729907","0.0-6.0-6.26","2627352","co38662","norming","","","{""aha"":1}","[0]","../img/tt/1126tt.jpg","",""
"null","<div style=""font-size:60px;""> </div>","null","fixation","html-keyboard-response","195","730110","0.0-6.0-0.27","2627352","co38662","norming","","","","","","",""
"null","../img/tt/378tt.jpg","null","mooney1","image-keyboard-response","196","733120","0.0-6.0-1.27","2627352","co38662","norming","","","","","","",""
"3602.485000000219","","","post_mooney1_questions","survey-likert","197","736724","0.0-6.0-2.27","2627352","co38662","norming","","","{""curiosity"":6,""confidence"":0}","[0,1]","../img/tt/378tt.jpg","",""
"614.109999999986","","","recognition","survey-text","198","737339","0.0-6.0-3.27","2627352","co38662","norming","","","{""guess"":""""}","","../img/tt/378tt.jpg","",""
"null","../img/gs/378gs.jpg","null","reveal","image-keyboard-response","199","739341","0.0-6.0-4.27","2627352","co38662","norming","","","","","","",""
"null","../img/tt/378tt.jpg","null","mooney2","image-keyboard-response","200","741350","0.0-6.0-5.27","2627352","co38662","norming","","","","","","",""
"2091.4850000001024","","","post_reveal_questions","survey-likert","201","743443","0.0-6.0-6.27","2627352","co38662","norming","","","{""aha"":6}","[0]","../img/tt/378tt.jpg","",""
"null","<div style=""font-size:60px;""> </div>","null","fixation","html-keyboard-response","202","743654","0.0-6.0-0.28","2627352","co38662","norming","","","","","","",""
"null","../img/tt/1046tt.jpg","null","mooney1","image-keyboard-response","203","746658","0.0-6.0-1.28","2627352","co38662","norming","","","","","","",""
"7534.390000000014","","","post_mooney1_questions","survey-likert","204","754196","0.0-6.0-2.28","2627352","co38662","norming","","","{""curiosity"":3,""confidence"":1}","[0,1]","../img/tt/1046tt.jpg","",""
"1062.130000000121","","","recognition","survey-text","205","755259","0.0-6.0-3.28","2627352","co38662","norming","","","{""guess"":""fries""}","","../img/tt/1046tt.jpg","",""
"null","../img/gs/1046gs.jpg","null","reveal","image-keyboard-response","206","757269","0.0-6.0-4.28","2627352","co38662","norming","","","","","","",""
"null","../img/tt/1046tt.jpg","null","mooney2","image-keyboard-response","207","759276","0.0-6.0-5.28","2627352","co38662","norming","","","","","","",""
"2637.460000000079","","","post_reveal_questions","survey-likert","208","761915","0.0-6.0-6.28","2627352","co38662","norming","","","{""aha"":3}","[0]","../img/tt/1046tt.jpg","",""
"null","<div style=""font-size:60px;""> </div>","null","fixation","html-keyboard-response","209","762124","0.0-6.0-0.29","2627352","co38662","norming","","","","","","",""
"null","../img/tt/1173tt.jpg","null","mooney1","image-keyboard-response","210","765127","0.0-6.0-1.29","2627352","co38662","norming","","","","","","",""
"4281.530000000028","","","post_mooney1_questions","survey-likert","211","769412","0.0-6.0-2.29","2627352","co38662","norming","","","{""curiosity"":1,""confidence"":1}","[0,1]","../img/tt/1173tt.jpg","",""
"2901.914999999921","","","recognition","survey-text","212","772315","0.0-6.0-3.29","2627352","co38662","norming","","","{""guess"":""volleyball""}","","../img/tt/1173tt.jpg","",""
"null","../img/gs/1173gs.jpg","null","reveal","image-keyboard-response","213","774316","0.0-6.0-4.29","2627352","co38662","norming","","","","","","",""
"null","../img/tt/1173tt.jpg","null","mooney2","image-keyboard-response","214","776326","0.0-6.0-5.29","2627352","co38662","norming","","","","","","",""
"2875.0100000000093","","","post_reveal_questions","survey-likert","215","779203","0.0-6.0-6.29","2627352","co38662","norming","","","{""aha"":1}","[0]","../img/tt/1173tt.jpg","",""
"null","<div style=""font-size:60px;""> </div>","null","fixation","html-keyboard-response","216","779407","0.0-6.0-0.30","2627352","co38662","norming","","","","","","",""
"null","../img/tt/1196tt.jpg","null","mooney1","image-keyboard-response","217","782419","0.0-6.0-1.30","2627352","co38662","norming","","","","","","",""
"6303.795000000042","","","post_mooney1_questions","survey-likert","218","788725","0.0-6.0-2.30","2627352","co38662","norming","","","{""curiosity"":1,""confidence"":0}","[0,1]","../img/tt/1196tt.jpg","",""
"606.234999999986","","","recognition","survey-text","219","789333","0.0-6.0-3.30","2627352","co38662","norming","","","{""guess"":""""}","","../img/tt/1196tt.jpg","",""
"null","../img/gs/1196gs.jpg","null","reveal","image-keyboard-response","220","791335","0.0-6.0-4.30","2627352","co38662","norming","","","","","","",""
"null","../img/tt/1196tt.jpg","null","mooney2","image-keyboard-response","221","793344","0.0-6.0-5.30","2627352","co38662","norming","","","","","","",""
"4099.089999999967","","","post_reveal_questions","survey-likert","222","797446","0.0-6.0-6.30","2627352","co38662","norming","","","{""aha"":2}","[0]","../img/tt/1196tt.jpg","",""
"null","<div style=""font-size:60px;""> </div>","null","fixation","html-keyboard-response","223","797649","0.0-6.0-0.31","2627352","co38662","norming","","","","","","",""
"null","../img/tt/1226tt.jpg","null","mooney1","image-keyboard-response","224","800653","0.0-6.0-1.31","2627352","co38662","norming","","","","","","",""
"6325.464999999967","","","post_mooney1_questions","survey-likert","225","806982","0.0-6.0-2.31","2627352","co38662","norming","","","{""curiosity"":0,""confidence"":0}","[0,1]","../img/tt/1226tt.jpg","",""
"1269.9399999999441","","","recognition","survey-text","226","808253","0.0-6.0-3.31","2627352","co38662","norming","","","{""guess"":""""}","","../img/tt/1226tt.jpg","",""
"null","../img/gs/1226gs.jpg","null","reveal","image-keyboard-response","227","810255","0.0-6.0-4.31","2627352","co38662","norming","","","","","","",""
"null","../img/tt/1226tt.jpg","null","mooney2","image-keyboard-response","228","812266","0.0-6.0-5.31","2627352","co38662","norming","","","","","","",""
"1889.2699999999022","","","post_reveal_questions","survey-likert","229","814158","0.0-6.0-6.31","2627352","co38662","norming","","","{""aha"":5}","[0]","../img/tt/1226tt.jpg","",""
"null","<div style=""font-size:60px;""> </div>","null","fixation","html-keyboard-response","230","814365","0.0-6.0-0.32","2627352","co38662","norming","","","","","","",""
"null","../img/tt/1116tt.jpg","null","mooney1","image-keyboard-response","231","817371","0.0-6.0-1.32","2627352","co38662","norming","","","","","","",""
"5847.579999999842","","","post_mooney1_questions","survey-likert","232","823222","0.0-6.0-2.32","2627352","co38662","norming","","","{""curiosity"":3,""confidence"":1}","[0,1]","../img/tt/1116tt.jpg","",""
"1222.1499999999069","","","recognition","survey-text","233","824445","0.0-6.0-3.32","2627352","co38662","norming","","","{""guess"":""car""}","","../img/tt/1116tt.jpg","",""
"null","../img/gs/1116gs.jpg","null","reveal","image-keyboard-response","234","826447","0.0-6.0-4.32","2627352","co38662","norming","","","","","","",""
"null","../img/tt/1116tt.jpg","null","mooney2","image-keyboard-response","235","828454","0.0-6.0-5.32","2627352","co38662","norming","","","","","","",""
"1420.630000000121","","","post_reveal_questions","survey-likert","236","829877","0.0-6.0-6.32","2627352","co38662","norming","","","{""aha"":3}","[0]","../img/tt/1116tt.jpg","",""
"null","<div style=""font-size:60px;""> </div>","null","fixation","html-keyboard-response","237","830081","0.0-6.0-0.33","2627352","co38662","norming","","","","","","",""
"null","../img/tt/357tt.jpg","null","mooney1","image-keyboard-response","238","833090","0.0-6.0-1.33","2627352","co38662","norming","","","","","","",""
"5744.1699999999255","","","post_mooney1_questions","survey-likert","239","838838","0.0-6.0-2.33","2627352","co38662","norming","","","{""curiosity"":1,""confidence"":1}","[0,1]","../img/tt/357tt.jpg","",""
"2774.074999999837","","","recognition","survey-text","240","841614","0.0-6.0-3.33","2627352","co38662","norming","","","{""guess"":""turtle""}","","../img/tt/357tt.jpg","",""
"null","../img/gs/357gs.jpg","null","reveal","image-keyboard-response","241","843617","0.0-6.0-4.33","2627352","co38662","norming","","","","","","",""
"null","../img/tt/357tt.jpg","null","mooney2","image-keyboard-response","242","845619","0.0-6.0-5.33","2627352","co38662","norming","","","","","","",""
"2536.659999999916","","","post_reveal_questions","survey-likert","243","848158","0.0-6.0-6.33","2627352","co38662","norming","","","{""aha"":2}","[0]","../img/tt/357tt.jpg","",""
"null","<div style=""font-size:60px;""> </div>","null","fixation","html-keyboard-response","244","848367","0.0-6.0-0.34","2627352","co38662","norming","","","","","","",""
"null","../img/tt/1366tt.jpg","null","mooney1","image-keyboard-response","245","851370","0.0-6.0-1.34","2627352","co38662","norming","","","","","","",""
"8568.895000000135","","","post_mooney1_questions","survey-likert","246","859942","0.0-6.0-2.34","2627352","co38662","norming","","","{""curiosity"":1,""confidence"":1}","[0,1]","../img/tt/1366tt.jpg","",""
"3878.195000000065","","","recognition","survey-text","247","863822","0.0-6.0-3.34","2627352","co38662","norming","","","{""guess"":""burrito""}","","../img/tt/1366tt.jpg","",""
"null","../img/gs/1366gs.jpg","null","reveal","image-keyboard-response","248","865823","0.0-6.0-4.34","2627352","co38662","norming","","","","","","",""
"null","../img/tt/1366tt.jpg","null","mooney2","image-keyboard-response","249","867830","0.0-6.0-5.34","2627352","co38662","norming","","","","","","",""
"1957.3949999999022","","","post_reveal_questions","survey-likert","250","869790","0.0-6.0-6.34","2627352","co38662","norming","","","{""aha"":1}","[0]","../img/tt/1366tt.jpg","",""
"null","<div style=""font-size:60px;""> </div>","null","fixation","html-keyboard-response","251","869998","0.0-6.0-0.35","2627352","co38662","norming","","","","","","",""
"null","../img/tt/1102tt.jpg","null","mooney1","image-keyboard-response","252","873005","0.0-6.0-1.35","2627352","co38662","norming","","","","","","",""
"5726.214999999851","","","post_mooney1_questions","survey-likert","253","878734","0.0-6.0-2.35","2627352","co38662","norming","","","{""curiosity"":1,""confidence"":1}","[0,1]","../img/tt/1102tt.jpg","",""
"1614.0999999999767","","","recognition","survey-text","254","880350","0.0-6.0-3.35","2627352","co38662","norming","","","{""guess"":""tree""}","","../img/tt/1102tt.jpg","",""
"null","../img/gs/1102gs.jpg","null","reveal","image-keyboard-response","255","882361","0.0-6.0-4.35","2627352","co38662","norming","","","","","","",""
"null","../img/tt/1102tt.jpg","null","mooney2","image-keyboard-response","256","884368","0.0-6.0-5.35","2627352","co38662","norming","","","","","","",""
"3003.5650000000605","","","post_reveal_questions","survey-likert","257","887374","0.0-6.0-6.35","2627352","co38662","norming","","","{""aha"":3}","[0]","../img/tt/1102tt.jpg","",""
"null","<div style=""font-size:60px;""> </div>","null","fixation","html-keyboard-response","258","887578","0.0-6.0-0.36","2627352","co38662","norming","","","","","","",""
"null","../img/tt/1309tt.jpg","null","mooney1","image-keyboard-response","259","890585","0.0-6.0-1.36","2627352","co38662","norming","","","","","","",""
"3426.069999999949","","","post_mooney1_questions","survey-likert","260","894014","0.0-6.0-2.36","2627352","co38662","norming","","","{""curiosity"":1,""confidence"":1}","[0,1]","../img/tt/1309tt.jpg","",""
"1261.8850000001257","","","recognition","survey-text","261","895278","0.0-6.0-3.36","2627352","co38662","norming","","","{""guess"":""car""}","","../img/tt/1309tt.jpg","",""
"null","../img/gs/1309gs.jpg","null","reveal","image-keyboard-response","262","897285","0.0-6.0-4.36","2627352","co38662","norming","","","","","","",""
"null","../img/tt/1309tt.jpg","null","mooney2","image-keyboard-response","263","899288","0.0-6.0-5.36","2627352","co38662","norming","","","","","","",""
"3187.8649999998743","","","post_reveal_questions","survey-likert","264","902478","0.0-6.0-6.36","2627352","co38662","norming","","","{""aha"":0}","[0]","../img/tt/1309tt.jpg","",""
"null","<div style=""font-size:60px;""> </div>","null","fixation","html-keyboard-response","265","902685","0.0-6.0-0.37","2627352","co38662","norming","","","","","","",""
"null","../img/tt/1188tt.jpg","null","mooney1","image-keyboard-response","266","905688","0.0-6.0-1.37","2627352","co38662","norming","","","","","","",""
"13989.13500000001","","","post_mooney1_questions","survey-likert","267","919679","0.0-6.0-2.37","2627352","co38662","norming","","","{""curiosity"":1,""confidence"":1}","[0,1]","../img/tt/1188tt.jpg","",""
"3213.940000000177","","","recognition","survey-text","268","922895","0.0-6.0-3.37","2627352","co38662","norming","","","{""guess"":""soccer player""}","","../img/tt/1188tt.jpg","",""
"null","../img/gs/1188gs.jpg","null","reveal","image-keyboard-response","269","924897","0.0-6.0-4.37","2627352","co38662","norming","","","","","","",""
"null","../img/tt/1188tt.jpg","null","mooney2","image-keyboard-response","270","926907","0.0-6.0-5.37","2627352","co38662","norming","","","","","","",""
"4266.1900000000605","","","post_reveal_questions","survey-likert","271","931174","0.0-6.0-6.37","2627352","co38662","norming","","","{""aha"":1}","[0]","../img/tt/1188tt.jpg","",""
"null","<div style=""font-size:60px;""> </div>","null","fixation","html-keyboard-response","272","931382","0.0-6.0-0.38","2627352","co38662","norming","","","","","","",""
"null","../img/tt/184tt.jpg","null","mooney1","image-keyboard-response","273","934391","0.0-6.0-1.38","2627352","co38662","norming","","","","","","",""
"3582.5300000001444","","","post_mooney1_questions","survey-likert","274","937974","0.0-6.0-2.38","2627352","co38662","norming","","","{""curiosity"":1,""confidence"":2}","[0,1]","../img/tt/184tt.jpg","",""
"1621.839999999851","","","recognition","survey-text","275","939599","0.0-6.0-3.38","2627352","co38662","norming","","","{""guess"":""chicken""}","","../img/tt/184tt.jpg","",""
"null","../img/gs/184gs.jpg","null","reveal","image-keyboard-response","276","941602","0.0-6.0-4.38","2627352","co38662","norming","","","","","","",""
"null","../img/tt/184tt.jpg","null","mooney2","image-keyboard-response","277","943605","0.0-6.0-5.38","2627352","co38662","norming","","","","","","",""
"3744.2650000001304","","","post_reveal_questions","survey-likert","278","947351","0.0-6.0-6.38","2627352","co38662","norming","","","{""aha"":4}","[0]","../img/tt/184tt.jpg","",""
"null","<div style=""font-size:60px;""> </div>","null","fixation","html-keyboard-response","279","947557","0.0-6.0-0.39","2627352","co38662","norming","","","","","","",""
"null","../img/tt/584tt.jpg","null","mooney1","image-keyboard-response","280","950561","0.0-6.0-1.39","2627352","co38662","norming","","","","","","",""
"5890.20000000007","","","post_mooney1_questions","survey-likert","281","956455","0.0-6.0-2.39","2627352","co38662","norming","","","{""curiosity"":1,""confidence"":2}","[0,1]","../img/tt/584tt.jpg","",""
"1286.1500000001397","","","recognition","survey-text","282","957743","0.0-6.0-3.39","2627352","co38662","norming","","","{""guess"":""flower""}","","../img/tt/584tt.jpg","",""
"null","../img/gs/584gs.jpg","null","reveal","image-keyboard-response","283","959750","0.0-6.0-4.39","2627352","co38662","norming","","","","","","",""
"null","../img/tt/584tt.jpg","null","mooney2","image-keyboard-response","284","961751","0.0-6.0-5.39","2627352","co38662","norming","","","","","","",""
"2022.2499999998836","","","post_reveal_questions","survey-likert","285","963775","0.0-6.0-6.39","2627352","co38662","norming","","","{""aha"":1}","[0]","../img/tt/584tt.jpg","",""
"null","<div style=""font-size:60px;""> </div>","null","fixation","html-keyboard-response","286","963980","0.0-6.0-0.40","2627352","co38662","norming","","","","","","",""
"null","../img/tt/1307tt.jpg","null","mooney1","image-keyboard-response","287","966983","0.0-6.0-1.40","2627352","co38662","norming","","","","","","",""
"4005.1250000001164","","","post_mooney1_questions","survey-likert","288","970991","0.0-6.0-2.40","2627352","co38662","norming","","","{""curiosity"":1,""confidence"":1}","[0,1]","../img/tt/1307tt.jpg","",""
"1854.1800000000512","","","recognition","survey-text","289","972847","0.0-6.0-3.40","2627352","co38662","norming","","","{""guess"":""wheel""}","","../img/tt/1307tt.jpg","",""
"null","../img/gs/1307gs.jpg","null","reveal","image-keyboard-response","290","974848","0.0-6.0-4.40","2627352","co38662","norming","","","","","","",""
"null","../img/tt/1307tt.jpg","null","mooney2","image-keyboard-response","291","976849","0.0-6.0-5.40","2627352","co38662","norming","","","","","","",""
"1907.8550000000978","","","post_reveal_questions","survey-likert","292","978759","0.0-6.0-6.40","2627352","co38662","norming","","","{""aha"":4}","[0]","../img/tt/1307tt.jpg","",""
"null","<div style=""font-size:60px;""> </div>","null","fixation","html-keyboard-response","293","978961","0.0-6.0-0.41","2627352","co38662","norming","","","","","","",""
"null","../img/tt/1202tt.jpg","null","mooney1","image-keyboard-response","294","981973","0.0-6.0-1.41","2627352","co38662","norming","","","","","","",""
"8998.779999999912","","","post_mooney1_questions","survey-likert","295","990975","0.0-6.0-2.41","2627352","co38662","norming","","","{""curiosity"":1,""confidence"":2}","[0,1]","../img/tt/1202tt.jpg","",""
"3038.1949999998324","","","recognition","survey-text","296","994015","0.0-6.0-3.41","2627352","co38662","norming","","","{""guess"":""martial arts""}","","../img/tt/1202tt.jpg","",""
"null","../img/gs/1202gs.jpg","null","reveal","image-keyboard-response","297","996017","0.0-6.0-4.41","2627352","co38662","norming","","","","","","",""
"null","../img/tt/1202tt.jpg","null","mooney2","image-keyboard-response","298","998019","0.0-6.0-5.41","2627352","co38662","norming","","","","","","",""
"1827.0250000000233","","","post_reveal_questions","survey-likert","299","999847","0.0-6.0-6.41","2627352","co38662","norming","","","{""aha"":0}","[0]","../img/tt/1202tt.jpg","",""
"null","<div style=""font-size:60px;""> </div>","null","fixation","html-keyboard-response","300","1000053","0.0-6.0-0.42","2627352","co38662","norming","","","","","","",""
"null","../img/tt/497tt.jpg","null","mooney1","image-keyboard-response","301","1003055","0.0-6.0-1.42","2627352","co38662","norming","","","","","","",""
"3614.6300000000047","","","post_mooney1_questions","survey-likert","302","1006671","0.0-6.0-2.42","2627352","co38662","norming","","","{""curiosity"":1,""confidence"":0}","[0,1]","../img/tt/497tt.jpg","",""
"1182.3750000001164","","","recognition","survey-text","303","1007855","0.0-6.0-3.42","2627352","co38662","norming","","","{""guess"":""""}","","../img/tt/497tt.jpg","",""
"null","../img/gs/497gs.jpg","null","reveal","image-keyboard-response","304","1009857","0.0-6.0-4.42","2627352","co38662","norming","","","","","","",""
"null","../img/tt/497tt.jpg","null","mooney2","image-keyboard-response","305","1011858","0.0-6.0-5.42","2627352","co38662","norming","","","","","","",""
"3410.9000000000233","","","post_reveal_questions","survey-likert","306","1015271","0.0-6.0-6.42","2627352","co38662","norming","","","{""aha"":4}","[0]","../img/tt/497tt.jpg","",""
"null","<div style=""font-size:60px;""> </div>","null","fixation","html-keyboard-response","307","1015478","0.0-6.0-0.43","2627352","co38662","norming","","","","","","",""
"null","../img/tt/1123tt.jpg","null","mooney1","image-keyboard-response","308","1018485","0.0-6.0-1.43","2627352","co38662","norming","","","","","","",""
"5888.510000000009","","","post_mooney1_questions","survey-likert","309","1024375","0.0-6.0-2.43","2627352","co38662","norming","","","{""curiosity"":1,""confidence"":2}","[0,1]","../img/tt/1123tt.jpg","",""
"3958.030000000028","","","recognition","survey-text","310","1028327","0.0-6.0-3.43","2627352","co38662","norming","","","{""guess"":""volleyball player""}","","../img/tt/1123tt.jpg","",""
"null","../img/gs/1123gs.jpg","null","reveal","image-keyboard-response","311","1030330","0.0-6.0-4.43","2627352","co38662","norming","","","","","","",""
"null","../img/tt/1123tt.jpg","null","mooney2","image-keyboard-response","312","1032332","0.0-6.0-5.43","2627352","co38662","norming","","","","","","",""
"2336.430000000051","","","post_reveal_questions","survey-likert","313","1034671","0.0-6.0-6.43","2627352","co38662","norming","","","{""aha"":4}","[0]","../img/tt/1123tt.jpg","",""
"null","<div style=""font-size:60px;""> </div>","null","fixation","html-keyboard-response","314","1034876","0.0-6.0-0.44","2627352","co38662","norming","","","","","","",""
"null","../img/tt/079tt.jpg","null","mooney1","image-keyboard-response","315","1037878","0.0-6.0-1.44","2627352","co38662","norming","","","","","","",""
"3808.1450000000186","","","post_mooney1_questions","survey-likert","316","1041687","0.0-6.0-2.44","2627352","co38662","norming","","","{""curiosity"":1,""confidence"":3}","[0,1]","../img/tt/079tt.jpg","",""
"1326.155000000028","","","recognition","survey-text","317","1043015","0.0-6.0-3.44","2627352","co38662","norming","","","{""guess"":""bear""}","","../img/tt/079tt.jpg","",""
"null","../img/gs/079gs.jpg","null","reveal","image-keyboard-response","318","1045018","0.0-6.0-4.44","2627352","co38662","norming","","","","","","",""
"null","../img/tt/079tt.jpg","null","mooney2","image-keyboard-response","319","1047020","0.0-6.0-5.44","2627352","co38662","norming","","","","","","",""
"1842.1500000001397","","","post_reveal_questions","survey-likert","320","1048863","0.0-6.0-6.44","2627352","co38662","norming","","","{""aha"":0}","[0]","../img/tt/079tt.jpg","",""
"null","<div style=""font-size:60px;""> </div>","null","fixation","html-keyboard-response","321","1049064","0.0-6.0-0.45","2627352","co38662","norming","","","","","","",""
"null","../img/tt/1205tt.jpg","null","mooney1","image-keyboard-response","322","1052073","0.0-6.0-1.45","2627352","co38662","norming","","","","","","",""
"5731.125000000233","","","post_mooney1_questions","survey-likert","323","1057807","0.0-6.0-2.45","2627352","co38662","norming","","","{""curiosity"":3,""confidence"":0}","[0,1]","../img/tt/1205tt.jpg","",""
"845.5949999999721","","","recognition","survey-text","324","1058655","0.0-6.0-3.45","2627352","co38662","norming","","","{""guess"":""""}","","../img/tt/1205tt.jpg","",""
"null","../img/gs/1205gs.jpg","null","reveal","image-keyboard-response","325","1060661","0.0-6.0-4.45","2627352","co38662","norming","","","","","","",""
"null","../img/tt/1205tt.jpg","null","mooney2","image-keyboard-response","326","1062662","0.0-6.0-5.45","2627352","co38662","norming","","","","","","",""
"1775.7300000002142","","","post_reveal_questions","survey-likert","327","1064439","0.0-6.0-6.45","2627352","co38662","norming","","","{""aha"":4}","[0]","../img/tt/1205tt.jpg","",""
"null","<div style=""font-size:60px;""> </div>","null","fixation","html-keyboard-response","328","1064643","0.0-6.0-0.46","2627352","co38662","norming","","","","","","",""
"null","../img/tt/279tt.jpg","null","mooney1","image-keyboard-response","329","1067649","0.0-6.0-1.46","2627352","co38662","norming","","","","","","",""
"2644.7949999999255","","","post_mooney1_questions","survey-likert","330","1070295","0.0-6.0-2.46","2627352","co38662","norming","","","{""curiosity"":0,""confidence"":5}","[0,1]","../img/tt/279tt.jpg","",""
"1582.1299999998882","","","recognition","survey-text","331","1071879","0.0-6.0-3.46","2627352","co38662","norming","","","{""guess"":""koala""}","","../img/tt/279tt.jpg","",""
"null","../img/gs/279gs.jpg","null","reveal","image-keyboard-response","332","1073881","0.0-6.0-4.46","2627352","co38662","norming","","","","","","",""
"null","../img/tt/279tt.jpg","null","mooney2","image-keyboard-response","333","1075886","0.0-6.0-5.46","2627352","co38662","norming","","","","","","",""
"1559.4799999997485","","","post_reveal_questions","survey-likert","334","1077447","0.0-6.0-6.46","2627352","co38662","norming","","","{""aha"":0}","[0]","../img/tt/279tt.jpg","",""
"null","<div style=""font-size:60px;""> </div>","null","fixation","html-keyboard-response","335","1077653","0.0-6.0-0.47","2627352","co38662","norming","","","","","","",""
"null","../img/tt/1125tt.jpg","null","mooney1","image-keyboard-response","336","1080654","0.0-6.0-1.47","2627352","co38662","norming","","","","","","",""
"4479.7949999999255","","","post_mooney1_questions","survey-likert","337","1085135","0.0-6.0-2.47","2627352","co38662","norming","","","{""curiosity"":2,""confidence"":0}","[0,1]","../img/tt/1125tt.jpg","",""
"1013.7099999999627","","","recognition","survey-text","338","1086151","0.0-6.0-3.47","2627352","co38662","norming","","","{""guess"":""""}","","../img/tt/1125tt.jpg","",""
"null","../img/gs/1125gs.jpg","null","reveal","image-keyboard-response","339","1088163","0.0-6.0-4.47","2627352","co38662","norming","","","","","","",""
"null","../img/tt/1125tt.jpg","null","mooney2","image-keyboard-response","340","1090168","0.0-6.0-5.47","2627352","co38662","norming","","","","","","",""
"3229.4499999999534","","","post_reveal_questions","survey-likert","341","1093399","0.0-6.0-6.47","2627352","co38662","norming","","","{""aha"":4}","[0]","../img/tt/1125tt.jpg","",""
"null","<div style=""font-size:60px;""> </div>","null","fixation","html-keyboard-response","342","1093603","0.0-6.0-0.48","2627352","co38662","norming","","","","","","",""
"null","../img/tt/1027tt.jpg","null","mooney1","image-keyboard-response","343","1096608","0.0-6.0-1.48","2627352","co38662","norming","","","","","","",""
"5621.495000000112","","","post_mooney1_questions","survey-likert","344","1102231","0.0-6.0-2.48","2627352","co38662","norming","","","{""curiosity"":3,""confidence"":0}","[0,1]","../img/tt/1027tt.jpg","",""
"1118.0150000001304","","","recognition","survey-text","345","1103350","0.0-6.0-3.48","2627352","co38662","norming","","","{""guess"":""""}","","../img/tt/1027tt.jpg","",""
"null","../img/gs/1027gs.jpg","null","reveal","image-keyboard-response","346","1105357","0.0-6.0-4.48","2627352","co38662","norming","","","","","","",""
"null","../img/tt/1027tt.jpg","null","mooney2","image-keyboard-response","347","1107364","0.0-6.0-5.48","2627352","co38662","norming","","","","","","",""
"2025.1349999997765","","","post_reveal_questions","survey-likert","348","1109390","0.0-6.0-6.48","2627352","co38662","norming","","","{""aha"":4}","[0]","../img/tt/1027tt.jpg","",""
"null","<div style=""font-size:60px;""> </div>","null","fixation","html-keyboard-response","349","1109593","0.0-6.0-0.49","2627352","co38662","norming","","","","","","",""
"null","../img/tt/477tt.jpg","null","mooney1","image-keyboard-response","350","1112600","0.0-6.0-1.49","2627352","co38662","norming","","","","","","",""
"3989.929999999935","","","post_mooney1_questions","survey-likert","351","1116591","0.0-6.0-2.49","2627352","co38662","norming","","","{""curiosity"":3,""confidence"":1}","[0,1]","../img/tt/477tt.jpg","",""
"1533.9850000001024","","","recognition","survey-text","352","1118127","0.0-6.0-3.49","2627352","co38662","norming","","","{""guess"":""panda""}","","../img/tt/477tt.jpg","",""
"null","../img/gs/477gs.jpg","null","reveal","image-keyboard-response","353","1120137","0.0-6.0-4.49","2627352","co38662","norming","","","","","","",""
"null","../img/tt/477tt.jpg","null","mooney2","image-keyboard-response","354","1122139","0.0-6.0-5.49","2627352","co38662","norming","","","","","","",""
"5258.540000000037","","","post_reveal_questions","survey-likert","355","1127399","0.0-6.0-6.49","2627352","co38662","norming","","","{""aha"":5}","[0]","../img/tt/477tt.jpg","",""
"null","<div style=""font-size:60px;""> </div>","null","fixation","html-keyboard-response","356","1127605","0.0-6.0-0.50","2627352","co38662","norming","","","","","","",""
"null","../img/tt/507tt.jpg","null","mooney1","image-keyboard-response","357","1130611","0.0-6.0-1.50","2627352","co38662","norming","","","","","","",""
"4194.314999999944","","","post_mooney1_questions","survey-likert","358","1134807","0.0-6.0-2.50","2627352","co38662","norming","","","{""curiosity"":3,""confidence"":0}","[0,1]","../img/tt/507tt.jpg","",""
"853.5399999998044","","","recognition","survey-text","359","1135662","0.0-6.0-3.50","2627352","co38662","norming","","","{""guess"":""""}","","../img/tt/507tt.jpg","",""
"null","../img/gs/507gs.jpg","null","reveal","image-keyboard-response","360","1137668","0.0-6.0-4.50","2627352","co38662","norming","","","","","","",""
"null","../img/tt/507tt.jpg","null","mooney2","image-keyboard-response","361","1139677","0.0-6.0-5.50","2627352","co38662","norming","","","","","","",""
"1463.8249999999534","","","post_reveal_questions","survey-likert","362","1141143","0.0-6.0-6.50","2627352","co38662","norming","","","{""aha"":4}","[0]","../img/tt/507tt.jpg","",""
"null","<div style=""font-size:60px;""> </div>","null","fixation","html-keyboard-response","363","1141345","0.0-6.0-0.51","2627352","co38662","norming","","","","","","",""
"null","../img/tt/1199tt.jpg","null","mooney1","image-keyboard-response","364","1144349","0.0-6.0-1.51","2627352","co38662","norming","","","","","","",""
"5344.264999999898","","","post_mooney1_questions","survey-likert","365","1149692","0.0-6.0-2.51","2627352","co38662","norming","","","{""curiosity"":1,""confidence"":1}","[0,1]","../img/tt/1199tt.jpg","",""
"1629.7649999998976","","","recognition","survey-text","366","1151324","0.0-6.0-3.51","2627352","co38662","norming","","","{""guess"":""gymnast""}","","../img/tt/1199tt.jpg","",""
"null","../img/gs/1199gs.jpg","null","reveal","image-keyboard-response","367","1153334","0.0-6.0-4.51","2627352","co38662","norming","","","","","","",""
"null","../img/tt/1199tt.jpg","null","mooney2","image-keyboard-response","368","1155336","0.0-6.0-5.51","2627352","co38662","norming","","","","","","",""
"1395.2250000000931","","","post_reveal_questions","survey-likert","369","1156733","0.0-6.0-6.51","2627352","co38662","norming","","","{""aha"":3}","[0]","../img/tt/1199tt.jpg","",""
"null","<div style=""font-size:60px;""> </div>","null","fixation","html-keyboard-response","370","1156935","0.0-6.0-0.52","2627352","co38662","norming","","","","","","",""
"null","../img/tt/044tt.jpg","null","mooney1","image-keyboard-response","371","1159943","0.0-6.0-1.52","2627352","co38662","norming","","","","","","",""
"5300.559999999823","","","post_mooney1_questions","survey-likert","372","1165245","0.0-6.0-2.52","2627352","co38662","norming","","","{""curiosity"":2,""confidence"":2}","[0,1]","../img/tt/044tt.jpg","",""
"2525.6750000000466","","","recognition","survey-text","373","1167772","0.0-6.0-3.52","2627352","co38662","norming","","","{""guess"":""computer""}","","../img/tt/044tt.jpg","",""
"null","../img/gs/044gs.jpg","null","reveal","image-keyboard-response","374","1169779","0.0-6.0-4.52","2627352","co38662","norming","","","","","","",""
"null","../img/tt/044tt.jpg","null","mooney2","image-keyboard-response","375","1171785","0.0-6.0-5.52","2627352","co38662","norming","","","","","","",""
"3402.6500000001397","","","post_reveal_questions","survey-likert","376","1175188","0.0-6.0-6.52","2627352","co38662","norming","","","{""aha"":4}","[0]","../img/tt/044tt.jpg","",""
"null","<div style=""font-size:60px;""> </div>","null","fixation","html-keyboard-response","377","1175396","0.0-6.0-0.53","2627352","co38662","norming","","","","","","",""
"null","../img/tt/468tt.jpg","null","mooney1","image-keyboard-response","378","1178404","0.0-6.0-1.53","2627352","co38662","norming","","","","","","",""
"6287.165000000037","","","post_mooney1_questions","survey-likert","379","1184692","0.0-6.0-2.53","2627352","co38662","norming","","","{""curiosity"":6,""confidence"":3}","[0,1]","../img/tt/468tt.jpg","",""
"1701.8999999999069","","","recognition","survey-text","380","1186396","0.0-6.0-3.53","2627352","co38662","norming","","","{""guess"":""violin""}","","../img/tt/468tt.jpg","",""
"null","../img/gs/468gs.jpg","null","reveal","image-keyboard-response","381","1188405","0.0-6.0-4.53","2627352","co38662","norming","","","","","","",""
"null","../img/tt/468tt.jpg","null","mooney2","image-keyboard-response","382","1190407","0.0-6.0-5.53","2627352","co38662","norming","","","","","","",""
"3564.375","","","post_reveal_questions","survey-likert","383","1193972","0.0-6.0-6.53","2627352","co38662","norming","","","{""aha"":1}","[0]","../img/tt/468tt.jpg","",""
"null","<div style=""font-size:60px;""> </div>","null","fixation","html-keyboard-response","384","1194174","0.0-6.0-0.54","2627352","co38662","norming","","","","","","",""
"null","../img/tt/1087tt.jpg","null","mooney1","image-keyboard-response","385","1197175","0.0-6.0-1.54","2627352","co38662","norming","","","","","","",""
"3108.5750000001863","","","post_mooney1_questions","survey-likert","386","1200284","0.0-6.0-2.54","2627352","co38662","norming","","","{""curiosity"":1,""confidence"":3}","[0,1]","../img/tt/1087tt.jpg","",""
"1069.9499999999534","","","recognition","survey-text","387","1201356","0.0-6.0-3.54","2627352","co38662","norming","","","{""guess"":""cows""}","","../img/tt/1087tt.jpg","",""
"null","../img/gs/1087gs.jpg","null","reveal","image-keyboard-response","388","1203364","0.0-6.0-4.54","2627352","co38662","norming","","","","","","",""
"null","../img/tt/1087tt.jpg","null","mooney2","image-keyboard-response","389","1205373","0.0-6.0-5.54","2627352","co38662","norming","","","","","","",""
"1782.3950000002515","","","post_reveal_questions","survey-likert","390","1207156","0.0-6.0-6.54","2627352","co38662","norming","","","{""aha"":4}","[0]","../img/tt/1087tt.jpg","",""
"null","<div style=""font-size:60px;""> </div>","null","fixation","html-keyboard-response","391","1207365","0.0-6.0-0.55","2627352","co38662","norming","","","","","","",""
"null","../img/tt/1227tt.jpg","null","mooney1","image-keyboard-response","392","1210376","0.0-6.0-1.55","2627352","co38662","norming","","","","","","",""
"4461.0800000000745","","","post_mooney1_questions","survey-likert","393","1214839","0.0-6.0-2.55","2627352","co38662","norming","","","{""curiosity"":1,""confidence"":3}","[0,1]","../img/tt/1227tt.jpg","",""
"2565.6299999998882","","","recognition","survey-text","394","1217406","0.0-6.0-3.55","2627352","co38662","norming","","","{""guess"":""chickens""}","","../img/tt/1227tt.jpg","",""
"null","../img/gs/1227gs.jpg","null","reveal","image-keyboard-response","395","1219410","0.0-6.0-4.55","2627352","co38662","norming","","","","","","",""
"null","../img/tt/1227tt.jpg","null","mooney2","image-keyboard-response","396","1221420","0.0-6.0-5.55","2627352","co38662","norming","","","","","","",""
"5121.114999999991","","","post_reveal_questions","survey-likert","397","1226542","0.0-6.0-6.55","2627352","co38662","norming","","","{""aha"":1}","[0]","../img/tt/1227tt.jpg","",""
"null","<div style=""font-size:60px;""> </div>","null","fixation","html-keyboard-response","398","1226744","0.0-6.0-0.56","2627352","co38662","norming","","","","","","",""
"null","../img/tt/1363tt.jpg","null","mooney1","image-keyboard-response","399","1229745","0.0-6.0-1.56","2627352","co38662","norming","","","","","","",""
"8044.094999999972","","","post_mooney1_questions","survey-likert","400","1237791","0.0-6.0-2.56","2627352","co38662","norming","","","{""curiosity"":3,""confidence"":2}","[0,1]","../img/tt/1363tt.jpg","",""
"2877.850000000093","","","recognition","survey-text","401","1240670","0.0-6.0-3.56","2627352","co38662","norming","","","{""guess"":""sauce""}","","../img/tt/1363tt.jpg","",""
"null","../img/gs/1363gs.jpg","null","reveal","image-keyboard-response","402","1242681","0.0-6.0-4.56","2627352","co38662","norming","","","","","","",""
"null","../img/tt/1363tt.jpg","null","mooney2","image-keyboard-response","403","1244682","0.0-6.0-5.56","2627352","co38662","norming","","","","","","",""
"1587.8649999999907","","","post_reveal_questions","survey-likert","404","1246270","0.0-6.0-6.56","2627352","co38662","norming","","","{""aha"":0}","[0]","../img/tt/1363tt.jpg","",""
"null","<div style=""font-size:60px;""> </div>","null","fixation","html-keyboard-response","405","1246473","0.0-6.0-0.57","2627352","co38662","norming","","","","","","",""
"null","../img/tt/091tt.jpg","null","mooney1","image-keyboard-response","406","1249476","0.0-6.0-1.57","2627352","co38662","norming","","","","","","",""
"4609.40000000014","","","post_mooney1_questions","survey-likert","407","1254087","0.0-6.0-2.57","2627352","co38662","norming","","","{""curiosity"":4,""confidence"":0}","[0,1]","../img/tt/091tt.jpg","",""
"942.0999999998603","","","recognition","survey-text","408","1255030","0.0-6.0-3.57","2627352","co38662","norming","","","{""guess"":""""}","","../img/tt/091tt.jpg","",""
"null","../img/gs/091gs.jpg","null","reveal","image-keyboard-response","409","1257037","0.0-6.0-4.57","2627352","co38662","norming","","","","","","",""
"null","../img/tt/091tt.jpg","null","mooney2","image-keyboard-response","410","1259038","0.0-6.0-5.57","2627352","co38662","norming","","","","","","",""
"1271.6200000001118","","","post_reveal_questions","survey-likert","411","1260310","0.0-6.0-6.57","2627352","co38662","norming","","","{""aha"":5}","[0]","../img/tt/091tt.jpg","",""
"null","<div style=""font-size:60px;""> </div>","null","fixation","html-keyboard-response","412","1260520","0.0-6.0-0.58","2627352","co38662","norming","","","","","","",""
"null","../img/tt/081tt.jpg","null","mooney1","image-keyboard-response","413","1263527","0.0-6.0-1.58","2627352","co38662","norming","","","","","","",""
"3686.880000000121","","","post_mooney1_questions","survey-likert","414","1267215","0.0-6.0-2.58","2627352","co38662","norming","","","{""curiosity"":3,""confidence"":2}","[0,1]","../img/tt/081tt.jpg","",""
"1006.3349999997299","","","recognition","survey-text","415","1268223","0.0-6.0-3.58","2627352","co38662","norming","","","{""guess"":""frog""}","","../img/tt/081tt.jpg","",""
"null","../img/gs/081gs.jpg","null","reveal","image-keyboard-response","416","1270224","0.0-6.0-4.58","2627352","co38662","norming","","","","","","",""
"null","../img/tt/081tt.jpg","null","mooney2","image-keyboard-response","417","1272234","0.0-6.0-5.58","2627352","co38662","norming","","","","","","",""
"1899.6049999997485","","","post_reveal_questions","survey-likert","418","1274134","0.0-6.0-6.58","2627352","co38662","norming","","","{""aha"":1}","[0]","../img/tt/081tt.jpg","",""
"null","<div style=""font-size:60px;""> </div>","null","fixation","html-keyboard-response","419","1274342","0.0-6.0-0.59","2627352","co38662","norming","","","","","","",""
"null","../img/tt/1261tt.jpg","null","mooney1","image-keyboard-response","420","1277346","0.0-6.0-1.59","2627352","co38662","norming","","","","","","",""
"4363.280000000028","","","post_mooney1_questions","survey-likert","421","1281710","0.0-6.0-2.59","2627352","co38662","norming","","","{""curiosity"":4,""confidence"":0}","[0,1]","../img/tt/1261tt.jpg","",""
"486.1400000001304","","","recognition","survey-text","422","1282198","0.0-6.0-3.59","2627352","co38662","norming","","","{""guess"":""""}","","../img/tt/1261tt.jpg","",""
"null","../img/gs/1261gs.jpg","null","reveal","image-keyboard-response","423","1284203","0.0-6.0-4.59","2627352","co38662","norming","","","","","","",""
"null","../img/tt/1261tt.jpg","null","mooney2","image-keyboard-response","424","1286206","0.0-6.0-5.59","2627352","co38662","norming","","","","","","",""
"1728.0999999998603","","","post_reveal_questions","survey-likert","425","1287935","0.0-6.0-6.59","2627352","co38662","norming","","","{""aha"":5}","[0]","../img/tt/1261tt.jpg","",""
"null","<div style=""font-size:60px;""> </div>","null","fixation","html-keyboard-response","426","1288136","0.0-6.0-0.60","2627352","co38662","norming","","","","","","",""
"null","../img/tt/1175tt.jpg","null","mooney1","image-keyboard-response","427","1291137","0.0-6.0-1.60","2627352","co38662","norming","","","","","","",""
"2716.9149999998044","","","post_mooney1_questions","survey-likert","428","1293855","0.0-6.0-2.60","2627352","co38662","norming","","","{""curiosity"":2,""confidence"":1}","[0,1]","../img/tt/1175tt.jpg","",""
"1309.9350000000559","","","recognition","survey-text","429","1295166","0.0-6.0-3.60","2627352","co38662","norming","","","{""guess"":""dancers""}","","../img/tt/1175tt.jpg","",""
"null","../img/gs/1175gs.jpg","null","reveal","image-keyboard-response","430","1297176","0.0-6.0-4.60","2627352","co38662","norming","","","","","","",""
"null","../img/tt/1175tt.jpg","null","mooney2","image-keyboard-response","431","1299186","0.0-6.0-5.60","2627352","co38662","norming","","","","","","",""
"2131.3299999998417","","","post_reveal_questions","survey-likert","432","1301318","0.0-6.0-6.60","2627352","co38662","norming","","","{""aha"":4}","[0]","../img/tt/1175tt.jpg","",""
"null","<div style=""font-size:60px;""> </div>","null","fixation","html-keyboard-response","433","1301521","0.0-6.0-0.61","2627352","co38662","norming","","","","","","",""
"null","../img/tt/1254tt.jpg","null","mooney1","image-keyboard-response","434","1304524","0.0-6.0-1.61","2627352","co38662","norming","","","","","","",""
"4977.550000000047","","","post_mooney1_questions","survey-likert","435","1309503","0.0-6.0-2.61","2627352","co38662","norming","","","{""curiosity"":2,""confidence"":2}","[0,1]","../img/tt/1254tt.jpg","",""
"1342.1350000002421","","","recognition","survey-text","436","1310846","0.0-6.0-3.61","2627352","co38662","norming","","","{""guess"":""rabbit""}","","../img/tt/1254tt.jpg","",""
"null","../img/gs/1254gs.jpg","null","reveal","image-keyboard-response","437","1312849","0.0-6.0-4.61","2627352","co38662","norming","","","","","","",""
"null","../img/tt/1254tt.jpg","null","mooney2","image-keyboard-response","438","1314851","0.0-6.0-5.61","2627352","co38662","norming","","","","","","",""
"1746.0750000001863","","","post_reveal_questions","survey-likert","439","1316598","0.0-6.0-6.61","2627352","co38662","norming","","","{""aha"":1}","[0]","../img/tt/1254tt.jpg","",""
"null","<div style=""font-size:60px;""> </div>","null","fixation","html-keyboard-response","440","1316805","0.0-6.0-0.62","2627352","co38662","norming","","","","","","",""
"null","../img/tt/063tt.jpg","null","mooney1","image-keyboard-response","441","1319815","0.0-6.0-1.62","2627352","co38662","norming","","","","","","",""
"6686.489999999758","","","post_mooney1_questions","survey-likert","442","1326503","0.0-6.0-2.62","2627352","co38662","norming","","","{""curiosity"":4,""confidence"":2}","[0,1]","../img/tt/063tt.jpg","",""
"1830.059999999823","","","recognition","survey-text","443","1328334","0.0-6.0-3.62","2627352","co38662","norming","","","{""guess"":""accordeon""}","","../img/tt/063tt.jpg","",""
"null","../img/gs/063gs.jpg","null","reveal","image-keyboard-response","444","1330342","0.0-6.0-4.62","2627352","co38662","norming","","","","","","",""
"null","../img/tt/063tt.jpg","null","mooney2","image-keyboard-response","445","1332344","0.0-6.0-5.62","2627352","co38662","norming","","","","","","",""
"1509.630000000121","","","post_reveal_questions","survey-likert","446","1333855","0.0-6.0-6.62","2627352","co38662","norming","","","{""aha"":0}","[0]","../img/tt/063tt.jpg","",""
"null","<div style=""font-size:60px;""> </div>","null","fixation","html-keyboard-response","447","1334063","0.0-6.0-0.63","2627352","co38662","norming","","","","","","",""
"null","../img/tt/405tt.jpg","null","mooney1","image-keyboard-response","448","1337074","0.0-6.0-1.63","2627352","co38662","norming","","","","","","",""
"5043.979999999981","","","post_mooney1_questions","survey-likert","449","1342119","0.0-6.0-2.63","2627352","co38662","norming","","","{""curiosity"":6,""confidence"":0}","[0,1]","../img/tt/405tt.jpg","",""
"653.9800000002142","","","recognition","survey-text","450","1342774","0.0-6.0-3.63","2627352","co38662","norming","","","{""guess"":""""}","","../img/tt/405tt.jpg","",""
"null","../img/gs/405gs.jpg","null","reveal","image-keyboard-response","451","1344778","0.0-6.0-4.63","2627352","co38662","norming","","","","","","",""
"null","../img/tt/405tt.jpg","null","mooney2","image-keyboard-response","452","1346780","0.0-6.0-5.63","2627352","co38662","norming","","","","","","",""
"2297.695000000065","","","post_reveal_questions","survey-likert","453","1349079","0.0-6.0-6.63","2627352","co38662","norming","","","{""aha"":6}","[0]","../img/tt/405tt.jpg","",""
"null","<div style=""font-size:60px;""> </div>","null","fixation","html-keyboard-response","454","1349283","0.0-6.0-0.64","2627352","co38662","norming","","","","","","",""
"null","../img/tt/1072tt.jpg","null","mooney1","image-keyboard-response","455","1352289","0.0-6.0-1.64","2627352","co38662","norming","","","","","","",""
"4196.144999999786","","","post_mooney1_questions","survey-likert","456","1356487","0.0-6.0-2.64","2627352","co38662","norming","","","{""curiosity"":4,""confidence"":0}","[0,1]","../img/tt/1072tt.jpg","",""
"662.0400000000373","","","recognition","survey-text","457","1357150","0.0-6.0-3.64","2627352","co38662","norming","","","{""guess"":""""}","","../img/tt/1072tt.jpg","",""
"null","../img/gs/1072gs.jpg","null","reveal","image-keyboard-response","458","1359152","0.0-6.0-4.64","2627352","co38662","norming","","","","","","",""
"null","../img/tt/1072tt.jpg","null","mooney2","image-keyboard-response","459","1361160","0.0-6.0-5.64","2627352","co38662","norming","","","","","","",""
"2550","","","post_reveal_questions","survey-likert","460","1363711","0.0-6.0-6.64","2627352","co38662","norming","","","{""aha"":5}","[0]","../img/tt/1072tt.jpg","",""
"null","<div style=""font-size:60px;""> </div>","null","fixation","html-keyboard-response","461","1363916","0.0-6.0-0.65","2627352","co38662","norming","","","","","","",""
"null","../img/tt/055tt.jpg","null","mooney1","image-keyboard-response","462","1366923","0.0-6.0-1.65","2627352","co38662","norming","","","","","","",""
"3954.2050000000745","","","post_mooney1_questions","survey-likert","463","1370879","0.0-6.0-2.65","2627352","co38662","norming","","","{""curiosity"":3,""confidence"":0}","[0,1]","../img/tt/055tt.jpg","",""
"645.6350000000093","","","recognition","survey-text","464","1371527","0.0-6.0-3.65","2627352","co38662","norming","","","{""guess"":""""}","","../img/tt/055tt.jpg","",""
"null","../img/gs/055gs.jpg","null","reveal","image-keyboard-response","465","1373528","0.0-6.0-4.65","2627352","co38662","norming","","","","","","",""
"null","../img/tt/055tt.jpg","null","mooney2","image-keyboard-response","466","1375531","0.0-6.0-5.65","2627352","co38662","norming","","","","","","",""
"1570.220000000205","","","post_reveal_questions","survey-likert","467","1377102","0.0-6.0-6.65","2627352","co38662","norming","","","{""aha"":6}","[0]","../img/tt/055tt.jpg","",""
"null","<div style=""font-size:60px;""> </div>","null","fixation","html-keyboard-response","468","1377309","0.0-6.0-0.66","2627352","co38662","norming","","","","","","",""
"null","../img/tt/053tt.jpg","null","mooney1","image-keyboard-response","469","1380318","0.0-6.0-1.66","2627352","co38662","norming","","","","","","",""
"5895.25","","","post_mooney1_questions","survey-likert","470","1386214","0.0-6.0-2.66","2627352","co38662","norming","","","{""curiosity"":3,""confidence"":1}","[0,1]","../img/tt/053tt.jpg","",""
"1654.4900000002235","","","recognition","survey-text","471","1387871","0.0-6.0-3.66","2627352","co38662","norming","","","{""guess"":""cake""}","","../img/tt/053tt.jpg","",""
"null","../img/gs/053gs.jpg","null","reveal","image-keyboard-response","472","1389879","0.0-6.0-4.66","2627352","co38662","norming","","","","","","",""
"null","../img/tt/053tt.jpg","null","mooney2","image-keyboard-response","473","1391889","0.0-6.0-5.66","2627352","co38662","norming","","","","","","",""
"1836.5500000002794","","","post_reveal_questions","survey-likert","474","1393726","0.0-6.0-6.66","2627352","co38662","norming","","","{""aha"":5}","[0]","../img/tt/053tt.jpg","",""
"null","<div style=""font-size:60px;""> </div>","null","fixation","html-keyboard-response","475","1393933","0.0-6.0-0.67","2627352","co38662","norming","","","","","","",""
"null","../img/tt/112tt.jpg","null","mooney1","image-keyboard-response","476","1396942","0.0-6.0-1.67","2627352","co38662","norming","","","","","","",""
"3134.565000000177","","","post_mooney1_questions","survey-likert","477","1400078","0.0-6.0-2.67","2627352","co38662","norming","","","{""curiosity"":5,""confidence"":1}","[0,1]","../img/tt/112tt.jpg","",""
"3229.4899999999907","","","recognition","survey-text","478","1403310","0.0-6.0-3.67","2627352","co38662","norming","","","{""guess"":""pencil""}","","../img/tt/112tt.jpg","",""
"null","../img/gs/112gs.jpg","null","reveal","image-keyboard-response","479","1405316","0.0-6.0-4.67","2627352","co38662","norming","","","","","","",""
"null","../img/tt/112tt.jpg","null","mooney2","image-keyboard-response","480","1407318","0.0-6.0-5.67","2627352","co38662","norming","","","","","","",""
"3414.6100000001024","","","post_reveal_questions","survey-likert","481","1410734","0.0-6.0-6.67","2627352","co38662","norming","","","{""aha"":4}","[0]","../img/tt/112tt.jpg","",""
"null","<div style=""font-size:60px;""> </div>","null","fixation","html-keyboard-response","482","1410939","0.0-6.0-0.68","2627352","co38662","norming","","","","","","",""
"null","../img/tt/1151tt.jpg","null","mooney1","image-keyboard-response","483","1413945","0.0-6.0-1.68","2627352","co38662","norming","","","","","","",""
"10939.219999999972","","","post_mooney1_questions","survey-likert","484","1424886","0.0-6.0-2.68","2627352","co38662","norming","","","{""curiosity"":3,""confidence"":0}","[0,1]","../img/tt/1151tt.jpg","",""
"621.6599999999162","","","recognition","survey-text","485","1425509","0.0-6.0-3.68","2627352","co38662","norming","","","{""guess"":""""}","","../img/tt/1151tt.jpg","",""
"null","../img/gs/1151gs.jpg","null","reveal","image-keyboard-response","486","1427516","0.0-6.0-4.68","2627352","co38662","norming","","","","","","",""
"null","../img/tt/1151tt.jpg","null","mooney2","image-keyboard-response","487","1429521","0.0-6.0-5.68","2627352","co38662","norming","","","","","","",""
"2435.7099999999627","","","post_reveal_questions","survey-likert","488","1431958","0.0-6.0-6.68","2627352","co38662","norming","","","{""aha"":3}","[0]","../img/tt/1151tt.jpg","",""
"null","<div style=""font-size:60px;""> </div>","null","fixation","html-keyboard-response","489","1432163","0.0-6.0-0.69","2627352","co38662","norming","","","","","","",""
"null","../img/tt/590tt.jpg","null","mooney1","image-keyboard-response","490","1435165","0.0-6.0-1.69","2627352","co38662","norming","","","","","","",""
"4302.780000000028","","","post_mooney1_questions","survey-likert","491","1439470","0.0-6.0-2.69","2627352","co38662","norming","","","{""curiosity"":2,""confidence"":1}","[0,1]","../img/tt/590tt.jpg","",""
"1469.875","","","recognition","survey-text","492","1440942","0.0-6.0-3.69","2627352","co38662","norming","","","{""guess"":""piano""}","","../img/tt/590tt.jpg","",""
"null","../img/gs/590gs.jpg","null","reveal","image-keyboard-response","493","1442944","0.0-6.0-4.69","2627352","co38662","norming","","","","","","",""
"null","../img/tt/590tt.jpg","null","mooney2","image-keyboard-response","494","1444952","0.0-6.0-5.69","2627352","co38662","norming","","","","","","",""
"1852.7300000002142","","","post_reveal_questions","survey-likert","495","1446806","0.0-6.0-6.69","2627352","co38662","norming","","","{""aha"":4}","[0]","../img/tt/590tt.jpg","",""
"null","<div style=""font-size:60px;""> </div>","null","fixation","html-keyboard-response","496","1447014","0.0-6.0-0.70","2627352","co38662","norming","","","","","","",""
"null","../img/tt/412tt.jpg","null","mooney1","image-keyboard-response","497","1450020","0.0-6.0-1.70","2627352","co38662","norming","","","","","","",""
"3752.6299999998882","","","post_mooney1_questions","survey-likert","498","1453775","0.0-6.0-2.70","2627352","co38662","norming","","","{""curiosity"":1,""confidence"":0}","[0,1]","../img/tt/412tt.jpg","",""
"853.8299999998417","","","recognition","survey-text","499","1454630","0.0-6.0-3.70","2627352","co38662","norming","","","{""guess"":""""}","","../img/tt/412tt.jpg","",""
"null","../img/gs/412gs.jpg","null","reveal","image-keyboard-response","500","1456641","0.0-6.0-4.70","2627352","co38662","norming","","","","","","",""
"null","../img/tt/412tt.jpg","null","mooney2","image-keyboard-response","501","1458643","0.0-6.0-5.70","2627352","co38662","norming","","","","","","",""
"3218.625","","","post_reveal_questions","survey-likert","502","1461863","0.0-6.0-6.70","2627352","co38662","norming","","","{""aha"":3}","[0]","../img/tt/412tt.jpg","",""
"null","<div style=""font-size:60px;""> </div>","null","fixation","html-keyboard-response","503","1462069","0.0-6.0-0.71","2627352","co38662","norming","","","","","","",""
"null","../img/tt/124tt.jpg","null","mooney1","image-keyboard-response","504","1465076","0.0-6.0-1.71","2627352","co38662","norming","","","","","","",""
"7673.454999999842","","","post_mooney1_questions","survey-likert","505","1472751","0.0-6.0-2.71","2627352","co38662","norming","","","{""curiosity"":3,""confidence"":1}","[0,1]","../img/tt/124tt.jpg","",""
"909.7600000000093","","","recognition","survey-text","506","1473662","0.0-6.0-3.71","2627352","co38662","norming","","","{""guess"":""duck""}","","../img/tt/124tt.jpg","",""
"null","../img/gs/124gs.jpg","null","reveal","image-keyboard-response","507","1475668","0.0-6.0-4.71","2627352","co38662","norming","","","","","","",""
"null","../img/tt/124tt.jpg","null","mooney2","image-keyboard-response","508","1477670","0.0-6.0-5.71","2627352","co38662","norming","","","","","","",""
"2463.4499999999534","","","post_reveal_questions","survey-likert","509","1480135","0.0-6.0-6.71","2627352","co38662","norming","","","{""aha"":5}","[0]","../img/tt/124tt.jpg","",""
"null","<div style=""font-size:60px;""> </div>","null","fixation","html-keyboard-response","510","1480336","0.0-6.0-0.72","2627352","co38662","norming","","","","","","",""
"null","../img/tt/1122tt.jpg","null","mooney1","image-keyboard-response","511","1483339","0.0-6.0-1.72","2627352","co38662","norming","","","","","","",""
"4617.744999999879","","","post_mooney1_questions","survey-likert","512","1487959","0.0-6.0-2.72","2627352","co38662","norming","","","{""curiosity"":1,""confidence"":3}","[0,1]","../img/tt/1122tt.jpg","",""
"1029.9299999999348","","","recognition","survey-text","513","1488990","0.0-6.0-3.72","2627352","co38662","norming","","","{""guess"":""boats""}","","../img/tt/1122tt.jpg","",""
"null","../img/gs/1122gs.jpg","null","reveal","image-keyboard-response","514","1490999","0.0-6.0-4.72","2627352","co38662","norming","","","","","","",""
"null","../img/tt/1122tt.jpg","null","mooney2","image-keyboard-response","515","1493000","0.0-6.0-5.72","2627352","co38662","norming","","","","","","",""
"1476.9499999999534","","","post_reveal_questions","survey-likert","516","1494478","0.0-6.0-6.72","2627352","co38662","norming","","","{""aha"":1}","[0]","../img/tt/1122tt.jpg","",""
"null","<div style=""font-size:60px;""> </div>","null","fixation","html-keyboard-response","517","1494688","0.0-6.0-0.73","2627352","co38662","norming","","","","","","",""
"null","../img/tt/126tt.jpg","null","mooney1","image-keyboard-response","518","1497691","0.0-6.0-1.73","2627352","co38662","norming","","","","","","",""
"5617.885000000009","","","post_mooney1_questions","survey-likert","519","1503311","0.0-6.0-2.73","2627352","co38662","norming","","","{""curiosity"":5,""confidence"":0}","[0,1]","../img/tt/126tt.jpg","",""
"613.7600000000093","","","recognition","survey-text","520","1503927","0.0-6.0-3.73","2627352","co38662","norming","","","{""guess"":""""}","","../img/tt/126tt.jpg","",""
"null","../img/gs/126gs.jpg","null","reveal","image-keyboard-response","521","1505930","0.0-6.0-4.73","2627352","co38662","norming","","","","","","",""
"null","../img/tt/126tt.jpg","null","mooney2","image-keyboard-response","522","1507940","0.0-6.0-5.73","2627352","co38662","norming","","","","","","",""
"1873.4449999998324","","","post_reveal_questions","survey-likert","523","1509815","0.0-6.0-6.73","2627352","co38662","norming","","","{""aha"":5}","[0]","../img/tt/126tt.jpg","",""
"null","<div style=""font-size:60px;""> </div>","null","fixation","html-keyboard-response","524","1510016","0.0-6.0-0.74","2627352","co38662","norming","","","","","","",""
"null","../img/tt/080tt.jpg","null","mooney1","image-keyboard-response","525","1513023","0.0-6.0-1.74","2627352","co38662","norming","","","","","","",""
"3869.934999999823","","","post_mooney1_questions","survey-likert","526","1516889","0.0-6.0-2.74","2627352","co38662","norming","","","{""curiosity"":1,""confidence"":1}","[0,1]","../img/tt/080tt.jpg","",""
"901.3000000000466","","","recognition","survey-text","527","1517793","0.0-6.0-3.74","2627352","co38662","norming","","","{""guess"":""egg""}","","../img/tt/080tt.jpg","",""
"null","../img/gs/080gs.jpg","null","reveal","image-keyboard-response","528","1519794","0.0-6.0-4.74","2627352","co38662","norming","","","","","","",""
"null","../img/tt/080tt.jpg","null","mooney2","image-keyboard-response","529","1521799","0.0-6.0-5.74","2627352","co38662","norming","","","","","","",""
"2616.8850000000093","","","post_reveal_questions","survey-likert","530","1524417","0.0-6.0-6.74","2627352","co38662","norming","","","{""aha"":6}","[0]","../img/tt/080tt.jpg","",""
"null","<div style=""font-size:60px;""> </div>","null","fixation","html-keyboard-response","531","1524624","0.0-6.0-0.75","2627352","co38662","norming","","","","","","",""
"null","../img/tt/353tt.jpg","null","mooney1","image-keyboard-response","532","1527628","0.0-6.0-1.75","2627352","co38662","norming","","","","","","",""
"3283.2000000001863","","","post_mooney1_questions","survey-likert","533","1530913","0.0-6.0-2.75","2627352","co38662","norming","","","{""curiosity"":3,""confidence"":1}","[0,1]","../img/tt/353tt.jpg","",""
"2149.5400000000373","","","recognition","survey-text","534","1533065","0.0-6.0-3.75","2627352","co38662","norming","","","{""guess"":""penguin""}","","../img/tt/353tt.jpg","",""
"null","../img/gs/353gs.jpg","null","reveal","image-keyboard-response","535","1535074","0.0-6.0-4.75","2627352","co38662","norming","","","","","","",""
"null","../img/tt/353tt.jpg","null","mooney2","image-keyboard-response","536","1537075","0.0-6.0-5.75","2627352","co38662","norming","","","","","","",""
"2364.8199999998324","","","post_reveal_questions","survey-likert","537","1539441","0.0-6.0-6.75","2627352","co38662","norming","","","{""aha"":2}","[0]","../img/tt/353tt.jpg","",""
"null","<div style=""font-size:60px;""> </div>","null","fixation","html-keyboard-response","538","1539642","0.0-6.0-0.76","2627352","co38662","norming","","","","","","",""
"null","../img/tt/1053tt.jpg","null","mooney1","image-keyboard-response","539","1542650","0.0-6.0-1.76","2627352","co38662","norming","","","","","","",""
"3540.719999999972","","","post_mooney1_questions","survey-likert","540","1546193","0.0-6.0-2.76","2627352","co38662","norming","","","{""curiosity"":2,""confidence"":2}","[0,1]","../img/tt/1053tt.jpg","",""
"1222.2700000000186","","","recognition","survey-text","541","1547417","0.0-6.0-3.76","2627352","co38662","norming","","","{""guess"":""cow""}","","../img/tt/1053tt.jpg","",""
"null","../img/gs/1053gs.jpg","null","reveal","image-keyboard-response","542","1549420","0.0-6.0-4.76","2627352","co38662","norming","","","","","","",""
"null","../img/tt/1053tt.jpg","null","mooney2","image-keyboard-response","543","1551421","0.0-6.0-5.76","2627352","co38662","norming","","","","","","",""
"1538.5349999999162","","","post_reveal_questions","survey-likert","544","1552960","0.0-6.0-6.76","2627352","co38662","norming","","","{""aha"":0}","[0]","../img/tt/1053tt.jpg","",""
"null","<div style=""font-size:60px;""> </div>","null","fixation","html-keyboard-response","545","1553162","0.0-6.0-0.77","2627352","co38662","norming","","","","","","",""
"null","../img/tt/1146tt.jpg","null","mooney1","image-keyboard-response","546","1556172","0.0-6.0-1.77","2627352","co38662","norming","","","","","","",""
"6907.315000000177","","","post_mooney1_questions","survey-likert","547","1563081","0.0-6.0-2.77","2627352","co38662","norming","","","{""curiosity"":3,""confidence"":0}","[0,1]","../img/tt/1146tt.jpg","",""
"605.8799999998882","","","recognition","survey-text","548","1563688","0.0-6.0-3.77","2627352","co38662","norming","","","{""guess"":""""}","","../img/tt/1146tt.jpg","",""
"null","../img/gs/1146gs.jpg","null","reveal","image-keyboard-response","549","1565692","0.0-6.0-4.77","2627352","co38662","norming","","","","","","",""
"null","../img/tt/1146tt.jpg","null","mooney2","image-keyboard-response","550","1567699","0.0-6.0-5.77","2627352","co38662","norming","","","","","","",""
"5492.245000000112","","","post_reveal_questions","survey-likert","551","1573192","0.0-6.0-6.77","2627352","co38662","norming","","","{""aha"":2}","[0]","../img/tt/1146tt.jpg","",""
"null","<div style=""font-size:60px;""> </div>","null","fixation","html-keyboard-response","552","1573395","0.0-6.0-0.78","2627352","co38662","norming","","","","","","",""
