"rt","stimulus","key_press","test_part","trial_type","trial_index","time_elapsed","internal_node_id","totalTime","subject","experiment_name","button_pressed","success","responses","question_order","currentStim","old","correct"
"4609.789999999521","Welcome to the experiment. This is an online experiment so please don't close the tab/window until we say goodbye.  Press any key to begin.","32","instructions","html-keyboard-response","0","4623","0.0-0.0","2884812","co38707","norming","","","","","","",""
"8624.71000000005","<div style='word-wrap: break-word; width: 900px'><h3>Please consider this information carefully before deciding whether to participate in this research</h3><ul style='text-align: left; font-size: .8em;'><li><b>Purpose of the research</b>: To examine how people process images.</li><li><b>What you will do in this research</b>:  Stimuli (images) will be presented on the computer and you will be asked different questions about them.</li><li><b>Time required</b>: Participation will take between 45 and 60 minutes to complete.</li><li><b>Risks</b>:  There are no anticipated risks associated with participating in this study. The effects of participating should be comparable to those you would experience from viewing a computer monitor for 30 minutes and using a mouse or keyboard.</li><li><b>Benefits</b>:  This study provides no benefits to you individually except for the credit. The study provides important information about the nature of perception and learning.</li><li><b>Confidentiality</b>:  Your participation in this study will remain confidential. No personally identifiable information will be associated with your data. Your de-identified data may be shared with other researchers and used in future projects.</li><li><b>Participation and withdrawal</b>:  Your participation in this study is completely voluntary and you may refuse to participate or you may choose to withdraw at any time without penalty.</li><li><b>How to contact the researchers</b>: If you have questions or concerns about your participation or payment, or want to request a summary of research findings, please contact Sander Van de Cruys (KU Leuven), at sander.vandecruys@kuleuven.be.</li></ul><p>The nature and purpose of this research have been sufficiently explained and I agree to participate in this study.  I understand that I am free to withdraw at any time without incurring any penalty.</p><p>Please consent by clicking the button below to continue. Otherwise, please exit the study at this time.</p></div>","","instructions","html-button-response","1","13251","0.0-1.0","2884812","co38707","norming","0","","","","","",""
"","","","instructions","fullscreen","2","15839","0.0-2.0","2884812","co38707","norming","","true","","","","",""
"20113.655000000108","","","sona","survey-html-form","3","35959","0.0-3.0","2884812","co38707","norming","","","[{""name"":""sonaid"",""value"":""38707""},{""name"":""debrief"",""value"":""yes""},{""name"":""datajoin"",""value"":""yes""}]","","","",""
"7715.760000000046","<div style='word-wrap: break-word; width: 900px'><h3>Instructions</h3><p>This experiment will have 3 parts. In the first part you will see a series of distorted images like the one below on the left. As you can see in the righthand image, the distorted images are derived from actual photographs. In what follows, you will <strong>briefly</strong> be presented with <strong>only</strong> the distorted image.</p> <div style='float: left; margin-right: 20px;'><img src='../img/018tt.jpg' height='250' width='250'></img></div><div style='float: right; margin-left: 20px;'><img src='../img/018gs.jpg' height='250' width='250'></img></div><p>Subsequently you will be asked a few questions about the image: One question on how <strong>curious</strong> you are about the solution and one on how <strong>confident</strong> you are that you know the solution.</p>Next, we ask you to make a guess on what is in the image. Note that it is OK to name just the <strong>basic level category</strong>. For example when you see a parrot in the image, 'parrot' will obviously be a correct answer but also correct is 'bird'. However, 'animal' will <strong>not</strong> be counted as a correct response. For the example above, 'rose' would be correct or 'flower', but not 'plant'. When soccer players are depicted, 'soccer', 'football', 'soccer players' will be correct, but not 'humans', 'outdoors', or 'sports'. You do not need to describe the image in full, just name the main object in it <strong>in one or two words</strong>. All images depict objects from one of the following broad level categories: animals, inanimate objects, plants, sports, vehicles, and food. Recognizing means knowing <strong>more</strong> than these broad labels for a given image. But we always encourage you to <strong>make a guess</strong> if you can. Note that you are allowed to use <strong>Dutch and English</strong> in your answers, whatever comes easiest for you.</p><p>Press any key to continue.</p></div>","32","instructions","html-keyboard-response","4","43676","0.0-4.0","2884812","co38707","norming","","","","","","",""
"158094.98500000063","<div style='word-wrap: break-word; width: 900px'><h3>Instructions</h3> <p>Next, the solution image will be revealed to you and you'll be asked to indicate how strong your <strong>aha-experience</strong> was after seeing the solution. This describes the positive feeling of the 'click' you sometimes experience, when the pieces of the 'puzzle' fall together and you suddenly have 'insight' in the image.</p><img src='aha.jpg' height='188' width='250'></img><p>Note that there are no right or wrong answers. We are interested in what <strong>you</strong> see in the image and how <strong>you</strong> feel about it.</p><p>Press any key to start the experiment.</p></div>","32","instructions","html-keyboard-response","5","201774","0.0-5.0","2884812","co38707","norming","","","","","","",""
"null","<div style=""font-size:60px;""> </div>","null","fixation","html-keyboard-response","6","201977","0.0-6.0-0.0","2884812","co38707","norming","","","","","","",""
"null","../img/tt/522tt.jpg","null","mooney1","image-keyboard-response","7","204985","0.0-6.0-1.0","2884812","co38707","norming","","","","","","",""
"6511.145000000368","","","post_mooney1_questions","survey-likert","8","211501","0.0-6.0-2.0","2884812","co38707","norming","","","{""curiosity"":5,""confidence"":6}","[0,1]","../img/tt/522tt.jpg","",""
"7869.554999999324","","","recognition","survey-text","9","219372","0.0-6.0-3.0","2884812","co38707","norming","","","{""guess"":""cat""}","","../img/tt/522tt.jpg","",""
"null","../img/gs/522gs.jpg","null","reveal","image-keyboard-response","10","221380","0.0-6.0-4.0","2884812","co38707","norming","","","","","","",""
"null","../img/tt/522tt.jpg","null","mooney2","image-keyboard-response","11","223385","0.0-6.0-5.0","2884812","co38707","norming","","","","","","",""
"7416.89500000031","","","post_reveal_questions","survey-likert","12","230804","0.0-6.0-6.0","2884812","co38707","norming","","","{""aha"":6}","[0]","../img/tt/522tt.jpg","",""
"null","<div style=""font-size:60px;""> </div>","null","fixation","html-keyboard-response","13","231006","0.0-6.0-0.1","2884812","co38707","norming","","","","","","",""
"null","../img/tt/222tt.jpg","null","mooney1","image-keyboard-response","14","234013","0.0-6.0-1.1","2884812","co38707","norming","","","","","","",""
"6854.379999999743","","","post_mooney1_questions","survey-likert","15","240868","0.0-6.0-2.1","2884812","co38707","norming","","","{""curiosity"":6,""confidence"":4}","[0,1]","../img/tt/222tt.jpg","",""
"4870.095000000234","","","recognition","survey-text","16","245740","0.0-6.0-3.1","2884812","co38707","norming","","","{""guess"":""cat""}","","../img/tt/222tt.jpg","",""
"null","../img/gs/222gs.jpg","null","reveal","image-keyboard-response","17","247745","0.0-6.0-4.1","2884812","co38707","norming","","","","","","",""
"null","../img/tt/222tt.jpg","null","mooney2","image-keyboard-response","18","249747","0.0-6.0-5.1","2884812","co38707","norming","","","","","","",""
"3656.5250000003434","","","post_reveal_questions","survey-likert","19","253404","0.0-6.0-6.1","2884812","co38707","norming","","","{""aha"":2}","[0]","../img/tt/222tt.jpg","",""
"null","<div style=""font-size:60px;""> </div>","null","fixation","html-keyboard-response","20","253612","0.0-6.0-0.2","2884812","co38707","norming","","","","","","",""
"null","../img/tt/1188tt.jpg","null","mooney1","image-keyboard-response","21","256617","0.0-6.0-1.2","2884812","co38707","norming","","","","","","",""
"9025.020000000019","","","post_mooney1_questions","survey-likert","22","265643","0.0-6.0-2.2","2884812","co38707","norming","","","{""curiosity"":2,""confidence"":0}","[0,1]","../img/tt/1188tt.jpg","",""
"1301.8700000002282","","","recognition","survey-text","23","266947","0.0-6.0-3.2","2884812","co38707","norming","","","{""guess"":""""}","","../img/tt/1188tt.jpg","",""
"null","../img/gs/1188gs.jpg","null","reveal","image-keyboard-response","24","268948","0.0-6.0-4.2","2884812","co38707","norming","","","","","","",""
"null","../img/tt/1188tt.jpg","null","mooney2","image-keyboard-response","25","270951","0.0-6.0-5.2","2884812","co38707","norming","","","","","","",""
"3089.570000000065","","","post_reveal_questions","survey-likert","26","274043","0.0-6.0-6.2","2884812","co38707","norming","","","{""aha"":0}","[0]","../img/tt/1188tt.jpg","",""
"null","<div style=""font-size:60px;""> </div>","null","fixation","html-keyboard-response","27","274249","0.0-6.0-0.3","2884812","co38707","norming","","","","","","",""
"null","../img/tt/1122tt.jpg","null","mooney1","image-keyboard-response","28","277254","0.0-6.0-1.3","2884812","co38707","norming","","","","","","",""
"3849.9550000005984","","","post_mooney1_questions","survey-likert","29","281107","0.0-6.0-2.3","2884812","co38707","norming","","","{""curiosity"":4,""confidence"":4}","[0,1]","../img/tt/1122tt.jpg","",""
"1910.2600000005332","","","recognition","survey-text","30","283019","0.0-6.0-3.3","2884812","co38707","norming","","","{""guess"":""cars""}","","../img/tt/1122tt.jpg","",""
"null","../img/gs/1122gs.jpg","null","reveal","image-keyboard-response","31","285024","0.0-6.0-4.3","2884812","co38707","norming","","","","","","",""
"null","../img/tt/1122tt.jpg","null","mooney2","image-keyboard-response","32","287035","0.0-6.0-5.3","2884812","co38707","norming","","","","","","",""
"3693.3200000003562","","","post_reveal_questions","survey-likert","33","290731","0.0-6.0-6.3","2884812","co38707","norming","","","{""aha"":3}","[0]","../img/tt/1122tt.jpg","",""
"null","<div style=""font-size:60px;""> </div>","null","fixation","html-keyboard-response","34","290932","0.0-6.0-0.4","2884812","co38707","norming","","","","","","",""
"null","../img/tt/358tt.jpg","null","mooney1","image-keyboard-response","35","293940","0.0-6.0-1.4","2884812","co38707","norming","","","","","","",""
"5062.179999999877","","","post_mooney1_questions","survey-likert","36","299003","0.0-6.0-2.4","2884812","co38707","norming","","","{""curiosity"":1,""confidence"":0}","[0,1]","../img/tt/358tt.jpg","",""
"646.3450000001467","","","recognition","survey-text","37","299651","0.0-6.0-3.4","2884812","co38707","norming","","","{""guess"":""""}","","../img/tt/358tt.jpg","",""
"null","../img/gs/358gs.jpg","null","reveal","image-keyboard-response","38","301662","0.0-6.0-4.4","2884812","co38707","norming","","","","","","",""
"null","../img/tt/358tt.jpg","null","mooney2","image-keyboard-response","39","303666","0.0-6.0-5.4","2884812","co38707","norming","","","","","","",""
"3750.449999999546","","","post_reveal_questions","survey-likert","40","307419","0.0-6.0-6.4","2884812","co38707","norming","","","{""aha"":5}","[0]","../img/tt/358tt.jpg","",""
"null","<div style=""font-size:60px;""> </div>","null","fixation","html-keyboard-response","41","307621","0.0-6.0-0.5","2884812","co38707","norming","","","","","","",""
"null","../img/tt/296tt.jpg","null","mooney1","image-keyboard-response","42","310629","0.0-6.0-1.5","2884812","co38707","norming","","","","","","",""
"6299.469999999914","","","post_mooney1_questions","survey-likert","43","316931","0.0-6.0-2.5","2884812","co38707","norming","","","{""curiosity"":4,""confidence"":4}","[0,1]","../img/tt/296tt.jpg","",""
"3766.2499999996508","","","recognition","survey-text","44","320699","0.0-6.0-3.5","2884812","co38707","norming","","","{""guess"":""""}","","../img/tt/296tt.jpg","",""
"null","../img/gs/296gs.jpg","null","reveal","image-keyboard-response","45","322702","0.0-6.0-4.5","2884812","co38707","norming","","","","","","",""
"null","../img/tt/296tt.jpg","null","mooney2","image-keyboard-response","46","324716","0.0-6.0-5.5","2884812","co38707","norming","","","","","","",""
"4015.3200000004144","","","post_reveal_questions","survey-likert","47","328734","0.0-6.0-6.5","2884812","co38707","norming","","","{""aha"":3}","[0]","../img/tt/296tt.jpg","",""
"null","<div style=""font-size:60px;""> </div>","null","fixation","html-keyboard-response","48","328939","0.0-6.0-0.6","2884812","co38707","norming","","","","","","",""
"null","../img/tt/1362tt.jpg","null","mooney1","image-keyboard-response","49","331944","0.0-6.0-1.6","2884812","co38707","norming","","","","","","",""
"5829.359999999753","","","post_mooney1_questions","survey-likert","50","337774","0.0-6.0-2.6","2884812","co38707","norming","","","{""curiosity"":3,""confidence"":0}","[0,1]","../img/tt/1362tt.jpg","",""
"1502.0899999999674","","","recognition","survey-text","51","339278","0.0-6.0-3.6","2884812","co38707","norming","","","{""guess"":""""}","","../img/tt/1362tt.jpg","",""
"null","../img/gs/1362gs.jpg","null","reveal","image-keyboard-response","52","341280","0.0-6.0-4.6","2884812","co38707","norming","","","","","","",""
"null","../img/tt/1362tt.jpg","null","mooney2","image-keyboard-response","53","343282","0.0-6.0-5.6","2884812","co38707","norming","","","","","","",""
"3514.0050000000047","","","post_reveal_questions","survey-likert","54","346798","0.0-6.0-6.6","2884812","co38707","norming","","","{""aha"":4}","[0]","../img/tt/1362tt.jpg","",""
"null","<div style=""font-size:60px;""> </div>","null","fixation","html-keyboard-response","55","347007","0.0-6.0-0.7","2884812","co38707","norming","","","","","","",""
"null","../img/tt/1055tt.jpg","null","mooney1","image-keyboard-response","56","350014","0.0-6.0-1.7","2884812","co38707","norming","","","","","","",""
"5407.285000000207","","","post_mooney1_questions","survey-likert","57","355422","0.0-6.0-2.7","2884812","co38707","norming","","","{""curiosity"":3,""confidence"":3}","[0,1]","../img/tt/1055tt.jpg","",""
"3214.0599999993574","","","recognition","survey-text","58","358638","0.0-6.0-3.7","2884812","co38707","norming","","","{""guess"":""tunnel""}","","../img/tt/1055tt.jpg","",""
"null","../img/gs/1055gs.jpg","null","reveal","image-keyboard-response","59","360646","0.0-6.0-4.7","2884812","co38707","norming","","","","","","",""
"null","../img/tt/1055tt.jpg","null","mooney2","image-keyboard-response","60","362650","0.0-6.0-5.7","2884812","co38707","norming","","","","","","",""
"3801.3949999994948","","","post_reveal_questions","survey-likert","61","366454","0.0-6.0-6.7","2884812","co38707","norming","","","{""aha"":1}","[0]","../img/tt/1055tt.jpg","",""
"null","<div style=""font-size:60px;""> </div>","null","fixation","html-keyboard-response","62","366659","0.0-6.0-0.8","2884812","co38707","norming","","","","","","",""
"null","../img/tt/124tt.jpg","null","mooney1","image-keyboard-response","63","369667","0.0-6.0-1.8","2884812","co38707","norming","","","","","","",""
"5224.205000000424","","","post_mooney1_questions","survey-likert","64","374894","0.0-6.0-2.8","2884812","co38707","norming","","","{""curiosity"":3,""confidence"":3}","[0,1]","../img/tt/124tt.jpg","",""
"3214.1549999996787","","","recognition","survey-text","65","378110","0.0-6.0-3.8","2884812","co38707","norming","","","{""guess"":""monkey""}","","../img/tt/124tt.jpg","",""
"null","../img/gs/124gs.jpg","null","reveal","image-keyboard-response","66","380112","0.0-6.0-4.8","2884812","co38707","norming","","","","","","",""
"null","../img/tt/124tt.jpg","null","mooney2","image-keyboard-response","67","382115","0.0-6.0-5.8","2884812","co38707","norming","","","","","","",""
"3664.784999999916","","","post_reveal_questions","survey-likert","68","385777","0.0-6.0-6.8","2884812","co38707","norming","","","{""aha"":6}","[0]","../img/tt/124tt.jpg","",""
"null","<div style=""font-size:60px;""> </div>","null","fixation","html-keyboard-response","69","385981","0.0-6.0-0.9","2884812","co38707","norming","","","","","","",""
"null","../img/tt/1200tt.jpg","null","mooney1","image-keyboard-response","70","388991","0.0-6.0-1.9","2884812","co38707","norming","","","","","","",""
"4623.869999999413","","","post_mooney1_questions","survey-likert","71","393617","0.0-6.0-2.9","2884812","co38707","norming","","","{""curiosity"":3,""confidence"":3}","[0,1]","../img/tt/1200tt.jpg","",""
"9990.095000000088","","","recognition","survey-text","72","403609","0.0-6.0-3.9","2884812","co38707","norming","","","{""guess"":""boat in tunel""}","","../img/tt/1200tt.jpg","",""
"null","../img/gs/1200gs.jpg","null","reveal","image-keyboard-response","73","405618","0.0-6.0-4.9","2884812","co38707","norming","","","","","","",""
"null","../img/tt/1200tt.jpg","null","mooney2","image-keyboard-response","74","407619","0.0-6.0-5.9","2884812","co38707","norming","","","","","","",""
"2955.200000000361","","","post_reveal_questions","survey-likert","75","410577","0.0-6.0-6.9","2884812","co38707","norming","","","{""aha"":3}","[0]","../img/tt/1200tt.jpg","",""
"null","<div style=""font-size:60px;""> </div>","null","fixation","html-keyboard-response","76","410781","0.0-6.0-0.10","2884812","co38707","norming","","","","","","",""
"null","../img/tt/031tt.jpg","null","mooney1","image-keyboard-response","77","413789","0.0-6.0-1.10","2884812","co38707","norming","","","","","","",""
"3945.8150000000023","","","post_mooney1_questions","survey-likert","78","417737","0.0-6.0-2.10","2884812","co38707","norming","","","{""curiosity"":3,""confidence"":5}","[0,1]","../img/tt/031tt.jpg","",""
"2686.28999999963","","","recognition","survey-text","79","420425","0.0-6.0-3.10","2884812","co38707","norming","","","{""guess"":""bear""}","","../img/tt/031tt.jpg","",""
"null","../img/gs/031gs.jpg","null","reveal","image-keyboard-response","80","422431","0.0-6.0-4.10","2884812","co38707","norming","","","","","","",""
"null","../img/tt/031tt.jpg","null","mooney2","image-keyboard-response","81","424441","0.0-6.0-5.10","2884812","co38707","norming","","","","","","",""
"3509.845000000496","","","post_reveal_questions","survey-likert","82","427953","0.0-6.0-6.10","2884812","co38707","norming","","","{""aha"":6}","[0]","../img/tt/031tt.jpg","",""
"null","<div style=""font-size:60px;""> </div>","null","fixation","html-keyboard-response","83","428156","0.0-6.0-0.11","2884812","co38707","norming","","","","","","",""
"null","../img/tt/1250tt.jpg","null","mooney1","image-keyboard-response","84","431167","0.0-6.0-1.11","2884812","co38707","norming","","","","","","",""
"4959.789999999921","","","post_mooney1_questions","survey-likert","85","436129","0.0-6.0-2.11","2884812","co38707","norming","","","{""curiosity"":4,""confidence"":4}","[0,1]","../img/tt/1250tt.jpg","",""
"2342.225000000326","","","recognition","survey-text","86","438473","0.0-6.0-3.11","2884812","co38707","norming","","","{""guess"":""water""}","","../img/tt/1250tt.jpg","",""
"null","../img/gs/1250gs.jpg","null","reveal","image-keyboard-response","87","440479","0.0-6.0-4.11","2884812","co38707","norming","","","","","","",""
"null","../img/tt/1250tt.jpg","null","mooney2","image-keyboard-response","88","442490","0.0-6.0-5.11","2884812","co38707","norming","","","","","","",""
"2956.930000000284","","","post_reveal_questions","survey-likert","89","445456","0.0-6.0-6.11","2884812","co38707","norming","","","{""aha"":3}","[0]","../img/tt/1250tt.jpg","",""
"null","<div style=""font-size:60px;""> </div>","null","fixation","html-keyboard-response","90","445658","0.0-6.0-0.12","2884812","co38707","norming","","","","","","",""
"null","../img/tt/1089tt.jpg","null","mooney1","image-keyboard-response","91","448663","0.0-6.0-1.12","2884812","co38707","norming","","","","","","",""
"7558.555000000517","","","post_mooney1_questions","survey-likert","92","456224","0.0-6.0-2.12","2884812","co38707","norming","","","{""curiosity"":3,""confidence"":3}","[0,1]","../img/tt/1089tt.jpg","",""
"12926.049999999988","","","recognition","survey-text","93","469152","0.0-6.0-3.12","2884812","co38707","norming","","","{""guess"":""water""}","","../img/tt/1089tt.jpg","",""
"null","../img/gs/1089gs.jpg","null","reveal","image-keyboard-response","94","471153","0.0-6.0-4.12","2884812","co38707","norming","","","","","","",""
"null","../img/tt/1089tt.jpg","null","mooney2","image-keyboard-response","95","473155","0.0-6.0-5.12","2884812","co38707","norming","","","","","","",""
"3322.4250000002794","","","post_reveal_questions","survey-likert","96","476480","0.0-6.0-6.12","2884812","co38707","norming","","","{""aha"":4}","[0]","../img/tt/1089tt.jpg","",""
"null","<div style=""font-size:60px;""> </div>","null","fixation","html-keyboard-response","97","476687","0.0-6.0-0.13","2884812","co38707","norming","","","","","","",""
"null","../img/tt/049tt.jpg","null","mooney1","image-keyboard-response","98","479695","0.0-6.0-1.13","2884812","co38707","norming","","","","","","",""
"3182.350000000035","","","post_mooney1_questions","survey-likert","99","482880","0.0-6.0-2.13","2884812","co38707","norming","","","{""curiosity"":3,""confidence"":3}","[0,1]","../img/tt/049tt.jpg","",""
"3070.2199999995646","","","recognition","survey-text","100","485952","0.0-6.0-3.13","2884812","co38707","norming","","","{""guess"":""tiny animal""}","","../img/tt/049tt.jpg","",""
"null","../img/gs/049gs.jpg","null","reveal","image-keyboard-response","101","487953","0.0-6.0-4.13","2884812","co38707","norming","","","","","","",""
"null","../img/tt/049tt.jpg","null","mooney2","image-keyboard-response","102","489955","0.0-6.0-5.13","2884812","co38707","norming","","","","","","",""
"3091.7499999995925","","","post_reveal_questions","survey-likert","103","493048","0.0-6.0-6.13","2884812","co38707","norming","","","{""aha"":5}","[0]","../img/tt/049tt.jpg","",""
"null","<div style=""font-size:60px;""> </div>","null","fixation","html-keyboard-response","104","493253","0.0-6.0-0.14","2884812","co38707","norming","","","","","","",""
"null","../img/tt/1262tt.jpg","null","mooney1","image-keyboard-response","105","496256","0.0-6.0-1.14","2884812","co38707","norming","","","","","","",""
"3413.185000000347","","","post_mooney1_questions","survey-likert","106","499672","0.0-6.0-2.14","2884812","co38707","norming","","","{""curiosity"":3,""confidence"":3}","[0,1]","../img/tt/1262tt.jpg","",""
"5269.984999999928","","","recognition","survey-text","107","504937","0.0-6.0-3.14","2884812","co38707","norming","","","{""guess"":""guinea pig""}","","../img/tt/1262tt.jpg","",""
"null","../img/gs/1262gs.jpg","null","reveal","image-keyboard-response","108","506942","0.0-6.0-4.14","2884812","co38707","norming","","","","","","",""
"null","../img/tt/1262tt.jpg","null","mooney2","image-keyboard-response","109","508950","0.0-6.0-5.14","2884812","co38707","norming","","","","","","",""
"5992.025000000431","","","post_reveal_questions","survey-likert","110","514945","0.0-6.0-6.14","2884812","co38707","norming","","","{""aha"":4}","[0]","../img/tt/1262tt.jpg","",""
"null","<div style=""font-size:60px;""> </div>","null","fixation","html-keyboard-response","111","515151","0.0-6.0-0.15","2884812","co38707","norming","","","","","","",""
"null","../img/tt/1363tt.jpg","null","mooney1","image-keyboard-response","112","518154","0.0-6.0-1.15","2884812","co38707","norming","","","","","","",""
"4316.509999999602","","","post_mooney1_questions","survey-likert","113","522473","0.0-6.0-2.15","2884812","co38707","norming","","","{""curiosity"":4,""confidence"":0}","[0,1]","../img/tt/1363tt.jpg","",""
"814.0450000000419","","","recognition","survey-text","114","523288","0.0-6.0-3.15","2884812","co38707","norming","","","{""guess"":""""}","","../img/tt/1363tt.jpg","",""
"null","../img/gs/1363gs.jpg","null","reveal","image-keyboard-response","115","525293","0.0-6.0-4.15","2884812","co38707","norming","","","","","","",""
"null","../img/tt/1363tt.jpg","null","mooney2","image-keyboard-response","116","527302","0.0-6.0-5.15","2884812","co38707","norming","","","","","","",""
"4184.655000000028","","","post_reveal_questions","survey-likert","117","531489","0.0-6.0-6.15","2884812","co38707","norming","","","{""aha"":0}","[0]","../img/tt/1363tt.jpg","",""
"null","<div style=""font-size:60px;""> </div>","null","fixation","html-keyboard-response","118","531695","0.0-6.0-0.16","2884812","co38707","norming","","","","","","",""
"null","../img/tt/1260tt.jpg","null","mooney1","image-keyboard-response","119","534700","0.0-6.0-1.16","2884812","co38707","norming","","","","","","",""
"6330.004999999888","","","post_mooney1_questions","survey-likert","120","541033","0.0-6.0-2.16","2884812","co38707","norming","","","{""curiosity"":2,""confidence"":0}","[0,1]","../img/tt/1260tt.jpg","",""
"349.94499999983236","","","recognition","survey-text","121","541385","0.0-6.0-3.16","2884812","co38707","norming","","","{""guess"":""""}","","../img/tt/1260tt.jpg","",""
"null","../img/gs/1260gs.jpg","null","reveal","image-keyboard-response","122","543394","0.0-6.0-4.16","2884812","co38707","norming","","","","","","",""
"null","../img/tt/1260tt.jpg","null","mooney2","image-keyboard-response","123","545403","0.0-6.0-5.16","2884812","co38707","norming","","","","","","",""
"5986.8349999996135","","","post_reveal_questions","survey-likert","124","551393","0.0-6.0-6.16","2884812","co38707","norming","","","{""aha"":6}","[0]","../img/tt/1260tt.jpg","",""
"null","<div style=""font-size:60px;""> </div>","null","fixation","html-keyboard-response","125","551594","0.0-6.0-0.17","2884812","co38707","norming","","","","","","",""
"null","../img/tt/046tt.jpg","null","mooney1","image-keyboard-response","126","554605","0.0-6.0-1.17","2884812","co38707","norming","","","","","","",""
"5016.8400000002","","","post_mooney1_questions","survey-likert","127","559625","0.0-6.0-2.17","2884812","co38707","norming","","","{""curiosity"":6,""confidence"":6}","[0,1]","../img/tt/046tt.jpg","",""
"2510.05999999959","","","recognition","survey-text","128","562137","0.0-6.0-3.17","2884812","co38707","norming","","","{""guess"":""wolf""}","","../img/tt/046tt.jpg","",""
"null","../img/gs/046gs.jpg","null","reveal","image-keyboard-response","129","564138","0.0-6.0-4.17","2884812","co38707","norming","","","","","","",""
"null","../img/tt/046tt.jpg","null","mooney2","image-keyboard-response","130","566149","0.0-6.0-5.17","2884812","co38707","norming","","","","","","",""
"5065.335000000196","","","post_reveal_questions","survey-likert","131","571217","0.0-6.0-6.17","2884812","co38707","norming","","","{""aha"":5}","[0]","../img/tt/046tt.jpg","",""
"null","<div style=""font-size:60px;""> </div>","null","fixation","html-keyboard-response","132","571420","0.0-6.0-0.18","2884812","co38707","norming","","","","","","",""
"null","../img/tt/1146tt.jpg","null","mooney1","image-keyboard-response","133","574427","0.0-6.0-1.18","2884812","co38707","norming","","","","","","",""
"4788.5900000002","","","post_mooney1_questions","survey-likert","134","579217","0.0-6.0-2.18","2884812","co38707","norming","","","{""curiosity"":5,""confidence"":5}","[0,1]","../img/tt/1146tt.jpg","",""
"3662.0750000001863","","","recognition","survey-text","135","582881","0.0-6.0-3.18","2884812","co38707","norming","","","{""guess"":""car seat""}","","../img/tt/1146tt.jpg","",""
"null","../img/gs/1146gs.jpg","null","reveal","image-keyboard-response","136","584883","0.0-6.0-4.18","2884812","co38707","norming","","","","","","",""
"null","../img/tt/1146tt.jpg","null","mooney2","image-keyboard-response","137","586885","0.0-6.0-5.18","2884812","co38707","norming","","","","","","",""
"3810.9850000001024","","","post_reveal_questions","survey-likert","138","590697","0.0-6.0-6.18","2884812","co38707","norming","","","{""aha"":2}","[0]","../img/tt/1146tt.jpg","",""
"null","<div style=""font-size:60px;""> </div>","null","fixation","html-keyboard-response","139","590898","0.0-6.0-0.19","2884812","co38707","norming","","","","","","",""
"null","../img/tt/1063tt.jpg","null","mooney1","image-keyboard-response","140","593907","0.0-6.0-1.19","2884812","co38707","norming","","","","","","",""
"5331.834999999963","","","post_mooney1_questions","survey-likert","141","599240","0.0-6.0-2.19","2884812","co38707","norming","","","{""curiosity"":3,""confidence"":3}","[0,1]","../img/tt/1063tt.jpg","",""
"2054.3649999999907","","","recognition","survey-text","142","601296","0.0-6.0-3.19","2884812","co38707","norming","","","{""guess"":""dog""}","","../img/tt/1063tt.jpg","",""
"null","../img/gs/1063gs.jpg","null","reveal","image-keyboard-response","143","603302","0.0-6.0-4.19","2884812","co38707","norming","","","","","","",""
"null","../img/tt/1063tt.jpg","null","mooney2","image-keyboard-response","144","605313","0.0-6.0-5.19","2884812","co38707","norming","","","","","","",""
"3293.380000000121","","","post_reveal_questions","survey-likert","145","608608","0.0-6.0-6.19","2884812","co38707","norming","","","{""aha"":4}","[0]","../img/tt/1063tt.jpg","",""
"null","<div style=""font-size:60px;""> </div>","null","fixation","html-keyboard-response","146","608811","0.0-6.0-0.20","2884812","co38707","norming","","","","","","",""
"null","../img/tt/1151tt.jpg","null","mooney1","image-keyboard-response","147","611821","0.0-6.0-1.20","2884812","co38707","norming","","","","","","",""
"4241.264999999665","","","post_mooney1_questions","survey-likert","148","616065","0.0-6.0-2.20","2884812","co38707","norming","","","{""curiosity"":0,""confidence"":0}","[0,1]","../img/tt/1151tt.jpg","",""
"238.06000000052154","","","recognition","survey-text","149","616305","0.0-6.0-3.20","2884812","co38707","norming","","","{""guess"":""""}","","../img/tt/1151tt.jpg","",""
"null","../img/gs/1151gs.jpg","null","reveal","image-keyboard-response","150","618310","0.0-6.0-4.20","2884812","co38707","norming","","","","","","",""
"null","../img/tt/1151tt.jpg","null","mooney2","image-keyboard-response","151","620312","0.0-6.0-5.20","2884812","co38707","norming","","","","","","",""
"5662.479999999981","","","post_reveal_questions","survey-likert","152","625977","0.0-6.0-6.20","2884812","co38707","norming","","","{""aha"":0}","[0]","../img/tt/1151tt.jpg","",""
"null","<div style=""font-size:60px;""> </div>","null","fixation","html-keyboard-response","153","626187","0.0-6.0-0.21","2884812","co38707","norming","","","","","","",""
"null","../img/tt/019tt.jpg","null","mooney1","image-keyboard-response","154","629193","0.0-6.0-1.21","2884812","co38707","norming","","","","","","",""
"5749.579999999725","","","post_mooney1_questions","survey-likert","155","634945","0.0-6.0-2.21","2884812","co38707","norming","","","{""curiosity"":3,""confidence"":3}","[0,1]","../img/tt/019tt.jpg","",""
"40702.28000000038","","","recognition","survey-text","156","675649","0.0-6.0-3.21","2884812","co38707","norming","","","{""guess"":""mechanics tool""}","","../img/tt/019tt.jpg","",""
"null","../img/gs/019gs.jpg","null","reveal","image-keyboard-response","157","677652","0.0-6.0-4.21","2884812","co38707","norming","","","","","","",""
"null","../img/tt/019tt.jpg","null","mooney2","image-keyboard-response","158","679661","0.0-6.0-5.21","2884812","co38707","norming","","","","","","",""
"3921.664999999921","","","post_reveal_questions","survey-likert","159","683585","0.0-6.0-6.21","2884812","co38707","norming","","","{""aha"":6}","[0]","../img/tt/019tt.jpg","",""
"null","<div style=""font-size:60px;""> </div>","null","fixation","html-keyboard-response","160","683794","0.0-6.0-0.22","2884812","co38707","norming","","","","","","",""
"null","../img/tt/1226tt.jpg","null","mooney1","image-keyboard-response","161","686796","0.0-6.0-1.22","2884812","co38707","norming","","","","","","",""
"3186.690000000526","","","post_mooney1_questions","survey-likert","162","689986","0.0-6.0-2.22","2884812","co38707","norming","","","{""curiosity"":0,""confidence"":0}","[0,1]","../img/tt/1226tt.jpg","",""
"702.6100000002189","","","recognition","survey-text","163","690690","0.0-6.0-3.22","2884812","co38707","norming","","","{""guess"":""""}","","../img/tt/1226tt.jpg","",""
"null","../img/gs/1226gs.jpg","null","reveal","image-keyboard-response","164","692701","0.0-6.0-4.22","2884812","co38707","norming","","","","","","",""
"null","../img/tt/1226tt.jpg","null","mooney2","image-keyboard-response","165","694703","0.0-6.0-5.22","2884812","co38707","norming","","","","","","",""
"3537.5100000001257","","","post_reveal_questions","survey-likert","166","698242","0.0-6.0-6.22","2884812","co38707","norming","","","{""aha"":6}","[0]","../img/tt/1226tt.jpg","",""
"null","<div style=""font-size:60px;""> </div>","null","fixation","html-keyboard-response","167","698449","0.0-6.0-0.23","2884812","co38707","norming","","","","","","",""
"null","../img/tt/1211tt.jpg","null","mooney1","image-keyboard-response","168","701455","0.0-6.0-1.23","2884812","co38707","norming","","","","","","",""
"6263.735000000452","","","post_mooney1_questions","survey-likert","169","707722","0.0-6.0-2.23","2884812","co38707","norming","","","{""curiosity"":0,""confidence"":2}","[0,1]","../img/tt/1211tt.jpg","",""
"5381.875000000116","","","recognition","survey-text","170","713105","0.0-6.0-3.23","2884812","co38707","norming","","","{""guess"":""chicken""}","","../img/tt/1211tt.jpg","",""
"null","../img/gs/1211gs.jpg","null","reveal","image-keyboard-response","171","715113","0.0-6.0-4.23","2884812","co38707","norming","","","","","","",""
"null","../img/tt/1211tt.jpg","null","mooney2","image-keyboard-response","172","717125","0.0-6.0-5.23","2884812","co38707","norming","","","","","","",""
"3785.775000000256","","","post_reveal_questions","survey-likert","173","720914","0.0-6.0-6.23","2884812","co38707","norming","","","{""aha"":1}","[0]","../img/tt/1211tt.jpg","",""
"null","<div style=""font-size:60px;""> </div>","null","fixation","html-keyboard-response","174","721115","0.0-6.0-0.24","2884812","co38707","norming","","","","","","",""
"null","../img/tt/1154tt.jpg","null","mooney1","image-keyboard-response","175","724117","0.0-6.0-1.24","2884812","co38707","norming","","","","","","",""
"4833.814999999944","","","post_mooney1_questions","survey-likert","176","728954","0.0-6.0-2.24","2884812","co38707","norming","","","{""curiosity"":4,""confidence"":4}","[0,1]","../img/tt/1154tt.jpg","",""
"1750.294999999809","","","recognition","survey-text","177","730706","0.0-6.0-3.24","2884812","co38707","norming","","","{""guess"":""dog""}","","../img/tt/1154tt.jpg","",""
"null","../img/gs/1154gs.jpg","null","reveal","image-keyboard-response","178","732708","0.0-6.0-4.24","2884812","co38707","norming","","","","","","",""
"null","../img/tt/1154tt.jpg","null","mooney2","image-keyboard-response","179","734716","0.0-6.0-5.24","2884812","co38707","norming","","","","","","",""
"4067.044999999809","","","post_reveal_questions","survey-likert","180","738786","0.0-6.0-6.24","2884812","co38707","norming","","","{""aha"":3}","[0]","../img/tt/1154tt.jpg","",""
"null","<div style=""font-size:60px;""> </div>","null","fixation","html-keyboard-response","181","738989","0.0-6.0-0.25","2884812","co38707","norming","","","","","","",""
"null","../img/tt/121tt.jpg","null","mooney1","image-keyboard-response","182","741994","0.0-6.0-1.25","2884812","co38707","norming","","","","","","",""
"3638.8950000000186","","","post_mooney1_questions","survey-likert","183","745634","0.0-6.0-2.25","2884812","co38707","norming","","","{""curiosity"":6,""confidence"":6}","[0,1]","../img/tt/121tt.jpg","",""
"4030.329999999609","","","recognition","survey-text","184","749658","0.0-6.0-3.25","2884812","co38707","norming","","","{""guess"":""kangoroo""}","","../img/tt/121tt.jpg","",""
"null","../img/gs/121gs.jpg","null","reveal","image-keyboard-response","185","751661","0.0-6.0-4.25","2884812","co38707","norming","","","","","","",""
"null","../img/tt/121tt.jpg","null","mooney2","image-keyboard-response","186","753670","0.0-6.0-5.25","2884812","co38707","norming","","","","","","",""
"4000.965000000084","","","post_reveal_questions","survey-likert","187","757674","0.0-6.0-6.25","2884812","co38707","norming","","","{""aha"":3}","[0]","../img/tt/121tt.jpg","",""
"null","<div style=""font-size:60px;""> </div>","null","fixation","html-keyboard-response","188","757878","0.0-6.0-0.26","2884812","co38707","norming","","","","","","",""
"null","../img/tt/1096tt.jpg","null","mooney1","image-keyboard-response","189","760885","0.0-6.0-1.26","2884812","co38707","norming","","","","","","",""
"4274.2350000006845","","","post_mooney1_questions","survey-likert","190","765162","0.0-6.0-2.26","2884812","co38707","norming","","","{""curiosity"":6,""confidence"":6}","[0,1]","../img/tt/1096tt.jpg","",""
"3006.1300000005867","","","recognition","survey-text","191","768170","0.0-6.0-3.26","2884812","co38707","norming","","","{""guess"":""horse""}","","../img/tt/1096tt.jpg","",""
"null","../img/gs/1096gs.jpg","null","reveal","image-keyboard-response","192","770176","0.0-6.0-4.26","2884812","co38707","norming","","","","","","",""
"null","../img/tt/1096tt.jpg","null","mooney2","image-keyboard-response","193","772181","0.0-6.0-5.26","2884812","co38707","norming","","","","","","",""
"3482.0150000004796","","","post_reveal_questions","survey-likert","194","775666","0.0-6.0-6.26","2884812","co38707","norming","","","{""aha"":5}","[0]","../img/tt/1096tt.jpg","",""
"null","<div style=""font-size:60px;""> </div>","null","fixation","html-keyboard-response","195","775870","0.0-6.0-0.27","2884812","co38707","norming","","","","","","",""
"null","../img/tt/515tt.jpg","null","mooney1","image-keyboard-response","196","778874","0.0-6.0-1.27","2884812","co38707","norming","","","","","","",""
"4452.795000000158","","","post_mooney1_questions","survey-likert","197","783330","0.0-6.0-2.27","2884812","co38707","norming","","","{""curiosity"":6,""confidence"":3}","[0,1]","../img/tt/515tt.jpg","",""
"5846.214999999618","","","recognition","survey-text","198","789177","0.0-6.0-3.27","2884812","co38707","norming","","","{""guess"":""cat/chicken""}","","../img/tt/515tt.jpg","",""
"null","../img/gs/515gs.jpg","null","reveal","image-keyboard-response","199","791185","0.0-6.0-4.27","2884812","co38707","norming","","","","","","",""
"null","../img/tt/515tt.jpg","null","mooney2","image-keyboard-response","200","793196","0.0-6.0-5.27","2884812","co38707","norming","","","","","","",""
"4395.164999999921","","","post_reveal_questions","survey-likert","201","797593","0.0-6.0-6.27","2884812","co38707","norming","","","{""aha"":4}","[0]","../img/tt/515tt.jpg","",""
"null","<div style=""font-size:60px;""> </div>","null","fixation","html-keyboard-response","202","797800","0.0-6.0-0.28","2884812","co38707","norming","","","","","","",""
"null","../img/tt/438tt.jpg","null","mooney1","image-keyboard-response","203","800808","0.0-6.0-1.28","2884812","co38707","norming","","","","","","",""
"4430.839999999967","","","post_mooney1_questions","survey-likert","204","805242","0.0-6.0-2.28","2884812","co38707","norming","","","{""curiosity"":6,""confidence"":4}","[0,1]","../img/tt/438tt.jpg","",""
"6269.960000000545","","","recognition","survey-text","205","811522","0.0-6.0-3.28","2884812","co38707","norming","","","{""guess"":""tortoise""}","","../img/tt/438tt.jpg","",""
"null","../img/gs/438gs.jpg","null","reveal","image-keyboard-response","206","813528","0.0-6.0-4.28","2884812","co38707","norming","","","","","","",""
"null","../img/tt/438tt.jpg","null","mooney2","image-keyboard-response","207","815539","0.0-6.0-5.28","2884812","co38707","norming","","","","","","",""
"2675.7600000001257","","","post_reveal_questions","survey-likert","208","818218","0.0-6.0-6.28","2884812","co38707","norming","","","{""aha"":3}","[0]","../img/tt/438tt.jpg","",""
"null","<div style=""font-size:60px;""> </div>","null","fixation","html-keyboard-response","209","818427","0.0-6.0-0.29","2884812","co38707","norming","","","","","","",""
"null","../img/tt/063tt.jpg","null","mooney1","image-keyboard-response","210","821432","0.0-6.0-1.29","2884812","co38707","norming","","","","","","",""
"5910.994999999297","","","post_mooney1_questions","survey-likert","211","827346","0.0-6.0-2.29","2884812","co38707","norming","","","{""curiosity"":1,""confidence"":0}","[0,1]","../img/tt/063tt.jpg","",""
"1502.1200000001118","","","recognition","survey-text","212","828849","0.0-6.0-3.29","2884812","co38707","norming","","","{""guess"":""  ""}","","../img/tt/063tt.jpg","",""
"null","../img/gs/063gs.jpg","null","reveal","image-keyboard-response","213","830857","0.0-6.0-4.29","2884812","co38707","norming","","","","","","",""
"null","../img/tt/063tt.jpg","null","mooney2","image-keyboard-response","214","832863","0.0-6.0-5.29","2884812","co38707","norming","","","","","","",""
"4183.715000000084","","","post_reveal_questions","survey-likert","215","837050","0.0-6.0-6.29","2884812","co38707","norming","","","{""aha"":6}","[0]","../img/tt/063tt.jpg","",""
"null","<div style=""font-size:60px;""> </div>","null","fixation","html-keyboard-response","216","837256","0.0-6.0-0.30","2884812","co38707","norming","","","","","","",""
"null","../img/tt/1261tt.jpg","null","mooney1","image-keyboard-response","217","840268","0.0-6.0-1.30","2884812","co38707","norming","","","","","","",""
"3418.230000000214","","","post_mooney1_questions","survey-likert","218","843689","0.0-6.0-2.30","2884812","co38707","norming","","","{""curiosity"":6,""confidence"":4}","[0,1]","../img/tt/1261tt.jpg","",""
"2358.054999999702","","","recognition","survey-text","219","846049","0.0-6.0-3.30","2884812","co38707","norming","","","{""guess"":""dogs""}","","../img/tt/1261tt.jpg","",""
"null","../img/gs/1261gs.jpg","null","reveal","image-keyboard-response","220","848055","0.0-6.0-4.30","2884812","co38707","norming","","","","","","",""
"null","../img/tt/1261tt.jpg","null","mooney2","image-keyboard-response","221","850060","0.0-6.0-5.30","2884812","co38707","norming","","","","","","",""
"5196.164999999339","","","post_reveal_questions","survey-likert","222","855258","0.0-6.0-6.30","2884812","co38707","norming","","","{""aha"":2}","[0]","../img/tt/1261tt.jpg","",""
"null","<div style=""font-size:60px;""> </div>","null","fixation","html-keyboard-response","223","855464","0.0-6.0-0.31","2884812","co38707","norming","","","","","","",""
"null","../img/tt/279tt.jpg","null","mooney1","image-keyboard-response","224","858473","0.0-6.0-1.31","2884812","co38707","norming","","","","","","",""
"2492.4449999998324","","","post_mooney1_questions","survey-likert","225","860970","0.0-6.0-2.31","2884812","co38707","norming","","","{""curiosity"":6,""confidence"":6}","[0,1]","../img/tt/279tt.jpg","",""
"2774.345000000787","","","recognition","survey-text","226","863746","0.0-6.0-3.31","2884812","co38707","norming","","","{""guess"":""koala""}","","../img/tt/279tt.jpg","",""
"null","../img/gs/279gs.jpg","null","reveal","image-keyboard-response","227","865755","0.0-6.0-4.31","2884812","co38707","norming","","","","","","",""
"null","../img/tt/279tt.jpg","null","mooney2","image-keyboard-response","228","867759","0.0-6.0-5.31","2884812","co38707","norming","","","","","","",""
"2889.07500000007","","","post_reveal_questions","survey-likert","229","870651","0.0-6.0-6.31","2884812","co38707","norming","","","{""aha"":6}","[0]","../img/tt/279tt.jpg","",""
"null","<div style=""font-size:60px;""> </div>","null","fixation","html-keyboard-response","230","870853","0.0-6.0-0.32","2884812","co38707","norming","","","","","","",""
"null","../img/tt/112tt.jpg","null","mooney1","image-keyboard-response","231","873863","0.0-6.0-1.32","2884812","co38707","norming","","","","","","",""
"2894.5050000002375","","","post_mooney1_questions","survey-likert","232","876762","0.0-6.0-2.32","2884812","co38707","norming","","","{""curiosity"":6,""confidence"":4}","[0,1]","../img/tt/112tt.jpg","",""
"2837.660000000149","","","recognition","survey-text","233","879602","0.0-6.0-3.32","2884812","co38707","norming","","","{""guess"":""penguin""}","","../img/tt/112tt.jpg","",""
"null","../img/gs/112gs.jpg","null","reveal","image-keyboard-response","234","881604","0.0-6.0-4.32","2884812","co38707","norming","","","","","","",""
"null","../img/tt/112tt.jpg","null","mooney2","image-keyboard-response","235","883609","0.0-6.0-5.32","2884812","co38707","norming","","","","","","",""
"4831.5800000000745","","","post_reveal_questions","survey-likert","236","888442","0.0-6.0-6.32","2884812","co38707","norming","","","{""aha"":2}","[0]","../img/tt/112tt.jpg","",""
"null","<div style=""font-size:60px;""> </div>","null","fixation","html-keyboard-response","237","888643","0.0-6.0-0.33","2884812","co38707","norming","","","","","","",""
"null","../img/tt/078tt.jpg","null","mooney1","image-keyboard-response","238","891649","0.0-6.0-1.33","2884812","co38707","norming","","","","","","",""
"6327.439999999944","","","post_mooney1_questions","survey-likert","239","897978","0.0-6.0-2.33","2884812","co38707","norming","","","{""curiosity"":4,""confidence"":0}","[0,1]","../img/tt/078tt.jpg","",""
"166.18500000005588","","","recognition","survey-text","240","898146","0.0-6.0-3.33","2884812","co38707","norming","","","{""guess"":""""}","","../img/tt/078tt.jpg","",""
"null","../img/gs/078gs.jpg","null","reveal","image-keyboard-response","241","900151","0.0-6.0-4.33","2884812","co38707","norming","","","","","","",""
"null","../img/tt/078tt.jpg","null","mooney2","image-keyboard-response","242","902153","0.0-6.0-5.33","2884812","co38707","norming","","","","","","",""
"2950.6000000002095","","","post_reveal_questions","survey-likert","243","905106","0.0-6.0-6.33","2884812","co38707","norming","","","{""aha"":3}","[0]","../img/tt/078tt.jpg","",""
"null","<div style=""font-size:60px;""> </div>","null","fixation","html-keyboard-response","244","905313","0.0-6.0-0.34","2884812","co38707","norming","","","","","","",""
"null","../img/tt/435tt.jpg","null","mooney1","image-keyboard-response","245","908317","0.0-6.0-1.34","2884812","co38707","norming","","","","","","",""
"2418.935000000638","","","post_mooney1_questions","survey-likert","246","910738","0.0-6.0-2.34","2884812","co38707","norming","","","{""curiosity"":0,""confidence"":0}","[0,1]","../img/tt/435tt.jpg","",""
"750.1650000003865","","","recognition","survey-text","247","911490","0.0-6.0-3.34","2884812","co38707","norming","","","{""guess"":""""}","","../img/tt/435tt.jpg","",""
"null","../img/gs/435gs.jpg","null","reveal","image-keyboard-response","248","913497","0.0-6.0-4.34","2884812","co38707","norming","","","","","","",""
"null","../img/tt/435tt.jpg","null","mooney2","image-keyboard-response","249","915500","0.0-6.0-5.34","2884812","co38707","norming","","","","","","",""
"2716.220000000205","","","post_reveal_questions","survey-likert","250","918218","0.0-6.0-6.34","2884812","co38707","norming","","","{""aha"":3}","[0]","../img/tt/435tt.jpg","",""
"null","<div style=""font-size:60px;""> </div>","null","fixation","html-keyboard-response","251","918427","0.0-6.0-0.35","2884812","co38707","norming","","","","","","",""
"null","../img/tt/468tt.jpg","null","mooney1","image-keyboard-response","252","921434","0.0-6.0-1.35","2884812","co38707","norming","","","","","","",""
"7725.6500000003725","","","post_mooney1_questions","survey-likert","253","929162","0.0-6.0-2.35","2884812","co38707","norming","","","{""curiosity"":4,""confidence"":2}","[0,1]","../img/tt/468tt.jpg","",""
"7462.070000000414","","","recognition","survey-text","254","936626","0.0-6.0-3.35","2884812","co38707","norming","","","{""guess"":""musical instrument""}","","../img/tt/468tt.jpg","",""
"null","../img/gs/468gs.jpg","null","reveal","image-keyboard-response","255","938629","0.0-6.0-4.35","2884812","co38707","norming","","","","","","",""
"null","../img/tt/468tt.jpg","null","mooney2","image-keyboard-response","256","940640","0.0-6.0-5.35","2884812","co38707","norming","","","","","","",""
"3463.629999999306","","","post_reveal_questions","survey-likert","257","944106","0.0-6.0-6.35","2884812","co38707","norming","","","{""aha"":5}","[0]","../img/tt/468tt.jpg","",""
"null","<div style=""font-size:60px;""> </div>","null","fixation","html-keyboard-response","258","944307","0.0-6.0-0.36","2884812","co38707","norming","","","","","","",""
"null","../img/tt/1205tt.jpg","null","mooney1","image-keyboard-response","259","947315","0.0-6.0-1.36","2884812","co38707","norming","","","","","","",""
"4659.970000000671","","","post_mooney1_questions","survey-likert","260","951978","0.0-6.0-2.36","2884812","co38707","norming","","","{""curiosity"":3,""confidence"":3}","[0,1]","../img/tt/1205tt.jpg","",""
"11142.45499999926","","","recognition","survey-text","261","963122","0.0-6.0-3.36","2884812","co38707","norming","","","{""guess"":""people dancing""}","","../img/tt/1205tt.jpg","",""
"null","../img/gs/1205gs.jpg","null","reveal","image-keyboard-response","262","965128","0.0-6.0-4.36","2884812","co38707","norming","","","","","","",""
"null","../img/tt/1205tt.jpg","null","mooney2","image-keyboard-response","263","967130","0.0-6.0-5.36","2884812","co38707","norming","","","","","","",""
"3933.4800000005635","","","post_reveal_questions","survey-likert","264","971066","0.0-6.0-6.36","2884812","co38707","norming","","","{""aha"":4}","[0]","../img/tt/1205tt.jpg","",""
"null","<div style=""font-size:60px;""> </div>","null","fixation","html-keyboard-response","265","971269","0.0-6.0-0.37","2884812","co38707","norming","","","","","","",""
"null","../img/tt/1191tt.jpg","null","mooney1","image-keyboard-response","266","974278","0.0-6.0-1.37","2884812","co38707","norming","","","","","","",""
"7417.954999999958","","","post_mooney1_questions","survey-likert","267","981699","0.0-6.0-2.37","2884812","co38707","norming","","","{""curiosity"":1,""confidence"":0}","[0,1]","../img/tt/1191tt.jpg","",""
"2622.035000000382","","","recognition","survey-text","268","984322","0.0-6.0-3.37","2884812","co38707","norming","","","{""guess"":""elephants""}","","../img/tt/1191tt.jpg","",""
"null","../img/gs/1191gs.jpg","null","reveal","image-keyboard-response","269","986332","0.0-6.0-4.37","2884812","co38707","norming","","","","","","",""
"null","../img/tt/1191tt.jpg","null","mooney2","image-keyboard-response","270","988335","0.0-6.0-5.37","2884812","co38707","norming","","","","","","",""
"5104.074999999255","","","post_reveal_questions","survey-likert","271","993443","0.0-6.0-6.37","2884812","co38707","norming","","","{""aha"":0}","[0]","../img/tt/1191tt.jpg","",""
"null","<div style=""font-size:60px;""> </div>","null","fixation","html-keyboard-response","272","993652","0.0-6.0-0.38","2884812","co38707","norming","","","","","","",""
"null","../img/tt/477tt.jpg","null","mooney1","image-keyboard-response","273","996657","0.0-6.0-1.38","2884812","co38707","norming","","","","","","",""
"8118.664999999921","","","post_mooney1_questions","survey-likert","274","1004779","0.0-6.0-2.38","2884812","co38707","norming","","","{""curiosity"":2,""confidence"":2}","[0,1]","../img/tt/477tt.jpg","",""
"3254.135000000242","","","recognition","survey-text","275","1008035","0.0-6.0-3.38","2884812","co38707","norming","","","{""guess"":""circus""}","","../img/tt/477tt.jpg","",""
"null","../img/gs/477gs.jpg","null","reveal","image-keyboard-response","276","1010041","0.0-6.0-4.38","2884812","co38707","norming","","","","","","",""
"null","../img/tt/477tt.jpg","null","mooney2","image-keyboard-response","277","1012051","0.0-6.0-5.38","2884812","co38707","norming","","","","","","",""
"5470.379999999772","","","post_reveal_questions","survey-likert","278","1017523","0.0-6.0-6.38","2884812","co38707","norming","","","{""aha"":0}","[0]","../img/tt/477tt.jpg","",""
"null","<div style=""font-size:60px;""> </div>","null","fixation","html-keyboard-response","279","1017726","0.0-6.0-0.39","2884812","co38707","norming","","","","","","",""
"null","../img/tt/1202tt.jpg","null","mooney1","image-keyboard-response","280","1020732","0.0-6.0-1.39","2884812","co38707","norming","","","","","","",""
"6331.320000000298","","","post_mooney1_questions","survey-likert","281","1027067","0.0-6.0-2.39","2884812","co38707","norming","","","{""curiosity"":3,""confidence"":3}","[0,1]","../img/tt/1202tt.jpg","",""
"1414.3850000000093","","","recognition","survey-text","282","1028483","0.0-6.0-3.39","2884812","co38707","norming","","","{""guess"":""""}","","../img/tt/1202tt.jpg","",""
"null","../img/gs/1202gs.jpg","null","reveal","image-keyboard-response","283","1030494","0.0-6.0-4.39","2884812","co38707","norming","","","","","","",""
"null","../img/tt/1202tt.jpg","null","mooney2","image-keyboard-response","284","1032495","0.0-6.0-5.39","2884812","co38707","norming","","","","","","",""
"4512.845000000205","","","post_reveal_questions","survey-likert","285","1037011","0.0-6.0-6.39","2884812","co38707","norming","","","{""aha"":4}","[0]","../img/tt/1202tt.jpg","",""
"null","<div style=""font-size:60px;""> </div>","null","fixation","html-keyboard-response","286","1037219","0.0-6.0-0.40","2884812","co38707","norming","","","","","","",""
"null","../img/tt/412tt.jpg","null","mooney1","image-keyboard-response","287","1040225","0.0-6.0-1.40","2884812","co38707","norming","","","","","","",""
"3071.4900000002235","","","post_mooney1_questions","survey-likert","288","1043299","0.0-6.0-2.40","2884812","co38707","norming","","","{""curiosity"":0,""confidence"":1}","[0,1]","../img/tt/412tt.jpg","",""
"3053.9799999997485","","","recognition","survey-text","289","1046355","0.0-6.0-3.40","2884812","co38707","norming","","","{""guess"":""robot""}","","../img/tt/412tt.jpg","",""
"null","../img/gs/412gs.jpg","null","reveal","image-keyboard-response","290","1048360","0.0-6.0-4.40","2884812","co38707","norming","","","","","","",""
"null","../img/tt/412tt.jpg","null","mooney2","image-keyboard-response","291","1050362","0.0-6.0-5.40","2884812","co38707","norming","","","","","","",""
"5445.815000000177","","","post_reveal_questions","survey-likert","292","1055811","0.0-6.0-6.40","2884812","co38707","norming","","","{""aha"":1}","[0]","../img/tt/412tt.jpg","",""
"null","<div style=""font-size:60px;""> </div>","null","fixation","html-keyboard-response","293","1056013","0.0-6.0-0.41","2884812","co38707","norming","","","","","","",""
"null","../img/tt/1087tt.jpg","null","mooney1","image-keyboard-response","294","1059015","0.0-6.0-1.41","2884812","co38707","norming","","","","","","",""
"11584.740000000224","","","post_mooney1_questions","survey-likert","295","1070603","0.0-6.0-2.41","2884812","co38707","norming","","","{""curiosity"":5,""confidence"":2}","[0,1]","../img/tt/1087tt.jpg","",""
"3253.9749999996275","","","recognition","survey-text","296","1073859","0.0-6.0-3.41","2884812","co38707","norming","","","{""guess"":""dog brking""}","","../img/tt/1087tt.jpg","",""
"null","../img/gs/1087gs.jpg","null","reveal","image-keyboard-response","297","1075866","0.0-6.0-4.41","2884812","co38707","norming","","","","","","",""
"null","../img/tt/1087tt.jpg","null","mooney2","image-keyboard-response","298","1077877","0.0-6.0-5.41","2884812","co38707","norming","","","","","","",""
"6972.590000000317","","","post_reveal_questions","survey-likert","299","1084851","0.0-6.0-6.41","2884812","co38707","norming","","","{""aha"":2}","[0]","../img/tt/1087tt.jpg","",""
"null","<div style=""font-size:60px;""> </div>","null","fixation","html-keyboard-response","300","1085052","0.0-6.0-0.42","2884812","co38707","norming","","","","","","",""
"null","../img/tt/549tt.jpg","null","mooney1","image-keyboard-response","301","1088058","0.0-6.0-1.42","2884812","co38707","norming","","","","","","",""
"3984.4149999998044","","","post_mooney1_questions","survey-likert","302","1092043","0.0-6.0-2.42","2884812","co38707","norming","","","{""curiosity"":0,""confidence"":0}","[0,1]","../img/tt/549tt.jpg","",""
"822.420000000624","","","recognition","survey-text","303","1092867","0.0-6.0-3.42","2884812","co38707","norming","","","{""guess"":""""}","","../img/tt/549tt.jpg","",""
"null","../img/gs/549gs.jpg","null","reveal","image-keyboard-response","304","1094874","0.0-6.0-4.42","2884812","co38707","norming","","","","","","",""
"null","../img/tt/549tt.jpg","null","mooney2","image-keyboard-response","305","1096886","0.0-6.0-5.42","2884812","co38707","norming","","","","","","",""
"4040.0850000006612","","","post_reveal_questions","survey-likert","306","1100931","0.0-6.0-6.42","2884812","co38707","norming","","","{""aha"":1}","[0]","../img/tt/549tt.jpg","",""
"null","<div style=""font-size:60px;""> </div>","null","fixation","html-keyboard-response","307","1101135","0.0-6.0-0.43","2884812","co38707","norming","","","","","","",""
"null","../img/tt/189tt.jpg","null","mooney1","image-keyboard-response","308","1104146","0.0-6.0-1.43","2884812","co38707","norming","","","","","","",""
"4166.345000000438","","","post_mooney1_questions","survey-likert","309","1108315","0.0-6.0-2.43","2884812","co38707","norming","","","{""curiosity"":0,""confidence"":0}","[0,1]","../img/tt/189tt.jpg","",""
"1174.3900000001304","","","recognition","survey-text","310","1109484","0.0-6.0-3.43","2884812","co38707","norming","","","{""guess"":""""}","","../img/tt/189tt.jpg","",""
"null","../img/gs/189gs.jpg","null","reveal","image-keyboard-response","311","1111493","0.0-6.0-4.43","2884812","co38707","norming","","","","","","",""
"null","../img/tt/189tt.jpg","null","mooney2","image-keyboard-response","312","1113504","0.0-6.0-5.43","2884812","co38707","norming","","","","","","",""
"4808.060000000289","","","post_reveal_questions","survey-likert","313","1118315","0.0-6.0-6.43","2884812","co38707","norming","","","{""aha"":2}","[0]","../img/tt/189tt.jpg","",""
"null","<div style=""font-size:60px;""> </div>","null","fixation","html-keyboard-response","314","1118518","0.0-6.0-0.44","2884812","co38707","norming","","","","","","",""
"null","../img/tt/301tt.jpg","null","mooney1","image-keyboard-response","315","1121529","0.0-6.0-1.44","2884812","co38707","norming","","","","","","",""
"5207.790000000503","","","post_mooney1_questions","survey-likert","316","1126740","0.0-6.0-2.44","2884812","co38707","norming","","","{""curiosity"":0,""confidence"":1}","[0,1]","../img/tt/301tt.jpg","",""
"3142.0749999999534","","","recognition","survey-text","317","1129883","0.0-6.0-3.44","2884812","co38707","norming","","","{""guess"":""cinema""}","","../img/tt/301tt.jpg","",""
"null","../img/gs/301gs.jpg","null","reveal","image-keyboard-response","318","1131890","0.0-6.0-4.44","2884812","co38707","norming","","","","","","",""
"null","../img/tt/301tt.jpg","null","mooney2","image-keyboard-response","319","1133893","0.0-6.0-5.44","2884812","co38707","norming","","","","","","",""
"6612.0449999999255","","","post_reveal_questions","survey-likert","320","1140507","0.0-6.0-6.44","2884812","co38707","norming","","","{""aha"":4}","[0]","../img/tt/301tt.jpg","",""
"null","<div style=""font-size:60px;""> </div>","null","fixation","html-keyboard-response","321","1140717","0.0-6.0-0.45","2884812","co38707","norming","","","","","","",""
"null","../img/tt/307tt.jpg","null","mooney1","image-keyboard-response","322","1143719","0.0-6.0-1.45","2884812","co38707","norming","","","","","","",""
"6130.040000000037","","","post_mooney1_questions","survey-likert","323","1149852","0.0-6.0-2.45","2884812","co38707","norming","","","{""curiosity"":4,""confidence"":3}","[0,1]","../img/tt/307tt.jpg","",""
"3917.9700000004377","","","recognition","survey-text","324","1153771","0.0-6.0-3.45","2884812","co38707","norming","","","{""guess"":""tortoise""}","","../img/tt/307tt.jpg","",""
"null","../img/gs/307gs.jpg","null","reveal","image-keyboard-response","325","1155777","0.0-6.0-4.45","2884812","co38707","norming","","","","","","",""
"null","../img/tt/307tt.jpg","null","mooney2","image-keyboard-response","326","1157779","0.0-6.0-5.45","2884812","co38707","norming","","","","","","",""
"3461.6699999996927","","","post_reveal_questions","survey-likert","327","1161244","0.0-6.0-6.45","2884812","co38707","norming","","","{""aha"":6}","[0]","../img/tt/307tt.jpg","",""
"null","<div style=""font-size:60px;""> </div>","null","fixation","html-keyboard-response","328","1161445","0.0-6.0-0.46","2884812","co38707","norming","","","","","","",""
"null","../img/tt/135tt.jpg","null","mooney1","image-keyboard-response","329","1164455","0.0-6.0-1.46","2884812","co38707","norming","","","","","","",""
"4113.960000000428","","","post_mooney1_questions","survey-likert","330","1168572","0.0-6.0-2.46","2884812","co38707","norming","","","{""curiosity"":5,""confidence"":5}","[0,1]","../img/tt/135tt.jpg","",""
"4030.060000000056","","","recognition","survey-text","331","1172604","0.0-6.0-3.46","2884812","co38707","norming","","","{""guess"":""toilet seat""}","","../img/tt/135tt.jpg","",""
"null","../img/gs/135gs.jpg","null","reveal","image-keyboard-response","332","1174614","0.0-6.0-4.46","2884812","co38707","norming","","","","","","",""
"null","../img/tt/135tt.jpg","null","mooney2","image-keyboard-response","333","1176618","0.0-6.0-5.46","2884812","co38707","norming","","","","","","",""
"5111.174999999814","","","post_reveal_questions","survey-likert","334","1181731","0.0-6.0-6.46","2884812","co38707","norming","","","{""aha"":5}","[0]","../img/tt/135tt.jpg","",""
"null","<div style=""font-size:60px;""> </div>","null","fixation","html-keyboard-response","335","1181937","0.0-6.0-0.47","2884812","co38707","norming","","","","","","",""
"null","../img/tt/1040tt.jpg","null","mooney1","image-keyboard-response","336","1184950","0.0-6.0-1.47","2884812","co38707","norming","","","","","","",""
"4994.065000000875","","","post_mooney1_questions","survey-likert","337","1189948","0.0-6.0-2.47","2884812","co38707","norming","","","{""curiosity"":2,""confidence"":2}","[0,1]","../img/tt/1040tt.jpg","",""
"4685.985000000102","","","recognition","survey-text","338","1194636","0.0-6.0-3.47","2884812","co38707","norming","","","{""guess"":""hippopotamus""}","","../img/tt/1040tt.jpg","",""
"null","../img/gs/1040gs.jpg","null","reveal","image-keyboard-response","339","1196645","0.0-6.0-4.47","2884812","co38707","norming","","","","","","",""
"null","../img/tt/1040tt.jpg","null","mooney2","image-keyboard-response","340","1198648","0.0-6.0-5.47","2884812","co38707","norming","","","","","","",""
"2928.704999999376","","","post_reveal_questions","survey-likert","341","1201580","0.0-6.0-6.47","2884812","co38707","norming","","","{""aha"":3}","[0]","../img/tt/1040tt.jpg","",""
"null","<div style=""font-size:60px;""> </div>","null","fixation","html-keyboard-response","342","1201785","0.0-6.0-0.48","2884812","co38707","norming","","","","","","",""
"null","../img/tt/1043tt.jpg","null","mooney1","image-keyboard-response","343","1204789","0.0-6.0-1.48","2884812","co38707","norming","","","","","","",""
"3259.3649999999907","","","post_mooney1_questions","survey-likert","344","1208052","0.0-6.0-2.48","2884812","co38707","norming","","","{""curiosity"":0,""confidence"":0}","[0,1]","../img/tt/1043tt.jpg","",""
"1207.04000000027","","","recognition","survey-text","345","1209260","0.0-6.0-3.48","2884812","co38707","norming","","","{""guess"":""""}","","../img/tt/1043tt.jpg","",""
"null","../img/gs/1043gs.jpg","null","reveal","image-keyboard-response","346","1211262","0.0-6.0-4.48","2884812","co38707","norming","","","","","","",""
"null","../img/tt/1043tt.jpg","null","mooney2","image-keyboard-response","347","1213264","0.0-6.0-5.48","2884812","co38707","norming","","","","","","",""
"2625.589999999618","","","post_reveal_questions","survey-likert","348","1215892","0.0-6.0-6.48","2884812","co38707","norming","","","{""aha"":2}","[0]","../img/tt/1043tt.jpg","",""
"null","<div style=""font-size:60px;""> </div>","null","fixation","html-keyboard-response","349","1216101","0.0-6.0-0.49","2884812","co38707","norming","","","","","","",""
"null","../img/tt/060tt.jpg","null","mooney1","image-keyboard-response","350","1219105","0.0-6.0-1.49","2884812","co38707","norming","","","","","","",""
"4805.744999999646","","","post_mooney1_questions","survey-likert","351","1223916","0.0-6.0-2.49","2884812","co38707","norming","","","{""curiosity"":0,""confidence"":0}","[0,1]","../img/tt/060tt.jpg","",""
"350.15000000037253","","","recognition","survey-text","352","1224268","0.0-6.0-3.49","2884812","co38707","norming","","","{""guess"":""""}","","../img/tt/060tt.jpg","",""
"null","../img/gs/060gs.jpg","null","reveal","image-keyboard-response","353","1226278","0.0-6.0-4.49","2884812","co38707","norming","","","","","","",""
"null","../img/tt/060tt.jpg","null","mooney2","image-keyboard-response","354","1228286","0.0-6.0-5.49","2884812","co38707","norming","","","","","","",""
"4450.7750000003725","","","post_reveal_questions","survey-likert","355","1232747","0.0-6.0-6.49","2884812","co38707","norming","","","{""aha"":6}","[0]","../img/tt/060tt.jpg","",""
"null","<div style=""font-size:60px;""> </div>","null","fixation","html-keyboard-response","356","1232956","0.0-6.0-0.50","2884812","co38707","norming","","","","","","",""
"null","../img/tt/1247tt.jpg","null","mooney1","image-keyboard-response","357","1235965","0.0-6.0-1.50","2884812","co38707","norming","","","","","","",""
"4507.904999999329","","","post_mooney1_questions","survey-likert","358","1240475","0.0-6.0-2.50","2884812","co38707","norming","","","{""curiosity"":2,""confidence"":2}","[0,1]","../img/tt/1247tt.jpg","",""
"11686.380000000121","","","recognition","survey-text","359","1252163","0.0-6.0-3.50","2884812","co38707","norming","","","{""guess"":""potrait picture""}","","../img/tt/1247tt.jpg","",""
"null","../img/gs/1247gs.jpg","null","reveal","image-keyboard-response","360","1254164","0.0-6.0-4.50","2884812","co38707","norming","","","","","","",""
"null","../img/tt/1247tt.jpg","null","mooney2","image-keyboard-response","361","1256167","0.0-6.0-5.50","2884812","co38707","norming","","","","","","",""
"6329.335000000428","","","post_reveal_questions","survey-likert","362","1262499","0.0-6.0-6.50","2884812","co38707","norming","","","{""aha"":2}","[0]","../img/tt/1247tt.jpg","",""
"null","<div style=""font-size:60px;""> </div>","null","fixation","html-keyboard-response","363","1262700","0.0-6.0-0.51","2884812","co38707","norming","","","","","","",""
"null","../img/tt/1199tt.jpg","null","mooney1","image-keyboard-response","364","1265710","0.0-6.0-1.51","2884812","co38707","norming","","","","","","",""
"2755.2499999993015","","","post_mooney1_questions","survey-likert","365","1268467","0.0-6.0-2.51","2884812","co38707","norming","","","{""curiosity"":3,""confidence"":3}","[0,1]","../img/tt/1199tt.jpg","",""
"2238.4650000003166","","","recognition","survey-text","366","1270707","0.0-6.0-3.51","2884812","co38707","norming","","","{""guess"":""baby""}","","../img/tt/1199tt.jpg","",""
"null","../img/gs/1199gs.jpg","null","reveal","image-keyboard-response","367","1272709","0.0-6.0-4.51","2884812","co38707","norming","","","","","","",""
"null","../img/tt/1199tt.jpg","null","mooney2","image-keyboard-response","368","1274711","0.0-6.0-5.51","2884812","co38707","norming","","","","","","",""
"4194.750000000466","","","post_reveal_questions","survey-likert","369","1278907","0.0-6.0-6.51","2884812","co38707","norming","","","{""aha"":3}","[0]","../img/tt/1199tt.jpg","",""
"null","<div style=""font-size:60px;""> </div>","null","fixation","html-keyboard-response","370","1279118","0.0-6.0-0.52","2884812","co38707","norming","","","","","","",""
"null","../img/tt/517tt.jpg","null","mooney1","image-keyboard-response","371","1282127","0.0-6.0-1.52","2884812","co38707","norming","","","","","","",""
"5537.344999999739","","","post_mooney1_questions","survey-likert","372","1287667","0.0-6.0-2.52","2884812","co38707","norming","","","{""curiosity"":0,""confidence"":0}","[0,1]","../img/tt/517tt.jpg","",""
"478.0449999999255","","","recognition","survey-text","373","1288147","0.0-6.0-3.52","2884812","co38707","norming","","","{""guess"":""""}","","../img/tt/517tt.jpg","",""
"null","../img/gs/517gs.jpg","null","reveal","image-keyboard-response","374","1290152","0.0-6.0-4.52","2884812","co38707","norming","","","","","","",""
"null","../img/tt/517tt.jpg","null","mooney2","image-keyboard-response","375","1292157","0.0-6.0-5.52","2884812","co38707","norming","","","","","","",""
"4686.139999999665","","","post_reveal_questions","survey-likert","376","1296845","0.0-6.0-6.52","2884812","co38707","norming","","","{""aha"":1}","[0]","../img/tt/517tt.jpg","",""
"null","<div style=""font-size:60px;""> </div>","null","fixation","html-keyboard-response","377","1297050","0.0-6.0-0.53","2884812","co38707","norming","","","","","","",""
"null","../img/tt/1255tt.jpg","null","mooney1","image-keyboard-response","378","1300061","0.0-6.0-1.53","2884812","co38707","norming","","","","","","",""
"6775.4199999999255","","","post_mooney1_questions","survey-likert","379","1306837","0.0-6.0-2.53","2884812","co38707","norming","","","{""curiosity"":5,""confidence"":5}","[0,1]","../img/tt/1255tt.jpg","",""
"3037.8549999995157","","","recognition","survey-text","380","1309877","0.0-6.0-3.53","2884812","co38707","norming","","","{""guess"":""konijn""}","","../img/tt/1255tt.jpg","",""
"null","../img/gs/1255gs.jpg","null","reveal","image-keyboard-response","381","1311884","0.0-6.0-4.53","2884812","co38707","norming","","","","","","",""
"null","../img/tt/1255tt.jpg","null","mooney2","image-keyboard-response","382","1313894","0.0-6.0-5.53","2884812","co38707","norming","","","","","","",""
"9068.739999999758","","","post_reveal_questions","survey-likert","383","1322965","0.0-6.0-6.53","2884812","co38707","norming","","","{""aha"":1}","[0]","../img/tt/1255tt.jpg","",""
"null","<div style=""font-size:60px;""> </div>","null","fixation","html-keyboard-response","384","1323176","0.0-6.0-0.54","2884812","co38707","norming","","","","","","",""
"null","../img/tt/1272tt.jpg","null","mooney1","image-keyboard-response","385","1326185","0.0-6.0-1.54","2884812","co38707","norming","","","","","","",""
"5897.135000000009","","","post_mooney1_questions","survey-likert","386","1332085","0.0-6.0-2.54","2884812","co38707","norming","","","{""curiosity"":3,""confidence"":3}","[0,1]","../img/tt/1272tt.jpg","",""
"1501.8249999994878","","","recognition","survey-text","387","1333589","0.0-6.0-3.54","2884812","co38707","norming","","","{""guess"":""""}","","../img/tt/1272tt.jpg","",""
"null","../img/gs/1272gs.jpg","null","reveal","image-keyboard-response","388","1335600","0.0-6.0-4.54","2884812","co38707","norming","","","","","","",""
"null","../img/tt/1272tt.jpg","null","mooney2","image-keyboard-response","389","1337610","0.0-6.0-5.54","2884812","co38707","norming","","","","","","",""
"4648.985000000801","","","post_reveal_questions","survey-likert","390","1342261","0.0-6.0-6.54","2884812","co38707","norming","","","{""aha"":1}","[0]","../img/tt/1272tt.jpg","",""
"null","<div style=""font-size:60px;""> </div>","null","fixation","html-keyboard-response","391","1342463","0.0-6.0-0.55","2884812","co38707","norming","","","","","","",""
"null","../img/tt/1091tt.jpg","null","mooney1","image-keyboard-response","392","1345469","0.0-6.0-1.55","2884812","co38707","norming","","","","","","",""
"4967.115000000456","","","post_mooney1_questions","survey-likert","393","1350437","0.0-6.0-2.55","2884812","co38707","norming","","","{""curiosity"":2,""confidence"":3}","[0,1]","../img/tt/1091tt.jpg","",""
"3486.334999999497","","","recognition","survey-text","394","1353923","0.0-6.0-3.55","2884812","co38707","norming","","","{""guess"":""horse""}","","../img/tt/1091tt.jpg","",""
"null","../img/gs/1091gs.jpg","null","reveal","image-keyboard-response","395","1355931","0.0-6.0-4.55","2884812","co38707","norming","","","","","","",""
"null","../img/tt/1091tt.jpg","null","mooney2","image-keyboard-response","396","1357934","0.0-6.0-5.55","2884812","co38707","norming","","","","","","",""
"4658.370000000112","","","post_reveal_questions","survey-likert","397","1362595","0.0-6.0-6.55","2884812","co38707","norming","","","{""aha"":6}","[0]","../img/tt/1091tt.jpg","",""
"null","<div style=""font-size:60px;""> </div>","null","fixation","html-keyboard-response","398","1362800","0.0-6.0-0.56","2884812","co38707","norming","","","","","","",""
"null","../img/tt/1080tt.jpg","null","mooney1","image-keyboard-response","399","1365804","0.0-6.0-1.56","2884812","co38707","norming","","","","","","",""
"6132.885000000009","","","post_mooney1_questions","survey-likert","400","1371939","0.0-6.0-2.56","2884812","co38707","norming","","","{""curiosity"":0,""confidence"":0}","[0,1]","../img/tt/1080tt.jpg","",""
"910.1000000000931","","","recognition","survey-text","401","1372851","0.0-6.0-3.56","2884812","co38707","norming","","","{""guess"":""""}","","../img/tt/1080tt.jpg","",""
"null","../img/gs/1080gs.jpg","null","reveal","image-keyboard-response","402","1374861","0.0-6.0-4.56","2884812","co38707","norming","","","","","","",""
"null","../img/tt/1080tt.jpg","null","mooney2","image-keyboard-response","403","1376869","0.0-6.0-5.56","2884812","co38707","norming","","","","","","",""
"2643.760000000708","","","post_reveal_questions","survey-likert","404","1379515","0.0-6.0-6.56","2884812","co38707","norming","","","{""aha"":3}","[0]","../img/tt/1080tt.jpg","",""
"null","<div style=""font-size:60px;""> </div>","null","fixation","html-keyboard-response","405","1379724","0.0-6.0-0.57","2884812","co38707","norming","","","","","","",""
"null","../img/tt/1234tt.jpg","null","mooney1","image-keyboard-response","406","1382737","0.0-6.0-1.57","2884812","co38707","norming","","","","","","",""
"3918.7350000001024","","","post_mooney1_questions","survey-likert","407","1386659","0.0-6.0-2.57","2884812","co38707","norming","","","{""curiosity"":4,""confidence"":3}","[0,1]","../img/tt/1234tt.jpg","",""
"3246.23000000068","","","recognition","survey-text","408","1389907","0.0-6.0-3.57","2884812","co38707","norming","","","{""guess"":""goose""}","","../img/tt/1234tt.jpg","",""
"null","../img/gs/1234gs.jpg","null","reveal","image-keyboard-response","409","1391911","0.0-6.0-4.57","2884812","co38707","norming","","","","","","",""
"null","../img/tt/1234tt.jpg","null","mooney2","image-keyboard-response","410","1393920","0.0-6.0-5.57","2884812","co38707","norming","","","","","","",""
"3928.7900000000373","","","post_reveal_questions","survey-likert","411","1397851","0.0-6.0-6.57","2884812","co38707","norming","","","{""aha"":5}","[0]","../img/tt/1234tt.jpg","",""
"null","<div style=""font-size:60px;""> </div>","null","fixation","html-keyboard-response","412","1398062","0.0-6.0-0.58","2884812","co38707","norming","","","","","","",""
"null","../img/tt/080tt.jpg","null","mooney1","image-keyboard-response","413","1401063","0.0-6.0-1.58","2884812","co38707","norming","","","","","","",""
"8137.380000000121","","","post_mooney1_questions","survey-likert","414","1409203","0.0-6.0-2.58","2884812","co38707","norming","","","{""curiosity"":3,""confidence"":3}","[0,1]","../img/tt/080tt.jpg","",""
"3790.2549999998882","","","recognition","survey-text","415","1412999","0.0-6.0-3.58","2884812","co38707","norming","","","{""guess"":""""}","","../img/tt/080tt.jpg","",""
"null","../img/gs/080gs.jpg","null","reveal","image-keyboard-response","416","1415004","0.0-6.0-4.58","2884812","co38707","norming","","","","","","",""
"null","../img/tt/080tt.jpg","null","mooney2","image-keyboard-response","417","1417015","0.0-6.0-5.58","2884812","co38707","norming","","","","","","",""
"6325.3549999997485","","","post_reveal_questions","survey-likert","418","1423343","0.0-6.0-6.58","2884812","co38707","norming","","","{""aha"":4}","[0]","../img/tt/080tt.jpg","",""
"null","<div style=""font-size:60px;""> </div>","null","fixation","html-keyboard-response","419","1423544","0.0-6.0-0.59","2884812","co38707","norming","","","","","","",""
"null","../img/tt/357tt.jpg","null","mooney1","image-keyboard-response","420","1426556","0.0-6.0-1.59","2884812","co38707","norming","","","","","","",""
"5601.6349999997765","","","post_mooney1_questions","survey-likert","421","1432159","0.0-6.0-2.59","2884812","co38707","norming","","","{""curiosity"":3,""confidence"":3}","[0,1]","../img/tt/357tt.jpg","",""
"5798.02500000014","","","recognition","survey-text","422","1437959","0.0-6.0-3.59","2884812","co38707","norming","","","{""guess"":""arici""}","","../img/tt/357tt.jpg","",""
"null","../img/gs/357gs.jpg","null","reveal","image-keyboard-response","423","1439963","0.0-6.0-4.59","2884812","co38707","norming","","","","","","",""
"null","../img/tt/357tt.jpg","null","mooney2","image-keyboard-response","424","1441973","0.0-6.0-5.59","2884812","co38707","norming","","","","","","",""
"4504.850000000326","","","post_reveal_questions","survey-likert","425","1446479","0.0-6.0-6.59","2884812","co38707","norming","","","{""aha"":4}","[0]","../img/tt/357tt.jpg","",""
"null","<div style=""font-size:60px;""> </div>","null","fixation","html-keyboard-response","426","1446684","0.0-6.0-0.60","2884812","co38707","norming","","","","","","",""
"null","../img/tt/105tt.jpg","null","mooney1","image-keyboard-response","427","1449691","0.0-6.0-1.60","2884812","co38707","norming","","","","","","",""
"10928.775000000373","","","post_mooney1_questions","survey-likert","428","1460623","0.0-6.0-2.60","2884812","co38707","norming","","","{""curiosity"":3,""confidence"":3}","[0,1]","../img/tt/105tt.jpg","",""
"1446.0799999996088","","","recognition","survey-text","429","1462071","0.0-6.0-3.60","2884812","co38707","norming","","","{""guess"":""""}","","../img/tt/105tt.jpg","",""
"null","../img/gs/105gs.jpg","null","reveal","image-keyboard-response","430","1464076","0.0-6.0-4.60","2884812","co38707","norming","","","","","","",""
"null","../img/tt/105tt.jpg","null","mooney2","image-keyboard-response","431","1466082","0.0-6.0-5.60","2884812","co38707","norming","","","","","","",""
"5108.325000000186","","","post_reveal_questions","survey-likert","432","1471191","0.0-6.0-6.60","2884812","co38707","norming","","","{""aha"":6}","[0]","../img/tt/105tt.jpg","",""
"null","<div style=""font-size:60px;""> </div>","null","fixation","html-keyboard-response","433","1471392","0.0-6.0-0.61","2884812","co38707","norming","","","","","","",""
"null","../img/tt/032tt.jpg","null","mooney1","image-keyboard-response","434","1474401","0.0-6.0-1.61","2884812","co38707","norming","","","","","","",""
"4995.5","","","post_mooney1_questions","survey-likert","435","1479400","0.0-6.0-2.61","2884812","co38707","norming","","","{""curiosity"":3,""confidence"":2}","[0,1]","../img/tt/032tt.jpg","",""
"2526.100000000093","","","recognition","survey-text","436","1481928","0.0-6.0-3.61","2884812","co38707","norming","","","{""guess"":""bird""}","","../img/tt/032tt.jpg","",""
"null","../img/gs/032gs.jpg","null","reveal","image-keyboard-response","437","1483929","0.0-6.0-4.61","2884812","co38707","norming","","","","","","",""
"null","../img/tt/032tt.jpg","null","mooney2","image-keyboard-response","438","1485937","0.0-6.0-5.61","2884812","co38707","norming","","","","","","",""
"4075.9599999992643","","","post_reveal_questions","survey-likert","439","1490016","0.0-6.0-6.61","2884812","co38707","norming","","","{""aha"":3}","[0]","../img/tt/032tt.jpg","",""
"null","<div style=""font-size:60px;""> </div>","null","fixation","html-keyboard-response","440","1490217","0.0-6.0-0.62","2884812","co38707","norming","","","","","","",""
"null","../img/tt/085tt.jpg","null","mooney1","image-keyboard-response","441","1493224","0.0-6.0-1.62","2884812","co38707","norming","","","","","","",""
"6668.5200000002515","","","post_mooney1_questions","survey-likert","442","1499896","0.0-6.0-2.62","2884812","co38707","norming","","","{""curiosity"":3,""confidence"":0}","[0,1]","../img/tt/085tt.jpg","",""
"1390.2499999993015","","","recognition","survey-text","443","1501288","0.0-6.0-3.62","2884812","co38707","norming","","","{""guess"":""""}","","../img/tt/085tt.jpg","",""
"null","../img/gs/085gs.jpg","null","reveal","image-keyboard-response","444","1503291","0.0-6.0-4.62","2884812","co38707","norming","","","","","","",""
"null","../img/tt/085tt.jpg","null","mooney2","image-keyboard-response","445","1505296","0.0-6.0-5.62","2884812","co38707","norming","","","","","","",""
"3229.494999999646","","","post_reveal_questions","survey-likert","446","1508528","0.0-6.0-6.62","2884812","co38707","norming","","","{""aha"":5}","[0]","../img/tt/085tt.jpg","",""
"null","<div style=""font-size:60px;""> </div>","null","fixation","html-keyboard-response","447","1508734","0.0-6.0-0.63","2884812","co38707","norming","","","","","","",""
"null","../img/tt/436tt.jpg","null","mooney1","image-keyboard-response","448","1511746","0.0-6.0-1.63","2884812","co38707","norming","","","","","","",""
"3386.024999999907","","","post_mooney1_questions","survey-likert","449","1515136","0.0-6.0-2.63","2884812","co38707","norming","","","{""curiosity"":6,""confidence"":6}","[0,1]","../img/tt/436tt.jpg","",""
"5014.074999999953","","","recognition","survey-text","450","1520152","0.0-6.0-3.63","2884812","co38707","norming","","","{""guess"":""cat laying""}","","../img/tt/436tt.jpg","",""
"null","../img/gs/436gs.jpg","null","reveal","image-keyboard-response","451","1522161","0.0-6.0-4.63","2884812","co38707","norming","","","","","","",""
"null","../img/tt/436tt.jpg","null","mooney2","image-keyboard-response","452","1524173","0.0-6.0-5.63","2884812","co38707","norming","","","","","","",""
"5064.505000000354","","","post_reveal_questions","survey-likert","453","1529240","0.0-6.0-6.63","2884812","co38707","norming","","","{""aha"":3}","[0]","../img/tt/436tt.jpg","",""
"null","<div style=""font-size:60px;""> </div>","null","fixation","html-keyboard-response","454","1529443","0.0-6.0-0.64","2884812","co38707","norming","","","","","","",""
"null","../img/tt/603tt.jpg","null","mooney1","image-keyboard-response","455","1532447","0.0-6.0-1.64","2884812","co38707","norming","","","","","","",""
"2781.7450000001118","","","post_mooney1_questions","survey-likert","456","1535230","0.0-6.0-2.64","2884812","co38707","norming","","","{""curiosity"":6,""confidence"":6}","[0,1]","../img/tt/603tt.jpg","",""
"5462.419999999693","","","recognition","survey-text","457","1540694","0.0-6.0-3.64","2884812","co38707","norming","","","{""guess"":""cat staring""}","","../img/tt/603tt.jpg","",""
"null","../img/gs/603gs.jpg","null","reveal","image-keyboard-response","458","1542697","0.0-6.0-4.64","2884812","co38707","norming","","","","","","",""
"null","../img/tt/603tt.jpg","null","mooney2","image-keyboard-response","459","1544705","0.0-6.0-5.64","2884812","co38707","norming","","","","","","",""
"4114.459999999963","","","post_reveal_questions","survey-likert","460","1548822","0.0-6.0-6.64","2884812","co38707","norming","","","{""aha"":5}","[0]","../img/tt/603tt.jpg","",""
"null","<div style=""font-size:60px;""> </div>","null","fixation","html-keyboard-response","461","1549031","0.0-6.0-0.65","2884812","co38707","norming","","","","","","",""
"null","../img/tt/1309tt.jpg","null","mooney1","image-keyboard-response","462","1552038","0.0-6.0-1.65","2884812","co38707","norming","","","","","","",""
"5206.845000000671","","","post_mooney1_questions","survey-likert","463","1557246","0.0-6.0-2.65","2884812","co38707","norming","","","{""curiosity"":2,""confidence"":2}","[0,1]","../img/tt/1309tt.jpg","",""
"4982.034999999916","","","recognition","survey-text","464","1562230","0.0-6.0-3.65","2884812","co38707","norming","","","{""guess"":""car/bus""}","","../img/tt/1309tt.jpg","",""
"null","../img/gs/1309gs.jpg","null","reveal","image-keyboard-response","465","1564235","0.0-6.0-4.65","2884812","co38707","norming","","","","","","",""
"null","../img/tt/1309tt.jpg","null","mooney2","image-keyboard-response","466","1566244","0.0-6.0-5.65","2884812","co38707","norming","","","","","","",""
"3591.6699999999255","","","post_reveal_questions","survey-likert","467","1569838","0.0-6.0-6.65","2884812","co38707","norming","","","{""aha"":4}","[0]","../img/tt/1309tt.jpg","",""
"null","<div style=""font-size:60px;""> </div>","null","fixation","html-keyboard-response","468","1570048","0.0-6.0-0.66","2884812","co38707","norming","","","","","","",""
"null","../img/tt/013tt.jpg","null","mooney1","image-keyboard-response","469","1573056","0.0-6.0-1.66","2884812","co38707","norming","","","","","","",""
"3396.93499999959","","","post_mooney1_questions","survey-likert","470","1576456","0.0-6.0-2.66","2884812","co38707","norming","","","{""curiosity"":0,""confidence"":0}","[0,1]","../img/tt/013tt.jpg","",""
"604.4649999993853","","","recognition","survey-text","471","1577062","0.0-6.0-3.66","2884812","co38707","norming","","","{""guess"":""""}","","../img/tt/013tt.jpg","",""
"null","../img/gs/013gs.jpg","null","reveal","image-keyboard-response","472","1579071","0.0-6.0-4.66","2884812","co38707","norming","","","","","","",""
"null","../img/tt/013tt.jpg","null","mooney2","image-keyboard-response","473","1581075","0.0-6.0-5.66","2884812","co38707","norming","","","","","","",""
"4416.704999999609","","","post_reveal_questions","survey-likert","474","1585494","0.0-6.0-6.66","2884812","co38707","norming","","","{""aha"":3}","[0]","../img/tt/013tt.jpg","",""
"null","<div style=""font-size:60px;""> </div>","null","fixation","html-keyboard-response","475","1585704","0.0-6.0-0.67","2884812","co38707","norming","","","","","","",""
"null","../img/tt/079tt.jpg","null","mooney1","image-keyboard-response","476","1588710","0.0-6.0-1.67","2884812","co38707","norming","","","","","","",""
"6358.154999999795","","","post_mooney1_questions","survey-likert","477","1595069","0.0-6.0-2.67","2884812","co38707","norming","","","{""curiosity"":2,""confidence"":3}","[0,1]","../img/tt/079tt.jpg","",""
"2101.760000000475","","","recognition","survey-text","478","1597172","0.0-6.0-3.67","2884812","co38707","norming","","","{""guess"":""""}","","../img/tt/079tt.jpg","",""
"null","../img/gs/079gs.jpg","null","reveal","image-keyboard-response","479","1599175","0.0-6.0-4.67","2884812","co38707","norming","","","","","","",""
"null","../img/tt/079tt.jpg","null","mooney2","image-keyboard-response","480","1601187","0.0-6.0-5.67","2884812","co38707","norming","","","","","","",""
"4967.3749999993015","","","post_reveal_questions","survey-likert","481","1606157","0.0-6.0-6.67","2884812","co38707","norming","","","{""aha"":4}","[0]","../img/tt/079tt.jpg","",""
"null","<div style=""font-size:60px;""> </div>","null","fixation","html-keyboard-response","482","1606368","0.0-6.0-0.68","2884812","co38707","norming","","","","","","",""
"null","../img/tt/111tt.jpg","null","mooney1","image-keyboard-response","483","1609379","0.0-6.0-1.68","2884812","co38707","norming","","","","","","",""
"5790.119999999646","","","post_mooney1_questions","survey-likert","484","1615173","0.0-6.0-2.68","2884812","co38707","norming","","","{""curiosity"":3,""confidence"":3}","[0,1]","../img/tt/111tt.jpg","",""
"6813.614999999991","","","recognition","survey-text","485","1621988","0.0-6.0-3.68","2884812","co38707","norming","","","{""guess"":""skelet""}","","../img/tt/111tt.jpg","",""
"null","../img/gs/111gs.jpg","null","reveal","image-keyboard-response","486","1623995","0.0-6.0-4.68","2884812","co38707","norming","","","","","","",""
"null","../img/tt/111tt.jpg","null","mooney2","image-keyboard-response","487","1626004","0.0-6.0-5.68","2884812","co38707","norming","","","","","","",""
"3767.7000000001863","","","post_reveal_questions","survey-likert","488","1629772","0.0-6.0-6.68","2884812","co38707","norming","","","{""aha"":3}","[0]","../img/tt/111tt.jpg","",""
"null","<div style=""font-size:60px;""> </div>","null","fixation","html-keyboard-response","489","1629975","0.0-6.0-0.69","2884812","co38707","norming","","","","","","",""
"null","../img/tt/123tt.jpg","null","mooney1","image-keyboard-response","490","1632978","0.0-6.0-1.69","2884812","co38707","norming","","","","","","",""
"3951.274999999441","","","post_mooney1_questions","survey-likert","491","1636933","0.0-6.0-2.69","2884812","co38707","norming","","","{""curiosity"":0,""confidence"":0}","[0,1]","../img/tt/123tt.jpg","",""
"382.0299999997951","","","recognition","survey-text","492","1637317","0.0-6.0-3.69","2884812","co38707","norming","","","{""guess"":""""}","","../img/tt/123tt.jpg","",""
"null","../img/gs/123gs.jpg","null","reveal","image-keyboard-response","493","1639322","0.0-6.0-4.69","2884812","co38707","norming","","","","","","",""
"null","../img/tt/123tt.jpg","null","mooney2","image-keyboard-response","494","1641331","0.0-6.0-5.69","2884812","co38707","norming","","","","","","",""
"5534.760000000475","","","post_reveal_questions","survey-likert","495","1646869","0.0-6.0-6.69","2884812","co38707","norming","","","{""aha"":5}","[0]","../img/tt/123tt.jpg","",""
"null","<div style=""font-size:60px;""> </div>","null","fixation","html-keyboard-response","496","1647073","0.0-6.0-0.70","2884812","co38707","norming","","","","","","",""
"null","../img/tt/1127tt.jpg","null","mooney1","image-keyboard-response","497","1650083","0.0-6.0-1.70","2884812","co38707","norming","","","","","","",""
"10560.605000000447","","","post_mooney1_questions","survey-likert","498","1660648","0.0-6.0-2.70","2884812","co38707","norming","","","{""curiosity"":0,""confidence"":0}","[0,1]","../img/tt/1127tt.jpg","",""
"4397.839999999618","","","recognition","survey-text","499","1665048","0.0-6.0-3.70","2884812","co38707","norming","","","{""guess"":""2 people""}","","../img/tt/1127tt.jpg","",""
"null","../img/gs/1127gs.jpg","null","reveal","image-keyboard-response","500","1667052","0.0-6.0-4.70","2884812","co38707","norming","","","","","","",""
"null","../img/tt/1127tt.jpg","null","mooney2","image-keyboard-response","501","1669056","0.0-6.0-5.70","2884812","co38707","norming","","","","","","",""
"3653.100000000559","","","post_reveal_questions","survey-likert","502","1672712","0.0-6.0-6.70","2884812","co38707","norming","","","{""aha"":3}","[0]","../img/tt/1127tt.jpg","",""
"null","<div style=""font-size:60px;""> </div>","null","fixation","html-keyboard-response","503","1672913","0.0-6.0-0.71","2884812","co38707","norming","","","","","","",""
"null","../img/tt/1148tt.jpg","null","mooney1","image-keyboard-response","504","1675916","0.0-6.0-1.71","2884812","co38707","norming","","","","","","",""
"10639.909999999916","","","post_mooney1_questions","survey-likert","505","1686560","0.0-6.0-2.71","2884812","co38707","norming","","","{""curiosity"":5,""confidence"":3}","[0,1]","../img/tt/1148tt.jpg","",""
"2038.440000000177","","","recognition","survey-text","506","1688600","0.0-6.0-3.71","2884812","co38707","norming","","","{""guess"":""""}","","../img/tt/1148tt.jpg","",""
"null","../img/gs/1148gs.jpg","null","reveal","image-keyboard-response","507","1690610","0.0-6.0-4.71","2884812","co38707","norming","","","","","","",""
"null","../img/tt/1148tt.jpg","null","mooney2","image-keyboard-response","508","1692617","0.0-6.0-5.71","2884812","co38707","norming","","","","","","",""
"5483.624999999767","","","post_reveal_questions","survey-likert","509","1698104","0.0-6.0-6.71","2884812","co38707","norming","","","{""aha"":5}","[0]","../img/tt/1148tt.jpg","",""
"null","<div style=""font-size:60px;""> </div>","null","fixation","html-keyboard-response","510","1698310","0.0-6.0-0.72","2884812","co38707","norming","","","","","","",""
"null","../img/tt/040tt.jpg","null","mooney1","image-keyboard-response","511","1701323","0.0-6.0-1.72","2884812","co38707","norming","","","","","","",""
"5793.120000000112","","","post_mooney1_questions","survey-likert","512","1707120","0.0-6.0-2.72","2884812","co38707","norming","","","{""curiosity"":2,""confidence"":3}","[0,1]","../img/tt/040tt.jpg","",""
"1782.1899999999441","","","recognition","survey-text","513","1708904","0.0-6.0-3.72","2884812","co38707","norming","","","{""guess"":""dog""}","","../img/tt/040tt.jpg","",""
"null","../img/gs/040gs.jpg","null","reveal","image-keyboard-response","514","1710914","0.0-6.0-4.72","2884812","co38707","norming","","","","","","",""
"null","../img/tt/040tt.jpg","null","mooney2","image-keyboard-response","515","1712922","0.0-6.0-5.72","2884812","co38707","norming","","","","","","",""
"3628.4350000005215","","","post_reveal_questions","survey-likert","516","1716551","0.0-6.0-6.72","2884812","co38707","norming","","","{""aha"":2}","[0]","../img/tt/040tt.jpg","",""
"null","<div style=""font-size:60px;""> </div>","null","fixation","html-keyboard-response","517","1716754","0.0-6.0-0.73","2884812","co38707","norming","","","","","","",""
"null","../img/tt/1241tt.jpg","null","mooney1","image-keyboard-response","518","1719764","0.0-6.0-1.73","2884812","co38707","norming","","","","","","",""
"2687.6099999998696","","","post_mooney1_questions","survey-likert","519","1722455","0.0-6.0-2.73","2884812","co38707","norming","","","{""curiosity"":0,""confidence"":0}","[0,1]","../img/tt/1241tt.jpg","",""
"1534.2849999996834","","","recognition","survey-text","520","1723991","0.0-6.0-3.73","2884812","co38707","norming","","","{""guess"":""""}","","../img/tt/1241tt.jpg","",""
"null","../img/gs/1241gs.jpg","null","reveal","image-keyboard-response","521","1725998","0.0-6.0-4.73","2884812","co38707","norming","","","","","","",""
"null","../img/tt/1241tt.jpg","null","mooney2","image-keyboard-response","522","1728000","0.0-6.0-5.73","2884812","co38707","norming","","","","","","",""
"4390.834999999264","","","post_reveal_questions","survey-likert","523","1732391","0.0-6.0-6.73","2884812","co38707","norming","","","{""aha"":5}","[0]","../img/tt/1241tt.jpg","",""
"null","<div style=""font-size:60px;""> </div>","null","fixation","html-keyboard-response","524","1732594","0.0-6.0-0.74","2884812","co38707","norming","","","","","","",""
"null","../img/tt/1278tt.jpg","null","mooney1","image-keyboard-response","525","1735598","0.0-6.0-1.74","2884812","co38707","norming","","","","","","",""
"4333.485000000102","","","post_mooney1_questions","survey-likert","526","1739935","0.0-6.0-2.74","2884812","co38707","norming","","","{""curiosity"":6,""confidence"":2}","[0,1]","../img/tt/1278tt.jpg","",""
"2278.0999999993946","","","recognition","survey-text","527","1742215","0.0-6.0-3.74","2884812","co38707","norming","","","{""guess"":""man""}","","../img/tt/1278tt.jpg","",""
"null","../img/gs/1278gs.jpg","null","reveal","image-keyboard-response","528","1744221","0.0-6.0-4.74","2884812","co38707","norming","","","","","","",""
"null","../img/tt/1278tt.jpg","null","mooney2","image-keyboard-response","529","1746231","0.0-6.0-5.74","2884812","co38707","norming","","","","","","",""
"3509.399999999907","","","post_reveal_questions","survey-likert","530","1749743","0.0-6.0-6.74","2884812","co38707","norming","","","{""aha"":5}","[0]","../img/tt/1278tt.jpg","",""
"null","<div style=""font-size:60px;""> </div>","null","fixation","html-keyboard-response","531","1749945","0.0-6.0-0.75","2884812","co38707","norming","","","","","","",""
"null","../img/tt/1102tt.jpg","null","mooney1","image-keyboard-response","532","1752954","0.0-6.0-1.75","2884812","co38707","norming","","","","","","",""
"3193.535000000382","","","post_mooney1_questions","survey-likert","533","1756151","0.0-6.0-2.75","2884812","co38707","norming","","","{""curiosity"":0,""confidence"":0}","[0,1]","../img/tt/1102tt.jpg","",""
"526.2050000003073","","","recognition","survey-text","534","1756679","0.0-6.0-3.75","2884812","co38707","norming","","","{""guess"":""""}","","../img/tt/1102tt.jpg","",""
"null","../img/gs/1102gs.jpg","null","reveal","image-keyboard-response","535","1758685","0.0-6.0-4.75","2884812","co38707","norming","","","","","","",""
"null","../img/tt/1102tt.jpg","null","mooney2","image-keyboard-response","536","1760697","0.0-6.0-5.75","2884812","co38707","norming","","","","","","",""
"6299.289999999804","","","post_reveal_questions","survey-likert","537","1766999","0.0-6.0-6.75","2884812","co38707","norming","","","{""aha"":3}","[0]","../img/tt/1102tt.jpg","",""
"null","<div style=""font-size:60px;""> </div>","null","fixation","html-keyboard-response","538","1767200","0.0-6.0-0.76","2884812","co38707","norming","","","","","","",""
"null","../img/tt/1142tt.jpg","null","mooney1","image-keyboard-response","539","1770212","0.0-6.0-1.76","2884812","co38707","norming","","","","","","",""
"5320.51999999932","","","post_mooney1_questions","survey-likert","540","1775535","0.0-6.0-2.76","2884812","co38707","norming","","","{""curiosity"":4,""confidence"":4}","[0,1]","../img/tt/1142tt.jpg","",""
"1445.7750000001397","","","recognition","survey-text","541","1776978","0.0-6.0-3.76","2884812","co38707","norming","","","{""guess"":""""}","","../img/tt/1142tt.jpg","",""
"null","../img/gs/1142gs.jpg","null","reveal","image-keyboard-response","542","1778986","0.0-6.0-4.76","2884812","co38707","norming","","","","","","",""
"null","../img/tt/1142tt.jpg","null","mooney2","image-keyboard-response","543","1780987","0.0-6.0-5.76","2884812","co38707","norming","","","","","","",""
"1710.300000000745","","","post_reveal_questions","survey-likert","544","1782698","0.0-6.0-6.76","2884812","co38707","norming","","","{""aha"":4}","[0]","../img/tt/1142tt.jpg","",""
"null","<div style=""font-size:60px;""> </div>","null","fixation","html-keyboard-response","545","1782906","0.0-6.0-0.77","2884812","co38707","norming","","","","","","",""
"null","../img/tt/052tt.jpg","null","mooney1","image-keyboard-response","546","1785915","0.0-6.0-1.77","2884812","co38707","norming","","","","","","",""
"3443.56500000041","","","post_mooney1_questions","survey-likert","547","1789363","0.0-6.0-2.77","2884812","co38707","norming","","","{""curiosity"":3,""confidence"":0}","[0,1]","../img/tt/052tt.jpg","",""
"877.9899999997579","","","recognition","survey-text","548","1790242","0.0-6.0-3.77","2884812","co38707","norming","","","{""guess"":""""}","","../img/tt/052tt.jpg","",""
"null","../img/gs/052gs.jpg","null","reveal","image-keyboard-response","549","1792251","0.0-6.0-4.77","2884812","co38707","norming","","","","","","",""
"null","../img/tt/052tt.jpg","null","mooney2","image-keyboard-response","550","1794261","0.0-6.0-5.77","2884812","co38707","norming","","","","","","",""
"1770.6450000004843","","","post_reveal_questions","survey-likert","551","1796034","0.0-6.0-6.77","2884812","co38707","norming","","","{""aha"":3}","[0]","../img/tt/052tt.jpg","",""
"null","<div style=""font-size:60px;""> </div>","null","fixation","html-keyboard-response","552","1796235","0.0-6.0-0.78","2884812","co38707","norming","","","","","","",""
