"rt","stimulus","key_press","test_part","trial_type","trial_index","time_elapsed","internal_node_id","totalTime","subject","experiment_name","button_pressed","success","responses","question_order","currentStim","old","correct"
"6341.560000000072","Welcome to the experiment. This is an online experiment so please don't close the tab/window until we say goodbye.  Press any key to begin.","13","instructions","html-keyboard-response","0","6344","0.0-0.0","3032654","co38020","norming","","","","","","",""
"6510.859999999979","<div style='word-wrap: break-word; width: 900px'><h3>Please consider this information carefully before deciding whether to participate in this research</h3><ul style='text-align: left; font-size: .8em;'><li><b>Purpose of the research</b>: To examine how people process images.</li><li><b>What you will do in this research</b>:  Stimuli (images) will be presented on the computer and you will be asked different questions about them.</li><li><b>Time required</b>: Participation will take between 45 and 60 minutes to complete.</li><li><b>Risks</b>:  There are no anticipated risks associated with participating in this study. The effects of participating should be comparable to those you would experience from viewing a computer monitor for 30 minutes and using a mouse or keyboard.</li><li><b>Benefits</b>:  This study provides no benefits to you individually except for the credit. The study provides important information about the nature of perception and learning.</li><li><b>Confidentiality</b>:  Your participation in this study will remain confidential. No personally identifiable information will be associated with your data. Your de-identified data may be shared with other researchers and used in future projects.</li><li><b>Participation and withdrawal</b>:  Your participation in this study is completely voluntary and you may refuse to participate or you may choose to withdraw at any time without penalty.</li><li><b>How to contact the researchers</b>: If you have questions or concerns about your participation or payment, or want to request a summary of research findings, please contact Sander Van de Cruys (KU Leuven), at sander.vandecruys@kuleuven.be.</li></ul><p>The nature and purpose of this research have been sufficiently explained and I agree to participate in this study.  I understand that I am free to withdraw at any time without incurring any penalty.</p><p>Please consent by clicking the button below to continue. Otherwise, please exit the study at this time.</p></div>","","instructions","html-button-response","1","12855","0.0-1.0","3032654","co38020","norming","0","","","","","",""
"","","","instructions","fullscreen","2","15736","0.0-2.0","3032654","co38020","norming","","true","","","","",""
"46613.47000000001","","","sona","survey-html-form","3","62351","0.0-3.0","3032654","co38020","norming","","","[{""name"":""sonaid"",""value"":""38020""},{""name"":""debrief"",""value"":""yes""},{""name"":""datajoin"",""value"":""yes""}]","","","",""
"5238.129999999954","<div style='word-wrap: break-word; width: 900px'><h3>Instructions</h3><p>This experiment will have 3 parts. In the first part you will see a series of distorted images like the one below on the left. As you can see in the righthand image, the distorted images are derived from actual photographs. In what follows, you will <strong>briefly</strong> be presented with <strong>only</strong> the distorted image.</p> <div style='float: left; margin-right: 20px;'><img src='../img/018tt.jpg' height='250' width='250'></img></div><div style='float: right; margin-left: 20px;'><img src='../img/018gs.jpg' height='250' width='250'></img></div><p>Subsequently you will be asked a few questions about the image: One question on how <strong>curious</strong> you are about the solution and one on how <strong>confident</strong> you are that you know the solution.</p>Next, we ask you to make a guess on what is in the image. Note that it is OK to name just the <strong>basic level category</strong>. For example when you see a parrot in the image, 'parrot' will obviously be a correct answer but also correct is 'bird'. However, 'animal' will <strong>not</strong> be counted as a correct response. For the example above, 'rose' would be correct or 'flower', but not 'plant'. When soccer players are depicted, 'soccer', 'football', 'soccer players' will be correct, but not 'humans', 'outdoors', or 'sports'. You do not need to describe the image in full, just name the main object in it <strong>in one or two words</strong>. All images depict objects from one of the following broad level categories: animals, inanimate objects, plants, sports, vehicles, and food. Recognizing means knowing <strong>more</strong> than these broad labels for a given image. But we always encourage you to <strong>make a guess</strong> if you can. Note that you are allowed to use <strong>Dutch and English</strong> in your answers, whatever comes easiest for you.</p><p>Press any key to continue.</p></div>","13","instructions","html-keyboard-response","4","67590","0.0-4.0","3032654","co38020","norming","","","","","","",""
"6127.454999999929","<div style='word-wrap: break-word; width: 900px'><h3>Instructions</h3> <p>Next, the solution image will be revealed to you and you'll be asked to indicate how strong your <strong>aha-experience</strong> was after seeing the solution. This describes the positive feeling of the 'click' you sometimes experience, when the pieces of the 'puzzle' fall together and you suddenly have 'insight' in the image.</p><img src='aha.jpg' height='188' width='250'></img><p>Note that there are no right or wrong answers. We are interested in what <strong>you</strong> see in the image and how <strong>you</strong> feel about it.</p><p>Press any key to start the experiment.</p></div>","13","instructions","html-keyboard-response","5","73717","0.0-5.0","3032654","co38020","norming","","","","","","",""
"null","<div style=""font-size:60px;""> </div>","null","fixation","html-keyboard-response","6","73921","0.0-6.0-0.0","3032654","co38020","norming","","","","","","",""
"null","../img/tt/456tt.jpg","null","mooney1","image-keyboard-response","7","76929","0.0-6.0-1.0","3032654","co38020","norming","","","","","","",""
"8059.499999999956","","","post_mooney1_questions","survey-likert","8","84990","0.0-6.0-2.0","3032654","co38020","norming","","","{""curiosity"":6,""confidence"":0}","[0,1]","../img/tt/456tt.jpg","",""
"20325.675000000047","","","recognition","survey-text","9","105318","0.0-6.0-3.0","3032654","co38020","norming","","","{""guess"":""arm""}","","../img/tt/456tt.jpg","",""
"null","../img/gs/456gs.jpg","null","reveal","image-keyboard-response","10","107319","0.0-6.0-4.0","3032654","co38020","norming","","","","","","",""
"null","../img/tt/456tt.jpg","null","mooney2","image-keyboard-response","11","109326","0.0-6.0-5.0","3032654","co38020","norming","","","","","","",""
"6310.500000000044","","","post_reveal_questions","survey-likert","12","115638","0.0-6.0-6.0","3032654","co38020","norming","","","{""aha"":4}","[0]","../img/tt/456tt.jpg","",""
"null","<div style=""font-size:60px;""> </div>","null","fixation","html-keyboard-response","13","115845","0.0-6.0-0.1","3032654","co38020","norming","","","","","","",""
"null","../img/tt/522tt.jpg","null","mooney1","image-keyboard-response","14","118846","0.0-6.0-1.1","3032654","co38020","norming","","","","","","",""
"19038.87499999997","","","post_mooney1_questions","survey-likert","15","137881","0.0-6.0-2.1","3032654","co38020","norming","","","{""curiosity"":5,""confidence"":5}","[0,1]","../img/tt/522tt.jpg","",""
"2805.939999999973","","","recognition","survey-text","16","140689","0.0-6.0-3.1","3032654","co38020","norming","","","{""guess"":""cat""}","","../img/tt/522tt.jpg","",""
"null","../img/gs/522gs.jpg","null","reveal","image-keyboard-response","17","142691","0.0-6.0-4.1","3032654","co38020","norming","","","","","","",""
"null","../img/tt/522tt.jpg","null","mooney2","image-keyboard-response","18","144699","0.0-6.0-5.1","3032654","co38020","norming","","","","","","",""
"6748.505000000034","","","post_reveal_questions","survey-likert","19","151449","0.0-6.0-6.1","3032654","co38020","norming","","","{""aha"":0}","[0]","../img/tt/522tt.jpg","",""
"null","<div style=""font-size:60px;""> </div>","null","fixation","html-keyboard-response","20","151660","0.0-6.0-0.2","3032654","co38020","norming","","","","","","",""
"null","../img/tt/598tt.jpg","null","mooney1","image-keyboard-response","21","154661","0.0-6.0-1.2","3032654","co38020","norming","","","","","","",""
"8426.960000000021","","","post_mooney1_questions","survey-likert","22","163089","0.0-6.0-2.2","3032654","co38020","norming","","","{""curiosity"":6,""confidence"":1}","[0,1]","../img/tt/598tt.jpg","",""
"2653.9800000000687","","","recognition","survey-text","23","165745","0.0-6.0-3.2","3032654","co38020","norming","","","{""guess"":""face""}","","../img/tt/598tt.jpg","",""
"null","../img/gs/598gs.jpg","null","reveal","image-keyboard-response","24","167747","0.0-6.0-4.2","3032654","co38020","norming","","","","","","",""
"null","../img/tt/598tt.jpg","null","mooney2","image-keyboard-response","25","169755","0.0-6.0-5.2","3032654","co38020","norming","","","","","","",""
"3588.594999999943","","","post_reveal_questions","survey-likert","26","173345","0.0-6.0-6.2","3032654","co38020","norming","","","{""aha"":6}","[0]","../img/tt/598tt.jpg","",""
"null","<div style=""font-size:60px;""> </div>","null","fixation","html-keyboard-response","27","173548","0.0-6.0-0.3","3032654","co38020","norming","","","","","","",""
"null","../img/tt/1235tt.jpg","null","mooney1","image-keyboard-response","28","176551","0.0-6.0-1.3","3032654","co38020","norming","","","","","","",""
"7273.255000000063","","","post_mooney1_questions","survey-likert","29","183825","0.0-6.0-2.3","3032654","co38020","norming","","","{""curiosity"":6,""confidence"":1}","[0,1]","../img/tt/1235tt.jpg","",""
"6797.919999999984","","","recognition","survey-text","30","190625","0.0-6.0-3.3","3032654","co38020","norming","","","{""guess"":""bear""}","","../img/tt/1235tt.jpg","",""
"null","../img/gs/1235gs.jpg","null","reveal","image-keyboard-response","31","192631","0.0-6.0-4.3","3032654","co38020","norming","","","","","","",""
"null","../img/tt/1235tt.jpg","null","mooney2","image-keyboard-response","32","194638","0.0-6.0-5.3","3032654","co38020","norming","","","","","","",""
"2705.6500000000815","","","post_reveal_questions","survey-likert","33","197353","0.0-6.0-6.3","3032654","co38020","norming","","","{""aha"":6}","[0]","../img/tt/1235tt.jpg","",""
"null","<div style=""font-size:60px;""> </div>","null","fixation","html-keyboard-response","34","197563","0.0-6.0-0.4","3032654","co38020","norming","","","","","","",""
"null","../img/tt/306tt.jpg","null","mooney1","image-keyboard-response","35","200570","0.0-6.0-1.4","3032654","co38020","norming","","","","","","",""
"10174.329999999842","","","post_mooney1_questions","survey-likert","36","210745","0.0-6.0-2.4","3032654","co38020","norming","","","{""curiosity"":6,""confidence"":0}","[0,1]","../img/tt/306tt.jpg","",""
"1397.844999999943","","","recognition","survey-text","37","212145","0.0-6.0-3.4","3032654","co38020","norming","","","{""guess"":""""}","","../img/tt/306tt.jpg","",""
"null","../img/gs/306gs.jpg","null","reveal","image-keyboard-response","38","214149","0.0-6.0-4.4","3032654","co38020","norming","","","","","","",""
"null","../img/tt/306tt.jpg","null","mooney2","image-keyboard-response","39","216155","0.0-6.0-5.4","3032654","co38020","norming","","","","","","",""
"5381.1849999999395","","","post_reveal_questions","survey-likert","40","221537","0.0-6.0-6.4","3032654","co38020","norming","","","{""aha"":6}","[0]","../img/tt/306tt.jpg","",""
"null","<div style=""font-size:60px;""> </div>","null","fixation","html-keyboard-response","41","221739","0.0-6.0-0.5","3032654","co38020","norming","","","","","","",""
"null","../img/tt/1243tt.jpg","null","mooney1","image-keyboard-response","42","224744","0.0-6.0-1.5","3032654","co38020","norming","","","","","","",""
"7319.724999999831","","","post_mooney1_questions","survey-likert","43","232065","0.0-6.0-2.5","3032654","co38020","norming","","","{""curiosity"":6,""confidence"":1}","[0,1]","../img/tt/1243tt.jpg","",""
"2773.0400000000373","","","recognition","survey-text","44","234841","0.0-6.0-3.5","3032654","co38020","norming","","","{""guess"":""monkey""}","","../img/tt/1243tt.jpg","",""
"null","../img/gs/1243gs.jpg","null","reveal","image-keyboard-response","45","236849","0.0-6.0-4.5","3032654","co38020","norming","","","","","","",""
"null","../img/tt/1243tt.jpg","null","mooney2","image-keyboard-response","46","238853","0.0-6.0-5.5","3032654","co38020","norming","","","","","","",""
"4099.465000000026","","","post_reveal_questions","survey-likert","47","242953","0.0-6.0-6.5","3032654","co38020","norming","","","{""aha"":5}","[0]","../img/tt/1243tt.jpg","",""
"null","<div style=""font-size:60px;""> </div>","null","fixation","html-keyboard-response","48","243155","0.0-6.0-0.6","3032654","co38020","norming","","","","","","",""
"null","../img/tt/1260tt.jpg","null","mooney1","image-keyboard-response","49","246157","0.0-6.0-1.6","3032654","co38020","norming","","","","","","",""
"12554.834999999905","","","post_mooney1_questions","survey-likert","50","258710","0.0-6.0-2.6","3032654","co38020","norming","","","{""curiosity"":6,""confidence"":0}","[0,1]","../img/tt/1260tt.jpg","",""
"821.7750000001106","","","recognition","survey-text","51","259534","0.0-6.0-3.6","3032654","co38020","norming","","","{""guess"":""""}","","../img/tt/1260tt.jpg","",""
"null","../img/gs/1260gs.jpg","null","reveal","image-keyboard-response","52","261535","0.0-6.0-4.6","3032654","co38020","norming","","","","","","",""
"null","../img/tt/1260tt.jpg","null","mooney2","image-keyboard-response","53","263540","0.0-6.0-5.6","3032654","co38020","norming","","","","","","",""
"2448.2949999999255","","","post_reveal_questions","survey-likert","54","265990","0.0-6.0-6.6","3032654","co38020","norming","","","{""aha"":6}","[0]","../img/tt/1260tt.jpg","",""
"null","<div style=""font-size:60px;""> </div>","null","fixation","html-keyboard-response","55","266193","0.0-6.0-0.7","3032654","co38020","norming","","","","","","",""
"null","../img/tt/1191tt.jpg","null","mooney1","image-keyboard-response","56","269197","0.0-6.0-1.7","3032654","co38020","norming","","","","","","",""
"5615.8499999999185","","","post_mooney1_questions","survey-likert","57","274814","0.0-6.0-2.7","3032654","co38020","norming","","","{""curiosity"":5,""confidence"":1}","[0,1]","../img/tt/1191tt.jpg","",""
"2357.939999999886","","","recognition","survey-text","58","277174","0.0-6.0-3.7","3032654","co38020","norming","","","{""guess"":""horses""}","","../img/tt/1191tt.jpg","",""
"null","../img/gs/1191gs.jpg","null","reveal","image-keyboard-response","59","279176","0.0-6.0-4.7","3032654","co38020","norming","","","","","","",""
"null","../img/tt/1191tt.jpg","null","mooney2","image-keyboard-response","60","281177","0.0-6.0-5.7","3032654","co38020","norming","","","","","","",""
"4435.909999999916","","","post_reveal_questions","survey-likert","61","285614","0.0-6.0-6.7","3032654","co38020","norming","","","{""aha"":6}","[0]","../img/tt/1191tt.jpg","",""
"null","<div style=""font-size:60px;""> </div>","null","fixation","html-keyboard-response","62","285815","0.0-6.0-0.8","3032654","co38020","norming","","","","","","",""
"null","../img/tt/1362tt.jpg","null","mooney1","image-keyboard-response","63","288821","0.0-6.0-1.8","3032654","co38020","norming","","","","","","",""
"6895.344999999914","","","post_mooney1_questions","survey-likert","64","295718","0.0-6.0-2.8","3032654","co38020","norming","","","{""curiosity"":6,""confidence"":1}","[0,1]","../img/tt/1362tt.jpg","",""
"1933.7649999999558","","","recognition","survey-text","65","297653","0.0-6.0-3.8","3032654","co38020","norming","","","{""guess"":""food""}","","../img/tt/1362tt.jpg","",""
"null","../img/gs/1362gs.jpg","null","reveal","image-keyboard-response","66","299659","0.0-6.0-4.8","3032654","co38020","norming","","","","","","",""
"null","../img/tt/1362tt.jpg","null","mooney2","image-keyboard-response","67","301659","0.0-6.0-5.8","3032654","co38020","norming","","","","","","",""
"2873.479999999923","","","post_reveal_questions","survey-likert","68","304534","0.0-6.0-6.8","3032654","co38020","norming","","","{""aha"":6}","[0]","../img/tt/1362tt.jpg","",""
"null","<div style=""font-size:60px;""> </div>","null","fixation","html-keyboard-response","69","304735","0.0-6.0-0.9","3032654","co38020","norming","","","","","","",""
"null","../img/tt/358tt.jpg","null","mooney1","image-keyboard-response","70","307743","0.0-6.0-1.9","3032654","co38020","norming","","","","","","",""
"9221.409999999858","","","post_mooney1_questions","survey-likert","71","316967","0.0-6.0-2.9","3032654","co38020","norming","","","{""curiosity"":6,""confidence"":1}","[0,1]","../img/tt/358tt.jpg","",""
"1773.8799999999464","","","recognition","survey-text","72","318743","0.0-6.0-3.9","3032654","co38020","norming","","","{""guess"":""dog""}","","../img/tt/358tt.jpg","",""
"null","../img/gs/358gs.jpg","null","reveal","image-keyboard-response","73","320752","0.0-6.0-4.9","3032654","co38020","norming","","","","","","",""
"null","../img/tt/358tt.jpg","null","mooney2","image-keyboard-response","74","322754","0.0-6.0-5.9","3032654","co38020","norming","","","","","","",""
"6587.609999999811","","","post_reveal_questions","survey-likert","75","329342","0.0-6.0-6.9","3032654","co38020","norming","","","{""aha"":3}","[0]","../img/tt/358tt.jpg","",""
"null","<div style=""font-size:60px;""> </div>","null","fixation","html-keyboard-response","76","329546","0.0-6.0-0.10","3032654","co38020","norming","","","","","","",""
"null","../img/tt/1276tt.jpg","null","mooney1","image-keyboard-response","77","332557","0.0-6.0-1.10","3032654","co38020","norming","","","","","","",""
"5640.525000000023","","","post_mooney1_questions","survey-likert","78","338199","0.0-6.0-2.10","3032654","co38020","norming","","","{""curiosity"":6,""confidence"":0}","[0,1]","../img/tt/1276tt.jpg","",""
"764.5800000000163","","","recognition","survey-text","79","338966","0.0-6.0-3.10","3032654","co38020","norming","","","{""guess"":""""}","","../img/tt/1276tt.jpg","",""
"null","../img/gs/1276gs.jpg","null","reveal","image-keyboard-response","80","340976","0.0-6.0-4.10","3032654","co38020","norming","","","","","","",""
"null","../img/tt/1276tt.jpg","null","mooney2","image-keyboard-response","81","342984","0.0-6.0-5.10","3032654","co38020","norming","","","","","","",""
"3013.4100000000326","","","post_reveal_questions","survey-likert","82","345998","0.0-6.0-6.10","3032654","co38020","norming","","","{""aha"":0}","[0]","../img/tt/1276tt.jpg","",""
"null","<div style=""font-size:60px;""> </div>","null","fixation","html-keyboard-response","83","346201","0.0-6.0-0.11","3032654","co38020","norming","","","","","","",""
"null","../img/tt/121tt.jpg","null","mooney1","image-keyboard-response","84","349212","0.0-6.0-1.11","3032654","co38020","norming","","","","","","",""
"9305.990000000049","","","post_mooney1_questions","survey-likert","85","358519","0.0-6.0-2.11","3032654","co38020","norming","","","{""curiosity"":6,""confidence"":0}","[0,1]","../img/tt/121tt.jpg","",""
"3084.969999999914","","","recognition","survey-text","86","361606","0.0-6.0-3.11","3032654","co38020","norming","","","{""guess"":""boat""}","","../img/tt/121tt.jpg","",""
"null","../img/gs/121gs.jpg","null","reveal","image-keyboard-response","87","363610","0.0-6.0-4.11","3032654","co38020","norming","","","","","","",""
"null","../img/tt/121tt.jpg","null","mooney2","image-keyboard-response","88","365610","0.0-6.0-5.11","3032654","co38020","norming","","","","","","",""
"2275.2450000000536","","","post_reveal_questions","survey-likert","89","367886","0.0-6.0-6.11","3032654","co38020","norming","","","{""aha"":6}","[0]","../img/tt/121tt.jpg","",""
"null","<div style=""font-size:60px;""> </div>","null","fixation","html-keyboard-response","90","368089","0.0-6.0-0.12","3032654","co38020","norming","","","","","","",""
"null","../img/tt/1307tt.jpg","null","mooney1","image-keyboard-response","91","371093","0.0-6.0-1.12","3032654","co38020","norming","","","","","","",""
"7296.219999999914","","","post_mooney1_questions","survey-likert","92","378388","0.0-6.0-2.12","3032654","co38020","norming","","","{""curiosity"":6,""confidence"":1}","[0,1]","../img/tt/1307tt.jpg","",""
"2622.0150000001304","","","recognition","survey-text","93","381012","0.0-6.0-3.12","3032654","co38020","norming","","","{""guess"":""statue""}","","../img/tt/1307tt.jpg","",""
"null","../img/gs/1307gs.jpg","null","reveal","image-keyboard-response","94","383021","0.0-6.0-4.12","3032654","co38020","norming","","","","","","",""
"null","../img/tt/1307tt.jpg","null","mooney2","image-keyboard-response","95","385022","0.0-6.0-5.12","3032654","co38020","norming","","","","","","",""
"2923.5549999998766","","","post_reveal_questions","survey-likert","96","387948","0.0-6.0-6.12","3032654","co38020","norming","","","{""aha"":4}","[0]","../img/tt/1307tt.jpg","",""
"null","<div style=""font-size:60px;""> </div>","null","fixation","html-keyboard-response","97","388150","0.0-6.0-0.13","3032654","co38020","norming","","","","","","",""
"null","../img/tt/1048tt.jpg","null","mooney1","image-keyboard-response","98","391161","0.0-6.0-1.13","3032654","co38020","norming","","","","","","",""
"4792.995000000054","","","post_mooney1_questions","survey-likert","99","395956","0.0-6.0-2.13","3032654","co38020","norming","","","{""curiosity"":6,""confidence"":0}","[0,1]","../img/tt/1048tt.jpg","",""
"1494.1299999997718","","","recognition","survey-text","100","397452","0.0-6.0-3.13","3032654","co38020","norming","","","{""guess"":""""}","","../img/tt/1048tt.jpg","",""
"null","../img/gs/1048gs.jpg","null","reveal","image-keyboard-response","101","399455","0.0-6.0-4.13","3032654","co38020","norming","","","","","","",""
"null","../img/tt/1048tt.jpg","null","mooney2","image-keyboard-response","102","401464","0.0-6.0-5.13","3032654","co38020","norming","","","","","","",""
"6026.030000000028","","","post_reveal_questions","survey-likert","103","407492","0.0-6.0-6.13","3032654","co38020","norming","","","{""aha"":5}","[0]","../img/tt/1048tt.jpg","",""
"null","<div style=""font-size:60px;""> </div>","null","fixation","html-keyboard-response","104","407693","0.0-6.0-0.14","3032654","co38020","norming","","","","","","",""
"null","../img/tt/064tt.jpg","null","mooney1","image-keyboard-response","105","410702","0.0-6.0-1.14","3032654","co38020","norming","","","","","","",""
"6882.870000000112","","","post_mooney1_questions","survey-likert","106","417588","0.0-6.0-2.14","3032654","co38020","norming","","","{""curiosity"":6,""confidence"":1}","[0,1]","../img/tt/064tt.jpg","",""
"3294.390000000014","","","recognition","survey-text","107","420884","0.0-6.0-3.14","3032654","co38020","norming","","","{""guess"":""flower""}","","../img/tt/064tt.jpg","",""
"null","../img/gs/064gs.jpg","null","reveal","image-keyboard-response","108","422886","0.0-6.0-4.14","3032654","co38020","norming","","","","","","",""
"null","../img/tt/064tt.jpg","null","mooney2","image-keyboard-response","109","424889","0.0-6.0-5.14","3032654","co38020","norming","","","","","","",""
"6224.49500000017","","","post_reveal_questions","survey-likert","110","431116","0.0-6.0-6.14","3032654","co38020","norming","","","{""aha"":5}","[0]","../img/tt/064tt.jpg","",""
"null","<div style=""font-size:60px;""> </div>","null","fixation","html-keyboard-response","111","431318","0.0-6.0-0.15","3032654","co38020","norming","","","","","","",""
"null","../img/tt/580tt.jpg","null","mooney1","image-keyboard-response","112","434330","0.0-6.0-1.15","3032654","co38020","norming","","","","","","",""
"6311.085000000021","","","post_mooney1_questions","survey-likert","113","440649","0.0-6.0-2.15","3032654","co38020","norming","","","{""curiosity"":6,""confidence"":1}","[0,1]","../img/tt/580tt.jpg","",""
"2670.219999999972","","","recognition","survey-text","114","443321","0.0-6.0-3.15","3032654","co38020","norming","","","{""guess"":""flower""}","","../img/tt/580tt.jpg","",""
"null","../img/gs/580gs.jpg","null","reveal","image-keyboard-response","115","445330","0.0-6.0-4.15","3032654","co38020","norming","","","","","","",""
"null","../img/tt/580tt.jpg","null","mooney2","image-keyboard-response","116","447337","0.0-6.0-5.15","3032654","co38020","norming","","","","","","",""
"3453.6450000000186","","","post_reveal_questions","survey-likert","117","450793","0.0-6.0-6.15","3032654","co38020","norming","","","{""aha"":6}","[0]","../img/tt/580tt.jpg","",""
"null","<div style=""font-size:60px;""> </div>","null","fixation","html-keyboard-response","118","450994","0.0-6.0-0.16","3032654","co38020","norming","","","","","","",""
"null","../img/tt/416tt.jpg","null","mooney1","image-keyboard-response","119","453997","0.0-6.0-1.16","3032654","co38020","norming","","","","","","",""
"5409.065000000002","","","post_mooney1_questions","survey-likert","120","459409","0.0-6.0-2.16","3032654","co38020","norming","","","{""curiosity"":6,""confidence"":1}","[0,1]","../img/tt/416tt.jpg","",""
"2469.395000000077","","","recognition","survey-text","121","461881","0.0-6.0-3.16","3032654","co38020","norming","","","{""guess"":""animal""}","","../img/tt/416tt.jpg","",""
"null","../img/gs/416gs.jpg","null","reveal","image-keyboard-response","122","463885","0.0-6.0-4.16","3032654","co38020","norming","","","","","","",""
"null","../img/tt/416tt.jpg","null","mooney2","image-keyboard-response","123","465887","0.0-6.0-5.16","3032654","co38020","norming","","","","","","",""
"5055.240000000107","","","post_reveal_questions","survey-likert","124","470945","0.0-6.0-6.16","3032654","co38020","norming","","","{""aha"":4}","[0]","../img/tt/416tt.jpg","",""
"null","<div style=""font-size:60px;""> </div>","null","fixation","html-keyboard-response","125","471148","0.0-6.0-0.17","3032654","co38020","norming","","","","","","",""
"null","../img/tt/055tt.jpg","null","mooney1","image-keyboard-response","126","474155","0.0-6.0-1.17","3032654","co38020","norming","","","","","","",""
"6346.635000000126","","","post_mooney1_questions","survey-likert","127","480505","0.0-6.0-2.17","3032654","co38020","norming","","","{""curiosity"":6,""confidence"":1}","[0,1]","../img/tt/055tt.jpg","",""
"2414.6900000000605","","","recognition","survey-text","128","482921","0.0-6.0-3.17","3032654","co38020","norming","","","{""guess"":""face""}","","../img/tt/055tt.jpg","",""
"null","../img/gs/055gs.jpg","null","reveal","image-keyboard-response","129","484926","0.0-6.0-4.17","3032654","co38020","norming","","","","","","",""
"null","../img/tt/055tt.jpg","null","mooney2","image-keyboard-response","130","486928","0.0-6.0-5.17","3032654","co38020","norming","","","","","","",""
"2744.079999999958","","","post_reveal_questions","survey-likert","131","489673","0.0-6.0-6.17","3032654","co38020","norming","","","{""aha"":3}","[0]","../img/tt/055tt.jpg","",""
"null","<div style=""font-size:60px;""> </div>","null","fixation","html-keyboard-response","132","489875","0.0-6.0-0.18","3032654","co38020","norming","","","","","","",""
"null","../img/tt/517tt.jpg","null","mooney1","image-keyboard-response","133","492878","0.0-6.0-1.18","3032654","co38020","norming","","","","","","",""
"4944.425000000105","","","post_mooney1_questions","survey-likert","134","497825","0.0-6.0-2.18","3032654","co38020","norming","","","{""curiosity"":6,""confidence"":2}","[0,1]","../img/tt/517tt.jpg","",""
"4198.145000000077","","","recognition","survey-text","135","502026","0.0-6.0-3.18","3032654","co38020","norming","","","{""guess"":""tree with animal""}","","../img/tt/517tt.jpg","",""
"null","../img/gs/517gs.jpg","null","reveal","image-keyboard-response","136","504028","0.0-6.0-4.18","3032654","co38020","norming","","","","","","",""
"null","../img/tt/517tt.jpg","null","mooney2","image-keyboard-response","137","506037","0.0-6.0-5.18","3032654","co38020","norming","","","","","","",""
"5739.194999999891","","","post_reveal_questions","survey-likert","138","511778","0.0-6.0-6.18","3032654","co38020","norming","","","{""aha"":2}","[0]","../img/tt/517tt.jpg","",""
"null","<div style=""font-size:60px;""> </div>","null","fixation","html-keyboard-response","139","511979","0.0-6.0-0.19","3032654","co38020","norming","","","","","","",""
"null","../img/tt/1024tt.jpg","null","mooney1","image-keyboard-response","140","514982","0.0-6.0-1.19","3032654","co38020","norming","","","","","","",""
"3402.0749999999534","","","post_mooney1_questions","survey-likert","141","518387","0.0-6.0-2.19","3032654","co38020","norming","","","{""curiosity"":6,""confidence"":0}","[0,1]","../img/tt/1024tt.jpg","",""
"781.8449999999721","","","recognition","survey-text","142","519170","0.0-6.0-3.19","3032654","co38020","norming","","","{""guess"":""""}","","../img/tt/1024tt.jpg","",""
"null","../img/gs/1024gs.jpg","null","reveal","image-keyboard-response","143","521171","0.0-6.0-4.19","3032654","co38020","norming","","","","","","",""
"null","../img/tt/1024tt.jpg","null","mooney2","image-keyboard-response","144","523179","0.0-6.0-5.19","3032654","co38020","norming","","","","","","",""
"8349.209999999846","","","post_reveal_questions","survey-likert","145","531530","0.0-6.0-6.19","3032654","co38020","norming","","","{""aha"":6}","[0]","../img/tt/1024tt.jpg","",""
"null","<div style=""font-size:60px;""> </div>","null","fixation","html-keyboard-response","146","531732","0.0-6.0-0.20","3032654","co38020","norming","","","","","","",""
"null","../img/tt/436tt.jpg","null","mooney1","image-keyboard-response","147","534736","0.0-6.0-1.20","3032654","co38020","norming","","","","","","",""
"5399.439999999828","","","post_mooney1_questions","survey-likert","148","540138","0.0-6.0-2.20","3032654","co38020","norming","","","{""curiosity"":6,""confidence"":1}","[0,1]","../img/tt/436tt.jpg","",""
"5262.855000000214","","","recognition","survey-text","149","545403","0.0-6.0-3.20","3032654","co38020","norming","","","{""guess"":""dinosaur""}","","../img/tt/436tt.jpg","",""
"null","../img/gs/436gs.jpg","null","reveal","image-keyboard-response","150","547412","0.0-6.0-4.20","3032654","co38020","norming","","","","","","",""
"null","../img/tt/436tt.jpg","null","mooney2","image-keyboard-response","151","549414","0.0-6.0-5.20","3032654","co38020","norming","","","","","","",""
"5051.499999999767","","","post_reveal_questions","survey-likert","152","554466","0.0-6.0-6.20","3032654","co38020","norming","","","{""aha"":4}","[0]","../img/tt/436tt.jpg","",""
"null","<div style=""font-size:60px;""> </div>","null","fixation","html-keyboard-response","153","554668","0.0-6.0-0.21","3032654","co38020","norming","","","","","","",""
"null","../img/tt/1126tt.jpg","null","mooney1","image-keyboard-response","154","557680","0.0-6.0-1.21","3032654","co38020","norming","","","","","","",""
"4839.8650000002235","","","post_mooney1_questions","survey-likert","155","562520","0.0-6.0-2.21","3032654","co38020","norming","","","{""curiosity"":6,""confidence"":1}","[0,1]","../img/tt/1126tt.jpg","",""
"4366.0299999999115","","","recognition","survey-text","156","566888","0.0-6.0-3.21","3032654","co38020","norming","","","{""guess"":""leaf from a tree""}","","../img/tt/1126tt.jpg","",""
"null","../img/gs/1126gs.jpg","null","reveal","image-keyboard-response","157","568892","0.0-6.0-4.21","3032654","co38020","norming","","","","","","",""
"null","../img/tt/1126tt.jpg","null","mooney2","image-keyboard-response","158","570903","0.0-6.0-5.21","3032654","co38020","norming","","","","","","",""
"3526.435000000056","","","post_reveal_questions","survey-likert","159","574432","0.0-6.0-6.21","3032654","co38020","norming","","","{""aha"":6}","[0]","../img/tt/1126tt.jpg","",""
"null","<div style=""font-size:60px;""> </div>","null","fixation","html-keyboard-response","160","574637","0.0-6.0-0.22","3032654","co38020","norming","","","","","","",""
"null","../img/tt/1205tt.jpg","null","mooney1","image-keyboard-response","161","577641","0.0-6.0-1.22","3032654","co38020","norming","","","","","","",""
"4844.255000000005","","","post_mooney1_questions","survey-likert","162","582488","0.0-6.0-2.22","3032654","co38020","norming","","","{""curiosity"":6,""confidence"":0}","[0,1]","../img/tt/1205tt.jpg","",""
"1286.3050000000512","","","recognition","survey-text","163","583776","0.0-6.0-3.22","3032654","co38020","norming","","","{""guess"":""""}","","../img/tt/1205tt.jpg","",""
"null","../img/gs/1205gs.jpg","null","reveal","image-keyboard-response","164","585780","0.0-6.0-4.22","3032654","co38020","norming","","","","","","",""
"null","../img/tt/1205tt.jpg","null","mooney2","image-keyboard-response","165","587783","0.0-6.0-5.22","3032654","co38020","norming","","","","","","",""
"4231.954999999958","","","post_reveal_questions","survey-likert","166","592016","0.0-6.0-6.22","3032654","co38020","norming","","","{""aha"":5}","[0]","../img/tt/1205tt.jpg","",""
"null","<div style=""font-size:60px;""> </div>","null","fixation","html-keyboard-response","167","592221","0.0-6.0-0.23","3032654","co38020","norming","","","","","","",""
"null","../img/tt/108tt.jpg","null","mooney1","image-keyboard-response","168","595233","0.0-6.0-1.23","3032654","co38020","norming","","","","","","",""
"5123.839999999967","","","post_mooney1_questions","survey-likert","169","600360","0.0-6.0-2.23","3032654","co38020","norming","","","{""curiosity"":6,""confidence"":1}","[0,1]","../img/tt/108tt.jpg","",""
"2189.910000000149","","","recognition","survey-text","170","602552","0.0-6.0-3.23","3032654","co38020","norming","","","{""guess"":""animals""}","","../img/tt/108tt.jpg","",""
"null","../img/gs/108gs.jpg","null","reveal","image-keyboard-response","171","604555","0.0-6.0-4.23","3032654","co38020","norming","","","","","","",""
"null","../img/tt/108tt.jpg","null","mooney2","image-keyboard-response","172","606562","0.0-6.0-5.23","3032654","co38020","norming","","","","","","",""
"4925.195000000065","","","post_reveal_questions","survey-likert","173","611488","0.0-6.0-6.23","3032654","co38020","norming","","","{""aha"":3}","[0]","../img/tt/108tt.jpg","",""
"null","<div style=""font-size:60px;""> </div>","null","fixation","html-keyboard-response","174","611690","0.0-6.0-0.24","3032654","co38020","norming","","","","","","",""
"null","../img/tt/1006tt.jpg","null","mooney1","image-keyboard-response","175","614700","0.0-6.0-1.24","3032654","co38020","norming","","","","","","",""
"5353.29999999993","","","post_mooney1_questions","survey-likert","176","620056","0.0-6.0-2.24","3032654","co38020","norming","","","{""curiosity"":6,""confidence"":1}","[0,1]","../img/tt/1006tt.jpg","",""
"1902.2150000000838","","","recognition","survey-text","177","621963","0.0-6.0-3.24","3032654","co38020","norming","","","{""guess"":""bear""}","","../img/tt/1006tt.jpg","",""
"null","../img/gs/1006gs.jpg","null","reveal","image-keyboard-response","178","623971","0.0-6.0-4.24","3032654","co38020","norming","","","","","","",""
"null","../img/tt/1006tt.jpg","null","mooney2","image-keyboard-response","179","625972","0.0-6.0-5.24","3032654","co38020","norming","","","","","","",""
"1956.6450000000186","","","post_reveal_questions","survey-likert","180","627931","0.0-6.0-6.24","3032654","co38020","norming","","","{""aha"":3}","[0]","../img/tt/1006tt.jpg","",""
"null","<div style=""font-size:60px;""> </div>","null","fixation","html-keyboard-response","181","628135","0.0-6.0-0.25","3032654","co38020","norming","","","","","","",""
"null","../img/tt/1275tt.jpg","null","mooney1","image-keyboard-response","182","631142","0.0-6.0-1.25","3032654","co38020","norming","","","","","","",""
"4043.069999999949","","","post_mooney1_questions","survey-likert","183","635187","0.0-6.0-2.25","3032654","co38020","norming","","","{""curiosity"":6,""confidence"":0}","[0,1]","../img/tt/1275tt.jpg","",""
"1134.130000000121","","","recognition","survey-text","184","636323","0.0-6.0-3.25","3032654","co38020","norming","","","{""guess"":""""}","","../img/tt/1275tt.jpg","",""
"null","../img/gs/1275gs.jpg","null","reveal","image-keyboard-response","185","638326","0.0-6.0-4.25","3032654","co38020","norming","","","","","","",""
"null","../img/tt/1275tt.jpg","null","mooney2","image-keyboard-response","186","640337","0.0-6.0-5.25","3032654","co38020","norming","","","","","","",""
"6191.85999999987","","","post_reveal_questions","survey-likert","187","646531","0.0-6.0-6.25","3032654","co38020","norming","","","{""aha"":4}","[0]","../img/tt/1275tt.jpg","",""
"null","<div style=""font-size:60px;""> </div>","null","fixation","html-keyboard-response","188","646737","0.0-6.0-0.26","3032654","co38020","norming","","","","","","",""
"null","../img/tt/096tt.jpg","null","mooney1","image-keyboard-response","189","649748","0.0-6.0-1.26","3032654","co38020","norming","","","","","","",""
"3916.375","","","post_mooney1_questions","survey-likert","190","653667","0.0-6.0-2.26","3032654","co38020","norming","","","{""curiosity"":6,""confidence"":1}","[0,1]","../img/tt/096tt.jpg","",""
"1622.1450000000186","","","recognition","survey-text","191","655291","0.0-6.0-3.26","3032654","co38020","norming","","","{""guess"":""gun""}","","../img/tt/096tt.jpg","",""
"null","../img/gs/096gs.jpg","null","reveal","image-keyboard-response","192","657296","0.0-6.0-4.26","3032654","co38020","norming","","","","","","",""
"null","../img/tt/096tt.jpg","null","mooney2","image-keyboard-response","193","659298","0.0-6.0-5.26","3032654","co38020","norming","","","","","","",""
"2254.664999999921","","","post_reveal_questions","survey-likert","194","661555","0.0-6.0-6.26","3032654","co38020","norming","","","{""aha"":4}","[0]","../img/tt/096tt.jpg","",""
"null","<div style=""font-size:60px;""> </div>","null","fixation","html-keyboard-response","195","661766","0.0-6.0-0.27","3032654","co38020","norming","","","","","","",""
"null","../img/tt/300tt.jpg","null","mooney1","image-keyboard-response","196","664771","0.0-6.0-1.27","3032654","co38020","norming","","","","","","",""
"8173.875","","","post_mooney1_questions","survey-likert","197","672948","0.0-6.0-2.27","3032654","co38020","norming","","","{""curiosity"":6,""confidence"":0}","[0,1]","../img/tt/300tt.jpg","",""
"1149.8950000000186","","","recognition","survey-text","198","674099","0.0-6.0-3.27","3032654","co38020","norming","","","{""guess"":""""}","","../img/tt/300tt.jpg","",""
"null","../img/gs/300gs.jpg","null","reveal","image-keyboard-response","199","676100","0.0-6.0-4.27","3032654","co38020","norming","","","","","","",""
"null","../img/tt/300tt.jpg","null","mooney2","image-keyboard-response","200","678107","0.0-6.0-5.27","3032654","co38020","norming","","","","","","",""
"3590.020000000135","","","post_reveal_questions","survey-likert","201","681702","0.0-6.0-6.27","3032654","co38020","norming","","","{""aha"":5}","[0]","../img/tt/300tt.jpg","",""
"null","<div style=""font-size:60px;""> </div>","null","fixation","html-keyboard-response","202","681909","0.0-6.0-0.28","3032654","co38020","norming","","","","","","",""
"null","../img/tt/1202tt.jpg","null","mooney1","image-keyboard-response","203","684912","0.0-6.0-1.28","3032654","co38020","norming","","","","","","",""
"4411.644999999902","","","post_mooney1_questions","survey-likert","204","689327","0.0-6.0-2.28","3032654","co38020","norming","","","{""curiosity"":6,""confidence"":1}","[0,1]","../img/tt/1202tt.jpg","",""
"4286.119999999995","","","recognition","survey-text","205","693614","0.0-6.0-3.28","3032654","co38020","norming","","","{""guess"":""house""}","","../img/tt/1202tt.jpg","",""
"null","../img/gs/1202gs.jpg","null","reveal","image-keyboard-response","206","695617","0.0-6.0-4.28","3032654","co38020","norming","","","","","","",""
"null","../img/tt/1202tt.jpg","null","mooney2","image-keyboard-response","207","697623","0.0-6.0-5.28","3032654","co38020","norming","","","","","","",""
"3965.3149999998277","","","post_reveal_questions","survey-likert","208","701590","0.0-6.0-6.28","3032654","co38020","norming","","","{""aha"":5}","[0]","../img/tt/1202tt.jpg","",""
"null","<div style=""font-size:60px;""> </div>","null","fixation","html-keyboard-response","209","701795","0.0-6.0-0.29","3032654","co38020","norming","","","","","","",""
"null","../img/tt/405tt.jpg","null","mooney1","image-keyboard-response","210","704798","0.0-6.0-1.29","3032654","co38020","norming","","","","","","",""
"10005.554999999935","","","post_mooney1_questions","survey-likert","211","714806","0.0-6.0-2.29","3032654","co38020","norming","","","{""curiosity"":6,""confidence"":1}","[0,1]","../img/tt/405tt.jpg","",""
"9110.145000000135","","","recognition","survey-text","212","723918","0.0-6.0-3.29","3032654","co38020","norming","","","{""guess"":""varken""}","","../img/tt/405tt.jpg","",""
"null","../img/gs/405gs.jpg","null","reveal","image-keyboard-response","213","725924","0.0-6.0-4.29","3032654","co38020","norming","","","","","","",""
"null","../img/tt/405tt.jpg","null","mooney2","image-keyboard-response","214","727926","0.0-6.0-5.29","3032654","co38020","norming","","","","","","",""
"3301.67499999993","","","post_reveal_questions","survey-likert","215","731230","0.0-6.0-6.29","3032654","co38020","norming","","","{""aha"":6}","[0]","../img/tt/405tt.jpg","",""
"null","<div style=""font-size:60px;""> </div>","null","fixation","html-keyboard-response","216","731433","0.0-6.0-0.30","3032654","co38020","norming","","","","","","",""
"null","../img/tt/552tt.jpg","null","mooney1","image-keyboard-response","217","734439","0.0-6.0-1.30","3032654","co38020","norming","","","","","","",""
"6204.040000000154","","","post_mooney1_questions","survey-likert","218","740646","0.0-6.0-2.30","3032654","co38020","norming","","","{""curiosity"":6,""confidence"":1}","[0,1]","../img/tt/552tt.jpg","",""
"2054.0200000000186","","","recognition","survey-text","219","742699","0.0-6.0-3.30","3032654","co38020","norming","","","{""guess"":""tea""}","","../img/tt/552tt.jpg","",""
"null","../img/gs/552gs.jpg","null","reveal","image-keyboard-response","220","744708","0.0-6.0-4.30","3032654","co38020","norming","","","","","","",""
"null","../img/tt/552tt.jpg","null","mooney2","image-keyboard-response","221","746717","0.0-6.0-5.30","3032654","co38020","norming","","","","","","",""
"4076","","","post_reveal_questions","survey-likert","222","750795","0.0-6.0-6.30","3032654","co38020","norming","","","{""aha"":1}","[0]","../img/tt/552tt.jpg","",""
"null","<div style=""font-size:60px;""> </div>","null","fixation","html-keyboard-response","223","750997","0.0-6.0-0.31","3032654","co38020","norming","","","","","","",""
"null","../img/tt/1190tt.jpg","null","mooney1","image-keyboard-response","224","754005","0.0-6.0-1.31","3032654","co38020","norming","","","","","","",""
"5499.519999999786","","","post_mooney1_questions","survey-likert","225","759507","0.0-6.0-2.31","3032654","co38020","norming","","","{""curiosity"":6,""confidence"":1}","[0,1]","../img/tt/1190tt.jpg","",""
"2918.179999999935","","","recognition","survey-text","226","762427","0.0-6.0-3.31","3032654","co38020","norming","","","{""guess"":""animal""}","","../img/tt/1190tt.jpg","",""
"null","../img/gs/1190gs.jpg","null","reveal","image-keyboard-response","227","764428","0.0-6.0-4.31","3032654","co38020","norming","","","","","","",""
"null","../img/tt/1190tt.jpg","null","mooney2","image-keyboard-response","228","766437","0.0-6.0-5.31","3032654","co38020","norming","","","","","","",""
"3717.3399999999674","","","post_reveal_questions","survey-likert","229","770155","0.0-6.0-6.31","3032654","co38020","norming","","","{""aha"":5}","[0]","../img/tt/1190tt.jpg","",""
"null","<div style=""font-size:60px;""> </div>","null","fixation","html-keyboard-response","230","770359","0.0-6.0-0.32","3032654","co38020","norming","","","","","","",""
"null","../img/tt/1227tt.jpg","null","mooney1","image-keyboard-response","231","773370","0.0-6.0-1.32","3032654","co38020","norming","","","","","","",""
"6886.889999999898","","","post_mooney1_questions","survey-likert","232","780259","0.0-6.0-2.32","3032654","co38020","norming","","","{""curiosity"":6,""confidence"":0}","[0,1]","../img/tt/1227tt.jpg","",""
"693.4800000000978","","","recognition","survey-text","233","780955","0.0-6.0-3.32","3032654","co38020","norming","","","{""guess"":""""}","","../img/tt/1227tt.jpg","",""
"null","../img/gs/1227gs.jpg","null","reveal","image-keyboard-response","234","782961","0.0-6.0-4.32","3032654","co38020","norming","","","","","","",""
"null","../img/tt/1227tt.jpg","null","mooney2","image-keyboard-response","235","784972","0.0-6.0-5.32","3032654","co38020","norming","","","","","","",""
"3341.3250000001863","","","post_reveal_questions","survey-likert","236","788315","0.0-6.0-6.32","3032654","co38020","norming","","","{""aha"":1}","[0]","../img/tt/1227tt.jpg","",""
"null","<div style=""font-size:60px;""> </div>","null","fixation","html-keyboard-response","237","788520","0.0-6.0-0.33","3032654","co38020","norming","","","","","","",""
"null","../img/tt/496tt.jpg","null","mooney1","image-keyboard-response","238","791522","0.0-6.0-1.33","3032654","co38020","norming","","","","","","",""
"5030.5599999999395","","","post_mooney1_questions","survey-likert","239","796555","0.0-6.0-2.33","3032654","co38020","norming","","","{""curiosity"":6,""confidence"":1}","[0,1]","../img/tt/496tt.jpg","",""
"1661.9449999998324","","","recognition","survey-text","240","798219","0.0-6.0-3.33","3032654","co38020","norming","","","{""guess"":""dog""}","","../img/tt/496tt.jpg","",""
"null","../img/gs/496gs.jpg","null","reveal","image-keyboard-response","241","800229","0.0-6.0-4.33","3032654","co38020","norming","","","","","","",""
"null","../img/tt/496tt.jpg","null","mooney2","image-keyboard-response","242","802243","0.0-6.0-5.33","3032654","co38020","norming","","","","","","",""
"7154.630000000005","","","post_reveal_questions","survey-likert","243","809400","0.0-6.0-6.33","3032654","co38020","norming","","","{""aha"":4}","[0]","../img/tt/496tt.jpg","",""
"null","<div style=""font-size:60px;""> </div>","null","fixation","html-keyboard-response","244","809601","0.0-6.0-0.34","3032654","co38020","norming","","","","","","",""
"null","../img/tt/1175tt.jpg","null","mooney1","image-keyboard-response","245","812604","0.0-6.0-1.34","3032654","co38020","norming","","","","","","",""
"5114.4199999999255","","","post_mooney1_questions","survey-likert","246","817720","0.0-6.0-2.34","3032654","co38020","norming","","","{""curiosity"":6,""confidence"":0}","[0,1]","../img/tt/1175tt.jpg","",""
"1918.020000000135","","","recognition","survey-text","247","819640","0.0-6.0-3.34","3032654","co38020","norming","","","{""guess"":""""}","","../img/tt/1175tt.jpg","",""
"null","../img/gs/1175gs.jpg","null","reveal","image-keyboard-response","248","821649","0.0-6.0-4.34","3032654","co38020","norming","","","","","","",""
"null","../img/tt/1175tt.jpg","null","mooney2","image-keyboard-response","249","823653","0.0-6.0-5.34","3032654","co38020","norming","","","","","","",""
"2383.8449999998556","","","post_reveal_questions","survey-likert","250","826040","0.0-6.0-6.34","3032654","co38020","norming","","","{""aha"":5}","[0]","../img/tt/1175tt.jpg","",""
"null","<div style=""font-size:60px;""> </div>","null","fixation","html-keyboard-response","251","826257","0.0-6.0-0.35","3032654","co38020","norming","","","","","","",""
"null","../img/tt/1242tt.jpg","null","mooney1","image-keyboard-response","252","829262","0.0-6.0-1.35","3032654","co38020","norming","","","","","","",""
"8648.360000000219","","","post_mooney1_questions","survey-likert","253","837912","0.0-6.0-2.35","3032654","co38020","norming","","","{""curiosity"":6,""confidence"":0}","[0,1]","../img/tt/1242tt.jpg","",""
"990.0649999999441","","","recognition","survey-text","254","838903","0.0-6.0-3.35","3032654","co38020","norming","","","{""guess"":""""}","","../img/tt/1242tt.jpg","",""
"null","../img/gs/1242gs.jpg","null","reveal","image-keyboard-response","255","840911","0.0-6.0-4.35","3032654","co38020","norming","","","","","","",""
"null","../img/tt/1242tt.jpg","null","mooney2","image-keyboard-response","256","842912","0.0-6.0-5.35","3032654","co38020","norming","","","","","","",""
"2495.0400000000373","","","post_reveal_questions","survey-likert","257","845408","0.0-6.0-6.35","3032654","co38020","norming","","","{""aha"":6}","[0]","../img/tt/1242tt.jpg","",""
"null","<div style=""font-size:60px;""> </div>","null","fixation","html-keyboard-response","258","845611","0.0-6.0-0.36","3032654","co38020","norming","","","","","","",""
"null","../img/tt/084tt.jpg","null","mooney1","image-keyboard-response","259","848622","0.0-6.0-1.36","3032654","co38020","norming","","","","","","",""
"13775.785000000033","","","post_mooney1_questions","survey-likert","260","862397","0.0-6.0-2.36","3032654","co38020","norming","","","{""curiosity"":6,""confidence"":0}","[0,1]","../img/tt/084tt.jpg","",""
"966.1150000002235","","","recognition","survey-text","261","863365","0.0-6.0-3.36","3032654","co38020","norming","","","{""guess"":""""}","","../img/tt/084tt.jpg","",""
"null","../img/gs/084gs.jpg","null","reveal","image-keyboard-response","262","865374","0.0-6.0-4.36","3032654","co38020","norming","","","","","","",""
"null","../img/tt/084tt.jpg","null","mooney2","image-keyboard-response","263","867378","0.0-6.0-5.36","3032654","co38020","norming","","","","","","",""
"5312.349999999977","","","post_reveal_questions","survey-likert","264","872693","0.0-6.0-6.36","3032654","co38020","norming","","","{""aha"":5}","[0]","../img/tt/084tt.jpg","",""
"null","<div style=""font-size:60px;""> </div>","null","fixation","html-keyboard-response","265","872895","0.0-6.0-0.37","3032654","co38020","norming","","","","","","",""
"null","../img/tt/1268tt.jpg","null","mooney1","image-keyboard-response","266","875898","0.0-6.0-1.37","3032654","co38020","norming","","","","","","",""
"6216.65000000014","","","post_mooney1_questions","survey-likert","267","882117","0.0-6.0-2.37","3032654","co38020","norming","","","{""curiosity"":6,""confidence"":0}","[0,1]","../img/tt/1268tt.jpg","",""
"830.145000000135","","","recognition","survey-text","268","882949","0.0-6.0-3.37","3032654","co38020","norming","","","{""guess"":""""}","","../img/tt/1268tt.jpg","",""
"null","../img/gs/1268gs.jpg","null","reveal","image-keyboard-response","269","884952","0.0-6.0-4.37","3032654","co38020","norming","","","","","","",""
"null","../img/tt/1268tt.jpg","null","mooney2","image-keyboard-response","270","886955","0.0-6.0-5.37","3032654","co38020","norming","","","","","","",""
"5799.214999999967","","","post_reveal_questions","survey-likert","271","892757","0.0-6.0-6.37","3032654","co38020","norming","","","{""aha"":4}","[0]","../img/tt/1268tt.jpg","",""
"null","<div style=""font-size:60px;""> </div>","null","fixation","html-keyboard-response","272","892964","0.0-6.0-0.38","3032654","co38020","norming","","","","","","",""
"null","../img/tt/052tt.jpg","null","mooney1","image-keyboard-response","273","895967","0.0-6.0-1.38","3032654","co38020","norming","","","","","","",""
"8243.790000000037","","","post_mooney1_questions","survey-likert","274","904213","0.0-6.0-2.38","3032654","co38020","norming","","","{""curiosity"":5,""confidence"":6}","[0,1]","../img/tt/052tt.jpg","",""
"3638.2349999998696","","","recognition","survey-text","275","907853","0.0-6.0-3.38","3032654","co38020","norming","","","{""guess"":""ring""}","","../img/tt/052tt.jpg","",""
"null","../img/gs/052gs.jpg","null","reveal","image-keyboard-response","276","909864","0.0-6.0-4.38","3032654","co38020","norming","","","","","","",""
"null","../img/tt/052tt.jpg","null","mooney2","image-keyboard-response","277","911866","0.0-6.0-5.38","3032654","co38020","norming","","","","","","",""
"2503.715000000084","","","post_reveal_questions","survey-likert","278","914373","0.0-6.0-6.38","3032654","co38020","norming","","","{""aha"":0}","[0]","../img/tt/052tt.jpg","",""
"null","<div style=""font-size:60px;""> </div>","null","fixation","html-keyboard-response","279","914576","0.0-6.0-0.39","3032654","co38020","norming","","","","","","",""
"null","../img/tt/1002tt.jpg","null","mooney1","image-keyboard-response","280","917583","0.0-6.0-1.39","3032654","co38020","norming","","","","","","",""
"5075.7050000000745","","","post_mooney1_questions","survey-likert","281","922663","0.0-6.0-2.39","3032654","co38020","norming","","","{""curiosity"":6,""confidence"":1}","[0,1]","../img/tt/1002tt.jpg","",""
"3958.1300000000047","","","recognition","survey-text","282","926623","0.0-6.0-3.39","3032654","co38020","norming","","","{""guess"":""elephant""}","","../img/tt/1002tt.jpg","",""
"null","../img/gs/1002gs.jpg","null","reveal","image-keyboard-response","283","928625","0.0-6.0-4.39","3032654","co38020","norming","","","","","","",""
"null","../img/tt/1002tt.jpg","null","mooney2","image-keyboard-response","284","930635","0.0-6.0-5.39","3032654","co38020","norming","","","","","","",""
"5954.224999999977","","","post_reveal_questions","survey-likert","285","936591","0.0-6.0-6.39","3032654","co38020","norming","","","{""aha"":5}","[0]","../img/tt/1002tt.jpg","",""
"null","<div style=""font-size:60px;""> </div>","null","fixation","html-keyboard-response","286","936793","0.0-6.0-0.40","3032654","co38020","norming","","","","","","",""
"null","../img/tt/1156tt.jpg","null","mooney1","image-keyboard-response","287","939802","0.0-6.0-1.40","3032654","co38020","norming","","","","","","",""
"15082.609999999986","","","post_mooney1_questions","survey-likert","288","954887","0.0-6.0-2.40","3032654","co38020","norming","","","{""curiosity"":6,""confidence"":1}","[0,1]","../img/tt/1156tt.jpg","",""
"1894.2750000001397","","","recognition","survey-text","289","956783","0.0-6.0-3.40","3032654","co38020","norming","","","{""guess"":""tent""}","","../img/tt/1156tt.jpg","",""
"null","../img/gs/1156gs.jpg","null","reveal","image-keyboard-response","290","958793","0.0-6.0-4.40","3032654","co38020","norming","","","","","","",""
"null","../img/tt/1156tt.jpg","null","mooney2","image-keyboard-response","291","960795","0.0-6.0-5.40","3032654","co38020","norming","","","","","","",""
"4089.894999999902","","","post_reveal_questions","survey-likert","292","964887","0.0-6.0-6.40","3032654","co38020","norming","","","{""aha"":6}","[0]","../img/tt/1156tt.jpg","",""
"null","<div style=""font-size:60px;""> </div>","null","fixation","html-keyboard-response","293","965093","0.0-6.0-0.41","3032654","co38020","norming","","","","","","",""
"null","../img/tt/1084tt.jpg","null","mooney1","image-keyboard-response","294","968106","0.0-6.0-1.41","3032654","co38020","norming","","","","","","",""
"6906.385000000009","","","post_mooney1_questions","survey-likert","295","975015","0.0-6.0-2.41","3032654","co38020","norming","","","{""curiosity"":6,""confidence"":1}","[0,1]","../img/tt/1084tt.jpg","",""
"1782.4949999999953","","","recognition","survey-text","296","976799","0.0-6.0-3.41","3032654","co38020","norming","","","{""guess"":""food""}","","../img/tt/1084tt.jpg","",""
"null","../img/gs/1084gs.jpg","null","reveal","image-keyboard-response","297","978801","0.0-6.0-4.41","3032654","co38020","norming","","","","","","",""
"null","../img/tt/1084tt.jpg","null","mooney2","image-keyboard-response","298","980811","0.0-6.0-5.41","3032654","co38020","norming","","","","","","",""
"4121.674999999814","","","post_reveal_questions","survey-likert","299","984928","0.0-6.0-6.41","3032654","co38020","norming","","","{""aha"":4}","[0]","../img/tt/1084tt.jpg","",""
"null","<div style=""font-size:60px;""> </div>","null","fixation","html-keyboard-response","300","985129","0.0-6.0-0.42","3032654","co38020","norming","","","","","","",""
"null","../img/tt/1070tt.jpg","null","mooney1","image-keyboard-response","301","988136","0.0-6.0-1.42","3032654","co38020","norming","","","","","","",""
"4613.2050000000745","","","post_mooney1_questions","survey-likert","302","992752","0.0-6.0-2.42","3032654","co38020","norming","","","{""curiosity"":6,""confidence"":1}","[0,1]","../img/tt/1070tt.jpg","",""
"3542.085000000079","","","recognition","survey-text","303","996296","0.0-6.0-3.42","3032654","co38020","norming","","","{""guess"":""pie""}","","../img/tt/1070tt.jpg","",""
"null","../img/gs/1070gs.jpg","null","reveal","image-keyboard-response","304","998303","0.0-6.0-4.42","3032654","co38020","norming","","","","","","",""
"null","../img/tt/1070tt.jpg","null","mooney2","image-keyboard-response","305","1000313","0.0-6.0-5.42","3032654","co38020","norming","","","","","","",""
"3474.019999999786","","","post_reveal_questions","survey-likert","306","1003792","0.0-6.0-6.42","3032654","co38020","norming","","","{""aha"":3}","[0]","../img/tt/1070tt.jpg","",""
"null","<div style=""font-size:60px;""> </div>","null","fixation","html-keyboard-response","307","1004001","0.0-6.0-0.43","3032654","co38020","norming","","","","","","",""
"null","../img/tt/1366tt.jpg","null","mooney1","image-keyboard-response","308","1007003","0.0-6.0-1.43","3032654","co38020","norming","","","","","","",""
"6457.510000000009","","","post_mooney1_questions","survey-likert","309","1013464","0.0-6.0-2.43","3032654","co38020","norming","","","{""curiosity"":6,""confidence"":1}","[0,1]","../img/tt/1366tt.jpg","",""
"1613.4949999997625","","","recognition","survey-text","310","1015080","0.0-6.0-3.43","3032654","co38020","norming","","","{""guess"":""pie""}","","../img/tt/1366tt.jpg","",""
"null","../img/gs/1366gs.jpg","null","reveal","image-keyboard-response","311","1017089","0.0-6.0-4.43","3032654","co38020","norming","","","","","","",""
"null","../img/tt/1366tt.jpg","null","mooney2","image-keyboard-response","312","1019091","0.0-6.0-5.43","3032654","co38020","norming","","","","","","",""
"3194.435000000056","","","post_reveal_questions","survey-likert","313","1022288","0.0-6.0-6.43","3032654","co38020","norming","","","{""aha"":6}","[0]","../img/tt/1366tt.jpg","",""
"null","<div style=""font-size:60px;""> </div>","null","fixation","html-keyboard-response","314","1022489","0.0-6.0-0.44","3032654","co38020","norming","","","","","","",""
"null","../img/tt/1173tt.jpg","null","mooney1","image-keyboard-response","315","1025497","0.0-6.0-1.44","3032654","co38020","norming","","","","","","",""
"6846.285000000033","","","post_mooney1_questions","survey-likert","316","1032344","0.0-6.0-2.44","3032654","co38020","norming","","","{""curiosity"":6,""confidence"":3}","[0,1]","../img/tt/1173tt.jpg","",""
"10238.23499999987","","","recognition","survey-text","317","1042584","0.0-6.0-3.44","3032654","co38020","norming","","","{""guess"":""people sport""}","","../img/tt/1173tt.jpg","",""
"null","../img/gs/1173gs.jpg","null","reveal","image-keyboard-response","318","1044601","0.0-6.0-4.44","3032654","co38020","norming","","","","","","",""
"null","../img/tt/1173tt.jpg","null","mooney2","image-keyboard-response","319","1046603","0.0-6.0-5.44","3032654","co38020","norming","","","","","","",""
"4652.154999999795","","","post_reveal_questions","survey-likert","320","1051256","0.0-6.0-6.44","3032654","co38020","norming","","","{""aha"":3}","[0]","../img/tt/1173tt.jpg","",""
"null","<div style=""font-size:60px;""> </div>","null","fixation","html-keyboard-response","321","1051458","0.0-6.0-0.45","3032654","co38020","norming","","","","","","",""
"null","../img/tt/111tt.jpg","null","mooney1","image-keyboard-response","322","1054462","0.0-6.0-1.45","3032654","co38020","norming","","","","","","",""
"6607.715000000084","","","post_mooney1_questions","survey-likert","323","1061073","0.0-6.0-2.45","3032654","co38020","norming","","","{""curiosity"":6,""confidence"":0}","[0,1]","../img/tt/111tt.jpg","",""
"949.9699999999721","","","recognition","survey-text","324","1062024","0.0-6.0-3.45","3032654","co38020","norming","","","{""guess"":""""}","","../img/tt/111tt.jpg","",""
"null","../img/gs/111gs.jpg","null","reveal","image-keyboard-response","325","1064029","0.0-6.0-4.45","3032654","co38020","norming","","","","","","",""
"null","../img/tt/111tt.jpg","null","mooney2","image-keyboard-response","326","1066032","0.0-6.0-5.45","3032654","co38020","norming","","","","","","",""
"2973.945000000298","","","post_reveal_questions","survey-likert","327","1069008","0.0-6.0-6.45","3032654","co38020","norming","","","{""aha"":6}","[0]","../img/tt/111tt.jpg","",""
"null","<div style=""font-size:60px;""> </div>","null","fixation","html-keyboard-response","328","1069212","0.0-6.0-0.46","3032654","co38020","norming","","","","","","",""
"null","../img/tt/1004tt.jpg","null","mooney1","image-keyboard-response","329","1072222","0.0-6.0-1.46","3032654","co38020","norming","","","","","","",""
"9839.274999999674","","","post_mooney1_questions","survey-likert","330","1082065","0.0-6.0-2.46","3032654","co38020","norming","","","{""curiosity"":6,""confidence"":1}","[0,1]","../img/tt/1004tt.jpg","",""
"1822.1049999997485","","","recognition","survey-text","331","1083888","0.0-6.0-3.46","3032654","co38020","norming","","","{""guess"":""water""}","","../img/tt/1004tt.jpg","",""
"null","../img/gs/1004gs.jpg","null","reveal","image-keyboard-response","332","1085890","0.0-6.0-4.46","3032654","co38020","norming","","","","","","",""
"null","../img/tt/1004tt.jpg","null","mooney2","image-keyboard-response","333","1087892","0.0-6.0-5.46","3032654","co38020","norming","","","","","","",""
"4681.8549999997485","","","post_reveal_questions","survey-likert","334","1092576","0.0-6.0-6.46","3032654","co38020","norming","","","{""aha"":4}","[0]","../img/tt/1004tt.jpg","",""
"null","<div style=""font-size:60px;""> </div>","null","fixation","html-keyboard-response","335","1092779","0.0-6.0-0.47","3032654","co38020","norming","","","","","","",""
"null","../img/tt/056tt.jpg","null","mooney1","image-keyboard-response","336","1095783","0.0-6.0-1.47","3032654","co38020","norming","","","","","","",""
"10550.48999999999","","","post_mooney1_questions","survey-likert","337","1106332","0.0-6.0-2.47","3032654","co38020","norming","","","{""curiosity"":6,""confidence"":0}","[0,1]","../img/tt/056tt.jpg","",""
"1245.7050000003073","","","recognition","survey-text","338","1107580","0.0-6.0-3.47","3032654","co38020","norming","","","{""guess"":""""}","","../img/tt/056tt.jpg","",""
"null","../img/gs/056gs.jpg","null","reveal","image-keyboard-response","339","1109582","0.0-6.0-4.47","3032654","co38020","norming","","","","","","",""
"null","../img/tt/056tt.jpg","null","mooney2","image-keyboard-response","340","1111587","0.0-6.0-5.47","3032654","co38020","norming","","","","","","",""
"3456.0449999999255","","","post_reveal_questions","survey-likert","341","1115044","0.0-6.0-6.47","3032654","co38020","norming","","","{""aha"":5}","[0]","../img/tt/056tt.jpg","",""
"null","<div style=""font-size:60px;""> </div>","null","fixation","html-keyboard-response","342","1115247","0.0-6.0-0.48","3032654","co38020","norming","","","","","","",""
"null","../img/tt/1123tt.jpg","null","mooney1","image-keyboard-response","343","1118250","0.0-6.0-1.48","3032654","co38020","norming","","","","","","",""
"5295.44000000041","","","post_mooney1_questions","survey-likert","344","1123548","0.0-6.0-2.48","3032654","co38020","norming","","","{""curiosity"":6,""confidence"":2}","[0,1]","../img/tt/1123tt.jpg","",""
"2253.8300000000745","","","recognition","survey-text","345","1125804","0.0-6.0-3.48","3032654","co38020","norming","","","{""guess"":""basket""}","","../img/tt/1123tt.jpg","",""
"null","../img/gs/1123gs.jpg","null","reveal","image-keyboard-response","346","1127806","0.0-6.0-4.48","3032654","co38020","norming","","","","","","",""
"null","../img/tt/1123tt.jpg","null","mooney2","image-keyboard-response","347","1129814","0.0-6.0-5.48","3032654","co38020","norming","","","","","","",""
"4786.83499999973","","","post_reveal_questions","survey-likert","348","1134604","0.0-6.0-6.48","3032654","co38020","norming","","","{""aha"":3}","[0]","../img/tt/1123tt.jpg","",""
"null","<div style=""font-size:60px;""> </div>","null","fixation","html-keyboard-response","349","1134806","0.0-6.0-0.49","3032654","co38020","norming","","","","","","",""
"null","../img/tt/567tt.jpg","null","mooney1","image-keyboard-response","350","1137818","0.0-6.0-1.49","3032654","co38020","norming","","","","","","",""
"10046.635000000242","","","post_mooney1_questions","survey-likert","351","1147868","0.0-6.0-2.49","3032654","co38020","norming","","","{""curiosity"":4,""confidence"":6}","[0,1]","../img/tt/567tt.jpg","",""
"5566.155000000028","","","recognition","survey-text","352","1153436","0.0-6.0-3.49","3032654","co38020","norming","","","{""guess"":""bread rooster""}","","../img/tt/567tt.jpg","",""
"null","../img/gs/567gs.jpg","null","reveal","image-keyboard-response","353","1155438","0.0-6.0-4.49","3032654","co38020","norming","","","","","","",""
"null","../img/tt/567tt.jpg","null","mooney2","image-keyboard-response","354","1157448","0.0-6.0-5.49","3032654","co38020","norming","","","","","","",""
"5553.584999999963","","","post_reveal_questions","survey-likert","355","1163004","0.0-6.0-6.49","3032654","co38020","norming","","","{""aha"":0}","[0]","../img/tt/567tt.jpg","",""
"null","<div style=""font-size:60px;""> </div>","null","fixation","html-keyboard-response","356","1163213","0.0-6.0-0.50","3032654","co38020","norming","","","","","","",""
"null","../img/tt/1186tt.jpg","null","mooney1","image-keyboard-response","357","1166223","0.0-6.0-1.50","3032654","co38020","norming","","","","","","",""
"8453.02500000014","","","post_mooney1_questions","survey-likert","358","1174680","0.0-6.0-2.50","3032654","co38020","norming","","","{""curiosity"":6,""confidence"":3}","[0,1]","../img/tt/1186tt.jpg","",""
"3749.814999999944","","","recognition","survey-text","359","1178432","0.0-6.0-3.50","3032654","co38020","norming","","","{""guess"":""person walking""}","","../img/tt/1186tt.jpg","",""
"null","../img/gs/1186gs.jpg","null","reveal","image-keyboard-response","360","1180434","0.0-6.0-4.50","3032654","co38020","norming","","","","","","",""
"null","../img/tt/1186tt.jpg","null","mooney2","image-keyboard-response","361","1182439","0.0-6.0-5.50","3032654","co38020","norming","","","","","","",""
"4101.760000000009","","","post_reveal_questions","survey-likert","362","1186544","0.0-6.0-6.50","3032654","co38020","norming","","","{""aha"":4}","[0]","../img/tt/1186tt.jpg","",""
"null","<div style=""font-size:60px;""> </div>","null","fixation","html-keyboard-response","363","1186746","0.0-6.0-0.51","3032654","co38020","norming","","","","","","",""
"null","../img/tt/1143tt.jpg","null","mooney1","image-keyboard-response","364","1189752","0.0-6.0-1.51","3032654","co38020","norming","","","","","","",""
"5109.280000000028","","","post_mooney1_questions","survey-likert","365","1194864","0.0-6.0-2.51","3032654","co38020","norming","","","{""curiosity"":6,""confidence"":2}","[0,1]","../img/tt/1143tt.jpg","",""
"5982.315000000177","","","recognition","survey-text","366","1200848","0.0-6.0-3.51","3032654","co38020","norming","","","{""guess"":""people table""}","","../img/tt/1143tt.jpg","",""
"null","../img/gs/1143gs.jpg","null","reveal","image-keyboard-response","367","1202852","0.0-6.0-4.51","3032654","co38020","norming","","","","","","",""
"null","../img/tt/1143tt.jpg","null","mooney2","image-keyboard-response","368","1204863","0.0-6.0-5.51","3032654","co38020","norming","","","","","","",""
"5158.300000000047","","","post_reveal_questions","survey-likert","369","1210024","0.0-6.0-6.51","3032654","co38020","norming","","","{""aha"":5}","[0]","../img/tt/1143tt.jpg","",""
"null","<div style=""font-size:60px;""> </div>","null","fixation","html-keyboard-response","370","1210228","0.0-6.0-0.52","3032654","co38020","norming","","","","","","",""
"null","../img/tt/1043tt.jpg","null","mooney1","image-keyboard-response","371","1213233","0.0-6.0-1.52","3032654","co38020","norming","","","","","","",""
"5573.905000000028","","","post_mooney1_questions","survey-likert","372","1218808","0.0-6.0-2.52","3032654","co38020","norming","","","{""curiosity"":6,""confidence"":0}","[0,1]","../img/tt/1043tt.jpg","",""
"1150.0249999999069","","","recognition","survey-text","373","1219960","0.0-6.0-3.52","3032654","co38020","norming","","","{""guess"":""""}","","../img/tt/1043tt.jpg","",""
"null","../img/gs/1043gs.jpg","null","reveal","image-keyboard-response","374","1221966","0.0-6.0-4.52","3032654","co38020","norming","","","","","","",""
"null","../img/tt/1043tt.jpg","null","mooney2","image-keyboard-response","375","1223968","0.0-6.0-5.52","3032654","co38020","norming","","","","","","",""
"4229.684999999823","","","post_reveal_questions","survey-likert","376","1228194","0.0-6.0-6.52","3032654","co38020","norming","","","{""aha"":3}","[0]","../img/tt/1043tt.jpg","",""
"null","<div style=""font-size:60px;""> </div>","null","fixation","html-keyboard-response","377","1228401","0.0-6.0-0.53","3032654","co38020","norming","","","","","","",""
"null","../img/tt/1154tt.jpg","null","mooney1","image-keyboard-response","378","1231409","0.0-6.0-1.53","3032654","co38020","norming","","","","","","",""
"5565.210000000196","","","post_mooney1_questions","survey-likert","379","1236978","0.0-6.0-2.53","3032654","co38020","norming","","","{""curiosity"":6,""confidence"":2}","[0,1]","../img/tt/1154tt.jpg","",""
"3046.0800000000745","","","recognition","survey-text","380","1240026","0.0-6.0-3.53","3032654","co38020","norming","","","{""guess"":""boat water""}","","../img/tt/1154tt.jpg","",""
"null","../img/gs/1154gs.jpg","null","reveal","image-keyboard-response","381","1242034","0.0-6.0-4.53","3032654","co38020","norming","","","","","","",""
"null","../img/tt/1154tt.jpg","null","mooney2","image-keyboard-response","382","1244045","0.0-6.0-5.53","3032654","co38020","norming","","","","","","",""
"7706.005000000121","","","post_reveal_questions","survey-likert","383","1251753","0.0-6.0-6.53","3032654","co38020","norming","","","{""aha"":4}","[0]","../img/tt/1154tt.jpg","",""
"null","<div style=""font-size:60px;""> </div>","null","fixation","html-keyboard-response","384","1251962","0.0-6.0-0.54","3032654","co38020","norming","","","","","","",""
"null","../img/tt/1091tt.jpg","null","mooney1","image-keyboard-response","385","1254970","0.0-6.0-1.54","3032654","co38020","norming","","","","","","",""
"9228.589999999618","","","post_mooney1_questions","survey-likert","386","1264202","0.0-6.0-2.54","3032654","co38020","norming","","","{""curiosity"":6,""confidence"":1}","[0,1]","../img/tt/1091tt.jpg","",""
"2926.1650000000373","","","recognition","survey-text","387","1267130","0.0-6.0-3.54","3032654","co38020","norming","","","{""guess"":""horse ""}","","../img/tt/1091tt.jpg","",""
"null","../img/gs/1091gs.jpg","null","reveal","image-keyboard-response","388","1269132","0.0-6.0-4.54","3032654","co38020","norming","","","","","","",""
"null","../img/tt/1091tt.jpg","null","mooney2","image-keyboard-response","389","1271135","0.0-6.0-5.54","3032654","co38020","norming","","","","","","",""
"5095.245000000112","","","post_reveal_questions","survey-likert","390","1276234","0.0-6.0-6.54","3032654","co38020","norming","","","{""aha"":4}","[0]","../img/tt/1091tt.jpg","",""
"null","<div style=""font-size:60px;""> </div>","null","fixation","html-keyboard-response","391","1276435","0.0-6.0-0.55","3032654","co38020","norming","","","","","","",""
"null","../img/tt/357tt.jpg","null","mooney1","image-keyboard-response","392","1279439","0.0-6.0-1.55","3032654","co38020","norming","","","","","","",""
"4870.774999999674","","","post_mooney1_questions","survey-likert","393","1284314","0.0-6.0-2.55","3032654","co38020","norming","","","{""curiosity"":6,""confidence"":5}","[0,1]","../img/tt/357tt.jpg","",""
"2302.0400000000373","","","recognition","survey-text","394","1286620","0.0-6.0-3.55","3032654","co38020","norming","","","{""guess"":""egel""}","","../img/tt/357tt.jpg","",""
"null","../img/gs/357gs.jpg","null","reveal","image-keyboard-response","395","1288623","0.0-6.0-4.55","3032654","co38020","norming","","","","","","",""
"null","../img/tt/357tt.jpg","null","mooney2","image-keyboard-response","396","1290630","0.0-6.0-5.55","3032654","co38020","norming","","","","","","",""
"3820.3349999999627","","","post_reveal_questions","survey-likert","397","1294452","0.0-6.0-6.55","3032654","co38020","norming","","","{""aha"":3}","[0]","../img/tt/357tt.jpg","",""
"null","<div style=""font-size:60px;""> </div>","null","fixation","html-keyboard-response","398","1294654","0.0-6.0-0.56","3032654","co38020","norming","","","","","","",""
"null","../img/tt/135tt.jpg","null","mooney1","image-keyboard-response","399","1297662","0.0-6.0-1.56","3032654","co38020","norming","","","","","","",""
"8274.3050000004","","","post_mooney1_questions","survey-likert","400","1305940","0.0-6.0-2.56","3032654","co38020","norming","","","{""curiosity"":3,""confidence"":6}","[0,1]","../img/tt/135tt.jpg","",""
"3237.874999999767","","","recognition","survey-text","401","1309180","0.0-6.0-3.56","3032654","co38020","norming","","","{""guess"":""toilet""}","","../img/tt/135tt.jpg","",""
"null","../img/gs/135gs.jpg","null","reveal","image-keyboard-response","402","1311182","0.0-6.0-4.56","3032654","co38020","norming","","","","","","",""
"null","../img/tt/135tt.jpg","null","mooney2","image-keyboard-response","403","1313191","0.0-6.0-5.56","3032654","co38020","norming","","","","","","",""
"4194.550000000279","","","post_reveal_questions","survey-likert","404","1317388","0.0-6.0-6.56","3032654","co38020","norming","","","{""aha"":0}","[0]","../img/tt/135tt.jpg","",""
"null","<div style=""font-size:60px;""> </div>","null","fixation","html-keyboard-response","405","1317594","0.0-6.0-0.57","3032654","co38020","norming","","","","","","",""
"null","../img/tt/559tt.jpg","null","mooney1","image-keyboard-response","406","1320600","0.0-6.0-1.57","3032654","co38020","norming","","","","","","",""
"4906.5","","","post_mooney1_questions","survey-likert","407","1325508","0.0-6.0-2.57","3032654","co38020","norming","","","{""curiosity"":6,""confidence"":2}","[0,1]","../img/tt/559tt.jpg","",""
"4822.239999999991","","","recognition","survey-text","408","1330332","0.0-6.0-3.57","3032654","co38020","norming","","","{""guess"":""naaimachine""}","","../img/tt/559tt.jpg","",""
"null","../img/gs/559gs.jpg","null","reveal","image-keyboard-response","409","1332339","0.0-6.0-4.57","3032654","co38020","norming","","","","","","",""
"null","../img/tt/559tt.jpg","null","mooney2","image-keyboard-response","410","1334342","0.0-6.0-5.57","3032654","co38020","norming","","","","","","",""
"3803.124999999767","","","post_reveal_questions","survey-likert","411","1338148","0.0-6.0-6.57","3032654","co38020","norming","","","{""aha"":0}","[0]","../img/tt/559tt.jpg","",""
"null","<div style=""font-size:60px;""> </div>","null","fixation","html-keyboard-response","412","1338358","0.0-6.0-0.58","3032654","co38020","norming","","","","","","",""
"null","../img/tt/184tt.jpg","null","mooney1","image-keyboard-response","413","1341364","0.0-6.0-1.58","3032654","co38020","norming","","","","","","",""
"4813.054999999935","","","post_mooney1_questions","survey-likert","414","1346180","0.0-6.0-2.58","3032654","co38020","norming","","","{""curiosity"":6,""confidence"":1}","[0,1]","../img/tt/184tt.jpg","",""
"1814.1599999999162","","","recognition","survey-text","415","1348000","0.0-6.0-3.58","3032654","co38020","norming","","","{""guess"":""animal""}","","../img/tt/184tt.jpg","",""
"null","../img/gs/184gs.jpg","null","reveal","image-keyboard-response","416","1350011","0.0-6.0-4.58","3032654","co38020","norming","","","","","","",""
"null","../img/tt/184tt.jpg","null","mooney2","image-keyboard-response","417","1352022","0.0-6.0-5.58","3032654","co38020","norming","","","","","","",""
"3791.570000000298","","","post_reveal_questions","survey-likert","418","1355816","0.0-6.0-6.58","3032654","co38020","norming","","","{""aha"":6}","[0]","../img/tt/184tt.jpg","",""
"null","<div style=""font-size:60px;""> </div>","null","fixation","html-keyboard-response","419","1356019","0.0-6.0-0.59","3032654","co38020","norming","","","","","","",""
"null","../img/tt/1196tt.jpg","null","mooney1","image-keyboard-response","420","1359024","0.0-6.0-1.59","3032654","co38020","norming","","","","","","",""
"7508.89000000013","","","post_mooney1_questions","survey-likert","421","1366536","0.0-6.0-2.59","3032654","co38020","norming","","","{""curiosity"":6,""confidence"":1}","[0,1]","../img/tt/1196tt.jpg","",""
"4566.444999999832","","","recognition","survey-text","422","1371105","0.0-6.0-3.59","3032654","co38020","norming","","","{""guess"":""people judo""}","","../img/tt/1196tt.jpg","",""
"null","../img/gs/1196gs.jpg","null","reveal","image-keyboard-response","423","1373106","0.0-6.0-4.59","3032654","co38020","norming","","","","","","",""
"null","../img/tt/1196tt.jpg","null","mooney2","image-keyboard-response","424","1375115","0.0-6.0-5.59","3032654","co38020","norming","","","","","","",""
"3770.5149999996647","","","post_reveal_questions","survey-likert","425","1378889","0.0-6.0-6.59","3032654","co38020","norming","","","{""aha"":4}","[0]","../img/tt/1196tt.jpg","",""
"null","<div style=""font-size:60px;""> </div>","null","fixation","html-keyboard-response","426","1379093","0.0-6.0-0.60","3032654","co38020","norming","","","","","","",""
"null","../img/tt/1217tt.jpg","null","mooney1","image-keyboard-response","427","1382098","0.0-6.0-1.60","3032654","co38020","norming","","","","","","",""
"6843.505000000354","","","post_mooney1_questions","survey-likert","428","1388945","0.0-6.0-2.60","3032654","co38020","norming","","","{""curiosity"":6,""confidence"":0}","[0,1]","../img/tt/1217tt.jpg","",""
"678.0400000002701","","","recognition","survey-text","429","1389624","0.0-6.0-3.60","3032654","co38020","norming","","","{""guess"":""""}","","../img/tt/1217tt.jpg","",""
"null","../img/gs/1217gs.jpg","null","reveal","image-keyboard-response","430","1391634","0.0-6.0-4.60","3032654","co38020","norming","","","","","","",""
"null","../img/tt/1217tt.jpg","null","mooney2","image-keyboard-response","431","1393641","0.0-6.0-5.60","3032654","co38020","norming","","","","","","",""
"4069.2450000001118","","","post_reveal_questions","survey-likert","432","1397712","0.0-6.0-6.60","3032654","co38020","norming","","","{""aha"":6}","[0]","../img/tt/1217tt.jpg","",""
"null","<div style=""font-size:60px;""> </div>","null","fixation","html-keyboard-response","433","1397914","0.0-6.0-0.61","3032654","co38020","norming","","","","","","",""
"null","../img/tt/515tt.jpg","null","mooney1","image-keyboard-response","434","1400921","0.0-6.0-1.61","3032654","co38020","norming","","","","","","",""
"6916.4799999997485","","","post_mooney1_questions","survey-likert","435","1407845","0.0-6.0-2.61","3032654","co38020","norming","","","{""curiosity"":6,""confidence"":0}","[0,1]","../img/tt/515tt.jpg","",""
"5813.929999999702","","","recognition","survey-text","436","1413661","0.0-6.0-3.61","3032654","co38020","norming","","","{""guess"":""""}","","../img/tt/515tt.jpg","",""
"null","../img/gs/515gs.jpg","null","reveal","image-keyboard-response","437","1415669","0.0-6.0-4.61","3032654","co38020","norming","","","","","","",""
"null","../img/tt/515tt.jpg","null","mooney2","image-keyboard-response","438","1417670","0.0-6.0-5.61","3032654","co38020","norming","","","","","","",""
"2355.9499999999534","","","post_reveal_questions","survey-likert","439","1420029","0.0-6.0-6.61","3032654","co38020","norming","","","{""aha"":6}","[0]","../img/tt/515tt.jpg","",""
"null","<div style=""font-size:60px;""> </div>","null","fixation","html-keyboard-response","440","1420231","0.0-6.0-0.62","3032654","co38020","norming","","","","","","",""
"null","../img/tt/353tt.jpg","null","mooney1","image-keyboard-response","441","1423243","0.0-6.0-1.62","3032654","co38020","norming","","","","","","",""
"5558.9449999995995","","","post_mooney1_questions","survey-likert","442","1428805","0.0-6.0-2.62","3032654","co38020","norming","","","{""curiosity"":6,""confidence"":6}","[0,1]","../img/tt/353tt.jpg","",""
"3214.0350000006147","","","recognition","survey-text","443","1432021","0.0-6.0-3.62","3032654","co38020","norming","","","{""guess"":""pinguin""}","","../img/tt/353tt.jpg","",""
"null","../img/gs/353gs.jpg","null","reveal","image-keyboard-response","444","1434023","0.0-6.0-4.62","3032654","co38020","norming","","","","","","",""
"null","../img/tt/353tt.jpg","null","mooney2","image-keyboard-response","445","1436032","0.0-6.0-5.62","3032654","co38020","norming","","","","","","",""
"2529.6399999998976","","","post_reveal_questions","survey-likert","446","1438565","0.0-6.0-6.62","3032654","co38020","norming","","","{""aha"":1}","[0]","../img/tt/353tt.jpg","",""
"null","<div style=""font-size:60px;""> </div>","null","fixation","html-keyboard-response","447","1438768","0.0-6.0-0.63","3032654","co38020","norming","","","","","","",""
"null","../img/tt/534tt.jpg","null","mooney1","image-keyboard-response","448","1441772","0.0-6.0-1.63","3032654","co38020","norming","","","","","","",""
"5461.379999999888","","","post_mooney1_questions","survey-likert","449","1447237","0.0-6.0-2.63","3032654","co38020","norming","","","{""curiosity"":5,""confidence"":1}","[0,1]","../img/tt/534tt.jpg","",""
"3198.019999999786","","","recognition","survey-text","450","1450437","0.0-6.0-3.63","3032654","co38020","norming","","","{""guess"":""animal""}","","../img/tt/534tt.jpg","",""
"null","../img/gs/534gs.jpg","null","reveal","image-keyboard-response","451","1452438","0.0-6.0-4.63","3032654","co38020","norming","","","","","","",""
"null","../img/tt/534tt.jpg","null","mooney2","image-keyboard-response","452","1454441","0.0-6.0-5.63","3032654","co38020","norming","","","","","","",""
"1929.3749999997672","","","post_reveal_questions","survey-likert","453","1456373","0.0-6.0-6.63","3032654","co38020","norming","","","{""aha"":6}","[0]","../img/tt/534tt.jpg","",""
"null","<div style=""font-size:60px;""> </div>","null","fixation","html-keyboard-response","454","1456579","0.0-6.0-0.64","3032654","co38020","norming","","","","","","",""
"null","../img/tt/549tt.jpg","null","mooney1","image-keyboard-response","455","1459586","0.0-6.0-1.64","3032654","co38020","norming","","","","","","",""
"4840.250000000233","","","post_mooney1_questions","survey-likert","456","1464429","0.0-6.0-2.64","3032654","co38020","norming","","","{""curiosity"":6,""confidence"":0}","[0,1]","../img/tt/549tt.jpg","",""
"1717.5149999998976","","","recognition","survey-text","457","1466149","0.0-6.0-3.64","3032654","co38020","norming","","","{""guess"":""""}","","../img/tt/549tt.jpg","",""
"null","../img/gs/549gs.jpg","null","reveal","image-keyboard-response","458","1468162","0.0-6.0-4.64","3032654","co38020","norming","","","","","","",""
"null","../img/tt/549tt.jpg","null","mooney2","image-keyboard-response","459","1470165","0.0-6.0-5.64","3032654","co38020","norming","","","","","","",""
"3226.0200000000186","","","post_reveal_questions","survey-likert","460","1473393","0.0-6.0-6.64","3032654","co38020","norming","","","{""aha"":0}","[0]","../img/tt/549tt.jpg","",""
"null","<div style=""font-size:60px;""> </div>","null","fixation","html-keyboard-response","461","1473595","0.0-6.0-0.65","3032654","co38020","norming","","","","","","",""
"null","../img/tt/007tt.jpg","null","mooney1","image-keyboard-response","462","1476603","0.0-6.0-1.65","3032654","co38020","norming","","","","","","",""
"3797.339999999618","","","post_mooney1_questions","survey-likert","463","1480402","0.0-6.0-2.65","3032654","co38020","norming","","","{""curiosity"":6,""confidence"":0}","[0,1]","../img/tt/007tt.jpg","",""
"1221.9450000000652","","","recognition","survey-text","464","1481625","0.0-6.0-3.65","3032654","co38020","norming","","","{""guess"":""""}","","../img/tt/007tt.jpg","",""
"null","../img/gs/007gs.jpg","null","reveal","image-keyboard-response","465","1483632","0.0-6.0-4.65","3032654","co38020","norming","","","","","","",""
"null","../img/tt/007tt.jpg","null","mooney2","image-keyboard-response","466","1485633","0.0-6.0-5.65","3032654","co38020","norming","","","","","","",""
"4877.645000000019","","","post_reveal_questions","survey-likert","467","1490514","0.0-6.0-6.65","3032654","co38020","norming","","","{""aha"":4}","[0]","../img/tt/007tt.jpg","",""
"null","<div style=""font-size:60px;""> </div>","null","fixation","html-keyboard-response","468","1490718","0.0-6.0-0.66","3032654","co38020","norming","","","","","","",""
"null","../img/tt/406tt.jpg","null","mooney1","image-keyboard-response","469","1493726","0.0-6.0-1.66","3032654","co38020","norming","","","","","","",""
"6287.919999999693","","","post_mooney1_questions","survey-likert","470","1500018","0.0-6.0-2.66","3032654","co38020","norming","","","{""curiosity"":6,""confidence"":0}","[0,1]","../img/tt/406tt.jpg","",""
"1077.9199999996927","","","recognition","survey-text","471","1501097","0.0-6.0-3.66","3032654","co38020","norming","","","{""guess"":""""}","","../img/tt/406tt.jpg","",""
"null","../img/gs/406gs.jpg","null","reveal","image-keyboard-response","472","1503105","0.0-6.0-4.66","3032654","co38020","norming","","","","","","",""
"null","../img/tt/406tt.jpg","null","mooney2","image-keyboard-response","473","1505107","0.0-6.0-5.66","3032654","co38020","norming","","","","","","",""
"13187.249999999767","","","post_reveal_questions","survey-likert","474","1518298","0.0-6.0-6.66","3032654","co38020","norming","","","{""aha"":6}","[0]","../img/tt/406tt.jpg","",""
"null","<div style=""font-size:60px;""> </div>","null","fixation","html-keyboard-response","475","1518500","0.0-6.0-0.67","3032654","co38020","norming","","","","","","",""
"null","../img/tt/1250tt.jpg","null","mooney1","image-keyboard-response","476","1521511","0.0-6.0-1.67","3032654","co38020","norming","","","","","","",""
"4415.149999999907","","","post_mooney1_questions","survey-likert","477","1525930","0.0-6.0-2.67","3032654","co38020","norming","","","{""curiosity"":6,""confidence"":0}","[0,1]","../img/tt/1250tt.jpg","",""
"1310.1050000002142","","","recognition","survey-text","478","1527241","0.0-6.0-3.67","3032654","co38020","norming","","","{""guess"":""""}","","../img/tt/1250tt.jpg","",""
"null","../img/gs/1250gs.jpg","null","reveal","image-keyboard-response","479","1529249","0.0-6.0-4.67","3032654","co38020","norming","","","","","","",""
"null","../img/tt/1250tt.jpg","null","mooney2","image-keyboard-response","480","1531261","0.0-6.0-5.67","3032654","co38020","norming","","","","","","",""
"2609.8600000001024","","","post_reveal_questions","survey-likert","481","1533874","0.0-6.0-6.67","3032654","co38020","norming","","","{""aha"":0}","[0]","../img/tt/1250tt.jpg","",""
"null","<div style=""font-size:60px;""> </div>","null","fixation","html-keyboard-response","482","1534075","0.0-6.0-0.68","3032654","co38020","norming","","","","","","",""
"null","../img/tt/301tt.jpg","null","mooney1","image-keyboard-response","483","1537084","0.0-6.0-1.68","3032654","co38020","norming","","","","","","",""
"4978.905000000028","","","post_mooney1_questions","survey-likert","484","1542067","0.0-6.0-2.68","3032654","co38020","norming","","","{""curiosity"":6,""confidence"":2}","[0,1]","../img/tt/301tt.jpg","",""
"4309.725000000093","","","recognition","survey-text","485","1546378","0.0-6.0-3.68","3032654","co38020","norming","","","{""guess"":""women dress""}","","../img/tt/301tt.jpg","",""
"null","../img/gs/301gs.jpg","null","reveal","image-keyboard-response","486","1548387","0.0-6.0-4.68","3032654","co38020","norming","","","","","","",""
"null","../img/tt/301tt.jpg","null","mooney2","image-keyboard-response","487","1550392","0.0-6.0-5.68","3032654","co38020","norming","","","","","","",""
"5039.635000000009","","","post_reveal_questions","survey-likert","488","1555434","0.0-6.0-6.68","3032654","co38020","norming","","","{""aha"":5}","[0]","../img/tt/301tt.jpg","",""
"null","<div style=""font-size:60px;""> </div>","null","fixation","html-keyboard-response","489","1555642","0.0-6.0-0.69","3032654","co38020","norming","","","","","","",""
"null","../img/tt/524tt.jpg","null","mooney1","image-keyboard-response","490","1558648","0.0-6.0-1.69","3032654","co38020","norming","","","","","","",""
"6064.324999999721","","","post_mooney1_questions","survey-likert","491","1564714","0.0-6.0-2.69","3032654","co38020","norming","","","{""curiosity"":6,""confidence"":1}","[0,1]","../img/tt/524tt.jpg","",""
"7598.35999999987","","","recognition","survey-text","492","1572314","0.0-6.0-3.69","3032654","co38020","norming","","","{""guess"":""big animal""}","","../img/tt/524tt.jpg","",""
"null","../img/gs/524gs.jpg","null","reveal","image-keyboard-response","493","1574316","0.0-6.0-4.69","3032654","co38020","norming","","","","","","",""
"null","../img/tt/524tt.jpg","null","mooney2","image-keyboard-response","494","1576327","0.0-6.0-5.69","3032654","co38020","norming","","","","","","",""
"3712.965000000084","","","post_reveal_questions","survey-likert","495","1580043","0.0-6.0-6.69","3032654","co38020","norming","","","{""aha"":6}","[0]","../img/tt/524tt.jpg","",""
"null","<div style=""font-size:60px;""> </div>","null","fixation","html-keyboard-response","496","1580250","0.0-6.0-0.70","3032654","co38020","norming","","","","","","",""
"null","../img/tt/010tt.jpg","null","mooney1","image-keyboard-response","497","1583259","0.0-6.0-1.70","3032654","co38020","norming","","","","","","",""
"5003.530000000028","","","post_mooney1_questions","survey-likert","498","1588267","0.0-6.0-2.70","3032654","co38020","norming","","","{""curiosity"":6,""confidence"":1}","[0,1]","../img/tt/010tt.jpg","",""
"1917.9999999997672","","","recognition","survey-text","499","1590183","0.0-6.0-3.70","3032654","co38020","norming","","","{""guess"":""piano""}","","../img/tt/010tt.jpg","",""
"null","../img/gs/010gs.jpg","null","reveal","image-keyboard-response","500","1592194","0.0-6.0-4.70","3032654","co38020","norming","","","","","","",""
"null","../img/tt/010tt.jpg","null","mooney2","image-keyboard-response","501","1594197","0.0-6.0-5.70","3032654","co38020","norming","","","","","","",""
"2431.5","","","post_reveal_questions","survey-likert","502","1596631","0.0-6.0-6.70","3032654","co38020","norming","","","{""aha"":1}","[0]","../img/tt/010tt.jpg","",""
"null","<div style=""font-size:60px;""> </div>","null","fixation","html-keyboard-response","503","1596837","0.0-6.0-0.71","3032654","co38020","norming","","","","","","",""
"null","../img/tt/1089tt.jpg","null","mooney1","image-keyboard-response","504","1599839","0.0-6.0-1.71","3032654","co38020","norming","","","","","","",""
"5612.529999999795","","","post_mooney1_questions","survey-likert","505","1605455","0.0-6.0-2.71","3032654","co38020","norming","","","{""curiosity"":6,""confidence"":1}","[0,1]","../img/tt/1089tt.jpg","",""
"2086.2950000001583","","","recognition","survey-text","506","1607543","0.0-6.0-3.71","3032654","co38020","norming","","","{""guess"":""barn""}","","../img/tt/1089tt.jpg","",""
"null","../img/gs/1089gs.jpg","null","reveal","image-keyboard-response","507","1609545","0.0-6.0-4.71","3032654","co38020","norming","","","","","","",""
"null","../img/tt/1089tt.jpg","null","mooney2","image-keyboard-response","508","1611554","0.0-6.0-5.71","3032654","co38020","norming","","","","","","",""
"2626.9799999999814","","","post_reveal_questions","survey-likert","509","1614183","0.0-6.0-6.71","3032654","co38020","norming","","","{""aha"":6}","[0]","../img/tt/1089tt.jpg","",""
"null","<div style=""font-size:60px;""> </div>","null","fixation","html-keyboard-response","510","1614393","0.0-6.0-0.72","3032654","co38020","norming","","","","","","",""
"null","../img/tt/279tt.jpg","null","mooney1","image-keyboard-response","511","1617398","0.0-6.0-1.72","3032654","co38020","norming","","","","","","",""
"11741.969999999972","","","post_mooney1_questions","survey-likert","512","1629144","0.0-6.0-2.72","3032654","co38020","norming","","","{""curiosity"":0,""confidence"":0}","[0,1]","../img/tt/279tt.jpg","",""
"933.8350000004284","","","recognition","survey-text","513","1630079","0.0-6.0-3.72","3032654","co38020","norming","","","{""guess"":""""}","","../img/tt/279tt.jpg","",""
"null","../img/gs/279gs.jpg","null","reveal","image-keyboard-response","514","1632081","0.0-6.0-4.72","3032654","co38020","norming","","","","","","",""
"null","../img/tt/279tt.jpg","null","mooney2","image-keyboard-response","515","1634083","0.0-6.0-5.72","3032654","co38020","norming","","","","","","",""
"3376.9950000001118","","","post_reveal_questions","survey-likert","516","1637463","0.0-6.0-6.72","3032654","co38020","norming","","","{""aha"":6}","[0]","../img/tt/279tt.jpg","",""
"null","<div style=""font-size:60px;""> </div>","null","fixation","html-keyboard-response","517","1637665","0.0-6.0-0.73","3032654","co38020","norming","","","","","","",""
"null","../img/tt/1255tt.jpg","null","mooney1","image-keyboard-response","518","1640670","0.0-6.0-1.73","3032654","co38020","norming","","","","","","",""
"8510.534999999916","","","post_mooney1_questions","survey-likert","519","1649184","0.0-6.0-2.73","3032654","co38020","norming","","","{""curiosity"":0,""confidence"":0}","[0,1]","../img/tt/1255tt.jpg","",""
"1134.0800000003073","","","recognition","survey-text","520","1650317","0.0-6.0-3.73","3032654","co38020","norming","","","{""guess"":""""}","","../img/tt/1255tt.jpg","",""
"null","../img/gs/1255gs.jpg","null","reveal","image-keyboard-response","521","1652320","0.0-6.0-4.73","3032654","co38020","norming","","","","","","",""
"null","../img/tt/1255tt.jpg","null","mooney2","image-keyboard-response","522","1654323","0.0-6.0-5.73","3032654","co38020","norming","","","","","","",""
"2575.225000000093","","","post_reveal_questions","survey-likert","523","1656901","0.0-6.0-6.73","3032654","co38020","norming","","","{""aha"":0}","[0]","../img/tt/1255tt.jpg","",""
"null","<div style=""font-size:60px;""> </div>","null","fixation","html-keyboard-response","524","1657102","0.0-6.0-0.74","3032654","co38020","norming","","","","","","",""
"null","../img/tt/063tt.jpg","null","mooney1","image-keyboard-response","525","1660114","0.0-6.0-1.74","3032654","co38020","norming","","","","","","",""
"7902.47499999986","","","post_mooney1_questions","survey-likert","526","1668021","0.0-6.0-2.74","3032654","co38020","norming","","","{""curiosity"":6,""confidence"":1}","[0,1]","../img/tt/063tt.jpg","",""
"2878.4149999995716","","","recognition","survey-text","527","1670901","0.0-6.0-3.74","3032654","co38020","norming","","","{""guess"":""accordeon""}","","../img/tt/063tt.jpg","",""
"null","../img/gs/063gs.jpg","null","reveal","image-keyboard-response","528","1672902","0.0-6.0-4.74","3032654","co38020","norming","","","","","","",""
"null","../img/tt/063tt.jpg","null","mooney2","image-keyboard-response","529","1674905","0.0-6.0-5.74","3032654","co38020","norming","","","","","","",""
"1768.8500000000931","","","post_reveal_questions","survey-likert","530","1676677","0.0-6.0-6.74","3032654","co38020","norming","","","{""aha"":3}","[0]","../img/tt/063tt.jpg","",""
"null","<div style=""font-size:60px;""> </div>","null","fixation","html-keyboard-response","531","1676878","0.0-6.0-0.75","3032654","co38020","norming","","","","","","",""
"null","../img/tt/1072tt.jpg","null","mooney1","image-keyboard-response","532","1679882","0.0-6.0-1.75","3032654","co38020","norming","","","","","","",""
"4497.2400000002235","","","post_mooney1_questions","survey-likert","533","1684381","0.0-6.0-2.75","3032654","co38020","norming","","","{""curiosity"":6,""confidence"":0}","[0,1]","../img/tt/1072tt.jpg","",""
"781.8200000000652","","","recognition","survey-text","534","1685165","0.0-6.0-3.75","3032654","co38020","norming","","","{""guess"":""""}","","../img/tt/1072tt.jpg","",""
"null","../img/gs/1072gs.jpg","null","reveal","image-keyboard-response","535","1687172","0.0-6.0-4.75","3032654","co38020","norming","","","","","","",""
"null","../img/tt/1072tt.jpg","null","mooney2","image-keyboard-response","536","1689174","0.0-6.0-5.75","3032654","co38020","norming","","","","","","",""
"2019.0449999999255","","","post_reveal_questions","survey-likert","537","1691205","0.0-6.0-6.75","3032654","co38020","norming","","","{""aha"":4}","[0]","../img/tt/1072tt.jpg","",""
"null","<div style=""font-size:60px;""> </div>","null","fixation","html-keyboard-response","538","1691412","0.0-6.0-0.76","3032654","co38020","norming","","","","","","",""
"null","../img/tt/1279tt.jpg","null","mooney1","image-keyboard-response","539","1694416","0.0-6.0-1.76","3032654","co38020","norming","","","","","","",""
"4777.504999999888","","","post_mooney1_questions","survey-likert","540","1699197","0.0-6.0-2.76","3032654","co38020","norming","","","{""curiosity"":6,""confidence"":0}","[0,1]","../img/tt/1279tt.jpg","",""
"997.5300000000279","","","recognition","survey-text","541","1700196","0.0-6.0-3.76","3032654","co38020","norming","","","{""guess"":""""}","","../img/tt/1279tt.jpg","",""
"null","../img/gs/1279gs.jpg","null","reveal","image-keyboard-response","542","1702199","0.0-6.0-4.76","3032654","co38020","norming","","","","","","",""
"null","../img/tt/1279tt.jpg","null","mooney2","image-keyboard-response","543","1704202","0.0-6.0-5.76","3032654","co38020","norming","","","","","","",""
"2206.5749999999534","","","post_reveal_questions","survey-likert","544","1706413","0.0-6.0-6.76","3032654","co38020","norming","","","{""aha"":3}","[0]","../img/tt/1279tt.jpg","",""
"null","<div style=""font-size:60px;""> </div>","null","fixation","html-keyboard-response","545","1706614","0.0-6.0-0.77","3032654","co38020","norming","","","","","","",""
"null","../img/tt/1270tt.jpg","null","mooney1","image-keyboard-response","546","1709617","0.0-6.0-1.77","3032654","co38020","norming","","","","","","",""
"4656.469999999972","","","post_mooney1_questions","survey-likert","547","1714283","0.0-6.0-2.77","3032654","co38020","norming","","","{""curiosity"":0,""confidence"":0}","[0,1]","../img/tt/1270tt.jpg","",""
"829.8900000001304","","","recognition","survey-text","548","1715114","0.0-6.0-3.77","3032654","co38020","norming","","","{""guess"":""""}","","../img/tt/1270tt.jpg","",""
"null","../img/gs/1270gs.jpg","null","reveal","image-keyboard-response","549","1717122","0.0-6.0-4.77","3032654","co38020","norming","","","","","","",""
"null","../img/tt/1270tt.jpg","null","mooney2","image-keyboard-response","550","1719124","0.0-6.0-5.77","3032654","co38020","norming","","","","","","",""
"2308.2249999998603","","","post_reveal_questions","survey-likert","551","1721435","0.0-6.0-6.77","3032654","co38020","norming","","","{""aha"":6}","[0]","../img/tt/1270tt.jpg","",""
"null","<div style=""font-size:60px;""> </div>","null","fixation","html-keyboard-response","552","1721638","0.0-6.0-0.78","3032654","co38020","norming","","","","","","",""
"null","../img/tt/1061tt.jpg","null","mooney1","image-keyboard-response","553","1724650","0.0-6.0-1.78","3032654","co38020","norming","","","","","","",""
