"rt","stimulus","key_press","test_part","trial_type","trial_index","time_elapsed","internal_node_id","totalTime","subject","experiment_name","button_pressed","success","responses","question_order","currentStim","old","correct"
"4951.155000000654","Welcome to the experiment. This is an online experiment so please don't close the tab/window until we say goodbye.  Press any key to begin.","32","instructions","html-keyboard-response","0","4965","0.0-0.0","3401447","co38425","norming","","","","","","",""
"13992.785000000367","<div style='word-wrap: break-word; width: 900px'><h3>Please consider this information carefully before deciding whether to participate in this research</h3><ul style='text-align: left; font-size: .8em;'><li><b>Purpose of the research</b>: To examine how people process images.</li><li><b>What you will do in this research</b>:  Stimuli (images) will be presented on the computer and you will be asked different questions about them.</li><li><b>Time required</b>: Participation will take between 45 and 60 minutes to complete.</li><li><b>Risks</b>:  There are no anticipated risks associated with participating in this study. The effects of participating should be comparable to those you would experience from viewing a computer monitor for 30 minutes and using a mouse or keyboard.</li><li><b>Benefits</b>:  This study provides no benefits to you individually except for the credit. The study provides important information about the nature of perception and learning.</li><li><b>Confidentiality</b>:  Your participation in this study will remain confidential. No personally identifiable information will be associated with your data. Your de-identified data may be shared with other researchers and used in future projects.</li><li><b>Participation and withdrawal</b>:  Your participation in this study is completely voluntary and you may refuse to participate or you may choose to withdraw at any time without penalty.</li><li><b>How to contact the researchers</b>: If you have questions or concerns about your participation or payment, or want to request a summary of research findings, please contact Sander Van de Cruys (KU Leuven), at sander.vandecruys@kuleuven.be.</li></ul><p>The nature and purpose of this research have been sufficiently explained and I agree to participate in this study.  I understand that I am free to withdraw at any time without incurring any penalty.</p><p>Please consent by clicking the button below to continue. Otherwise, please exit the study at this time.</p></div>","","instructions","html-button-response","1","18962","0.0-1.0","3401447","co38425","norming","0","","","","","",""
"","","","instructions","fullscreen","2","22699","0.0-2.0","3401447","co38425","norming","","true","","","","",""
"81509.81000000048","","","sona","survey-html-form","3","104221","0.0-3.0","3401447","co38425","norming","","","[{""name"":""sonaid"",""value"":""38425""},{""name"":""debrief"",""value"":""yes""},{""name"":""datajoin"",""value"":""yes""}]","","","",""
"45053.34499999936","<div style='word-wrap: break-word; width: 900px'><h3>Instructions</h3><p>This experiment will have 3 parts. In the first part you will see a series of distorted images like the one below on the left. As you can see in the righthand image, the distorted images are derived from actual photographs. In what follows, you will <strong>briefly</strong> be presented with <strong>only</strong> the distorted image.</p> <div style='float: left; margin-right: 20px;'><img src='../img/018tt.jpg' height='250' width='250'></img></div><div style='float: right; margin-left: 20px;'><img src='../img/018gs.jpg' height='250' width='250'></img></div><p>Subsequently you will be asked a few questions about the image: One question on how <strong>curious</strong> you are about the solution and one on how <strong>confident</strong> you are that you know the solution.</p>Next, we ask you to make a guess on what is in the image. Note that it is OK to name just the <strong>basic level category</strong>. For example when you see a parrot in the image, 'parrot' will obviously be a correct answer but also correct is 'bird'. However, 'animal' will <strong>not</strong> be counted as a correct response. For the example above, 'rose' would be correct or 'flower', but not 'plant'. When soccer players are depicted, 'soccer', 'football', 'soccer players' will be correct, but not 'humans', 'outdoors', or 'sports'. You do not need to describe the image in full, just name the main object in it <strong>in one or two words</strong>. All images depict objects from one of the following broad level categories: animals, inanimate objects, plants, sports, vehicles, and food. Recognizing means knowing <strong>more</strong> than these broad labels for a given image. But we always encourage you to <strong>make a guess</strong> if you can. Note that you are allowed to use <strong>Dutch and English</strong> in your answers, whatever comes easiest for you.</p><p>Press any key to continue.</p></div>","32","instructions","html-keyboard-response","4","149276","0.0-4.0","3401447","co38425","norming","","","","","","",""
"22157.34999999951","<div style='word-wrap: break-word; width: 900px'><h3>Instructions</h3> <p>Next, the solution image will be revealed to you and you'll be asked to indicate how strong your <strong>aha-experience</strong> was after seeing the solution. This describes the positive feeling of the 'click' you sometimes experience, when the pieces of the 'puzzle' fall together and you suddenly have 'insight' in the image.</p><img src='aha.jpg' height='188' width='250'></img><p>Note that there are no right or wrong answers. We are interested in what <strong>you</strong> see in the image and how <strong>you</strong> feel about it.</p><p>Press any key to start the experiment.</p></div>","32","instructions","html-keyboard-response","5","171428","0.0-5.0","3401447","co38425","norming","","","","","","",""
"null","<div style=""font-size:60px;""> </div>","null","fixation","html-keyboard-response","6","171634","0.0-6.0-0.0","3401447","co38425","norming","","","","","","",""
"null","../img/tt/318tt.jpg","null","mooney1","image-keyboard-response","7","174640","0.0-6.0-1.0","3401447","co38425","norming","","","","","","",""
"9055.800000000105","","","post_mooney1_questions","survey-likert","8","183699","0.0-6.0-2.0","3401447","co38425","norming","","","{""curiosity"":5,""confidence"":0}","[0,1]","../img/tt/318tt.jpg","",""
"3245.524999999354","","","recognition","survey-text","9","186947","0.0-6.0-3.0","3401447","co38425","norming","","","{""guess"":""""}","","../img/tt/318tt.jpg","",""
"null","../img/gs/318gs.jpg","null","reveal","image-keyboard-response","10","188956","0.0-6.0-4.0","3401447","co38425","norming","","","","","","",""
"null","../img/tt/318tt.jpg","null","mooney2","image-keyboard-response","11","190960","0.0-6.0-5.0","3401447","co38425","norming","","","","","","",""
"5360.3949999996985","","","post_reveal_questions","survey-likert","12","196322","0.0-6.0-6.0","3401447","co38425","norming","","","{""aha"":4}","[0]","../img/tt/318tt.jpg","",""
"null","<div style=""font-size:60px;""> </div>","null","fixation","html-keyboard-response","13","196526","0.0-6.0-0.1","3401447","co38425","norming","","","","","","",""
"null","../img/tt/440tt.jpg","null","mooney1","image-keyboard-response","14","199531","0.0-6.0-1.1","3401447","co38425","norming","","","","","","",""
"6013.635000000242","","","post_mooney1_questions","survey-likert","15","205547","0.0-6.0-2.1","3401447","co38425","norming","","","{""curiosity"":5,""confidence"":1}","[0,1]","../img/tt/440tt.jpg","",""
"6037.894999999466","","","recognition","survey-text","16","211586","0.0-6.0-3.1","3401447","co38425","norming","","","{""guess"":""garden""}","","../img/tt/440tt.jpg","",""
"null","../img/gs/440gs.jpg","null","reveal","image-keyboard-response","17","213592","0.0-6.0-4.1","3401447","co38425","norming","","","","","","",""
"null","../img/tt/440tt.jpg","null","mooney2","image-keyboard-response","18","215594","0.0-6.0-5.1","3401447","co38425","norming","","","","","","",""
"6310.23000000004","","","post_reveal_questions","survey-likert","19","221907","0.0-6.0-6.1","3401447","co38425","norming","","","{""aha"":5}","[0]","../img/tt/440tt.jpg","",""
"null","<div style=""font-size:60px;""> </div>","null","fixation","html-keyboard-response","20","222111","0.0-6.0-0.2","3401447","co38425","norming","","","","","","",""
"null","../img/tt/019tt.jpg","null","mooney1","image-keyboard-response","21","225113","0.0-6.0-1.2","3401447","co38425","norming","","","","","","",""
"9062.759999999776","","","post_mooney1_questions","survey-likert","22","234186","0.0-6.0-2.2","3401447","co38425","norming","","","{""curiosity"":4,""confidence"":1}","[0,1]","../img/tt/019tt.jpg","",""
"3758.014999999432","","","recognition","survey-text","23","237946","0.0-6.0-3.2","3401447","co38425","norming","","","{""guess"":""knife""}","","../img/tt/019tt.jpg","",""
"null","../img/gs/019gs.jpg","null","reveal","image-keyboard-response","24","239956","0.0-6.0-4.2","3401447","co38425","norming","","","","","","",""
"null","../img/tt/019tt.jpg","null","mooney2","image-keyboard-response","25","241958","0.0-6.0-5.2","3401447","co38425","norming","","","","","","",""
"4266.270000000077","","","post_reveal_questions","survey-likert","26","246226","0.0-6.0-6.2","3401447","co38425","norming","","","{""aha"":4}","[0]","../img/tt/019tt.jpg","",""
"null","<div style=""font-size:60px;""> </div>","null","fixation","html-keyboard-response","27","246432","0.0-6.0-0.3","3401447","co38425","norming","","","","","","",""
"null","../img/tt/1107tt.jpg","null","mooney1","image-keyboard-response","28","249444","0.0-6.0-1.3","3401447","co38425","norming","","","","","","",""
"5347.459999999963","","","post_mooney1_questions","survey-likert","29","254794","0.0-6.0-2.3","3401447","co38425","norming","","","{""curiosity"":5,""confidence"":2}","[0,1]","../img/tt/1107tt.jpg","",""
"2317.9099999997707","","","recognition","survey-text","30","257114","0.0-6.0-3.3","3401447","co38425","norming","","","{""guess"":""dog""}","","../img/tt/1107tt.jpg","",""
"null","../img/gs/1107gs.jpg","null","reveal","image-keyboard-response","31","259119","0.0-6.0-4.3","3401447","co38425","norming","","","","","","",""
"null","../img/tt/1107tt.jpg","null","mooney2","image-keyboard-response","32","261128","0.0-6.0-5.3","3401447","co38425","norming","","","","","","",""
"4504.540000000823","","","post_reveal_questions","survey-likert","33","265634","0.0-6.0-6.3","3401447","co38425","norming","","","{""aha"":5}","[0]","../img/tt/1107tt.jpg","",""
"null","<div style=""font-size:60px;""> </div>","null","fixation","html-keyboard-response","34","265845","0.0-6.0-0.4","3401447","co38425","norming","","","","","","",""
"null","../img/tt/112tt.jpg","null","mooney1","image-keyboard-response","35","268849","0.0-6.0-1.4","3401447","co38425","norming","","","","","","",""
"7495.345000000263","","","post_mooney1_questions","survey-likert","36","276346","0.0-6.0-2.4","3401447","co38425","norming","","","{""curiosity"":3,""confidence"":1}","[0,1]","../img/tt/112tt.jpg","",""
"5246.099999999336","","","recognition","survey-text","37","281594","0.0-6.0-3.4","3401447","co38425","norming","","","{""guess"":""watch""}","","../img/tt/112tt.jpg","",""
"null","../img/gs/112gs.jpg","null","reveal","image-keyboard-response","38","283602","0.0-6.0-4.4","3401447","co38425","norming","","","","","","",""
"null","../img/tt/112tt.jpg","null","mooney2","image-keyboard-response","39","285616","0.0-6.0-5.4","3401447","co38425","norming","","","","","","",""
"7967.934999999707","","","post_reveal_questions","survey-likert","40","293584","0.0-6.0-6.4","3401447","co38425","norming","","","{""aha"":4}","[0]","../img/tt/112tt.jpg","",""
"null","<div style=""font-size:60px;""> </div>","null","fixation","html-keyboard-response","41","293787","0.0-6.0-0.5","3401447","co38425","norming","","","","","","",""
"null","../img/tt/013tt.jpg","null","mooney1","image-keyboard-response","42","296796","0.0-6.0-1.5","3401447","co38425","norming","","","","","","",""
"6834.59999999922","","","post_mooney1_questions","survey-likert","43","303632","0.0-6.0-2.5","3401447","co38425","norming","","","{""curiosity"":4,""confidence"":1}","[0,1]","../img/tt/013tt.jpg","",""
"6134.065000000235","","","recognition","survey-text","44","309768","0.0-6.0-3.5","3401447","co38425","norming","","","{""guess"":""camel""}","","../img/tt/013tt.jpg","",""
"null","../img/gs/013gs.jpg","null","reveal","image-keyboard-response","45","311775","0.0-6.0-4.5","3401447","co38425","norming","","","","","","",""
"null","../img/tt/013tt.jpg","null","mooney2","image-keyboard-response","46","313786","0.0-6.0-5.5","3401447","co38425","norming","","","","","","",""
"4387.155000000377","","","post_reveal_questions","survey-likert","47","318176","0.0-6.0-6.5","3401447","co38425","norming","","","{""aha"":2}","[0]","../img/tt/013tt.jpg","",""
"null","<div style=""font-size:60px;""> </div>","null","fixation","html-keyboard-response","48","318384","0.0-6.0-0.6","3401447","co38425","norming","","","","","","",""
"null","../img/tt/517tt.jpg","null","mooney1","image-keyboard-response","49","321386","0.0-6.0-1.6","3401447","co38425","norming","","","","","","",""
"8362.920000000508","","","post_mooney1_questions","survey-likert","50","329752","0.0-6.0-2.6","3401447","co38425","norming","","","{""curiosity"":5,""confidence"":0}","[0,1]","../img/tt/517tt.jpg","",""
"781.8750000005821","","","recognition","survey-text","51","330535","0.0-6.0-3.6","3401447","co38425","norming","","","{""guess"":""""}","","../img/tt/517tt.jpg","",""
"null","../img/gs/517gs.jpg","null","reveal","image-keyboard-response","52","332542","0.0-6.0-4.6","3401447","co38425","norming","","","","","","",""
"null","../img/tt/517tt.jpg","null","mooney2","image-keyboard-response","53","334551","0.0-6.0-5.6","3401447","co38425","norming","","","","","","",""
"2750.3450000003795","","","post_reveal_questions","survey-likert","54","337304","0.0-6.0-6.6","3401447","co38425","norming","","","{""aha"":5}","[0]","../img/tt/517tt.jpg","",""
"null","<div style=""font-size:60px;""> </div>","null","fixation","html-keyboard-response","55","337505","0.0-6.0-0.7","3401447","co38425","norming","","","","","","",""
"null","../img/tt/438tt.jpg","null","mooney1","image-keyboard-response","56","340516","0.0-6.0-1.7","3401447","co38425","norming","","","","","","",""
"9217.165000000037","","","post_mooney1_questions","survey-likert","57","349736","0.0-6.0-2.7","3401447","co38425","norming","","","{""curiosity"":6,""confidence"":0}","[0,1]","../img/tt/438tt.jpg","",""
"8493.975000000326","","","recognition","survey-text","58","358236","0.0-6.0-3.7","3401447","co38425","norming","","","{""guess"":""jewellery""}","","../img/tt/438tt.jpg","",""
"null","../img/gs/438gs.jpg","null","reveal","image-keyboard-response","59","360243","0.0-6.0-4.7","3401447","co38425","norming","","","","","","",""
"null","../img/tt/438tt.jpg","null","mooney2","image-keyboard-response","60","362245","0.0-6.0-5.7","3401447","co38425","norming","","","","","","",""
"4004.7350000004517","","","post_reveal_questions","survey-likert","61","366252","0.0-6.0-6.7","3401447","co38425","norming","","","{""aha"":5}","[0]","../img/tt/438tt.jpg","",""
"null","<div style=""font-size:60px;""> </div>","null","fixation","html-keyboard-response","62","366459","0.0-6.0-0.8","3401447","co38425","norming","","","","","","",""
"null","../img/tt/1290tt.jpg","null","mooney1","image-keyboard-response","63","369462","0.0-6.0-1.8","3401447","co38425","norming","","","","","","",""
"7579.494999999937","","","post_mooney1_questions","survey-likert","64","377044","0.0-6.0-2.8","3401447","co38425","norming","","","{""curiosity"":5,""confidence"":1}","[0,1]","../img/tt/1290tt.jpg","",""
"14726.024999999907","","","recognition","survey-text","65","391772","0.0-6.0-3.8","3401447","co38425","norming","","","{""guess"":""ski elevator""}","","../img/tt/1290tt.jpg","",""
"null","../img/gs/1290gs.jpg","null","reveal","image-keyboard-response","66","393776","0.0-6.0-4.8","3401447","co38425","norming","","","","","","",""
"null","../img/tt/1290tt.jpg","null","mooney2","image-keyboard-response","67","395785","0.0-6.0-5.8","3401447","co38425","norming","","","","","","",""
"4632.504999999597","","","post_reveal_questions","survey-likert","68","400420","0.0-6.0-6.8","3401447","co38425","norming","","","{""aha"":2}","[0]","../img/tt/1290tt.jpg","",""
"null","<div style=""font-size:60px;""> </div>","null","fixation","html-keyboard-response","69","400622","0.0-6.0-0.9","3401447","co38425","norming","","","","","","",""
"null","../img/tt/108tt.jpg","null","mooney1","image-keyboard-response","70","403627","0.0-6.0-1.9","3401447","co38425","norming","","","","","","",""
"6870.374999999534","","","post_mooney1_questions","survey-likert","71","410500","0.0-6.0-2.9","3401447","co38425","norming","","","{""curiosity"":5,""confidence"":0}","[0,1]","../img/tt/108tt.jpg","",""
"589.9099999996834","","","recognition","survey-text","72","411092","0.0-6.0-3.9","3401447","co38425","norming","","","{""guess"":""""}","","../img/tt/108tt.jpg","",""
"null","../img/gs/108gs.jpg","null","reveal","image-keyboard-response","73","413093","0.0-6.0-4.9","3401447","co38425","norming","","","","","","",""
"null","../img/tt/108tt.jpg","null","mooney2","image-keyboard-response","74","415105","0.0-6.0-5.9","3401447","co38425","norming","","","","","","",""
"4056.9150000001537","","","post_reveal_questions","survey-likert","75","419166","0.0-6.0-6.9","3401447","co38425","norming","","","{""aha"":6}","[0]","../img/tt/108tt.jpg","",""
"null","<div style=""font-size:60px;""> </div>","null","fixation","html-keyboard-response","76","419370","0.0-6.0-0.10","3401447","co38425","norming","","","","","","",""
"null","../img/tt/442tt.jpg","null","mooney1","image-keyboard-response","77","422377","0.0-6.0-1.10","3401447","co38425","norming","","","","","","",""
"5617.369999999995","","","post_mooney1_questions","survey-likert","78","427997","0.0-6.0-2.10","3401447","co38425","norming","","","{""curiosity"":5,""confidence"":1}","[0,1]","../img/tt/442tt.jpg","",""
"7070.020000000135","","","recognition","survey-text","79","435068","0.0-6.0-3.10","3401447","co38425","norming","","","{""guess"":""animal""}","","../img/tt/442tt.jpg","",""
"null","../img/gs/442gs.jpg","null","reveal","image-keyboard-response","80","437070","0.0-6.0-4.10","3401447","co38425","norming","","","","","","",""
"null","../img/tt/442tt.jpg","null","mooney2","image-keyboard-response","81","439072","0.0-6.0-5.10","3401447","co38425","norming","","","","","","",""
"3314.2750000006636","","","post_reveal_questions","survey-likert","82","442388","0.0-6.0-6.10","3401447","co38425","norming","","","{""aha"":5}","[0]","../img/tt/442tt.jpg","",""
"null","<div style=""font-size:60px;""> </div>","null","fixation","html-keyboard-response","83","442595","0.0-6.0-0.11","3401447","co38425","norming","","","","","","",""
"null","../img/tt/1004tt.jpg","null","mooney1","image-keyboard-response","84","445599","0.0-6.0-1.11","3401447","co38425","norming","","","","","","",""
"6026.684999999823","","","post_mooney1_questions","survey-likert","85","451629","0.0-6.0-2.11","3401447","co38425","norming","","","{""curiosity"":6,""confidence"":1}","[0,1]","../img/tt/1004tt.jpg","",""
"2781.874999999709","","","recognition","survey-text","86","454412","0.0-6.0-3.11","3401447","co38425","norming","","","{""guess"":""cow""}","","../img/tt/1004tt.jpg","",""
"null","../img/gs/1004gs.jpg","null","reveal","image-keyboard-response","87","456423","0.0-6.0-4.11","3401447","co38425","norming","","","","","","",""
"null","../img/tt/1004tt.jpg","null","mooney2","image-keyboard-response","88","458426","0.0-6.0-5.11","3401447","co38425","norming","","","","","","",""
"3256.2950000001583","","","post_reveal_questions","survey-likert","89","461685","0.0-6.0-6.11","3401447","co38425","norming","","","{""aha"":5}","[0]","../img/tt/1004tt.jpg","",""
"null","<div style=""font-size:60px;""> </div>","null","fixation","html-keyboard-response","90","461887","0.0-6.0-0.12","3401447","co38425","norming","","","","","","",""
"null","../img/tt/1161tt.jpg","null","mooney1","image-keyboard-response","91","464893","0.0-6.0-1.12","3401447","co38425","norming","","","","","","",""
"8445.064999999886","","","post_mooney1_questions","survey-likert","92","473341","0.0-6.0-2.12","3401447","co38425","norming","","","{""curiosity"":4,""confidence"":1}","[0,1]","../img/tt/1161tt.jpg","",""
"8718.114999999641","","","recognition","survey-text","93","482052","0.0-6.0-3.12","3401447","co38425","norming","","","{""guess"":""mountain climber""}","","../img/tt/1161tt.jpg","",""
"null","../img/gs/1161gs.jpg","null","reveal","image-keyboard-response","94","484058","0.0-6.0-4.12","3401447","co38425","norming","","","","","","",""
"null","../img/tt/1161tt.jpg","null","mooney2","image-keyboard-response","95","486069","0.0-6.0-5.12","3401447","co38425","norming","","","","","","",""
"6707.910000000091","","","post_reveal_questions","survey-likert","96","492779","0.0-6.0-6.12","3401447","co38425","norming","","","{""aha"":3}","[0]","../img/tt/1161tt.jpg","",""
"null","<div style=""font-size:60px;""> </div>","null","fixation","html-keyboard-response","97","492983","0.0-6.0-0.13","3401447","co38425","norming","","","","","","",""
"null","../img/tt/1190tt.jpg","null","mooney1","image-keyboard-response","98","495994","0.0-6.0-1.13","3401447","co38425","norming","","","","","","",""
"5655.494999999995","","","post_mooney1_questions","survey-likert","99","501652","0.0-6.0-2.13","3401447","co38425","norming","","","{""curiosity"":4,""confidence"":0}","[0,1]","../img/tt/1190tt.jpg","",""
"25646.504999999655","","","recognition","survey-text","100","527300","0.0-6.0-3.13","3401447","co38425","norming","","","{""guess"":""""}","","../img/tt/1190tt.jpg","",""
"null","../img/gs/1190gs.jpg","null","reveal","image-keyboard-response","101","529304","0.0-6.0-4.13","3401447","co38425","norming","","","","","","",""
"null","../img/tt/1190tt.jpg","null","mooney2","image-keyboard-response","102","531312","0.0-6.0-5.13","3401447","co38425","norming","","","","","","",""
"2489.5149999993155","","","post_reveal_questions","survey-likert","103","533804","0.0-6.0-6.13","3401447","co38425","norming","","","{""aha"":4}","[0]","../img/tt/1190tt.jpg","",""
"null","<div style=""font-size:60px;""> </div>","null","fixation","html-keyboard-response","104","534011","0.0-6.0-0.14","3401447","co38425","norming","","","","","","",""
"null","../img/tt/1053tt.jpg","null","mooney1","image-keyboard-response","105","537031","0.0-6.0-1.14","3401447","co38425","norming","","","","","","",""
"8635.339999999851","","","post_mooney1_questions","survey-likert","106","545669","0.0-6.0-2.14","3401447","co38425","norming","","","{""curiosity"":5,""confidence"":4}","[0,1]","../img/tt/1053tt.jpg","",""
"13414.109999999753","","","recognition","survey-text","107","559085","0.0-6.0-3.14","3401447","co38425","norming","","","{""guess"":""elephant""}","","../img/tt/1053tt.jpg","",""
"null","../img/gs/1053gs.jpg","null","reveal","image-keyboard-response","108","561086","0.0-6.0-4.14","3401447","co38425","norming","","","","","","",""
"null","../img/tt/1053tt.jpg","null","mooney2","image-keyboard-response","109","563089","0.0-6.0-5.14","3401447","co38425","norming","","","","","","",""
"2849.5849999999627","","","post_reveal_questions","survey-likert","110","565940","0.0-6.0-6.14","3401447","co38425","norming","","","{""aha"":4}","[0]","../img/tt/1053tt.jpg","",""
"null","<div style=""font-size:60px;""> </div>","null","fixation","html-keyboard-response","111","566151","0.0-6.0-0.15","3401447","co38425","norming","","","","","","",""
"null","../img/tt/1122tt.jpg","null","mooney1","image-keyboard-response","112","569154","0.0-6.0-1.15","3401447","co38425","norming","","","","","","",""
"8295.62499999965","","","post_mooney1_questions","survey-likert","113","577453","0.0-6.0-2.15","3401447","co38425","norming","","","{""curiosity"":3,""confidence"":3}","[0,1]","../img/tt/1122tt.jpg","",""
"3086.1900000000605","","","recognition","survey-text","114","580541","0.0-6.0-3.15","3401447","co38425","norming","","","{""guess"":""cars""}","","../img/tt/1122tt.jpg","",""
"null","../img/gs/1122gs.jpg","null","reveal","image-keyboard-response","115","582546","0.0-6.0-4.15","3401447","co38425","norming","","","","","","",""
"null","../img/tt/1122tt.jpg","null","mooney2","image-keyboard-response","116","584551","0.0-6.0-5.15","3401447","co38425","norming","","","","","","",""
"3362.9249999994645","","","post_reveal_questions","survey-likert","117","587917","0.0-6.0-6.15","3401447","co38425","norming","","","{""aha"":4}","[0]","../img/tt/1122tt.jpg","",""
"null","<div style=""font-size:60px;""> </div>","null","fixation","html-keyboard-response","118","588123","0.0-6.0-0.16","3401447","co38425","norming","","","","","","",""
"null","../img/tt/515tt.jpg","null","mooney1","image-keyboard-response","119","591135","0.0-6.0-1.16","3401447","co38425","norming","","","","","","",""
"12923.514999999432","","","post_mooney1_questions","survey-likert","120","604054","0.0-6.0-2.16","3401447","co38425","norming","","","{""curiosity"":2,""confidence"":2}","[0,1]","../img/tt/515tt.jpg","",""
"5710.089999999502","","","recognition","survey-text","121","609765","0.0-6.0-3.16","3401447","co38425","norming","","","{""guess"":""sunglasses""}","","../img/tt/515tt.jpg","",""
"null","../img/gs/515gs.jpg","null","reveal","image-keyboard-response","122","611772","0.0-6.0-4.16","3401447","co38425","norming","","","","","","",""
"null","../img/tt/515tt.jpg","null","mooney2","image-keyboard-response","123","613773","0.0-6.0-5.16","3401447","co38425","norming","","","","","","",""
"5086.120000000927","","","post_reveal_questions","survey-likert","124","618861","0.0-6.0-6.16","3401447","co38425","norming","","","{""aha"":4}","[0]","../img/tt/515tt.jpg","",""
"null","<div style=""font-size:60px;""> </div>","null","fixation","html-keyboard-response","125","619066","0.0-6.0-0.17","3401447","co38425","norming","","","","","","",""
"null","../img/tt/1283tt.jpg","null","mooney1","image-keyboard-response","126","622076","0.0-6.0-1.17","3401447","co38425","norming","","","","","","",""
"4814.389999999548","","","post_mooney1_questions","survey-likert","127","626893","0.0-6.0-2.17","3401447","co38425","norming","","","{""curiosity"":6,""confidence"":0}","[0,1]","../img/tt/1283tt.jpg","",""
"886.1850000002887","","","recognition","survey-text","128","627781","0.0-6.0-3.17","3401447","co38425","norming","","","{""guess"":""""}","","../img/tt/1283tt.jpg","",""
"null","../img/gs/1283gs.jpg","null","reveal","image-keyboard-response","129","629788","0.0-6.0-4.17","3401447","co38425","norming","","","","","","",""
"null","../img/tt/1283tt.jpg","null","mooney2","image-keyboard-response","130","631799","0.0-6.0-5.17","3401447","co38425","norming","","","","","","",""
"3724.479999999865","","","post_reveal_questions","survey-likert","131","635525","0.0-6.0-6.17","3401447","co38425","norming","","","{""aha"":5}","[0]","../img/tt/1283tt.jpg","",""
"null","<div style=""font-size:60px;""> </div>","null","fixation","html-keyboard-response","132","635729","0.0-6.0-0.18","3401447","co38425","norming","","","","","","",""
"null","../img/tt/1126tt.jpg","null","mooney1","image-keyboard-response","133","638733","0.0-6.0-1.18","3401447","co38425","norming","","","","","","",""
"5942.214999999967","","","post_mooney1_questions","survey-likert","134","644677","0.0-6.0-2.18","3401447","co38425","norming","","","{""curiosity"":5,""confidence"":2}","[0,1]","../img/tt/1126tt.jpg","",""
"3262.1650000001537","","","recognition","survey-text","135","647941","0.0-6.0-3.18","3401447","co38425","norming","","","{""guess"":""insect""}","","../img/tt/1126tt.jpg","",""
"null","../img/gs/1126gs.jpg","null","reveal","image-keyboard-response","136","649943","0.0-6.0-4.18","3401447","co38425","norming","","","","","","",""
"null","../img/tt/1126tt.jpg","null","mooney2","image-keyboard-response","137","651953","0.0-6.0-5.18","3401447","co38425","norming","","","","","","",""
"3930.6699999996927","","","post_reveal_questions","survey-likert","138","655885","0.0-6.0-6.18","3401447","co38425","norming","","","{""aha"":5}","[0]","../img/tt/1126tt.jpg","",""
"null","<div style=""font-size:60px;""> </div>","null","fixation","html-keyboard-response","139","656087","0.0-6.0-0.19","3401447","co38425","norming","","","","","","",""
"null","../img/tt/1362tt.jpg","null","mooney1","image-keyboard-response","140","659092","0.0-6.0-1.19","3401447","co38425","norming","","","","","","",""
"6230.294999999343","","","post_mooney1_questions","survey-likert","141","665327","0.0-6.0-2.19","3401447","co38425","norming","","","{""curiosity"":4,""confidence"":3}","[0,1]","../img/tt/1362tt.jpg","",""
"2886.130000000703","","","recognition","survey-text","142","668215","0.0-6.0-3.19","3401447","co38425","norming","","","{""guess"":""hats""}","","../img/tt/1362tt.jpg","",""
"null","../img/gs/1362gs.jpg","null","reveal","image-keyboard-response","143","670219","0.0-6.0-4.19","3401447","co38425","norming","","","","","","",""
"null","../img/tt/1362tt.jpg","null","mooney2","image-keyboard-response","144","672230","0.0-6.0-5.19","3401447","co38425","norming","","","","","","",""
"7398.790000000154","","","post_reveal_questions","survey-likert","145","679631","0.0-6.0-6.19","3401447","co38425","norming","","","{""aha"":1}","[0]","../img/tt/1362tt.jpg","",""
"null","<div style=""font-size:60px;""> </div>","null","fixation","html-keyboard-response","146","679841","0.0-6.0-0.20","3401447","co38425","norming","","","","","","",""
"null","../img/tt/1262tt.jpg","null","mooney1","image-keyboard-response","147","682851","0.0-6.0-1.20","3401447","co38425","norming","","","","","","",""
"6963.744999999995","","","post_mooney1_questions","survey-likert","148","689815","0.0-6.0-2.20","3401447","co38425","norming","","","{""curiosity"":4,""confidence"":3}","[0,1]","../img/tt/1262tt.jpg","",""
"4094.3299999998417","","","recognition","survey-text","149","693911","0.0-6.0-3.20","3401447","co38425","norming","","","{""guess"":""seal""}","","../img/tt/1262tt.jpg","",""
"null","../img/gs/1262gs.jpg","null","reveal","image-keyboard-response","150","695922","0.0-6.0-4.20","3401447","co38425","norming","","","","","","",""
"null","../img/tt/1262tt.jpg","null","mooney2","image-keyboard-response","151","697930","0.0-6.0-5.20","3401447","co38425","norming","","","","","","",""
"4018.734999999637","","","post_reveal_questions","survey-likert","152","701951","0.0-6.0-6.20","3401447","co38425","norming","","","{""aha"":5}","[0]","../img/tt/1262tt.jpg","",""
"null","<div style=""font-size:60px;""> </div>","null","fixation","html-keyboard-response","153","702153","0.0-6.0-0.21","3401447","co38425","norming","","","","","","",""
"null","../img/tt/1125tt.jpg","null","mooney1","image-keyboard-response","154","705163","0.0-6.0-1.21","3401447","co38425","norming","","","","","","",""
"4729.655000000144","","","post_mooney1_questions","survey-likert","155","709895","0.0-6.0-2.21","3401447","co38425","norming","","","{""curiosity"":5,""confidence"":4}","[0,1]","../img/tt/1125tt.jpg","",""
"5310.174999999581","","","recognition","survey-text","156","715207","0.0-6.0-3.21","3401447","co38425","norming","","","{""guess"":""car driver""}","","../img/tt/1125tt.jpg","",""
"null","../img/gs/1125gs.jpg","null","reveal","image-keyboard-response","157","717208","0.0-6.0-4.21","3401447","co38425","norming","","","","","","",""
"null","../img/tt/1125tt.jpg","null","mooney2","image-keyboard-response","158","719210","0.0-6.0-5.21","3401447","co38425","norming","","","","","","",""
"2564.424999999581","","","post_reveal_questions","survey-likert","159","721775","0.0-6.0-6.21","3401447","co38425","norming","","","{""aha"":6}","[0]","../img/tt/1125tt.jpg","",""
"null","<div style=""font-size:60px;""> </div>","null","fixation","html-keyboard-response","160","721976","0.0-6.0-0.22","3401447","co38425","norming","","","","","","",""
"null","../img/tt/534tt.jpg","null","mooney1","image-keyboard-response","161","724989","0.0-6.0-1.22","3401447","co38425","norming","","","","","","",""
"4373.810000000056","","","post_mooney1_questions","survey-likert","162","729365","0.0-6.0-2.22","3401447","co38425","norming","","","{""curiosity"":6,""confidence"":5}","[0,1]","../img/tt/534tt.jpg","",""
"4310.144999999553","","","recognition","survey-text","163","733677","0.0-6.0-3.22","3401447","co38425","norming","","","{""guess"":""cactus""}","","../img/tt/534tt.jpg","",""
"null","../img/gs/534gs.jpg","null","reveal","image-keyboard-response","164","735683","0.0-6.0-4.22","3401447","co38425","norming","","","","","","",""
"null","../img/tt/534tt.jpg","null","mooney2","image-keyboard-response","165","737685","0.0-6.0-5.22","3401447","co38425","norming","","","","","","",""
"6141.920000000042","","","post_reveal_questions","survey-likert","166","743829","0.0-6.0-6.22","3401447","co38425","norming","","","{""aha"":1}","[0]","../img/tt/534tt.jpg","",""
"null","<div style=""font-size:60px;""> </div>","null","fixation","html-keyboard-response","167","744033","0.0-6.0-0.23","3401447","co38425","norming","","","","","","",""
"null","../img/tt/468tt.jpg","null","mooney1","image-keyboard-response","168","747037","0.0-6.0-1.23","3401447","co38425","norming","","","","","","",""
"6661.424999999348","","","post_mooney1_questions","survey-likert","169","753701","0.0-6.0-2.23","3401447","co38425","norming","","","{""curiosity"":4,""confidence"":1}","[0,1]","../img/tt/468tt.jpg","",""
"2374.179999999702","","","recognition","survey-text","170","756077","0.0-6.0-3.23","3401447","co38425","norming","","","{""guess"":""bird""}","","../img/tt/468tt.jpg","",""
"null","../img/gs/468gs.jpg","null","reveal","image-keyboard-response","171","758087","0.0-6.0-4.23","3401447","co38425","norming","","","","","","",""
"null","../img/tt/468tt.jpg","null","mooney2","image-keyboard-response","172","760096","0.0-6.0-5.23","3401447","co38425","norming","","","","","","",""
"1626.3749999997672","","","post_reveal_questions","survey-likert","173","761725","0.0-6.0-6.23","3401447","co38425","norming","","","{""aha"":6}","[0]","../img/tt/468tt.jpg","",""
"null","<div style=""font-size:60px;""> </div>","null","fixation","html-keyboard-response","174","761926","0.0-6.0-0.24","3401447","co38425","norming","","","","","","",""
"null","../img/tt/1078tt.jpg","null","mooney1","image-keyboard-response","175","764930","0.0-6.0-1.24","3401447","co38425","norming","","","","","","",""
"4536.819999999367","","","post_mooney1_questions","survey-likert","176","769469","0.0-6.0-2.24","3401447","co38425","norming","","","{""curiosity"":5,""confidence"":5}","[0,1]","../img/tt/1078tt.jpg","",""
"3854.1299999996554","","","recognition","survey-text","177","773325","0.0-6.0-3.24","3401447","co38425","norming","","","{""guess"":""skater""}","","../img/tt/1078tt.jpg","",""
"null","../img/gs/1078gs.jpg","null","reveal","image-keyboard-response","178","775328","0.0-6.0-4.24","3401447","co38425","norming","","","","","","",""
"null","../img/tt/1078tt.jpg","null","mooney2","image-keyboard-response","179","777331","0.0-6.0-5.24","3401447","co38425","norming","","","","","","",""
"3783.515000000014","","","post_reveal_questions","survey-likert","180","781117","0.0-6.0-6.24","3401447","co38425","norming","","","{""aha"":0}","[0]","../img/tt/1078tt.jpg","",""
"null","<div style=""font-size:60px;""> </div>","null","fixation","html-keyboard-response","181","781318","0.0-6.0-0.25","3401447","co38425","norming","","","","","","",""
"null","../img/tt/412tt.jpg","null","mooney1","image-keyboard-response","182","784321","0.0-6.0-1.25","3401447","co38425","norming","","","","","","",""
"5601.284999999683","","","post_mooney1_questions","survey-likert","183","789921","0.0-6.0-2.25","3401447","co38425","norming","","","{""curiosity"":5,""confidence"":1}","[0,1]","../img/tt/412tt.jpg","",""
"6710.589999999618","","","recognition","survey-text","184","796633","0.0-6.0-3.25","3401447","co38425","norming","","","{""guess"":""perfume""}","","../img/tt/412tt.jpg","",""
"null","../img/gs/412gs.jpg","null","reveal","image-keyboard-response","185","798641","0.0-6.0-4.25","3401447","co38425","norming","","","","","","",""
"null","../img/tt/412tt.jpg","null","mooney2","image-keyboard-response","186","800644","0.0-6.0-5.25","3401447","co38425","norming","","","","","","",""
"1674.5049999998882","","","post_reveal_questions","survey-likert","187","802321","0.0-6.0-6.25","3401447","co38425","norming","","","{""aha"":5}","[0]","../img/tt/412tt.jpg","",""
"null","<div style=""font-size:60px;""> </div>","null","fixation","html-keyboard-response","188","802522","0.0-6.0-0.26","3401447","co38425","norming","","","","","","",""
"null","../img/tt/032tt.jpg","null","mooney1","image-keyboard-response","189","805526","0.0-6.0-1.26","3401447","co38425","norming","","","","","","",""
"4615.520000000368","","","post_mooney1_questions","survey-likert","190","810145","0.0-6.0-2.26","3401447","co38425","norming","","","{""curiosity"":4,""confidence"":2}","[0,1]","../img/tt/032tt.jpg","",""
"3878.20000000007","","","recognition","survey-text","191","814025","0.0-6.0-3.26","3401447","co38425","norming","","","{""guess"":""bear""}","","../img/tt/032tt.jpg","",""
"null","../img/gs/032gs.jpg","null","reveal","image-keyboard-response","192","816031","0.0-6.0-4.26","3401447","co38425","norming","","","","","","",""
"null","../img/tt/032tt.jpg","null","mooney2","image-keyboard-response","193","818033","0.0-6.0-5.26","3401447","co38425","norming","","","","","","",""
"1989.5900000000838","","","post_reveal_questions","survey-likert","194","820025","0.0-6.0-6.26","3401447","co38425","norming","","","{""aha"":0}","[0]","../img/tt/032tt.jpg","",""
"null","<div style=""font-size:60px;""> </div>","null","fixation","html-keyboard-response","195","820226","0.0-6.0-0.27","3401447","co38425","norming","","","","","","",""
"null","../img/tt/1307tt.jpg","null","mooney1","image-keyboard-response","196","823233","0.0-6.0-1.27","3401447","co38425","norming","","","","","","",""
"7340.710000000312","","","post_mooney1_questions","survey-likert","197","830577","0.0-6.0-2.27","3401447","co38425","norming","","","{""curiosity"":5,""confidence"":5}","[0,1]","../img/tt/1307tt.jpg","",""
"4805.954999999842","","","recognition","survey-text","198","835385","0.0-6.0-3.27","3401447","co38425","norming","","","{""guess"":""parachute""}","","../img/tt/1307tt.jpg","",""
"null","../img/gs/1307gs.jpg","null","reveal","image-keyboard-response","199","837395","0.0-6.0-4.27","3401447","co38425","norming","","","","","","",""
"null","../img/tt/1307tt.jpg","null","mooney2","image-keyboard-response","200","839399","0.0-6.0-5.27","3401447","co38425","norming","","","","","","",""
"1967.454999999958","","","post_reveal_questions","survey-likert","201","841368","0.0-6.0-6.27","3401447","co38425","norming","","","{""aha"":1}","[0]","../img/tt/1307tt.jpg","",""
"null","<div style=""font-size:60px;""> </div>","null","fixation","html-keyboard-response","202","841569","0.0-6.0-0.28","3401447","co38425","norming","","","","","","",""
"null","../img/tt/1142tt.jpg","null","mooney1","image-keyboard-response","203","844572","0.0-6.0-1.28","3401447","co38425","norming","","","","","","",""
"5673.519999999437","","","post_mooney1_questions","survey-likert","204","850249","0.0-6.0-2.28","3401447","co38425","norming","","","{""curiosity"":4,""confidence"":4}","[0,1]","../img/tt/1142tt.jpg","",""
"5565.715000000666","","","recognition","survey-text","205","855816","0.0-6.0-3.28","3401447","co38425","norming","","","{""guess"":""tennis player""}","","../img/tt/1142tt.jpg","",""
"null","../img/gs/1142gs.jpg","null","reveal","image-keyboard-response","206","857817","0.0-6.0-4.28","3401447","co38425","norming","","","","","","",""
"null","../img/tt/1142tt.jpg","null","mooney2","image-keyboard-response","207","859820","0.0-6.0-5.28","3401447","co38425","norming","","","","","","",""
"1818.255000000121","","","post_reveal_questions","survey-likert","208","861640","0.0-6.0-6.28","3401447","co38425","norming","","","{""aha"":2}","[0]","../img/tt/1142tt.jpg","",""
"null","<div style=""font-size:60px;""> </div>","null","fixation","html-keyboard-response","209","861841","0.0-6.0-0.29","3401447","co38425","norming","","","","","","",""
"null","../img/tt/1239tt.jpg","null","mooney1","image-keyboard-response","210","864853","0.0-6.0-1.29","3401447","co38425","norming","","","","","","",""
"4050.2549999991897","","","post_mooney1_questions","survey-likert","211","868905","0.0-6.0-2.29","3401447","co38425","norming","","","{""curiosity"":5,""confidence"":5}","[0,1]","../img/tt/1239tt.jpg","",""
"6237.9850000006845","","","recognition","survey-text","212","875144","0.0-6.0-3.29","3401447","co38425","norming","","","{""guess"":""husky dog""}","","../img/tt/1239tt.jpg","",""
"null","../img/gs/1239gs.jpg","null","reveal","image-keyboard-response","213","877146","0.0-6.0-4.29","3401447","co38425","norming","","","","","","",""
"null","../img/tt/1239tt.jpg","null","mooney2","image-keyboard-response","214","879147","0.0-6.0-5.29","3401447","co38425","norming","","","","","","",""
"1388.205000000191","","","post_reveal_questions","survey-likert","215","880537","0.0-6.0-6.29","3401447","co38425","norming","","","{""aha"":0}","[0]","../img/tt/1239tt.jpg","",""
"null","<div style=""font-size:60px;""> </div>","null","fixation","html-keyboard-response","216","880740","0.0-6.0-0.30","3401447","co38425","norming","","","","","","",""
"null","../img/tt/416tt.jpg","null","mooney1","image-keyboard-response","217","883744","0.0-6.0-1.30","3401447","co38425","norming","","","","","","",""
"8564.814999999828","","","post_mooney1_questions","survey-likert","218","892312","0.0-6.0-2.30","3401447","co38425","norming","","","{""curiosity"":2,""confidence"":5}","[0,1]","../img/tt/416tt.jpg","",""
"7469.694999999716","","","recognition","survey-text","219","899784","0.0-6.0-3.30","3401447","co38425","norming","","","{""guess"":""flamingo""}","","../img/tt/416tt.jpg","",""
"null","../img/gs/416gs.jpg","null","reveal","image-keyboard-response","220","901792","0.0-6.0-4.30","3401447","co38425","norming","","","","","","",""
"null","../img/tt/416tt.jpg","null","mooney2","image-keyboard-response","221","903800","0.0-6.0-5.30","3401447","co38425","norming","","","","","","",""
"2039.530000000028","","","post_reveal_questions","survey-likert","222","905840","0.0-6.0-6.30","3401447","co38425","norming","","","{""aha"":2}","[0]","../img/tt/416tt.jpg","",""
"null","<div style=""font-size:60px;""> </div>","null","fixation","html-keyboard-response","223","906048","0.0-6.0-0.31","3401447","co38425","norming","","","","","","",""
"null","../img/tt/094tt.jpg","null","mooney1","image-keyboard-response","224","909064","0.0-6.0-1.31","3401447","co38425","norming","","","","","","",""
"6455.609999999986","","","post_mooney1_questions","survey-likert","225","915521","0.0-6.0-2.31","3401447","co38425","norming","","","{""curiosity"":5,""confidence"":2}","[0,1]","../img/tt/094tt.jpg","",""
"4909.660000000265","","","recognition","survey-text","226","920432","0.0-6.0-3.31","3401447","co38425","norming","","","{""guess"":""racoon""}","","../img/tt/094tt.jpg","",""
"null","../img/gs/094gs.jpg","null","reveal","image-keyboard-response","227","922437","0.0-6.0-4.31","3401447","co38425","norming","","","","","","",""
"null","../img/tt/094tt.jpg","null","mooney2","image-keyboard-response","228","924439","0.0-6.0-5.31","3401447","co38425","norming","","","","","","",""
"3200.930000000051","","","post_reveal_questions","survey-likert","229","927641","0.0-6.0-6.31","3401447","co38425","norming","","","{""aha"":0}","[0]","../img/tt/094tt.jpg","",""
"null","<div style=""font-size:60px;""> </div>","null","fixation","html-keyboard-response","230","927843","0.0-6.0-0.32","3401447","co38425","norming","","","","","","",""
"null","../img/tt/1027tt.jpg","null","mooney1","image-keyboard-response","231","930854","0.0-6.0-1.32","3401447","co38425","norming","","","","","","",""
"12353.400000000023","","","post_mooney1_questions","survey-likert","232","943209","0.0-6.0-2.32","3401447","co38425","norming","","","{""curiosity"":3,""confidence"":3}","[0,1]","../img/tt/1027tt.jpg","",""
"2934.014999999781","","","recognition","survey-text","233","946145","0.0-6.0-3.32","3401447","co38425","norming","","","{""guess"":""cow""}","","../img/tt/1027tt.jpg","",""
"null","../img/gs/1027gs.jpg","null","reveal","image-keyboard-response","234","948154","0.0-6.0-4.32","3401447","co38425","norming","","","","","","",""
"null","../img/tt/1027tt.jpg","null","mooney2","image-keyboard-response","235","950156","0.0-6.0-5.32","3401447","co38425","norming","","","","","","",""
"2434.739999999758","","","post_reveal_questions","survey-likert","236","952593","0.0-6.0-6.32","3401447","co38425","norming","","","{""aha"":2}","[0]","../img/tt/1027tt.jpg","",""
"null","<div style=""font-size:60px;""> </div>","null","fixation","html-keyboard-response","237","952795","0.0-6.0-0.33","3401447","co38425","norming","","","","","","",""
"null","../img/tt/378tt.jpg","null","mooney1","image-keyboard-response","238","955796","0.0-6.0-1.33","3401447","co38425","norming","","","","","","",""
"4537.809999999823","","","post_mooney1_questions","survey-likert","239","960337","0.0-6.0-2.33","3401447","co38425","norming","","","{""curiosity"":5,""confidence"":0}","[0,1]","../img/tt/378tt.jpg","",""
"869.919999999227","","","recognition","survey-text","240","961209","0.0-6.0-3.33","3401447","co38425","norming","","","{""guess"":""""}","","../img/tt/378tt.jpg","",""
"null","../img/gs/378gs.jpg","null","reveal","image-keyboard-response","241","963215","0.0-6.0-4.33","3401447","co38425","norming","","","","","","",""
"null","../img/tt/378tt.jpg","null","mooney2","image-keyboard-response","242","965217","0.0-6.0-5.33","3401447","co38425","norming","","","","","","",""
"3741.065000000177","","","post_reveal_questions","survey-likert","243","968961","0.0-6.0-6.33","3401447","co38425","norming","","","{""aha"":0}","[0]","../img/tt/378tt.jpg","",""
"null","<div style=""font-size:60px;""> </div>","null","fixation","html-keyboard-response","244","969163","0.0-6.0-0.34","3401447","co38425","norming","","","","","","",""
"null","../img/tt/140tt.jpg","null","mooney1","image-keyboard-response","245","972166","0.0-6.0-1.34","3401447","co38425","norming","","","","","","",""
"5008.479999999516","","","post_mooney1_questions","survey-likert","246","977178","0.0-6.0-2.34","3401447","co38425","norming","","","{""curiosity"":0,""confidence"":6}","[0,1]","../img/tt/140tt.jpg","",""
"5462.089999999967","","","recognition","survey-text","247","982642","0.0-6.0-3.34","3401447","co38425","norming","","","{""guess"":""forks""}","","../img/tt/140tt.jpg","",""
"null","../img/gs/140gs.jpg","null","reveal","image-keyboard-response","248","984643","0.0-6.0-4.34","3401447","co38425","norming","","","","","","",""
"null","../img/tt/140tt.jpg","null","mooney2","image-keyboard-response","249","986645","0.0-6.0-5.34","3401447","co38425","norming","","","","","","",""
"1490.370000000461","","","post_reveal_questions","survey-likert","250","988137","0.0-6.0-6.34","3401447","co38425","norming","","","{""aha"":0}","[0]","../img/tt/140tt.jpg","",""
"null","<div style=""font-size:60px;""> </div>","null","fixation","html-keyboard-response","251","988339","0.0-6.0-0.35","3401447","co38425","norming","","","","","","",""
"null","../img/tt/329tt.jpg","null","mooney1","image-keyboard-response","252","991348","0.0-6.0-1.35","3401447","co38425","norming","","","","","","",""
"11986.629999999423","","","post_mooney1_questions","survey-likert","253","1003338","0.0-6.0-2.35","3401447","co38425","norming","","","{""curiosity"":5,""confidence"":2}","[0,1]","../img/tt/329tt.jpg","",""
"4918.0750000005355","","","recognition","survey-text","254","1008258","0.0-6.0-3.35","3401447","co38425","norming","","","{""guess"":""chickens""}","","../img/tt/329tt.jpg","",""
"null","../img/gs/329gs.jpg","null","reveal","image-keyboard-response","255","1010265","0.0-6.0-4.35","3401447","co38425","norming","","","","","","",""
"null","../img/tt/329tt.jpg","null","mooney2","image-keyboard-response","256","1012267","0.0-6.0-5.35","3401447","co38425","norming","","","","","","",""
"6275.92499999993","","","post_reveal_questions","survey-likert","257","1018546","0.0-6.0-6.35","3401447","co38425","norming","","","{""aha"":4}","[0]","../img/tt/329tt.jpg","",""
"null","<div style=""font-size:60px;""> </div>","null","fixation","html-keyboard-response","258","1018753","0.0-6.0-0.36","3401447","co38425","norming","","","","","","",""
"null","../img/tt/1040tt.jpg","null","mooney1","image-keyboard-response","259","1021762","0.0-6.0-1.36","3401447","co38425","norming","","","","","","",""
"8956.195000000647","","","post_mooney1_questions","survey-likert","260","1030718","0.0-6.0-2.36","3401447","co38425","norming","","","{""curiosity"":4,""confidence"":3}","[0,1]","../img/tt/1040tt.jpg","",""
"9422.335000000312","","","recognition","survey-text","261","1040142","0.0-6.0-3.36","3401447","co38425","norming","","","{""guess"":""mountain climber""}","","../img/tt/1040tt.jpg","",""
"null","../img/gs/1040gs.jpg","null","reveal","image-keyboard-response","262","1042153","0.0-6.0-4.36","3401447","co38425","norming","","","","","","",""
"null","../img/tt/1040tt.jpg","null","mooney2","image-keyboard-response","263","1044155","0.0-6.0-5.36","3401447","co38425","norming","","","","","","",""
"1944.2449999997625","","","post_reveal_questions","survey-likert","264","1046102","0.0-6.0-6.36","3401447","co38425","norming","","","{""aha"":4}","[0]","../img/tt/1040tt.jpg","",""
"null","<div style=""font-size:60px;""> </div>","null","fixation","html-keyboard-response","265","1046303","0.0-6.0-0.37","3401447","co38425","norming","","","","","","",""
"null","../img/tt/007tt.jpg","null","mooney1","image-keyboard-response","266","1049306","0.0-6.0-1.37","3401447","co38425","norming","","","","","","",""
"5817.764999999665","","","post_mooney1_questions","survey-likert","267","1055126","0.0-6.0-2.37","3401447","co38425","norming","","","{""curiosity"":5,""confidence"":0}","[0,1]","../img/tt/007tt.jpg","",""
"950.1399999998976","","","recognition","survey-text","268","1056078","0.0-6.0-3.37","3401447","co38425","norming","","","{""guess"":""""}","","../img/tt/007tt.jpg","",""
"null","../img/gs/007gs.jpg","null","reveal","image-keyboard-response","269","1058082","0.0-6.0-4.37","3401447","co38425","norming","","","","","","",""
"null","../img/tt/007tt.jpg","null","mooney2","image-keyboard-response","270","1060093","0.0-6.0-5.37","3401447","co38425","norming","","","","","","",""
"2622.790000000503","","","post_reveal_questions","survey-likert","271","1062718","0.0-6.0-6.37","3401447","co38425","norming","","","{""aha"":4}","[0]","../img/tt/007tt.jpg","",""
"null","<div style=""font-size:60px;""> </div>","null","fixation","html-keyboard-response","272","1062921","0.0-6.0-0.38","3401447","co38425","norming","","","","","","",""
"null","../img/tt/105tt.jpg","null","mooney1","image-keyboard-response","273","1065924","0.0-6.0-1.38","3401447","co38425","norming","","","","","","",""
"4943.4999999993015","","","post_mooney1_questions","survey-likert","274","1070871","0.0-6.0-2.38","3401447","co38425","norming","","","{""curiosity"":2,""confidence"":5}","[0,1]","../img/tt/105tt.jpg","",""
"5013.89000000013","","","recognition","survey-text","275","1075886","0.0-6.0-3.38","3401447","co38425","norming","","","{""guess"":""paperclips""}","","../img/tt/105tt.jpg","",""
"null","../img/gs/105gs.jpg","null","reveal","image-keyboard-response","276","1077889","0.0-6.0-4.38","3401447","co38425","norming","","","","","","",""
"null","../img/tt/105tt.jpg","null","mooney2","image-keyboard-response","277","1079891","0.0-6.0-5.38","3401447","co38425","norming","","","","","","",""
"2144.844999999972","","","post_reveal_questions","survey-likert","278","1082038","0.0-6.0-6.38","3401447","co38425","norming","","","{""aha"":0}","[0]","../img/tt/105tt.jpg","",""
"null","<div style=""font-size:60px;""> </div>","null","fixation","html-keyboard-response","279","1082240","0.0-6.0-0.39","3401447","co38425","norming","","","","","","",""
"null","../img/tt/477tt.jpg","null","mooney1","image-keyboard-response","280","1085244","0.0-6.0-1.39","3401447","co38425","norming","","","","","","",""
"5911.255000000121","","","post_mooney1_questions","survey-likert","281","1091162","0.0-6.0-2.39","3401447","co38425","norming","","","{""curiosity"":5,""confidence"":1}","[0,1]","../img/tt/477tt.jpg","",""
"4997.899999999441","","","recognition","survey-text","282","1096162","0.0-6.0-3.39","3401447","co38425","norming","","","{""guess"":""pillows""}","","../img/tt/477tt.jpg","",""
"null","../img/gs/477gs.jpg","null","reveal","image-keyboard-response","283","1098171","0.0-6.0-4.39","3401447","co38425","norming","","","","","","",""
"null","../img/tt/477tt.jpg","null","mooney2","image-keyboard-response","284","1100173","0.0-6.0-5.39","3401447","co38425","norming","","","","","","",""
"1498.344999999972","","","post_reveal_questions","survey-likert","285","1101674","0.0-6.0-6.39","3401447","co38425","norming","","","{""aha"":5}","[0]","../img/tt/477tt.jpg","",""
"null","<div style=""font-size:60px;""> </div>","null","fixation","html-keyboard-response","286","1101876","0.0-6.0-0.40","3401447","co38425","norming","","","","","","",""
"null","../img/tt/524tt.jpg","null","mooney1","image-keyboard-response","287","1104879","0.0-6.0-1.40","3401447","co38425","norming","","","","","","",""
"3378.109999999637","","","post_mooney1_questions","survey-likert","288","1108258","0.0-6.0-2.40","3401447","co38425","norming","","","{""curiosity"":6,""confidence"":0}","[0,1]","../img/tt/524tt.jpg","",""
"1158.0350000003818","","","recognition","survey-text","289","1109418","0.0-6.0-3.40","3401447","co38425","norming","","","{""guess"":""""}","","../img/tt/524tt.jpg","",""
"null","../img/gs/524gs.jpg","null","reveal","image-keyboard-response","290","1111422","0.0-6.0-4.40","3401447","co38425","norming","","","","","","",""
"null","../img/tt/524tt.jpg","null","mooney2","image-keyboard-response","291","1113426","0.0-6.0-5.40","3401447","co38425","norming","","","","","","",""
"3108.8400000007823","","","post_reveal_questions","survey-likert","292","1116538","0.0-6.0-6.40","3401447","co38425","norming","","","{""aha"":4}","[0]","../img/tt/524tt.jpg","",""
"null","<div style=""font-size:60px;""> </div>","null","fixation","html-keyboard-response","293","1116739","0.0-6.0-0.41","3401447","co38425","norming","","","","","","",""
"null","../img/tt/098tt.jpg","null","mooney1","image-keyboard-response","294","1119751","0.0-6.0-1.41","3401447","co38425","norming","","","","","","",""
"17935.244999999646","","","post_mooney1_questions","survey-likert","295","1137690","0.0-6.0-2.41","3401447","co38425","norming","","","{""curiosity"":4,""confidence"":4}","[0,1]","../img/tt/098tt.jpg","",""
"3318.124999999767","","","recognition","survey-text","296","1141010","0.0-6.0-3.41","3401447","co38425","norming","","","{""guess"":""koala""}","","../img/tt/098tt.jpg","",""
"null","../img/gs/098gs.jpg","null","reveal","image-keyboard-response","297","1143013","0.0-6.0-4.41","3401447","co38425","norming","","","","","","",""
"null","../img/tt/098tt.jpg","null","mooney2","image-keyboard-response","298","1145020","0.0-6.0-5.41","3401447","co38425","norming","","","","","","",""
"4042.8899999996647","","","post_reveal_questions","survey-likert","299","1149066","0.0-6.0-6.41","3401447","co38425","norming","","","{""aha"":2}","[0]","../img/tt/098tt.jpg","",""
"null","<div style=""font-size:60px;""> </div>","null","fixation","html-keyboard-response","300","1149267","0.0-6.0-0.42","3401447","co38425","norming","","","","","","",""
"null","../img/tt/559tt.jpg","null","mooney1","image-keyboard-response","301","1152273","0.0-6.0-1.42","3401447","co38425","norming","","","","","","",""
"7350.999999999767","","","post_mooney1_questions","survey-likert","302","1159628","0.0-6.0-2.42","3401447","co38425","norming","","","{""curiosity"":2,""confidence"":5}","[0,1]","../img/tt/559tt.jpg","",""
"9397.995000000345","","","recognition","survey-text","303","1169027","0.0-6.0-3.42","3401447","co38425","norming","","","{""guess"":""sewing machine""}","","../img/tt/559tt.jpg","",""
"null","../img/gs/559gs.jpg","null","reveal","image-keyboard-response","304","1171038","0.0-6.0-4.42","3401447","co38425","norming","","","","","","",""
"null","../img/tt/559tt.jpg","null","mooney2","image-keyboard-response","305","1173041","0.0-6.0-5.42","3401447","co38425","norming","","","","","","",""
"2428.880000000354","","","post_reveal_questions","survey-likert","306","1175475","0.0-6.0-6.42","3401447","co38425","norming","","","{""aha"":0}","[0]","../img/tt/559tt.jpg","",""
"null","<div style=""font-size:60px;""> </div>","null","fixation","html-keyboard-response","307","1175677","0.0-6.0-0.43","3401447","co38425","norming","","","","","","",""
"null","../img/tt/1261tt.jpg","null","mooney1","image-keyboard-response","308","1178688","0.0-6.0-1.43","3401447","co38425","norming","","","","","","",""
"8968.649999999674","","","post_mooney1_questions","survey-likert","309","1187659","0.0-6.0-2.43","3401447","co38425","norming","","","{""curiosity"":1,""confidence"":2}","[0,1]","../img/tt/1261tt.jpg","",""
"3253.910000000382","","","recognition","survey-text","310","1190915","0.0-6.0-3.43","3401447","co38425","norming","","","{""guess"":""snake""}","","../img/tt/1261tt.jpg","",""
"null","../img/gs/1261gs.jpg","null","reveal","image-keyboard-response","311","1192926","0.0-6.0-4.43","3401447","co38425","norming","","","","","","",""
"null","../img/tt/1261tt.jpg","null","mooney2","image-keyboard-response","312","1194927","0.0-6.0-5.43","3401447","co38425","norming","","","","","","",""
"1658.4549999998417","","","post_reveal_questions","survey-likert","313","1196587","0.0-6.0-6.43","3401447","co38425","norming","","","{""aha"":6}","[0]","../img/tt/1261tt.jpg","",""
"null","<div style=""font-size:60px;""> </div>","null","fixation","html-keyboard-response","314","1196789","0.0-6.0-0.44","3401447","co38425","norming","","","","","","",""
"null","../img/tt/1226tt.jpg","null","mooney1","image-keyboard-response","315","1199799","0.0-6.0-1.44","3401447","co38425","norming","","","","","","",""
"10633.29499999946","","","post_mooney1_questions","survey-likert","316","1210435","0.0-6.0-2.44","3401447","co38425","norming","","","{""curiosity"":4,""confidence"":3}","[0,1]","../img/tt/1226tt.jpg","",""
"3597.600000000093","","","recognition","survey-text","317","1214031","0.0-6.0-3.44","3401447","co38425","norming","","","{""guess"":""chickens""}","","../img/tt/1226tt.jpg","",""
"null","../img/gs/1226gs.jpg","null","reveal","image-keyboard-response","318","1216033","0.0-6.0-4.44","3401447","co38425","norming","","","","","","",""
"null","../img/tt/1226tt.jpg","null","mooney2","image-keyboard-response","319","1218035","0.0-6.0-5.44","3401447","co38425","norming","","","","","","",""
"2217.795000000391","","","post_reveal_questions","survey-likert","320","1220255","0.0-6.0-6.44","3401447","co38425","norming","","","{""aha"":1}","[0]","../img/tt/1226tt.jpg","",""
"null","<div style=""font-size:60px;""> </div>","null","fixation","html-keyboard-response","321","1220456","0.0-6.0-0.45","3401447","co38425","norming","","","","","","",""
"null","../img/tt/1084tt.jpg","null","mooney1","image-keyboard-response","322","1223465","0.0-6.0-1.45","3401447","co38425","norming","","","","","","",""
"16026.480000000447","","","post_mooney1_questions","survey-likert","323","1239495","0.0-6.0-2.45","3401447","co38425","norming","","","{""curiosity"":2,""confidence"":4}","[0,1]","../img/tt/1084tt.jpg","",""
"5750.065000000177","","","recognition","survey-text","324","1245247","0.0-6.0-3.45","3401447","co38425","norming","","","{""guess"":""cup of coffee""}","","../img/tt/1084tt.jpg","",""
"null","../img/gs/1084gs.jpg","null","reveal","image-keyboard-response","325","1247256","0.0-6.0-4.45","3401447","co38425","norming","","","","","","",""
"null","../img/tt/1084tt.jpg","null","mooney2","image-keyboard-response","326","1249258","0.0-6.0-5.45","3401447","co38425","norming","","","","","","",""
"2626.1500000001397","","","post_reveal_questions","survey-likert","327","1251887","0.0-6.0-6.45","3401447","co38425","norming","","","{""aha"":4}","[0]","../img/tt/1084tt.jpg","",""
"null","<div style=""font-size:60px;""> </div>","null","fixation","html-keyboard-response","328","1252088","0.0-6.0-0.46","3401447","co38425","norming","","","","","","",""
"null","../img/tt/1012tt.jpg","null","mooney1","image-keyboard-response","329","1255093","0.0-6.0-1.46","3401447","co38425","norming","","","","","","",""
"10239.030000000494","","","post_mooney1_questions","survey-likert","330","1265335","0.0-6.0-2.46","3401447","co38425","norming","","","{""curiosity"":6,""confidence"":1}","[0,1]","../img/tt/1012tt.jpg","",""
"4390.014999999898","","","recognition","survey-text","331","1269727","0.0-6.0-3.46","3401447","co38425","norming","","","{""guess"":""""}","","../img/tt/1012tt.jpg","",""
"null","../img/gs/1012gs.jpg","null","reveal","image-keyboard-response","332","1271734","0.0-6.0-4.46","3401447","co38425","norming","","","","","","",""
"null","../img/tt/1012tt.jpg","null","mooney2","image-keyboard-response","333","1273741","0.0-6.0-5.46","3401447","co38425","norming","","","","","","",""
"1493.7650000003632","","","post_reveal_questions","survey-likert","334","1275236","0.0-6.0-6.46","3401447","co38425","norming","","","{""aha"":6}","[0]","../img/tt/1012tt.jpg","",""
"null","<div style=""font-size:60px;""> </div>","null","fixation","html-keyboard-response","335","1275437","0.0-6.0-0.47","3401447","co38425","norming","","","","","","",""
"null","../img/tt/1128tt.jpg","null","mooney1","image-keyboard-response","336","1278441","0.0-6.0-1.47","3401447","co38425","norming","","","","","","",""
"5151.824999999953","","","post_mooney1_questions","survey-likert","337","1283596","0.0-6.0-2.47","3401447","co38425","norming","","","{""curiosity"":4,""confidence"":1}","[0,1]","../img/tt/1128tt.jpg","",""
"3221.444999999134","","","recognition","survey-text","338","1286820","0.0-6.0-3.47","3401447","co38425","norming","","","{""guess"":""rocks""}","","../img/tt/1128tt.jpg","",""
"null","../img/gs/1128gs.jpg","null","reveal","image-keyboard-response","339","1288830","0.0-6.0-4.47","3401447","co38425","norming","","","","","","",""
"null","../img/tt/1128tt.jpg","null","mooney2","image-keyboard-response","340","1290838","0.0-6.0-5.47","3401447","co38425","norming","","","","","","",""
"2821.750000000233","","","post_reveal_questions","survey-likert","341","1293660","0.0-6.0-6.47","3401447","co38425","norming","","","{""aha"":5}","[0]","../img/tt/1128tt.jpg","",""
"null","<div style=""font-size:60px;""> </div>","null","fixation","html-keyboard-response","342","1293861","0.0-6.0-0.48","3401447","co38425","norming","","","","","","",""
"null","../img/tt/1148tt.jpg","null","mooney1","image-keyboard-response","343","1296866","0.0-6.0-1.48","3401447","co38425","norming","","","","","","",""
"13545.255000000121","","","post_mooney1_questions","survey-likert","344","1310412","0.0-6.0-2.48","3401447","co38425","norming","","","{""curiosity"":2,""confidence"":0}","[0,1]","../img/tt/1148tt.jpg","",""
"933.8350000006612","","","recognition","survey-text","345","1311348","0.0-6.0-3.48","3401447","co38425","norming","","","{""guess"":""""}","","../img/tt/1148tt.jpg","",""
"null","../img/gs/1148gs.jpg","null","reveal","image-keyboard-response","346","1313352","0.0-6.0-4.48","3401447","co38425","norming","","","","","","",""
"null","../img/tt/1148tt.jpg","null","mooney2","image-keyboard-response","347","1315362","0.0-6.0-5.48","3401447","co38425","norming","","","","","","",""
"5847.289999999804","","","post_reveal_questions","survey-likert","348","1321212","0.0-6.0-6.48","3401447","co38425","norming","","","{""aha"":3}","[0]","../img/tt/1148tt.jpg","",""
"null","<div style=""font-size:60px;""> </div>","null","fixation","html-keyboard-response","349","1321422","0.0-6.0-0.49","3401447","co38425","norming","","","","","","",""
"null","../img/tt/273tt.jpg","null","mooney1","image-keyboard-response","350","1324425","0.0-6.0-1.49","3401447","co38425","norming","","","","","","",""
"12400.045000000391","","","post_mooney1_questions","survey-likert","351","1336822","0.0-6.0-2.49","3401447","co38425","norming","","","{""curiosity"":3,""confidence"":0}","[0,1]","../img/tt/273tt.jpg","",""
"510.22500000009313","","","recognition","survey-text","352","1337333","0.0-6.0-3.49","3401447","co38425","norming","","","{""guess"":""""}","","../img/tt/273tt.jpg","",""
"null","../img/gs/273gs.jpg","null","reveal","image-keyboard-response","353","1339340","0.0-6.0-4.49","3401447","co38425","norming","","","","","","",""
"null","../img/tt/273tt.jpg","null","mooney2","image-keyboard-response","354","1341342","0.0-6.0-5.49","3401447","co38425","norming","","","","","","",""
"1493.1299999998882","","","post_reveal_questions","survey-likert","355","1342837","0.0-6.0-6.49","3401447","co38425","norming","","","{""aha"":6}","[0]","../img/tt/273tt.jpg","",""
"null","<div style=""font-size:60px;""> </div>","null","fixation","html-keyboard-response","356","1343040","0.0-6.0-0.50","3401447","co38425","norming","","","","","","",""
"null","../img/tt/522tt.jpg","null","mooney1","image-keyboard-response","357","1346050","0.0-6.0-1.50","3401447","co38425","norming","","","","","","",""
"5184.334999999963","","","post_mooney1_questions","survey-likert","358","1351238","0.0-6.0-2.50","3401447","co38425","norming","","","{""curiosity"":4,""confidence"":2}","[0,1]","../img/tt/522tt.jpg","",""
"4997.905000000261","","","recognition","survey-text","359","1356238","0.0-6.0-3.50","3401447","co38425","norming","","","{""guess"":""butterfly""}","","../img/tt/522tt.jpg","",""
"null","../img/gs/522gs.jpg","null","reveal","image-keyboard-response","360","1358248","0.0-6.0-4.50","3401447","co38425","norming","","","","","","",""
"null","../img/tt/522tt.jpg","null","mooney2","image-keyboard-response","361","1360250","0.0-6.0-5.50","3401447","co38425","norming","","","","","","",""
"2648.500000000233","","","post_reveal_questions","survey-likert","362","1362901","0.0-6.0-6.50","3401447","co38425","norming","","","{""aha"":6}","[0]","../img/tt/522tt.jpg","",""
"null","<div style=""font-size:60px;""> </div>","null","fixation","html-keyboard-response","363","1363103","0.0-6.0-0.51","3401447","co38425","norming","","","","","","",""
"null","../img/tt/1127tt.jpg","null","mooney1","image-keyboard-response","364","1366108","0.0-6.0-1.51","3401447","co38425","norming","","","","","","",""
"8198.689999999246","","","post_mooney1_questions","survey-likert","365","1374310","0.0-6.0-2.51","3401447","co38425","norming","","","{""curiosity"":3,""confidence"":3}","[0,1]","../img/tt/1127tt.jpg","",""
"3958.0200000000186","","","recognition","survey-text","366","1378269","0.0-6.0-3.51","3401447","co38425","norming","","","{""guess"":""painter""}","","../img/tt/1127tt.jpg","",""
"null","../img/gs/1127gs.jpg","null","reveal","image-keyboard-response","367","1380277","0.0-6.0-4.51","3401447","co38425","norming","","","","","","",""
"null","../img/tt/1127tt.jpg","null","mooney2","image-keyboard-response","368","1382280","0.0-6.0-5.51","3401447","co38425","norming","","","","","","",""
"4658.529999999562","","","post_reveal_questions","survey-likert","369","1386942","0.0-6.0-6.51","3401447","co38425","norming","","","{""aha"":5}","[0]","../img/tt/1127tt.jpg","",""
"null","<div style=""font-size:60px;""> </div>","null","fixation","html-keyboard-response","370","1387147","0.0-6.0-0.52","3401447","co38425","norming","","","","","","",""
"null","../img/tt/1096tt.jpg","null","mooney1","image-keyboard-response","371","1390152","0.0-6.0-1.52","3401447","co38425","norming","","","","","","",""
"5426.9099999994505","","","post_mooney1_questions","survey-likert","372","1395581","0.0-6.0-2.52","3401447","co38425","norming","","","{""curiosity"":3,""confidence"":0}","[0,1]","../img/tt/1096tt.jpg","",""
"1590.135000000475","","","recognition","survey-text","373","1397173","0.0-6.0-3.52","3401447","co38425","norming","","","{""guess"":""""}","","../img/tt/1096tt.jpg","",""
"null","../img/gs/1096gs.jpg","null","reveal","image-keyboard-response","374","1399179","0.0-6.0-4.52","3401447","co38425","norming","","","","","","",""
"null","../img/tt/1096tt.jpg","null","mooney2","image-keyboard-response","375","1401181","0.0-6.0-5.52","3401447","co38425","norming","","","","","","",""
"2901.570000000065","","","post_reveal_questions","survey-likert","376","1404085","0.0-6.0-6.52","3401447","co38425","norming","","","{""aha"":4}","[0]","../img/tt/1096tt.jpg","",""
"null","<div style=""font-size:60px;""> </div>","null","fixation","html-keyboard-response","377","1404287","0.0-6.0-0.53","3401447","co38425","norming","","","","","","",""
"null","../img/tt/123tt.jpg","null","mooney1","image-keyboard-response","378","1407289","0.0-6.0-1.53","3401447","co38425","norming","","","","","","",""
"7672.824999999721","","","post_mooney1_questions","survey-likert","379","1414966","0.0-6.0-2.53","3401447","co38425","norming","","","{""curiosity"":4,""confidence"":3}","[0,1]","../img/tt/123tt.jpg","",""
"3574.1450000004843","","","recognition","survey-text","380","1418542","0.0-6.0-3.53","3401447","co38425","norming","","","{""guess"":""bag""}","","../img/tt/123tt.jpg","",""
"null","../img/gs/123gs.jpg","null","reveal","image-keyboard-response","381","1420543","0.0-6.0-4.53","3401447","co38425","norming","","","","","","",""
"null","../img/tt/123tt.jpg","null","mooney2","image-keyboard-response","382","1422545","0.0-6.0-5.53","3401447","co38425","norming","","","","","","",""
"1553.6250000004657","","","post_reveal_questions","survey-likert","383","1424101","0.0-6.0-6.53","3401447","co38425","norming","","","{""aha"":0}","[0]","../img/tt/123tt.jpg","",""
"null","<div style=""font-size:60px;""> </div>","null","fixation","html-keyboard-response","384","1424303","0.0-6.0-0.54","3401447","co38425","norming","","","","","","",""
"null","../img/tt/076tt.jpg","null","mooney1","image-keyboard-response","385","1427310","0.0-6.0-1.54","3401447","co38425","norming","","","","","","",""
"4812.770000000484","","","post_mooney1_questions","survey-likert","386","1432126","0.0-6.0-2.54","3401447","co38425","norming","","","{""curiosity"":1,""confidence"":5}","[0,1]","../img/tt/076tt.jpg","",""
"8125.965000000317","","","recognition","survey-text","387","1440253","0.0-6.0-3.54","3401447","co38425","norming","","","{""guess"":""roller skates""}","","../img/tt/076tt.jpg","",""
"null","../img/gs/076gs.jpg","null","reveal","image-keyboard-response","388","1442255","0.0-6.0-4.54","3401447","co38425","norming","","","","","","",""
"null","../img/tt/076tt.jpg","null","mooney2","image-keyboard-response","389","1444258","0.0-6.0-5.54","3401447","co38425","norming","","","","","","",""
"2896.2749999992084","","","post_reveal_questions","survey-likert","390","1447157","0.0-6.0-6.54","3401447","co38425","norming","","","{""aha"":0}","[0]","../img/tt/076tt.jpg","",""
"null","<div style=""font-size:60px;""> </div>","null","fixation","html-keyboard-response","391","1447359","0.0-6.0-0.55","3401447","co38425","norming","","","","","","",""
"null","../img/tt/1089tt.jpg","null","mooney1","image-keyboard-response","392","1450367","0.0-6.0-1.55","3401447","co38425","norming","","","","","","",""
"7331.264999999898","","","post_mooney1_questions","survey-likert","393","1457708","0.0-6.0-2.55","3401447","co38425","norming","","","{""curiosity"":4,""confidence"":4}","[0,1]","../img/tt/1089tt.jpg","",""
"2533.9549999998417","","","recognition","survey-text","394","1460244","0.0-6.0-3.55","3401447","co38425","norming","","","{""guess"":""horse""}","","../img/tt/1089tt.jpg","",""
"null","../img/gs/1089gs.jpg","null","reveal","image-keyboard-response","395","1462248","0.0-6.0-4.55","3401447","co38425","norming","","","","","","",""
"null","../img/tt/1089tt.jpg","null","mooney2","image-keyboard-response","396","1464250","0.0-6.0-5.55","3401447","co38425","norming","","","","","","",""
"4055.135000000708","","","post_reveal_questions","survey-likert","397","1468308","0.0-6.0-6.55","3401447","co38425","norming","","","{""aha"":4}","[0]","../img/tt/1089tt.jpg","",""
"null","<div style=""font-size:60px;""> </div>","null","fixation","html-keyboard-response","398","1468514","0.0-6.0-0.56","3401447","co38425","norming","","","","","","",""
"null","../img/tt/1097tt.jpg","null","mooney1","image-keyboard-response","399","1471521","0.0-6.0-1.56","3401447","co38425","norming","","","","","","",""
"6496.200000000419","","","post_mooney1_questions","survey-likert","400","1478021","0.0-6.0-2.56","3401447","co38425","norming","","","{""curiosity"":2,""confidence"":4}","[0,1]","../img/tt/1097tt.jpg","",""
"5069.950000000186","","","recognition","survey-text","401","1483092","0.0-6.0-3.56","3401447","co38425","norming","","","{""guess"":""golf player""}","","../img/tt/1097tt.jpg","",""
"null","../img/gs/1097gs.jpg","null","reveal","image-keyboard-response","402","1485093","0.0-6.0-4.56","3401447","co38425","norming","","","","","","",""
"null","../img/tt/1097tt.jpg","null","mooney2","image-keyboard-response","403","1487098","0.0-6.0-5.56","3401447","co38425","norming","","","","","","",""
"2071.6250000004657","","","post_reveal_questions","survey-likert","404","1489172","0.0-6.0-6.56","3401447","co38425","norming","","","{""aha"":5}","[0]","../img/tt/1097tt.jpg","",""
"null","<div style=""font-size:60px;""> </div>","null","fixation","html-keyboard-response","405","1489373","0.0-6.0-0.57","3401447","co38425","norming","","","","","","",""
"null","../img/tt/1279tt.jpg","null","mooney1","image-keyboard-response","406","1492382","0.0-6.0-1.57","3401447","co38425","norming","","","","","","",""
"5547.01500000013","","","post_mooney1_questions","survey-likert","407","1497932","0.0-6.0-2.57","3401447","co38425","norming","","","{""curiosity"":4,""confidence"":1}","[0,1]","../img/tt/1279tt.jpg","",""
"3574.060000000056","","","recognition","survey-text","408","1501508","0.0-6.0-3.57","3401447","co38425","norming","","","{""guess"":""birds""}","","../img/tt/1279tt.jpg","",""
"null","../img/gs/1279gs.jpg","null","reveal","image-keyboard-response","409","1503513","0.0-6.0-4.57","3401447","co38425","norming","","","","","","",""
"null","../img/tt/1279tt.jpg","null","mooney2","image-keyboard-response","410","1505516","0.0-6.0-5.57","3401447","co38425","norming","","","","","","",""
"2541.7450000005774","","","post_reveal_questions","survey-likert","411","1508060","0.0-6.0-6.57","3401447","co38425","norming","","","{""aha"":5}","[0]","../img/tt/1279tt.jpg","",""
"null","<div style=""font-size:60px;""> </div>","null","fixation","html-keyboard-response","412","1508262","0.0-6.0-0.58","3401447","co38425","norming","","","","","","",""
"null","../img/tt/1260tt.jpg","null","mooney1","image-keyboard-response","413","1511269","0.0-6.0-1.58","3401447","co38425","norming","","","","","","",""
"6267.675000000047","","","post_mooney1_questions","survey-likert","414","1517534","0.0-6.0-2.58","3401447","co38425","norming","","","{""curiosity"":2,""confidence"":1}","[0,1]","../img/tt/1260tt.jpg","",""
"3582.27000000095","","","recognition","survey-text","415","1521118","0.0-6.0-3.58","3401447","co38425","norming","","","{""guess"":""tiger""}","","../img/tt/1260tt.jpg","",""
"null","../img/gs/1260gs.jpg","null","reveal","image-keyboard-response","416","1523128","0.0-6.0-4.58","3401447","co38425","norming","","","","","","",""
"null","../img/tt/1260tt.jpg","null","mooney2","image-keyboard-response","417","1525130","0.0-6.0-5.58","3401447","co38425","norming","","","","","","",""
"2385.674999999581","","","post_reveal_questions","survey-likert","418","1527518","0.0-6.0-6.58","3401447","co38425","norming","","","{""aha"":6}","[0]","../img/tt/1260tt.jpg","",""
"null","<div style=""font-size:60px;""> </div>","null","fixation","html-keyboard-response","419","1527719","0.0-6.0-0.59","3401447","co38425","norming","","","","","","",""
"null","../img/tt/085tt.jpg","null","mooney1","image-keyboard-response","420","1530725","0.0-6.0-1.59","3401447","co38425","norming","","","","","","",""
"4733.909999999916","","","post_mooney1_questions","survey-likert","421","1535462","0.0-6.0-2.59","3401447","co38425","norming","","","{""curiosity"":4,""confidence"":0}","[0,1]","../img/tt/085tt.jpg","",""
"789.7199999997392","","","recognition","survey-text","422","1536253","0.0-6.0-3.59","3401447","co38425","norming","","","{""guess"":""""}","","../img/tt/085tt.jpg","",""
"null","../img/gs/085gs.jpg","null","reveal","image-keyboard-response","423","1538263","0.0-6.0-4.59","3401447","co38425","norming","","","","","","",""
"null","../img/tt/085tt.jpg","null","mooney2","image-keyboard-response","424","1540267","0.0-6.0-5.59","3401447","co38425","norming","","","","","","",""
"1328.394999999553","","","post_reveal_questions","survey-likert","425","1541598","0.0-6.0-6.59","3401447","co38425","norming","","","{""aha"":5}","[0]","../img/tt/085tt.jpg","",""
"null","<div style=""font-size:60px;""> </div>","null","fixation","html-keyboard-response","426","1541800","0.0-6.0-0.60","3401447","co38425","norming","","","","","","",""
"null","../img/tt/301tt.jpg","null","mooney1","image-keyboard-response","427","1544803","0.0-6.0-1.60","3401447","co38425","norming","","","","","","",""
"10647.934999999823","","","post_mooney1_questions","survey-likert","428","1555454","0.0-6.0-2.60","3401447","co38425","norming","","","{""curiosity"":5,""confidence"":2}","[0,1]","../img/tt/301tt.jpg","",""
"6974.104999999283","","","recognition","survey-text","429","1562430","0.0-6.0-3.60","3401447","co38425","norming","","","{""guess"":""shark teeth""}","","../img/tt/301tt.jpg","",""
"null","../img/gs/301gs.jpg","null","reveal","image-keyboard-response","430","1564435","0.0-6.0-4.60","3401447","co38425","norming","","","","","","",""
"null","../img/tt/301tt.jpg","null","mooney2","image-keyboard-response","431","1566443","0.0-6.0-5.60","3401447","co38425","norming","","","","","","",""
"3007.394999999553","","","post_reveal_questions","survey-likert","432","1569454","0.0-6.0-6.60","3401447","co38425","norming","","","{""aha"":2}","[0]","../img/tt/301tt.jpg","",""
"null","<div style=""font-size:60px;""> </div>","null","fixation","html-keyboard-response","433","1569660","0.0-6.0-0.61","3401447","co38425","norming","","","","","","",""
"null","../img/tt/1241tt.jpg","null","mooney1","image-keyboard-response","434","1572669","0.0-6.0-1.61","3401447","co38425","norming","","","","","","",""
"8069.615000000456","","","post_mooney1_questions","survey-likert","435","1580748","0.0-6.0-2.61","3401447","co38425","norming","","","{""curiosity"":3,""confidence"":3}","[0,1]","../img/tt/1241tt.jpg","",""
"2133.739999999292","","","recognition","survey-text","436","1582884","0.0-6.0-3.61","3401447","co38425","norming","","","{""guess"":""frog""}","","../img/tt/1241tt.jpg","",""
"null","../img/gs/1241gs.jpg","null","reveal","image-keyboard-response","437","1584886","0.0-6.0-4.61","3401447","co38425","norming","","","","","","",""
"null","../img/tt/1241tt.jpg","null","mooney2","image-keyboard-response","438","1586897","0.0-6.0-5.61","3401447","co38425","norming","","","","","","",""
"4394.250000000233","","","post_reveal_questions","survey-likert","439","1591292","0.0-6.0-6.61","3401447","co38425","norming","","","{""aha"":1}","[0]","../img/tt/1241tt.jpg","",""
"null","<div style=""font-size:60px;""> </div>","null","fixation","html-keyboard-response","440","1591495","0.0-6.0-0.62","3401447","co38425","norming","","","","","","",""
"null","../img/tt/1211tt.jpg","null","mooney1","image-keyboard-response","441","1594497","0.0-6.0-1.62","3401447","co38425","norming","","","","","","",""
"4159.020000000019","","","post_mooney1_questions","survey-likert","442","1598660","0.0-6.0-2.62","3401447","co38425","norming","","","{""curiosity"":4,""confidence"":2}","[0,1]","../img/tt/1211tt.jpg","",""
"3758.2200000006706","","","recognition","survey-text","443","1602420","0.0-6.0-3.62","3401447","co38425","norming","","","{""guess"":""lake""}","","../img/tt/1211tt.jpg","",""
"null","../img/gs/1211gs.jpg","null","reveal","image-keyboard-response","444","1604421","0.0-6.0-4.62","3401447","co38425","norming","","","","","","",""
"null","../img/tt/1211tt.jpg","null","mooney2","image-keyboard-response","445","1606424","0.0-6.0-5.62","3401447","co38425","norming","","","","","","",""
"2985.9699999997392","","","post_reveal_questions","survey-likert","446","1609412","0.0-6.0-6.62","3401447","co38425","norming","","","{""aha"":6}","[0]","../img/tt/1211tt.jpg","",""
"null","<div style=""font-size:60px;""> </div>","null","fixation","html-keyboard-response","447","1609613","0.0-6.0-0.63","3401447","co38425","norming","","","","","","",""
"null","../img/tt/1366tt.jpg","null","mooney1","image-keyboard-response","448","1612618","0.0-6.0-1.63","3401447","co38425","norming","","","","","","",""
"4518.690000000875","","","post_mooney1_questions","survey-likert","449","1617140","0.0-6.0-2.63","3401447","co38425","norming","","","{""curiosity"":4,""confidence"":0}","[0,1]","../img/tt/1366tt.jpg","",""
"478","","","recognition","survey-text","450","1617620","0.0-6.0-3.63","3401447","co38425","norming","","","{""guess"":""""}","","../img/tt/1366tt.jpg","",""
"null","../img/gs/1366gs.jpg","null","reveal","image-keyboard-response","451","1619627","0.0-6.0-4.63","3401447","co38425","norming","","","","","","",""
"null","../img/tt/1366tt.jpg","null","mooney2","image-keyboard-response","452","1621629","0.0-6.0-5.63","3401447","co38425","norming","","","","","","",""
"1835.9300000001676","","","post_reveal_questions","survey-likert","453","1623468","0.0-6.0-6.63","3401447","co38425","norming","","","{""aha"":4}","[0]","../img/tt/1366tt.jpg","",""
"null","<div style=""font-size:60px;""> </div>","null","fixation","html-keyboard-response","454","1623670","0.0-6.0-0.64","3401447","co38425","norming","","","","","","",""
"null","../img/tt/1232tt.jpg","null","mooney1","image-keyboard-response","455","1626679","0.0-6.0-1.64","3401447","co38425","norming","","","","","","",""
"6361.235000000335","","","post_mooney1_questions","survey-likert","456","1633044","0.0-6.0-2.64","3401447","co38425","norming","","","{""curiosity"":2,""confidence"":1}","[0,1]","../img/tt/1232tt.jpg","",""
"733.9299999992363","","","recognition","survey-text","457","1633780","0.0-6.0-3.64","3401447","co38425","norming","","","{""guess"":""""}","","../img/tt/1232tt.jpg","",""
"null","../img/gs/1232gs.jpg","null","reveal","image-keyboard-response","458","1635790","0.0-6.0-4.64","3401447","co38425","norming","","","","","","",""
"null","../img/tt/1232tt.jpg","null","mooney2","image-keyboard-response","459","1637796","0.0-6.0-5.64","3401447","co38425","norming","","","","","","",""
"2940.7549999996554","","","post_reveal_questions","survey-likert","460","1640733","0.0-6.0-6.64","3401447","co38425","norming","","","{""aha"":4}","[0]","../img/tt/1232tt.jpg","",""
"null","<div style=""font-size:60px;""> </div>","null","fixation","html-keyboard-response","461","1640934","0.0-6.0-0.65","3401447","co38425","norming","","","","","","",""
"null","../img/tt/1006tt.jpg","null","mooney1","image-keyboard-response","462","1643935","0.0-6.0-1.65","3401447","co38425","norming","","","","","","",""
"5757.195000000065","","","post_mooney1_questions","survey-likert","463","1649693","0.0-6.0-2.65","3401447","co38425","norming","","","{""curiosity"":1,""confidence"":4}","[0,1]","../img/tt/1006tt.jpg","",""
"6157.814999999711","","","recognition","survey-text","464","1655853","0.0-6.0-3.65","3401447","co38425","norming","","","{""guess"":""waterfalls""}","","../img/tt/1006tt.jpg","",""
"null","../img/gs/1006gs.jpg","null","reveal","image-keyboard-response","465","1657860","0.0-6.0-4.65","3401447","co38425","norming","","","","","","",""
"null","../img/tt/1006tt.jpg","null","mooney2","image-keyboard-response","466","1659862","0.0-6.0-5.65","3401447","co38425","norming","","","","","","",""
"1363.6599999999162","","","post_reveal_questions","survey-likert","467","1661229","0.0-6.0-6.65","3401447","co38425","norming","","","{""aha"":5}","[0]","../img/tt/1006tt.jpg","",""
"null","<div style=""font-size:60px;""> </div>","null","fixation","html-keyboard-response","468","1661431","0.0-6.0-0.66","3401447","co38425","norming","","","","","","",""
"null","../img/tt/031tt.jpg","null","mooney1","image-keyboard-response","469","1664442","0.0-6.0-1.66","3401447","co38425","norming","","","","","","",""
"15767.585000000661","","","post_mooney1_questions","survey-likert","470","1680213","0.0-6.0-2.66","3401447","co38425","norming","","","{""curiosity"":5,""confidence"":1}","[0,1]","../img/tt/031tt.jpg","",""
"2709.915000000503","","","recognition","survey-text","471","1682925","0.0-6.0-3.66","3401447","co38425","norming","","","{""guess"":""thief""}","","../img/tt/031tt.jpg","",""
"null","../img/gs/031gs.jpg","null","reveal","image-keyboard-response","472","1684927","0.0-6.0-4.66","3401447","co38425","norming","","","","","","",""
"null","../img/tt/031tt.jpg","null","mooney2","image-keyboard-response","473","1686929","0.0-6.0-5.66","3401447","co38425","norming","","","","","","",""
"3267.2199999997392","","","post_reveal_questions","survey-likert","474","1690197","0.0-6.0-6.66","3401447","co38425","norming","","","{""aha"":3}","[0]","../img/tt/031tt.jpg","",""
"null","<div style=""font-size:60px;""> </div>","null","fixation","html-keyboard-response","475","1690398","0.0-6.0-0.67","3401447","co38425","norming","","","","","","",""
"null","../img/tt/1156tt.jpg","null","mooney1","image-keyboard-response","476","1693410","0.0-6.0-1.67","3401447","co38425","norming","","","","","","",""
"5007.679999999935","","","post_mooney1_questions","survey-likert","477","1698421","0.0-6.0-2.67","3401447","co38425","norming","","","{""curiosity"":2,""confidence"":1}","[0,1]","../img/tt/1156tt.jpg","",""
"4581.995000000577","","","recognition","survey-text","478","1703007","0.0-6.0-3.67","3401447","co38425","norming","","","{""guess"":""fallen tree""}","","../img/tt/1156tt.jpg","",""
"null","../img/gs/1156gs.jpg","null","reveal","image-keyboard-response","479","1705016","0.0-6.0-4.67","3401447","co38425","norming","","","","","","",""
"null","../img/tt/1156tt.jpg","null","mooney2","image-keyboard-response","480","1707023","0.0-6.0-5.67","3401447","co38425","norming","","","","","","",""
"2596.8350000001956","","","post_reveal_questions","survey-likert","481","1709623","0.0-6.0-6.67","3401447","co38425","norming","","","{""aha"":3}","[0]","../img/tt/1156tt.jpg","",""
"null","<div style=""font-size:60px;""> </div>","null","fixation","html-keyboard-response","482","1709824","0.0-6.0-0.68","3401447","co38425","norming","","","","","","",""
"null","../img/tt/064tt.jpg","null","mooney1","image-keyboard-response","483","1712829","0.0-6.0-1.68","3401447","co38425","norming","","","","","","",""
"21321.060000000056","","","post_mooney1_questions","survey-likert","484","1734151","0.0-6.0-2.68","3401447","co38425","norming","","","{""curiosity"":4,""confidence"":4}","[0,1]","../img/tt/064tt.jpg","",""
"3078.059999999823","","","recognition","survey-text","485","1737231","0.0-6.0-3.68","3401447","co38425","norming","","","{""guess"":""turtle""}","","../img/tt/064tt.jpg","",""
"null","../img/gs/064gs.jpg","null","reveal","image-keyboard-response","486","1739242","0.0-6.0-4.68","3401447","co38425","norming","","","","","","",""
"null","../img/tt/064tt.jpg","null","mooney2","image-keyboard-response","487","1741244","0.0-6.0-5.68","3401447","co38425","norming","","","","","","",""
"1800.3250000001863","","","post_reveal_questions","survey-likert","488","1743047","0.0-6.0-6.68","3401447","co38425","norming","","","{""aha"":1}","[0]","../img/tt/064tt.jpg","",""
"null","<div style=""font-size:60px;""> </div>","null","fixation","html-keyboard-response","489","1743248","0.0-6.0-0.69","3401447","co38425","norming","","","","","","",""
"null","../img/tt/1061tt.jpg","null","mooney1","image-keyboard-response","490","1746258","0.0-6.0-1.69","3401447","co38425","norming","","","","","","",""
"10898.014999999665","","","post_mooney1_questions","survey-likert","491","1757159","0.0-6.0-2.69","3401447","co38425","norming","","","{""curiosity"":2,""confidence"":5}","[0,1]","../img/tt/1061tt.jpg","",""
"6998.085000000196","","","recognition","survey-text","492","1764165","0.0-6.0-3.69","3401447","co38425","norming","","","{""guess"":""men in woods""}","","../img/tt/1061tt.jpg","",""
"null","../img/gs/1061gs.jpg","null","reveal","image-keyboard-response","493","1766175","0.0-6.0-4.69","3401447","co38425","norming","","","","","","",""
"null","../img/tt/1061tt.jpg","null","mooney2","image-keyboard-response","494","1768176","0.0-6.0-5.69","3401447","co38425","norming","","","","","","",""
"1689.7200000004377","","","post_reveal_questions","survey-likert","495","1769869","0.0-6.0-6.69","3401447","co38425","norming","","","{""aha"":0}","[0]","../img/tt/1061tt.jpg","",""
"null","<div style=""font-size:60px;""> </div>","null","fixation","html-keyboard-response","496","1770072","0.0-6.0-0.70","3401447","co38425","norming","","","","","","",""
"null","../img/tt/135tt.jpg","null","mooney1","image-keyboard-response","497","1773081","0.0-6.0-1.70","3401447","co38425","norming","","","","","","",""
"5000.654999999795","","","post_mooney1_questions","survey-likert","498","1778085","0.0-6.0-2.70","3401447","co38425","norming","","","{""curiosity"":1,""confidence"":4}","[0,1]","../img/tt/135tt.jpg","",""
"4574.214999999618","","","recognition","survey-text","499","1782661","0.0-6.0-3.70","3401447","co38425","norming","","","{""guess"":""wedding ring""}","","../img/tt/135tt.jpg","",""
"null","../img/gs/135gs.jpg","null","reveal","image-keyboard-response","500","1784666","0.0-6.0-4.70","3401447","co38425","norming","","","","","","",""
"null","../img/tt/135tt.jpg","null","mooney2","image-keyboard-response","501","1786669","0.0-6.0-5.70","3401447","co38425","norming","","","","","","",""
"3470.759999999311","","","post_reveal_questions","survey-likert","502","1790141","0.0-6.0-6.70","3401447","co38425","norming","","","{""aha"":6}","[0]","../img/tt/135tt.jpg","",""
"null","<div style=""font-size:60px;""> </div>","null","fixation","html-keyboard-response","503","1790351","0.0-6.0-0.71","3401447","co38425","norming","","","","","","",""
"null","../img/tt/1070tt.jpg","null","mooney1","image-keyboard-response","504","1793354","0.0-6.0-1.71","3401447","co38425","norming","","","","","","",""
"3406.9300000001676","","","post_mooney1_questions","survey-likert","505","1796765","0.0-6.0-2.71","3401447","co38425","norming","","","{""curiosity"":2,""confidence"":0}","[0,1]","../img/tt/1070tt.jpg","",""
"758.1549999995623","","","recognition","survey-text","506","1797525","0.0-6.0-3.71","3401447","co38425","norming","","","{""guess"":""""}","","../img/tt/1070tt.jpg","",""
"null","../img/gs/1070gs.jpg","null","reveal","image-keyboard-response","507","1799530","0.0-6.0-4.71","3401447","co38425","norming","","","","","","",""
"null","../img/tt/1070tt.jpg","null","mooney2","image-keyboard-response","508","1801533","0.0-6.0-5.71","3401447","co38425","norming","","","","","","",""
"1717.174999999581","","","post_reveal_questions","survey-likert","509","1803253","0.0-6.0-6.71","3401447","co38425","norming","","","{""aha"":2}","[0]","../img/tt/1070tt.jpg","",""
"null","<div style=""font-size:60px;""> </div>","null","fixation","html-keyboard-response","510","1803454","0.0-6.0-0.72","3401447","co38425","norming","","","","","","",""
"null","../img/tt/1276tt.jpg","null","mooney1","image-keyboard-response","511","1806460","0.0-6.0-1.72","3401447","co38425","norming","","","","","","",""
"5180.989999999991","","","post_mooney1_questions","survey-likert","512","1811645","0.0-6.0-2.72","3401447","co38425","norming","","","{""curiosity"":4,""confidence"":2}","[0,1]","../img/tt/1276tt.jpg","",""
"4869.985000000102","","","recognition","survey-text","513","1816517","0.0-6.0-3.72","3401447","co38425","norming","","","{""guess"":""dear""}","","../img/tt/1276tt.jpg","",""
"null","../img/gs/1276gs.jpg","null","reveal","image-keyboard-response","514","1818526","0.0-6.0-4.72","3401447","co38425","norming","","","","","","",""
"null","../img/tt/1276tt.jpg","null","mooney2","image-keyboard-response","515","1820531","0.0-6.0-5.72","3401447","co38425","norming","","","","","","",""
"4440.77500000014","","","post_reveal_questions","survey-likert","516","1824975","0.0-6.0-6.72","3401447","co38425","norming","","","{""aha"":4}","[0]","../img/tt/1276tt.jpg","",""
"null","<div style=""font-size:60px;""> </div>","null","fixation","html-keyboard-response","517","1825176","0.0-6.0-0.73","3401447","co38425","norming","","","","","","",""
"null","../img/tt/497tt.jpg","null","mooney1","image-keyboard-response","518","1828179","0.0-6.0-1.73","3401447","co38425","norming","","","","","","",""
"4703.820000000531","","","post_mooney1_questions","survey-likert","519","1832887","0.0-6.0-2.73","3401447","co38425","norming","","","{""curiosity"":4,""confidence"":0}","[0,1]","../img/tt/497tt.jpg","",""
"454.0749999997206","","","recognition","survey-text","520","1833342","0.0-6.0-3.73","3401447","co38425","norming","","","{""guess"":""""}","","../img/tt/497tt.jpg","",""
"null","../img/gs/497gs.jpg","null","reveal","image-keyboard-response","521","1835353","0.0-6.0-4.73","3401447","co38425","norming","","","","","","",""
"null","../img/tt/497tt.jpg","null","mooney2","image-keyboard-response","522","1837364","0.0-6.0-5.73","3401447","co38425","norming","","","","","","",""
"2855.475000000326","","","post_reveal_questions","survey-likert","523","1840223","0.0-6.0-6.73","3401447","co38425","norming","","","{""aha"":5}","[0]","../img/tt/497tt.jpg","",""
"null","<div style=""font-size:60px;""> </div>","null","fixation","html-keyboard-response","524","1840429","0.0-6.0-0.74","3401447","co38425","norming","","","","","","",""
"null","../img/tt/1268tt.jpg","null","mooney1","image-keyboard-response","525","1843436","0.0-6.0-1.74","3401447","co38425","norming","","","","","","",""
"6679.780000000494","","","post_mooney1_questions","survey-likert","526","1850119","0.0-6.0-2.74","3401447","co38425","norming","","","{""curiosity"":5,""confidence"":0}","[0,1]","../img/tt/1268tt.jpg","",""
"565.964999999851","","","recognition","survey-text","527","1850687","0.0-6.0-3.74","3401447","co38425","norming","","","{""guess"":""""}","","../img/tt/1268tt.jpg","",""
"null","../img/gs/1268gs.jpg","null","reveal","image-keyboard-response","528","1852689","0.0-6.0-4.74","3401447","co38425","norming","","","","","","",""
"null","../img/tt/1268tt.jpg","null","mooney2","image-keyboard-response","529","1854692","0.0-6.0-5.74","3401447","co38425","norming","","","","","","",""
"1647.7399999992922","","","post_reveal_questions","survey-likert","530","1856343","0.0-6.0-6.74","3401447","co38425","norming","","","{""aha"":3}","[0]","../img/tt/1268tt.jpg","",""
"null","<div style=""font-size:60px;""> </div>","null","fixation","html-keyboard-response","531","1856545","0.0-6.0-0.75","3401447","co38425","norming","","","","","","",""
"null","../img/tt/1269tt.jpg","null","mooney1","image-keyboard-response","532","1859548","0.0-6.0-1.75","3401447","co38425","norming","","","","","","",""
"10711.884999999776","","","post_mooney1_questions","survey-likert","533","1870263","0.0-6.0-2.75","3401447","co38425","norming","","","{""curiosity"":5,""confidence"":2}","[0,1]","../img/tt/1269tt.jpg","",""
"6686.020000000019","","","recognition","survey-text","534","1876951","0.0-6.0-3.75","3401447","co38425","norming","","","{""guess"":""squirrel""}","","../img/tt/1269tt.jpg","",""
"null","../img/gs/1269gs.jpg","null","reveal","image-keyboard-response","535","1878954","0.0-6.0-4.75","3401447","co38425","norming","","","","","","",""
"null","../img/tt/1269tt.jpg","null","mooney2","image-keyboard-response","536","1880959","0.0-6.0-5.75","3401447","co38425","norming","","","","","","",""
"4352.139999999898","","","post_reveal_questions","survey-likert","537","1885312","0.0-6.0-6.75","3401447","co38425","norming","","","{""aha"":0}","[0]","../img/tt/1269tt.jpg","",""
"null","<div style=""font-size:60px;""> </div>","null","fixation","html-keyboard-response","538","1885514","0.0-6.0-0.76","3401447","co38425","norming","","","","","","",""
"null","../img/tt/1055tt.jpg","null","mooney1","image-keyboard-response","539","1888521","0.0-6.0-1.76","3401447","co38425","norming","","","","","","",""
"8915.874999999767","","","post_mooney1_questions","survey-likert","540","1897440","0.0-6.0-2.76","3401447","co38425","norming","","","{""curiosity"":4,""confidence"":1}","[0,1]","../img/tt/1055tt.jpg","",""
"6565.800000000279","","","recognition","survey-text","541","1904008","0.0-6.0-3.76","3401447","co38425","norming","","","{""guess"":""sea pool""}","","../img/tt/1055tt.jpg","",""
"null","../img/gs/1055gs.jpg","null","reveal","image-keyboard-response","542","1906019","0.0-6.0-4.76","3401447","co38425","norming","","","","","","",""
"null","../img/tt/1055tt.jpg","null","mooney2","image-keyboard-response","543","1908021","0.0-6.0-5.76","3401447","co38425","norming","","","","","","",""
"3696.4600000001956","","","post_reveal_questions","survey-likert","544","1911720","0.0-6.0-6.76","3401447","co38425","norming","","","{""aha"":3}","[0]","../img/tt/1055tt.jpg","",""
"null","<div style=""font-size:60px;""> </div>","null","fixation","html-keyboard-response","545","1911921","0.0-6.0-0.77","3401447","co38425","norming","","","","","","",""
"null","../img/tt/270tt.jpg","null","mooney1","image-keyboard-response","546","1914930","0.0-6.0-1.77","3401447","co38425","norming","","","","","","",""
"4733.320000000065","","","post_mooney1_questions","survey-likert","547","1919664","0.0-6.0-2.77","3401447","co38425","norming","","","{""curiosity"":4,""confidence"":3}","[0,1]","../img/tt/270tt.jpg","",""
"2581.885000000475","","","recognition","survey-text","548","1922248","0.0-6.0-3.77","3401447","co38425","norming","","","{""guess"":""woods""}","","../img/tt/270tt.jpg","",""
"null","../img/gs/270gs.jpg","null","reveal","image-keyboard-response","549","1924251","0.0-6.0-4.77","3401447","co38425","norming","","","","","","",""
"null","../img/tt/270tt.jpg","null","mooney2","image-keyboard-response","550","1926256","0.0-6.0-5.77","3401447","co38425","norming","","","","","","",""
"2509.4499999997206","","","post_reveal_questions","survey-likert","551","1928768","0.0-6.0-6.77","3401447","co38425","norming","","","{""aha"":2}","[0]","../img/tt/270tt.jpg","",""
