"rt","stimulus","key_press","test_part","trial_type","trial_index","time_elapsed","internal_node_id","totalTime","subject","experiment_name","button_pressed","success","responses","question_order","currentStim","old","correct"
"24128.64499999998","Welcome to the experiment. This is an online experiment so please don't close the tab/window until we say goodbye.  Press any key to begin.","32","instructions","html-keyboard-response","0","24141","0.0-0.0","2699057","co38215","norming","","","","","","",""
"32230.06000000001","<div style='word-wrap: break-word; width: 900px'><h3>Please consider this information carefully before deciding whether to participate in this research</h3><ul style='text-align: left; font-size: .8em;'><li><b>Purpose of the research</b>: To examine how people process images.</li><li><b>What you will do in this research</b>:  Stimuli (images) will be presented on the computer and you will be asked different questions about them.</li><li><b>Time required</b>: Participation will take between 45 and 60 minutes to complete.</li><li><b>Risks</b>:  There are no anticipated risks associated with participating in this study. The effects of participating should be comparable to those you would experience from viewing a computer monitor for 30 minutes and using a mouse or keyboard.</li><li><b>Benefits</b>:  This study provides no benefits to you individually except for the credit. The study provides important information about the nature of perception and learning.</li><li><b>Confidentiality</b>:  Your participation in this study will remain confidential. No personally identifiable information will be associated with your data. Your de-identified data may be shared with other researchers and used in future projects.</li><li><b>Participation and withdrawal</b>:  Your participation in this study is completely voluntary and you may refuse to participate or you may choose to withdraw at any time without penalty.</li><li><b>How to contact the researchers</b>: If you have questions or concerns about your participation or payment, or want to request a summary of research findings, please contact Sander Van de Cruys (KU Leuven), at sander.vandecruys@kuleuven.be.</li></ul><p>The nature and purpose of this research have been sufficiently explained and I agree to participate in this study.  I understand that I am free to withdraw at any time without incurring any penalty.</p><p>Please consent by clicking the button below to continue. Otherwise, please exit the study at this time.</p></div>","","instructions","html-button-response","1","56373","0.0-1.0","2699057","co38215","norming","0","","","","","",""
"","","","instructions","fullscreen","2","62875","0.0-2.0","2699057","co38215","norming","","true","","","","",""
"51048.38500000002","","","sona","survey-html-form","3","113925","0.0-3.0","2699057","co38215","norming","","","[{""name"":""sonaid"",""value"":""38215""},{""name"":""debrief"",""value"":""yes""},{""name"":""datajoin"",""value"":""yes""}]","","","",""
"82554.58499999996","<div style='word-wrap: break-word; width: 900px'><h3>Instructions</h3><p>This experiment will have 3 parts. In the first part you will see a series of distorted images like the one below on the left. As you can see in the righthand image, the distorted images are derived from actual photographs. In what follows, you will <strong>briefly</strong> be presented with <strong>only</strong> the distorted image.</p> <div style='float: left; margin-right: 20px;'><img src='../img/018tt.jpg' height='250' width='250'></img></div><div style='float: right; margin-left: 20px;'><img src='../img/018gs.jpg' height='250' width='250'></img></div><p>Subsequently you will be asked a few questions about the image: One question on how <strong>curious</strong> you are about the solution and one on how <strong>confident</strong> you are that you know the solution.</p>Next, we ask you to make a guess on what is in the image. Note that it is OK to name just the <strong>basic level category</strong>. For example when you see a parrot in the image, 'parrot' will obviously be a correct answer but also correct is 'bird'. However, 'animal' will <strong>not</strong> be counted as a correct response. For the example above, 'rose' would be correct or 'flower', but not 'plant'. When soccer players are depicted, 'soccer', 'football', 'soccer players' will be correct, but not 'humans', 'outdoors', or 'sports'. You do not need to describe the image in full, just name the main object in it <strong>in one or two words</strong>. All images depict objects from one of the following broad level categories: animals, inanimate objects, plants, sports, vehicles, and food. Recognizing means knowing <strong>more</strong> than these broad labels for a given image. But we always encourage you to <strong>make a guess</strong> if you can. Note that you are allowed to use <strong>Dutch and English</strong> in your answers, whatever comes easiest for you.</p><p>Press any key to continue.</p></div>","32","instructions","html-keyboard-response","4","196481","0.0-4.0","2699057","co38215","norming","","","","","","",""
"15103.11499999999","<div style='word-wrap: break-word; width: 900px'><h3>Instructions</h3> <p>Next, the solution image will be revealed to you and you'll be asked to indicate how strong your <strong>aha-experience</strong> was after seeing the solution. This describes the positive feeling of the 'click' you sometimes experience, when the pieces of the 'puzzle' fall together and you suddenly have 'insight' in the image.</p><img src='aha.jpg' height='188' width='250'></img><p>Note that there are no right or wrong answers. We are interested in what <strong>you</strong> see in the image and how <strong>you</strong> feel about it.</p><p>Press any key to start the experiment.</p></div>","32","instructions","html-keyboard-response","5","211585","0.0-5.0","2699057","co38215","norming","","","","","","",""
"null","<div style=""font-size:60px;""> </div>","null","fixation","html-keyboard-response","6","211789","0.0-6.0-0.0","2699057","co38215","norming","","","","","","",""
"null","../img/tt/416tt.jpg","null","mooney1","image-keyboard-response","7","214794","0.0-6.0-1.0","2699057","co38215","norming","","","","","","",""
"10581.849999999948","","","post_mooney1_questions","survey-likert","8","225378","0.0-6.0-2.0","2699057","co38215","norming","","","{""curiosity"":3,""confidence"":2}","[0,1]","../img/tt/416tt.jpg","",""
"7509.39499999996","","","recognition","survey-text","9","232889","0.0-6.0-3.0","2699057","co38215","norming","","","{""guess"":""Trees""}","","../img/tt/416tt.jpg","",""
"null","../img/gs/416gs.jpg","null","reveal","image-keyboard-response","10","234896","0.0-6.0-4.0","2699057","co38215","norming","","","","","","",""
"null","../img/tt/416tt.jpg","null","mooney2","image-keyboard-response","11","236906","0.0-6.0-5.0","2699057","co38215","norming","","","","","","",""
"3092.4550000000163","","","post_reveal_questions","survey-likert","12","240001","0.0-6.0-6.0","2699057","co38215","norming","","","{""aha"":3}","[0]","../img/tt/416tt.jpg","",""
"null","<div style=""font-size:60px;""> </div>","null","fixation","html-keyboard-response","13","240207","0.0-6.0-0.1","2699057","co38215","norming","","","","","","",""
"null","../img/tt/1089tt.jpg","null","mooney1","image-keyboard-response","14","243215","0.0-6.0-1.1","2699057","co38215","norming","","","","","","",""
"3375.4749999999767","","","post_mooney1_questions","survey-likert","15","246593","0.0-6.0-2.1","2699057","co38215","norming","","","{""curiosity"":2,""confidence"":1}","[0,1]","../img/tt/1089tt.jpg","",""
"6990.0899999999965","","","recognition","survey-text","16","253585","0.0-6.0-3.1","2699057","co38215","norming","","","{""guess"":""Stro""}","","../img/tt/1089tt.jpg","",""
"null","../img/gs/1089gs.jpg","null","reveal","image-keyboard-response","17","255588","0.0-6.0-4.1","2699057","co38215","norming","","","","","","",""
"null","../img/tt/1089tt.jpg","null","mooney2","image-keyboard-response","18","257484","0.0-6.0-5.1","2699057","co38215","norming","","","","","","",""
"2260.0199999999895","","","post_reveal_questions","survey-likert","19","259746","0.0-6.0-6.1","2699057","co38215","norming","","","{""aha"":2}","[0]","../img/tt/1089tt.jpg","",""
"null","<div style=""font-size:60px;""> </div>","null","fixation","html-keyboard-response","20","259950","0.0-6.0-0.2","2699057","co38215","norming","","","","","","",""
"null","../img/tt/1027tt.jpg","null","mooney1","image-keyboard-response","21","262962","0.0-6.0-1.2","2699057","co38215","norming","","","","","","",""
"8439.860000000044","","","post_mooney1_questions","survey-likert","22","271402","0.0-6.0-2.2","2699057","co38215","norming","","","{""curiosity"":1,""confidence"":1}","[0,1]","../img/tt/1027tt.jpg","",""
"3086.0200000000186","","","recognition","survey-text","23","274490","0.0-6.0-3.2","2699057","co38215","norming","","","{""guess"":""koe""}","","../img/tt/1027tt.jpg","",""
"null","../img/gs/1027gs.jpg","null","reveal","image-keyboard-response","24","276492","0.0-6.0-4.2","2699057","co38215","norming","","","","","","",""
"null","../img/tt/1027tt.jpg","null","mooney2","image-keyboard-response","25","278497","0.0-6.0-5.2","2699057","co38215","norming","","","","","","",""
"2783.524999999965","","","post_reveal_questions","survey-likert","26","281282","0.0-6.0-6.2","2699057","co38215","norming","","","{""aha"":4}","[0]","../img/tt/1027tt.jpg","",""
"null","<div style=""font-size:60px;""> </div>","null","fixation","html-keyboard-response","27","281491","0.0-6.0-0.3","2699057","co38215","norming","","","","","","",""
"null","../img/tt/001tt.jpg","null","mooney1","image-keyboard-response","28","284497","0.0-6.0-1.3","2699057","co38215","norming","","","","","","",""
"3326.125","","","post_mooney1_questions","survey-likert","29","287826","0.0-6.0-2.3","2699057","co38215","norming","","","{""curiosity"":2,""confidence"":1}","[0,1]","../img/tt/001tt.jpg","",""
"6157.869999999995","","","recognition","survey-text","30","293986","0.0-6.0-3.3","2699057","co38215","norming","","","{""guess"":""hond""}","","../img/tt/001tt.jpg","",""
"null","../img/gs/001gs.jpg","null","reveal","image-keyboard-response","31","295994","0.0-6.0-4.3","2699057","co38215","norming","","","","","","",""
"null","../img/tt/001tt.jpg","null","mooney2","image-keyboard-response","32","298004","0.0-6.0-5.3","2699057","co38215","norming","","","","","","",""
"3101.6749999999884","","","post_reveal_questions","survey-likert","33","301106","0.0-6.0-6.3","2699057","co38215","norming","","","{""aha"":2}","[0]","../img/tt/001tt.jpg","",""
"null","<div style=""font-size:60px;""> </div>","null","fixation","html-keyboard-response","34","301317","0.0-6.0-0.4","2699057","co38215","norming","","","","","","",""
"null","../img/tt/1069tt.jpg","null","mooney1","image-keyboard-response","35","304322","0.0-6.0-1.4","2699057","co38215","norming","","","","","","",""
"3462.929999999993","","","post_mooney1_questions","survey-likert","36","307786","0.0-6.0-2.4","2699057","co38215","norming","","","{""curiosity"":2,""confidence"":1}","[0,1]","../img/tt/1069tt.jpg","",""
"3702.259999999951","","","recognition","survey-text","37","311490","0.0-6.0-3.4","2699057","co38215","norming","","","{""guess"":""geen idee""}","","../img/tt/1069tt.jpg","",""
"null","../img/gs/1069gs.jpg","null","reveal","image-keyboard-response","38","313497","0.0-6.0-4.4","2699057","co38215","norming","","","","","","",""
"null","../img/tt/1069tt.jpg","null","mooney2","image-keyboard-response","39","315511","0.0-6.0-5.4","2699057","co38215","norming","","","","","","",""
"1929.2799999999697","","","post_reveal_questions","survey-likert","40","317442","0.0-6.0-6.4","2699057","co38215","norming","","","{""aha"":0}","[0]","../img/tt/1069tt.jpg","",""
"null","<div style=""font-size:60px;""> </div>","null","fixation","html-keyboard-response","41","317538","0.0-6.0-0.5","2699057","co38215","norming","","","","","","",""
"null","../img/tt/353tt.jpg","null","mooney1","image-keyboard-response","42","320548","0.0-6.0-1.5","2699057","co38215","norming","","","","","","",""
"4299.684999999998","","","post_mooney1_questions","survey-likert","43","324850","0.0-6.0-2.5","2699057","co38215","norming","","","{""curiosity"":2,""confidence"":2}","[0,1]","../img/tt/353tt.jpg","",""
"5126.309999999998","","","recognition","survey-text","44","329978","0.0-6.0-3.5","2699057","co38215","norming","","","{""guess"":""vogelbekdier""}","","../img/tt/353tt.jpg","",""
"null","../img/gs/353gs.jpg","null","reveal","image-keyboard-response","45","331982","0.0-6.0-4.5","2699057","co38215","norming","","","","","","",""
"null","../img/tt/353tt.jpg","null","mooney2","image-keyboard-response","46","333991","0.0-6.0-5.5","2699057","co38215","norming","","","","","","",""
"2010.0299999999697","","","post_reveal_questions","survey-likert","47","336002","0.0-6.0-6.5","2699057","co38215","norming","","","{""aha"":4}","[0]","../img/tt/353tt.jpg","",""
"null","<div style=""font-size:60px;""> </div>","null","fixation","html-keyboard-response","48","336211","0.0-6.0-0.6","2699057","co38215","norming","","","","","","",""
"null","../img/tt/123tt.jpg","null","mooney1","image-keyboard-response","49","339214","0.0-6.0-1.6","2699057","co38215","norming","","","","","","",""
"4881.0650000000605","","","post_mooney1_questions","survey-likert","50","344098","0.0-6.0-2.6","2699057","co38215","norming","","","{""curiosity"":3,""confidence"":2}","[0,1]","../img/tt/123tt.jpg","",""
"3430.079999999958","","","recognition","survey-text","51","347530","0.0-6.0-3.6","2699057","co38215","norming","","","{""guess"":""boot""}","","../img/tt/123tt.jpg","",""
"null","../img/gs/123gs.jpg","null","reveal","image-keyboard-response","52","349533","0.0-6.0-4.6","2699057","co38215","norming","","","","","","",""
"null","../img/tt/123tt.jpg","null","mooney2","image-keyboard-response","53","351544","0.0-6.0-5.6","2699057","co38215","norming","","","","","","",""
"2711.539999999979","","","post_reveal_questions","survey-likert","54","354258","0.0-6.0-6.6","2699057","co38215","norming","","","{""aha"":2}","[0]","../img/tt/123tt.jpg","",""
"null","<div style=""font-size:60px;""> </div>","null","fixation","html-keyboard-response","55","354468","0.0-6.0-0.7","2699057","co38215","norming","","","","","","",""
"null","../img/tt/194tt.jpg","null","mooney1","image-keyboard-response","56","357473","0.0-6.0-1.7","2699057","co38215","norming","","","","","","",""
"4997.89499999996","","","post_mooney1_questions","survey-likert","57","362474","0.0-6.0-2.7","2699057","co38215","norming","","","{""curiosity"":4,""confidence"":4}","[0,1]","../img/tt/194tt.jpg","",""
"3510.0650000000023","","","recognition","survey-text","58","365985","0.0-6.0-3.7","2699057","co38215","norming","","","{""guess"":""vrouw""}","","../img/tt/194tt.jpg","",""
"null","../img/gs/194gs.jpg","null","reveal","image-keyboard-response","59","367991","0.0-6.0-4.7","2699057","co38215","norming","","","","","","",""
"null","../img/tt/194tt.jpg","null","mooney2","image-keyboard-response","60","369993","0.0-6.0-5.7","2699057","co38215","norming","","","","","","",""
"4542.184999999998","","","post_reveal_questions","survey-likert","61","374538","0.0-6.0-6.7","2699057","co38215","norming","","","{""aha"":2}","[0]","../img/tt/194tt.jpg","",""
"null","<div style=""font-size:60px;""> </div>","null","fixation","html-keyboard-response","62","374744","0.0-6.0-0.8","2699057","co38215","norming","","","","","","",""
"null","../img/tt/1159tt.jpg","null","mooney1","image-keyboard-response","63","377635","0.0-6.0-1.8","2699057","co38215","norming","","","","","","",""
"4283.505000000005","","","post_mooney1_questions","survey-likert","64","381921","0.0-6.0-2.8","2699057","co38215","norming","","","{""curiosity"":2,""confidence"":2}","[0,1]","../img/tt/1159tt.jpg","",""
"3054.3300000000745","","","recognition","survey-text","65","384977","0.0-6.0-3.8","2699057","co38215","norming","","","{""guess"":""brug""}","","../img/tt/1159tt.jpg","",""
"null","../img/gs/1159gs.jpg","null","reveal","image-keyboard-response","66","386987","0.0-6.0-4.8","2699057","co38215","norming","","","","","","",""
"null","../img/tt/1159tt.jpg","null","mooney2","image-keyboard-response","67","388993","0.0-6.0-5.8","2699057","co38215","norming","","","","","","",""
"5029.435000000056","","","post_reveal_questions","survey-likert","68","394025","0.0-6.0-6.8","2699057","co38215","norming","","","{""aha"":4}","[0]","../img/tt/1159tt.jpg","",""
"null","<div style=""font-size:60px;""> </div>","null","fixation","html-keyboard-response","69","394234","0.0-6.0-0.9","2699057","co38215","norming","","","","","","",""
"null","../img/tt/1142tt.jpg","null","mooney1","image-keyboard-response","70","397236","0.0-6.0-1.9","2699057","co38215","norming","","","","","","",""
"4890.659999999974","","","post_mooney1_questions","survey-likert","71","402129","0.0-6.0-2.9","2699057","co38215","norming","","","{""curiosity"":5,""confidence"":4}","[0,1]","../img/tt/1142tt.jpg","",""
"5253.869999999995","","","recognition","survey-text","72","407385","0.0-6.0-3.9","2699057","co38215","norming","","","{""guess"":""tennisspeler""}","","../img/tt/1142tt.jpg","",""
"null","../img/gs/1142gs.jpg","null","reveal","image-keyboard-response","73","409387","0.0-6.0-4.9","2699057","co38215","norming","","","","","","",""
"null","../img/tt/1142tt.jpg","null","mooney2","image-keyboard-response","74","411397","0.0-6.0-5.9","2699057","co38215","norming","","","","","","",""
"2577.914999999921","","","post_reveal_questions","survey-likert","75","413977","0.0-6.0-6.9","2699057","co38215","norming","","","{""aha"":4}","[0]","../img/tt/1142tt.jpg","",""
"null","<div style=""font-size:60px;""> </div>","null","fixation","html-keyboard-response","76","414188","0.0-6.0-0.10","2699057","co38215","norming","","","","","","",""
"null","../img/tt/1254tt.jpg","null","mooney1","image-keyboard-response","77","417196","0.0-6.0-1.10","2699057","co38215","norming","","","","","","",""
"4354.460000000021","","","post_mooney1_questions","survey-likert","78","421553","0.0-6.0-2.10","2699057","co38215","norming","","","{""curiosity"":2,""confidence"":0}","[0,1]","../img/tt/1254tt.jpg","",""
"5390.260000000009","","","recognition","survey-text","79","426945","0.0-6.0-3.10","2699057","co38215","norming","","","{""guess"":""geen idee""}","","../img/tt/1254tt.jpg","",""
"null","../img/gs/1254gs.jpg","null","reveal","image-keyboard-response","80","428949","0.0-6.0-4.10","2699057","co38215","norming","","","","","","",""
"null","../img/tt/1254tt.jpg","null","mooney2","image-keyboard-response","81","430959","0.0-6.0-5.10","2699057","co38215","norming","","","","","","",""
"2791.734999999928","","","post_reveal_questions","survey-likert","82","433753","0.0-6.0-6.10","2699057","co38215","norming","","","{""aha"":0}","[0]","../img/tt/1254tt.jpg","",""
"null","<div style=""font-size:60px;""> </div>","null","fixation","html-keyboard-response","83","433957","0.0-6.0-0.11","2699057","co38215","norming","","","","","","",""
"null","../img/tt/1080tt.jpg","null","mooney1","image-keyboard-response","84","436961","0.0-6.0-1.11","2699057","co38215","norming","","","","","","",""
"4157.205000000016","","","post_mooney1_questions","survey-likert","85","441004","0.0-6.0-2.11","2699057","co38215","norming","","","{""curiosity"":2,""confidence"":1}","[0,1]","../img/tt/1080tt.jpg","",""
"2774.2099999999045","","","recognition","survey-text","86","443780","0.0-6.0-3.11","2699057","co38215","norming","","","{""guess"":""brug""}","","../img/tt/1080tt.jpg","",""
"null","../img/gs/1080gs.jpg","null","reveal","image-keyboard-response","87","445788","0.0-6.0-4.11","2699057","co38215","norming","","","","","","",""
"null","../img/tt/1080tt.jpg","null","mooney2","image-keyboard-response","88","447793","0.0-6.0-5.11","2699057","co38215","norming","","","","","","",""
"2001.9250000000466","","","post_reveal_questions","survey-likert","89","449796","0.0-6.0-6.11","2699057","co38215","norming","","","{""aha"":4}","[0]","../img/tt/1080tt.jpg","",""
"null","<div style=""font-size:60px;""> </div>","null","fixation","html-keyboard-response","90","450003","0.0-6.0-0.12","2699057","co38215","norming","","","","","","",""
"null","../img/tt/1362tt.jpg","null","mooney1","image-keyboard-response","91","453012","0.0-6.0-1.12","2699057","co38215","norming","","","","","","",""
"3014.5049999999464","","","post_mooney1_questions","survey-likert","92","456028","0.0-6.0-2.12","2699057","co38215","norming","","","{""curiosity"":2,""confidence"":1}","[0,1]","../img/tt/1362tt.jpg","",""
"4205.994999999995","","","recognition","survey-text","93","460236","0.0-6.0-3.12","2699057","co38215","norming","","","{""guess"":""glazen""}","","../img/tt/1362tt.jpg","",""
"null","../img/gs/1362gs.jpg","null","reveal","image-keyboard-response","94","462246","0.0-6.0-4.12","2699057","co38215","norming","","","","","","",""
"null","../img/tt/1362tt.jpg","null","mooney2","image-keyboard-response","95","464248","0.0-6.0-5.12","2699057","co38215","norming","","","","","","",""
"2442.2849999999744","","","post_reveal_questions","survey-likert","96","466692","0.0-6.0-6.12","2699057","co38215","norming","","","{""aha"":4}","[0]","../img/tt/1362tt.jpg","",""
"null","<div style=""font-size:60px;""> </div>","null","fixation","html-keyboard-response","97","466896","0.0-6.0-0.13","2699057","co38215","norming","","","","","","",""
"null","../img/tt/1091tt.jpg","null","mooney1","image-keyboard-response","98","469899","0.0-6.0-1.13","2699057","co38215","norming","","","","","","",""
"4328.015000000072","","","post_mooney1_questions","survey-likert","99","474228","0.0-6.0-2.13","2699057","co38215","norming","","","{""curiosity"":3,""confidence"":1}","[0,1]","../img/tt/1091tt.jpg","",""
"4766.129999999946","","","recognition","survey-text","100","478996","0.0-6.0-3.13","2699057","co38215","norming","","","{""guess"":""paard""}","","../img/tt/1091tt.jpg","",""
"null","../img/gs/1091gs.jpg","null","reveal","image-keyboard-response","101","481006","0.0-6.0-4.13","2699057","co38215","norming","","","","","","",""
"null","../img/tt/1091tt.jpg","null","mooney2","image-keyboard-response","102","483009","0.0-6.0-5.13","2699057","co38215","norming","","","","","","",""
"3033.2350000001024","","","post_reveal_questions","survey-likert","103","486044","0.0-6.0-6.13","2699057","co38215","norming","","","{""aha"":4}","[0]","../img/tt/1091tt.jpg","",""
"null","<div style=""font-size:60px;""> </div>","null","fixation","html-keyboard-response","104","486248","0.0-6.0-0.14","2699057","co38215","norming","","","","","","",""
"null","../img/tt/049tt.jpg","null","mooney1","image-keyboard-response","105","489261","0.0-6.0-1.14","2699057","co38215","norming","","","","","","",""
"2756.410000000091","","","post_mooney1_questions","survey-likert","106","492020","0.0-6.0-2.14","2699057","co38215","norming","","","{""curiosity"":1,""confidence"":1}","[0,1]","../img/tt/049tt.jpg","",""
"3894.100000000093","","","recognition","survey-text","107","495916","0.0-6.0-3.14","2699057","co38215","norming","","","{""guess"":""everzwijn""}","","../img/tt/049tt.jpg","",""
"null","../img/gs/049gs.jpg","null","reveal","image-keyboard-response","108","497920","0.0-6.0-4.14","2699057","co38215","norming","","","","","","",""
"null","../img/tt/049tt.jpg","null","mooney2","image-keyboard-response","109","499824","0.0-6.0-5.14","2699057","co38215","norming","","","","","","",""
"2239.5599999999977","","","post_reveal_questions","survey-likert","110","502066","0.0-6.0-6.14","2699057","co38215","norming","","","{""aha"":3}","[0]","../img/tt/049tt.jpg","",""
"null","<div style=""font-size:60px;""> </div>","null","fixation","html-keyboard-response","111","502269","0.0-6.0-0.15","2699057","co38215","norming","","","","","","",""
"null","../img/tt/584tt.jpg","null","mooney1","image-keyboard-response","112","505279","0.0-6.0-1.15","2699057","co38215","norming","","","","","","",""
"6210.7399999999325","","","post_mooney1_questions","survey-likert","113","511490","0.0-6.0-2.15","2699057","co38215","norming","","","{""curiosity"":5,""confidence"":1}","[0,1]","../img/tt/584tt.jpg","",""
"6989.809999999823","","","recognition","survey-text","114","518482","0.0-6.0-3.15","2699057","co38215","norming","","","{""guess"":""scharen met handen""}","","../img/tt/584tt.jpg","",""
"null","../img/gs/584gs.jpg","null","reveal","image-keyboard-response","115","520483","0.0-6.0-4.15","2699057","co38215","norming","","","","","","",""
"null","../img/tt/584tt.jpg","null","mooney2","image-keyboard-response","116","522492","0.0-6.0-5.15","2699057","co38215","norming","","","","","","",""
"3283.4649999999674","","","post_reveal_questions","survey-likert","117","525778","0.0-6.0-6.15","2699057","co38215","norming","","","{""aha"":4}","[0]","../img/tt/584tt.jpg","",""
"null","<div style=""font-size:60px;""> </div>","null","fixation","html-keyboard-response","118","525981","0.0-6.0-0.16","2699057","co38215","norming","","","","","","",""
"null","../img/tt/559tt.jpg","null","mooney1","image-keyboard-response","119","528991","0.0-6.0-1.16","2699057","co38215","norming","","","","","","",""
"4247.339999999851","","","post_mooney1_questions","survey-likert","120","533242","0.0-6.0-2.16","2699057","co38215","norming","","","{""curiosity"":2,""confidence"":1}","[0,1]","../img/tt/559tt.jpg","",""
"3406.559999999823","","","recognition","survey-text","121","536650","0.0-6.0-3.16","2699057","co38215","norming","","","{""guess"":""toilet""}","","../img/tt/559tt.jpg","",""
"null","../img/gs/559gs.jpg","null","reveal","image-keyboard-response","122","538652","0.0-6.0-4.16","2699057","co38215","norming","","","","","","",""
"null","../img/tt/559tt.jpg","null","mooney2","image-keyboard-response","123","540658","0.0-6.0-5.16","2699057","co38215","norming","","","","","","",""
"3468.7900000001537","","","post_reveal_questions","survey-likert","124","544130","0.0-6.0-6.16","2699057","co38215","norming","","","{""aha"":2}","[0]","../img/tt/559tt.jpg","",""
"null","<div style=""font-size:60px;""> </div>","null","fixation","html-keyboard-response","125","544340","0.0-6.0-0.17","2699057","co38215","norming","","","","","","",""
"null","../img/tt/053tt.jpg","null","mooney1","image-keyboard-response","126","547348","0.0-6.0-1.17","2699057","co38215","norming","","","","","","",""
"4507.739999999991","","","post_mooney1_questions","survey-likert","127","551858","0.0-6.0-2.17","2699057","co38215","norming","","","{""curiosity"":4,""confidence"":1}","[0,1]","../img/tt/053tt.jpg","",""
"4510.180000000051","","","recognition","survey-text","128","556370","0.0-6.0-3.17","2699057","co38215","norming","","","{""guess"":""waterval""}","","../img/tt/053tt.jpg","",""
"null","../img/gs/053gs.jpg","null","reveal","image-keyboard-response","129","558378","0.0-6.0-4.17","2699057","co38215","norming","","","","","","",""
"null","../img/tt/053tt.jpg","null","mooney2","image-keyboard-response","130","560381","0.0-6.0-5.17","2699057","co38215","norming","","","","","","",""
"2067.590000000084","","","post_reveal_questions","survey-likert","131","562451","0.0-6.0-6.17","2699057","co38215","norming","","","{""aha"":5}","[0]","../img/tt/053tt.jpg","",""
"null","<div style=""font-size:60px;""> </div>","null","fixation","html-keyboard-response","132","562652","0.0-6.0-0.18","2699057","co38215","norming","","","","","","",""
"null","../img/tt/1102tt.jpg","null","mooney1","image-keyboard-response","133","565660","0.0-6.0-1.18","2699057","co38215","norming","","","","","","",""
"6139.649999999907","","","post_mooney1_questions","survey-likert","134","571803","0.0-6.0-2.18","2699057","co38215","norming","","","{""curiosity"":4,""confidence"":6}","[0,1]","../img/tt/1102tt.jpg","",""
"5190.079999999842","","","recognition","survey-text","135","576995","0.0-6.0-3.18","2699057","co38215","norming","","","{""guess"":""strand""}","","../img/tt/1102tt.jpg","",""
"null","../img/gs/1102gs.jpg","null","reveal","image-keyboard-response","136","578998","0.0-6.0-4.18","2699057","co38215","norming","","","","","","",""
"null","../img/tt/1102tt.jpg","null","mooney2","image-keyboard-response","137","581000","0.0-6.0-5.18","2699057","co38215","norming","","","","","","",""
"3280.304999999935","","","post_reveal_questions","survey-likert","138","584283","0.0-6.0-6.18","2699057","co38215","norming","","","{""aha"":5}","[0]","../img/tt/1102tt.jpg","",""
"null","<div style=""font-size:60px;""> </div>","null","fixation","html-keyboard-response","139","584490","0.0-6.0-0.19","2699057","co38215","norming","","","","","","",""
"null","../img/tt/524tt.jpg","null","mooney1","image-keyboard-response","140","587500","0.0-6.0-1.19","2699057","co38215","norming","","","","","","",""
"4860.060000000056","","","post_mooney1_questions","survey-likert","141","592363","0.0-6.0-2.19","2699057","co38215","norming","","","{""curiosity"":1,""confidence"":1}","[0,1]","../img/tt/524tt.jpg","",""
"3062.140000000014","","","recognition","survey-text","142","595427","0.0-6.0-3.19","2699057","co38215","norming","","","{""guess"":""olifant""}","","../img/tt/524tt.jpg","",""
"null","../img/gs/524gs.jpg","null","reveal","image-keyboard-response","143","597436","0.0-6.0-4.19","2699057","co38215","norming","","","","","","",""
"null","../img/tt/524tt.jpg","null","mooney2","image-keyboard-response","144","599438","0.0-6.0-5.19","2699057","co38215","norming","","","","","","",""
"2426.8499999998603","","","post_reveal_questions","survey-likert","145","601867","0.0-6.0-6.19","2699057","co38215","norming","","","{""aha"":3}","[0]","../img/tt/524tt.jpg","",""
"null","<div style=""font-size:60px;""> </div>","null","fixation","html-keyboard-response","146","602073","0.0-6.0-0.20","2699057","co38215","norming","","","","","","",""
"null","../img/tt/1116tt.jpg","null","mooney1","image-keyboard-response","147","605077","0.0-6.0-1.20","2699057","co38215","norming","","","","","","",""
"3491.119999999879","","","post_mooney1_questions","survey-likert","148","608571","0.0-6.0-2.20","2699057","co38215","norming","","","{""curiosity"":1,""confidence"":0}","[0,1]","../img/tt/1116tt.jpg","",""
"6902.180000000051","","","recognition","survey-text","149","615475","0.0-6.0-3.20","2699057","co38215","norming","","","{""guess"":""zeilboten""}","","../img/tt/1116tt.jpg","",""
"null","../img/gs/1116gs.jpg","null","reveal","image-keyboard-response","150","617481","0.0-6.0-4.20","2699057","co38215","norming","","","","","","",""
"null","../img/tt/1116tt.jpg","null","mooney2","image-keyboard-response","151","619482","0.0-6.0-5.20","2699057","co38215","norming","","","","","","",""
"2639.6549999999115","","","post_reveal_questions","survey-likert","152","622117","0.0-6.0-6.20","2699057","co38215","norming","","","{""aha"":4}","[0]","../img/tt/1116tt.jpg","",""
"null","<div style=""font-size:60px;""> </div>","null","fixation","html-keyboard-response","153","622325","0.0-6.0-0.21","2699057","co38215","norming","","","","","","",""
"null","../img/tt/105tt.jpg","null","mooney1","image-keyboard-response","154","625329","0.0-6.0-1.21","2699057","co38215","norming","","","","","","",""
"4193.8150000000605","","","post_mooney1_questions","survey-likert","155","629525","0.0-6.0-2.21","2699057","co38215","norming","","","{""curiosity"":0,""confidence"":0}","[0,1]","../img/tt/105tt.jpg","",""
"3069.5200000000186","","","recognition","survey-text","156","632596","0.0-6.0-3.21","2699057","co38215","norming","","","{""guess"":""geen idee""}","","../img/tt/105tt.jpg","",""
"null","../img/gs/105gs.jpg","null","reveal","image-keyboard-response","157","634607","0.0-6.0-4.21","2699057","co38215","norming","","","","","","",""
"null","../img/tt/105tt.jpg","null","mooney2","image-keyboard-response","158","636617","0.0-6.0-5.21","2699057","co38215","norming","","","","","","",""
"2601.630000000121","","","post_reveal_questions","survey-likert","159","639221","0.0-6.0-6.21","2699057","co38215","norming","","","{""aha"":4}","[0]","../img/tt/105tt.jpg","",""
"null","<div style=""font-size:60px;""> </div>","null","fixation","html-keyboard-response","160","639431","0.0-6.0-0.22","2699057","co38215","norming","","","","","","",""
"null","../img/tt/044tt.jpg","null","mooney1","image-keyboard-response","161","642438","0.0-6.0-1.22","2699057","co38215","norming","","","","","","",""
"3404.569999999949","","","post_mooney1_questions","survey-likert","162","645845","0.0-6.0-2.22","2699057","co38215","norming","","","{""curiosity"":3,""confidence"":2}","[0,1]","../img/tt/044tt.jpg","",""
"3406.335000000079","","","recognition","survey-text","163","649253","0.0-6.0-3.22","2699057","co38215","norming","","","{""guess"":""computer""}","","../img/tt/044tt.jpg","",""
"null","../img/gs/044gs.jpg","null","reveal","image-keyboard-response","164","651258","0.0-6.0-4.22","2699057","co38215","norming","","","","","","",""
"null","../img/tt/044tt.jpg","null","mooney2","image-keyboard-response","165","653263","0.0-6.0-5.22","2699057","co38215","norming","","","","","","",""
"1707.280000000028","","","post_reveal_questions","survey-likert","166","654973","0.0-6.0-6.22","2699057","co38215","norming","","","{""aha"":4}","[0]","../img/tt/044tt.jpg","",""
"null","<div style=""font-size:60px;""> </div>","null","fixation","html-keyboard-response","167","655181","0.0-6.0-0.23","2699057","co38215","norming","","","","","","",""
"null","../img/tt/1173tt.jpg","null","mooney1","image-keyboard-response","168","658188","0.0-6.0-1.23","2699057","co38215","norming","","","","","","",""
"3526.134999999893","","","post_mooney1_questions","survey-likert","169","661717","0.0-6.0-2.23","2699057","co38215","norming","","","{""curiosity"":4,""confidence"":5}","[0,1]","../img/tt/1173tt.jpg","",""
"3774.6650000001537","","","recognition","survey-text","170","665493","0.0-6.0-3.23","2699057","co38215","norming","","","{""guess"":""voetballers""}","","../img/tt/1173tt.jpg","",""
"null","../img/gs/1173gs.jpg","null","reveal","image-keyboard-response","171","667497","0.0-6.0-4.23","2699057","co38215","norming","","","","","","",""
"null","../img/tt/1173tt.jpg","null","mooney2","image-keyboard-response","172","669499","0.0-6.0-5.23","2699057","co38215","norming","","","","","","",""
"2095.475000000093","","","post_reveal_questions","survey-likert","173","671597","0.0-6.0-6.23","2699057","co38215","norming","","","{""aha"":4}","[0]","../img/tt/1173tt.jpg","",""
"null","<div style=""font-size:60px;""> </div>","null","fixation","html-keyboard-response","174","671804","0.0-6.0-0.24","2699057","co38215","norming","","","","","","",""
"null","../img/tt/1063tt.jpg","null","mooney1","image-keyboard-response","175","674813","0.0-6.0-1.24","2699057","co38215","norming","","","","","","",""
"4165.204999999842","","","post_mooney1_questions","survey-likert","176","678981","0.0-6.0-2.24","2699057","co38215","norming","","","{""curiosity"":1,""confidence"":0}","[0,1]","../img/tt/1063tt.jpg","",""
"2470.0200000000186","","","recognition","survey-text","177","681454","0.0-6.0-3.24","2699057","co38215","norming","","","{""guess"":""paard""}","","../img/tt/1063tt.jpg","",""
"null","../img/gs/1063gs.jpg","null","reveal","image-keyboard-response","178","683460","0.0-6.0-4.24","2699057","co38215","norming","","","","","","",""
"null","../img/tt/1063tt.jpg","null","mooney2","image-keyboard-response","179","685465","0.0-6.0-5.24","2699057","co38215","norming","","","","","","",""
"3618.6600000000326","","","post_reveal_questions","survey-likert","180","689086","0.0-6.0-6.24","2699057","co38215","norming","","","{""aha"":5}","[0]","../img/tt/1063tt.jpg","",""
"null","<div style=""font-size:60px;""> </div>","null","fixation","html-keyboard-response","181","689289","0.0-6.0-0.25","2699057","co38215","norming","","","","","","",""
"null","../img/tt/1048tt.jpg","null","mooney1","image-keyboard-response","182","692298","0.0-6.0-1.25","2699057","co38215","norming","","","","","","",""
"4585.679999999935","","","post_mooney1_questions","survey-likert","183","696886","0.0-6.0-2.25","2699057","co38215","norming","","","{""curiosity"":5,""confidence"":3}","[0,1]","../img/tt/1048tt.jpg","",""
"2533.95000000007","","","recognition","survey-text","184","699422","0.0-6.0-3.25","2699057","co38215","norming","","","{""guess"":""draak""}","","../img/tt/1048tt.jpg","",""
"null","../img/gs/1048gs.jpg","null","reveal","image-keyboard-response","185","701431","0.0-6.0-4.25","2699057","co38215","norming","","","","","","",""
"null","../img/tt/1048tt.jpg","null","mooney2","image-keyboard-response","186","703433","0.0-6.0-5.25","2699057","co38215","norming","","","","","","",""
"4666.035000000265","","","post_reveal_questions","survey-likert","187","708102","0.0-6.0-6.25","2699057","co38215","norming","","","{""aha"":6}","[0]","../img/tt/1048tt.jpg","",""
"null","<div style=""font-size:60px;""> </div>","null","fixation","html-keyboard-response","188","708308","0.0-6.0-0.26","2699057","co38215","norming","","","","","","",""
"null","../img/tt/1217tt.jpg","null","mooney1","image-keyboard-response","189","711316","0.0-6.0-1.26","2699057","co38215","norming","","","","","","",""
"3519.024999999907","","","post_mooney1_questions","survey-likert","190","714838","0.0-6.0-2.26","2699057","co38215","norming","","","{""curiosity"":1,""confidence"":0}","[0,1]","../img/tt/1217tt.jpg","",""
"1966.1650000000373","","","recognition","survey-text","191","716806","0.0-6.0-3.26","2699057","co38215","norming","","","{""guess"":""bos""}","","../img/tt/1217tt.jpg","",""
"null","../img/gs/1217gs.jpg","null","reveal","image-keyboard-response","192","718810","0.0-6.0-4.26","2699057","co38215","norming","","","","","","",""
"null","../img/tt/1217tt.jpg","null","mooney2","image-keyboard-response","193","720817","0.0-6.0-5.26","2699057","co38215","norming","","","","","","",""
"2514.214999999851","","","post_reveal_questions","survey-likert","194","723334","0.0-6.0-6.26","2699057","co38215","norming","","","{""aha"":5}","[0]","../img/tt/1217tt.jpg","",""
"null","<div style=""font-size:60px;""> </div>","null","fixation","html-keyboard-response","195","723539","0.0-6.0-0.27","2699057","co38215","norming","","","","","","",""
"null","../img/tt/1078tt.jpg","null","mooney1","image-keyboard-response","196","726542","0.0-6.0-1.27","2699057","co38215","norming","","","","","","",""
"3093.2900000000373","","","post_mooney1_questions","survey-likert","197","729638","0.0-6.0-2.27","2699057","co38215","norming","","","{""curiosity"":1,""confidence"":1}","[0,1]","../img/tt/1078tt.jpg","",""
"3590.0050000000047","","","recognition","survey-text","198","733230","0.0-6.0-3.27","2699057","co38215","norming","","","{""guess"":""vrouw""}","","../img/tt/1078tt.jpg","",""
"null","../img/gs/1078gs.jpg","null","reveal","image-keyboard-response","199","735240","0.0-6.0-4.27","2699057","co38215","norming","","","","","","",""
"null","../img/tt/1078tt.jpg","null","mooney2","image-keyboard-response","200","737248","0.0-6.0-5.27","2699057","co38215","norming","","","","","","",""
"2275.409999999916","","","post_reveal_questions","survey-likert","201","739526","0.0-6.0-6.27","2699057","co38215","norming","","","{""aha"":2}","[0]","../img/tt/1078tt.jpg","",""
"null","<div style=""font-size:60px;""> </div>","null","fixation","html-keyboard-response","202","739731","0.0-6.0-0.28","2699057","co38215","norming","","","","","","",""
"null","../img/tt/507tt.jpg","null","mooney1","image-keyboard-response","203","742744","0.0-6.0-1.28","2699057","co38215","norming","","","","","","",""
"4127.275000000023","","","post_mooney1_questions","survey-likert","204","746875","0.0-6.0-2.28","2699057","co38215","norming","","","{""curiosity"":1,""confidence"":1}","[0,1]","../img/tt/507tt.jpg","",""
"3118.0250000000233","","","recognition","survey-text","205","749994","0.0-6.0-3.28","2699057","co38215","norming","","","{""guess"":""vrouw""}","","../img/tt/507tt.jpg","",""
"null","../img/gs/507gs.jpg","null","reveal","image-keyboard-response","206","751998","0.0-6.0-4.28","2699057","co38215","norming","","","","","","",""
"null","../img/tt/507tt.jpg","null","mooney2","image-keyboard-response","207","754009","0.0-6.0-5.28","2699057","co38215","norming","","","","","","",""
"4695.195000000065","","","post_reveal_questions","survey-likert","208","758706","0.0-6.0-6.28","2699057","co38215","norming","","","{""aha"":2}","[0]","../img/tt/507tt.jpg","",""
"null","<div style=""font-size:60px;""> </div>","null","fixation","html-keyboard-response","209","758912","0.0-6.0-0.29","2699057","co38215","norming","","","","","","",""
"null","../img/tt/270tt.jpg","null","mooney1","image-keyboard-response","210","761914","0.0-6.0-1.29","2699057","co38215","norming","","","","","","",""
"4077.0449999999255","","","post_mooney1_questions","survey-likert","211","765994","0.0-6.0-2.29","2699057","co38215","norming","","","{""curiosity"":1,""confidence"":2}","[0,1]","../img/tt/270tt.jpg","",""
"2366.374999999767","","","recognition","survey-text","212","768362","0.0-6.0-3.29","2699057","co38215","norming","","","{""guess"":""bos""}","","../img/tt/270tt.jpg","",""
"null","../img/gs/270gs.jpg","null","reveal","image-keyboard-response","213","770364","0.0-6.0-4.29","2699057","co38215","norming","","","","","","",""
"null","../img/tt/270tt.jpg","null","mooney2","image-keyboard-response","214","772368","0.0-6.0-5.29","2699057","co38215","norming","","","","","","",""
"1584.2699999997858","","","post_reveal_questions","survey-likert","215","773954","0.0-6.0-6.29","2699057","co38215","norming","","","{""aha"":4}","[0]","../img/tt/270tt.jpg","",""
"null","<div style=""font-size:60px;""> </div>","null","fixation","html-keyboard-response","216","774163","0.0-6.0-0.30","2699057","co38215","norming","","","","","","",""
"null","../img/tt/1226tt.jpg","null","mooney1","image-keyboard-response","217","777168","0.0-6.0-1.30","2699057","co38215","norming","","","","","","",""
"4327.699999999953","","","post_mooney1_questions","survey-likert","218","781499","0.0-6.0-2.30","2699057","co38215","norming","","","{""curiosity"":1,""confidence"":1}","[0,1]","../img/tt/1226tt.jpg","",""
"2982.079999999958","","","recognition","survey-text","219","784482","0.0-6.0-3.30","2699057","co38215","norming","","","{""guess"":""vuur""}","","../img/tt/1226tt.jpg","",""
"null","../img/gs/1226gs.jpg","null","reveal","image-keyboard-response","220","786487","0.0-6.0-4.30","2699057","co38215","norming","","","","","","",""
"null","../img/tt/1226tt.jpg","null","mooney2","image-keyboard-response","221","788498","0.0-6.0-5.30","2699057","co38215","norming","","","","","","",""
"2965.590000000084","","","post_reveal_questions","survey-likert","222","791466","0.0-6.0-6.30","2699057","co38215","norming","","","{""aha"":3}","[0]","../img/tt/1226tt.jpg","",""
"null","<div style=""font-size:60px;""> </div>","null","fixation","html-keyboard-response","223","791671","0.0-6.0-0.31","2699057","co38215","norming","","","","","","",""
"null","../img/tt/1276tt.jpg","null","mooney1","image-keyboard-response","224","794676","0.0-6.0-1.31","2699057","co38215","norming","","","","","","",""
"3371.3349999999627","","","post_mooney1_questions","survey-likert","225","798050","0.0-6.0-2.31","2699057","co38215","norming","","","{""curiosity"":0,""confidence"":0}","[0,1]","../img/tt/1276tt.jpg","",""
"2782.140000000014","","","recognition","survey-text","226","800834","0.0-6.0-3.31","2699057","co38215","norming","","","{""guess"":""geen idee""}","","../img/tt/1276tt.jpg","",""
"null","../img/gs/1276gs.jpg","null","reveal","image-keyboard-response","227","802845","0.0-6.0-4.31","2699057","co38215","norming","","","","","","",""
"null","../img/tt/1276tt.jpg","null","mooney2","image-keyboard-response","228","804849","0.0-6.0-5.31","2699057","co38215","norming","","","","","","",""
"3671.3800000000047","","","post_reveal_questions","survey-likert","229","808522","0.0-6.0-6.31","2699057","co38215","norming","","","{""aha"":3}","[0]","../img/tt/1276tt.jpg","",""
"null","<div style=""font-size:60px;""> </div>","null","fixation","html-keyboard-response","230","808729","0.0-6.0-0.32","2699057","co38215","norming","","","","","","",""
"null","../img/tt/418tt.jpg","null","mooney1","image-keyboard-response","231","811739","0.0-6.0-1.32","2699057","co38215","norming","","","","","","",""
"2990.625","","","post_mooney1_questions","survey-likert","232","814730","0.0-6.0-2.32","2699057","co38215","norming","","","{""curiosity"":1,""confidence"":1}","[0,1]","../img/tt/418tt.jpg","",""
"3174.195000000065","","","recognition","survey-text","233","817906","0.0-6.0-3.32","2699057","co38215","norming","","","{""guess"":""pompoen""}","","../img/tt/418tt.jpg","",""
"null","../img/gs/418gs.jpg","null","reveal","image-keyboard-response","234","819908","0.0-6.0-4.32","2699057","co38215","norming","","","","","","",""
"null","../img/tt/418tt.jpg","null","mooney2","image-keyboard-response","235","821919","0.0-6.0-5.32","2699057","co38215","norming","","","","","","",""
"1880.859999999986","","","post_reveal_questions","survey-likert","236","823802","0.0-6.0-6.32","2699057","co38215","norming","","","{""aha"":4}","[0]","../img/tt/418tt.jpg","",""
"null","<div style=""font-size:60px;""> </div>","null","fixation","html-keyboard-response","237","824009","0.0-6.0-0.33","2699057","co38215","norming","","","","","","",""
"null","../img/tt/076tt.jpg","null","mooney1","image-keyboard-response","238","827011","0.0-6.0-1.33","2699057","co38215","norming","","","","","","",""
"4612.209999999963","","","post_mooney1_questions","survey-likert","239","831627","0.0-6.0-2.33","2699057","co38215","norming","","","{""curiosity"":4,""confidence"":6}","[0,1]","../img/tt/076tt.jpg","",""
"3965.8600000001024","","","recognition","survey-text","240","835594","0.0-6.0-3.33","2699057","co38215","norming","","","{""guess"":""rolschaats""}","","../img/tt/076tt.jpg","",""
"null","../img/gs/076gs.jpg","null","reveal","image-keyboard-response","241","837603","0.0-6.0-4.33","2699057","co38215","norming","","","","","","",""
"null","../img/tt/076tt.jpg","null","mooney2","image-keyboard-response","242","839608","0.0-6.0-5.33","2699057","co38215","norming","","","","","","",""
"2391.914999999921","","","post_reveal_questions","survey-likert","243","842002","0.0-6.0-6.33","2699057","co38215","norming","","","{""aha"":2}","[0]","../img/tt/076tt.jpg","",""
"null","<div style=""font-size:60px;""> </div>","null","fixation","html-keyboard-response","244","842204","0.0-6.0-0.34","2699057","co38215","norming","","","","","","",""
"null","../img/tt/052tt.jpg","null","mooney1","image-keyboard-response","245","845216","0.0-6.0-1.34","2699057","co38215","norming","","","","","","",""
"4847.1049999997485","","","post_mooney1_questions","survey-likert","246","850066","0.0-6.0-2.34","2699057","co38215","norming","","","{""curiosity"":1,""confidence"":2}","[0,1]","../img/tt/052tt.jpg","",""
"2061.930000000051","","","recognition","survey-text","247","852130","0.0-6.0-3.34","2699057","co38215","norming","","","{""guess"":""ring""}","","../img/tt/052tt.jpg","",""
"null","../img/gs/052gs.jpg","null","reveal","image-keyboard-response","248","854139","0.0-6.0-4.34","2699057","co38215","norming","","","","","","",""
"null","../img/tt/052tt.jpg","null","mooney2","image-keyboard-response","249","856148","0.0-6.0-5.34","2699057","co38215","norming","","","","","","",""
"3197.570000000065","","","post_reveal_questions","survey-likert","250","859346","0.0-6.0-6.34","2699057","co38215","norming","","","{""aha"":1}","[0]","../img/tt/052tt.jpg","",""
"null","<div style=""font-size:60px;""> </div>","null","fixation","html-keyboard-response","251","859554","0.0-6.0-0.35","2699057","co38215","norming","","","","","","",""
"null","../img/tt/515tt.jpg","null","mooney1","image-keyboard-response","252","862560","0.0-6.0-1.35","2699057","co38215","norming","","","","","","",""
"4247.47499999986","","","post_mooney1_questions","survey-likert","253","866809","0.0-6.0-2.35","2699057","co38215","norming","","","{""curiosity"":1,""confidence"":1}","[0,1]","../img/tt/515tt.jpg","",""
"2462.1350000000093","","","recognition","survey-text","254","869272","0.0-6.0-3.35","2699057","co38215","norming","","","{""guess"":""vuur""}","","../img/tt/515tt.jpg","",""
"null","../img/gs/515gs.jpg","null","reveal","image-keyboard-response","255","871281","0.0-6.0-4.35","2699057","co38215","norming","","","","","","",""
"null","../img/tt/515tt.jpg","null","mooney2","image-keyboard-response","256","873291","0.0-6.0-5.35","2699057","co38215","norming","","","","","","",""
"2226.734999999986","","","post_reveal_questions","survey-likert","257","875520","0.0-6.0-6.35","2699057","co38215","norming","","","{""aha"":4}","[0]","../img/tt/515tt.jpg","",""
"null","<div style=""font-size:60px;""> </div>","null","fixation","html-keyboard-response","258","875723","0.0-6.0-0.36","2699057","co38215","norming","","","","","","",""
"null","../img/tt/549tt.jpg","null","mooney1","image-keyboard-response","259","878724","0.0-6.0-1.36","2699057","co38215","norming","","","","","","",""
"5033.35000000021","","","post_mooney1_questions","survey-likert","260","883760","0.0-6.0-2.36","2699057","co38215","norming","","","{""curiosity"":0,""confidence"":0}","[0,1]","../img/tt/549tt.jpg","",""
"3294.284999999916","","","recognition","survey-text","261","887056","0.0-6.0-3.36","2699057","co38215","norming","","","{""guess"":""geen idee""}","","../img/tt/549tt.jpg","",""
"null","../img/gs/549gs.jpg","null","reveal","image-keyboard-response","262","889063","0.0-6.0-4.36","2699057","co38215","norming","","","","","","",""
"null","../img/tt/549tt.jpg","null","mooney2","image-keyboard-response","263","891066","0.0-6.0-5.36","2699057","co38215","norming","","","","","","",""
"2764.3099999999395","","","post_reveal_questions","survey-likert","264","893833","0.0-6.0-6.36","2699057","co38215","norming","","","{""aha"":5}","[0]","../img/tt/549tt.jpg","",""
"null","<div style=""font-size:60px;""> </div>","null","fixation","html-keyboard-response","265","894036","0.0-6.0-0.37","2699057","co38215","norming","","","","","","",""
"null","../img/tt/435tt.jpg","null","mooney1","image-keyboard-response","266","897041","0.0-6.0-1.37","2699057","co38215","norming","","","","","","",""
"4101.895000000019","","","post_mooney1_questions","survey-likert","267","901144","0.0-6.0-2.37","2699057","co38215","norming","","","{""curiosity"":1,""confidence"":0}","[0,1]","../img/tt/435tt.jpg","",""
"3021.4049999999115","","","recognition","survey-text","268","904168","0.0-6.0-3.37","2699057","co38215","norming","","","{""guess"":""graf""}","","../img/tt/435tt.jpg","",""
"null","../img/gs/435gs.jpg","null","reveal","image-keyboard-response","269","906170","0.0-6.0-4.37","2699057","co38215","norming","","","","","","",""
"null","../img/tt/435tt.jpg","null","mooney2","image-keyboard-response","270","908171","0.0-6.0-5.37","2699057","co38215","norming","","","","","","",""
"3900.2450000001118","","","post_reveal_questions","survey-likert","271","912072","0.0-6.0-6.37","2699057","co38215","norming","","","{""aha"":6}","[0]","../img/tt/435tt.jpg","",""
"null","<div style=""font-size:60px;""> </div>","null","fixation","html-keyboard-response","272","912277","0.0-6.0-0.38","2699057","co38215","norming","","","","","","",""
"null","../img/tt/598tt.jpg","null","mooney1","image-keyboard-response","273","915286","0.0-6.0-1.38","2699057","co38215","norming","","","","","","",""
"3488.42499999993","","","post_mooney1_questions","survey-likert","274","918777","0.0-6.0-2.38","2699057","co38215","norming","","","{""curiosity"":1,""confidence"":1}","[0,1]","../img/tt/598tt.jpg","",""
"2941.7399999999907","","","recognition","survey-text","275","921720","0.0-6.0-3.38","2699057","co38215","norming","","","{""guess"":""koppel""}","","../img/tt/598tt.jpg","",""
"null","../img/gs/598gs.jpg","null","reveal","image-keyboard-response","276","923730","0.0-6.0-4.38","2699057","co38215","norming","","","","","","",""
"null","../img/tt/598tt.jpg","null","mooney2","image-keyboard-response","277","925737","0.0-6.0-5.38","2699057","co38215","norming","","","","","","",""
"3528.929999999935","","","post_reveal_questions","survey-likert","278","929267","0.0-6.0-6.38","2699057","co38215","norming","","","{""aha"":5}","[0]","../img/tt/598tt.jpg","",""
"null","<div style=""font-size:60px;""> </div>","null","fixation","html-keyboard-response","279","929474","0.0-6.0-0.39","2699057","co38215","norming","","","","","","",""
"null","../img/tt/1049tt.jpg","null","mooney1","image-keyboard-response","280","932478","0.0-6.0-1.39","2699057","co38215","norming","","","","","","",""
"3059.609999999986","","","post_mooney1_questions","survey-likert","281","935539","0.0-6.0-2.39","2699057","co38215","norming","","","{""curiosity"":1,""confidence"":1}","[0,1]","../img/tt/1049tt.jpg","",""
"2302.0450000001583","","","recognition","survey-text","282","937842","0.0-6.0-3.39","2699057","co38215","norming","","","{""guess"":""man""}","","../img/tt/1049tt.jpg","",""
"null","../img/gs/1049gs.jpg","null","reveal","image-keyboard-response","283","939851","0.0-6.0-4.39","2699057","co38215","norming","","","","","","",""
"null","../img/tt/1049tt.jpg","null","mooney2","image-keyboard-response","284","941856","0.0-6.0-5.39","2699057","co38215","norming","","","","","","",""
"2665.9050000001444","","","post_reveal_questions","survey-likert","285","944523","0.0-6.0-6.39","2699057","co38215","norming","","","{""aha"":5}","[0]","../img/tt/1049tt.jpg","",""
"null","<div style=""font-size:60px;""> </div>","null","fixation","html-keyboard-response","286","944731","0.0-6.0-0.40","2699057","co38215","norming","","","","","","",""
"null","../img/tt/098tt.jpg","null","mooney1","image-keyboard-response","287","947735","0.0-6.0-1.40","2699057","co38215","norming","","","","","","",""
"3994.54999999993","","","post_mooney1_questions","survey-likert","288","951731","0.0-6.0-2.40","2699057","co38215","norming","","","{""curiosity"":1,""confidence"":0}","[0,1]","../img/tt/098tt.jpg","",""
"2198.269999999902","","","recognition","survey-text","289","953930","0.0-6.0-3.40","2699057","co38215","norming","","","{""guess"":""hond""}","","../img/tt/098tt.jpg","",""
"null","../img/gs/098gs.jpg","null","reveal","image-keyboard-response","290","955936","0.0-6.0-4.40","2699057","co38215","norming","","","","","","",""
"null","../img/tt/098tt.jpg","null","mooney2","image-keyboard-response","291","957940","0.0-6.0-5.40","2699057","co38215","norming","","","","","","",""
"1877.3200000000652","","","post_reveal_questions","survey-likert","292","959819","0.0-6.0-6.40","2699057","co38215","norming","","","{""aha"":5}","[0]","../img/tt/098tt.jpg","",""
"null","<div style=""font-size:60px;""> </div>","null","fixation","html-keyboard-response","293","960021","0.0-6.0-0.41","2699057","co38215","norming","","","","","","",""
"null","../img/tt/1250tt.jpg","null","mooney1","image-keyboard-response","294","963025","0.0-6.0-1.41","2699057","co38215","norming","","","","","","",""
"3600.6900000002934","","","post_mooney1_questions","survey-likert","295","966627","0.0-6.0-2.41","2699057","co38215","norming","","","{""curiosity"":1,""confidence"":2}","[0,1]","../img/tt/1250tt.jpg","",""
"4549.915000000037","","","recognition","survey-text","296","971178","0.0-6.0-3.41","2699057","co38215","norming","","","{""guess"":""vrouwengezicht""}","","../img/tt/1250tt.jpg","",""
"null","../img/gs/1250gs.jpg","null","reveal","image-keyboard-response","297","973180","0.0-6.0-4.41","2699057","co38215","norming","","","","","","",""
"null","../img/tt/1250tt.jpg","null","mooney2","image-keyboard-response","298","975187","0.0-6.0-5.41","2699057","co38215","norming","","","","","","",""
"2630.3000000000466","","","post_reveal_questions","survey-likert","299","977818","0.0-6.0-6.41","2699057","co38215","norming","","","{""aha"":4}","[0]","../img/tt/1250tt.jpg","",""
"null","<div style=""font-size:60px;""> </div>","null","fixation","html-keyboard-response","300","978021","0.0-6.0-0.42","2699057","co38215","norming","","","","","","",""
"null","../img/tt/1002tt.jpg","null","mooney1","image-keyboard-response","301","981024","0.0-6.0-1.42","2699057","co38215","norming","","","","","","",""
"2737.6600000000326","","","post_mooney1_questions","survey-likert","302","983763","0.0-6.0-2.42","2699057","co38215","norming","","","{""curiosity"":1,""confidence"":1}","[0,1]","../img/tt/1002tt.jpg","",""
"2782.134999999893","","","recognition","survey-text","303","986547","0.0-6.0-3.42","2699057","co38215","norming","","","{""guess"":""eland""}","","../img/tt/1002tt.jpg","",""
"null","../img/gs/1002gs.jpg","null","reveal","image-keyboard-response","304","988552","0.0-6.0-4.42","2699057","co38215","norming","","","","","","",""
"null","../img/tt/1002tt.jpg","null","mooney2","image-keyboard-response","305","990559","0.0-6.0-5.42","2699057","co38215","norming","","","","","","",""
"2703.4599999999627","","","post_reveal_questions","survey-likert","306","993267","0.0-6.0-6.42","2699057","co38215","norming","","","{""aha"":4}","[0]","../img/tt/1002tt.jpg","",""
"null","<div style=""font-size:60px;""> </div>","null","fixation","html-keyboard-response","307","993470","0.0-6.0-0.43","2699057","co38215","norming","","","","","","",""
"null","../img/tt/1243tt.jpg","null","mooney1","image-keyboard-response","308","996475","0.0-6.0-1.43","2699057","co38215","norming","","","","","","",""
"4223.079999999958","","","post_mooney1_questions","survey-likert","309","1000699","0.0-6.0-2.43","2699057","co38215","norming","","","{""curiosity"":4,""confidence"":5}","[0,1]","../img/tt/1243tt.jpg","",""
"3405.8249999999534","","","recognition","survey-text","310","1004107","0.0-6.0-3.43","2699057","co38215","norming","","","{""guess"":""aap""}","","../img/tt/1243tt.jpg","",""
"null","../img/gs/1243gs.jpg","null","reveal","image-keyboard-response","311","1006114","0.0-6.0-4.43","2699057","co38215","norming","","","","","","",""
"null","../img/tt/1243tt.jpg","null","mooney2","image-keyboard-response","312","1008125","0.0-6.0-5.43","2699057","co38215","norming","","","","","","",""
"2260.714999999851","","","post_reveal_questions","survey-likert","313","1010387","0.0-6.0-6.43","2699057","co38215","norming","","","{""aha"":4}","[0]","../img/tt/1243tt.jpg","",""
"null","<div style=""font-size:60px;""> </div>","null","fixation","html-keyboard-response","314","1010594","0.0-6.0-0.44","2699057","co38215","norming","","","","","","",""
"null","../img/tt/1275tt.jpg","null","mooney1","image-keyboard-response","315","1013603","0.0-6.0-1.44","2699057","co38215","norming","","","","","","",""
"5735.290000000037","","","post_mooney1_questions","survey-likert","316","1019339","0.0-6.0-2.44","2699057","co38215","norming","","","{""curiosity"":2,""confidence"":6}","[0,1]","../img/tt/1275tt.jpg","",""
"4062.080000000191","","","recognition","survey-text","317","1023403","0.0-6.0-3.44","2699057","co38215","norming","","","{""guess"":""everzwijn""}","","../img/tt/1275tt.jpg","",""
"null","../img/gs/1275gs.jpg","null","reveal","image-keyboard-response","318","1025405","0.0-6.0-4.44","2699057","co38215","norming","","","","","","",""
"null","../img/tt/1275tt.jpg","null","mooney2","image-keyboard-response","319","1027407","0.0-6.0-5.44","2699057","co38215","norming","","","","","","",""
"2457.789999999921","","","post_reveal_questions","survey-likert","320","1029867","0.0-6.0-6.44","2699057","co38215","norming","","","{""aha"":3}","[0]","../img/tt/1275tt.jpg","",""
"null","<div style=""font-size:60px;""> </div>","null","fixation","html-keyboard-response","321","1030070","0.0-6.0-0.45","2699057","co38215","norming","","","","","","",""
"null","../img/tt/406tt.jpg","null","mooney1","image-keyboard-response","322","1033079","0.0-6.0-1.45","2699057","co38215","norming","","","","","","",""
"2984.7099999998463","","","post_mooney1_questions","survey-likert","323","1036067","0.0-6.0-2.45","2699057","co38215","norming","","","{""curiosity"":2,""confidence"":1}","[0,1]","../img/tt/406tt.jpg","",""
"3485.409999999916","","","recognition","survey-text","324","1039554","0.0-6.0-3.45","2699057","co38215","norming","","","{""guess"":""vleermuis""}","","../img/tt/406tt.jpg","",""
"null","../img/gs/406gs.jpg","null","reveal","image-keyboard-response","325","1041556","0.0-6.0-4.45","2699057","co38215","norming","","","","","","",""
"null","../img/tt/406tt.jpg","null","mooney2","image-keyboard-response","326","1043566","0.0-6.0-5.45","2699057","co38215","norming","","","","","","",""
"2835.544999999809","","","post_reveal_questions","survey-likert","327","1046403","0.0-6.0-6.45","2699057","co38215","norming","","","{""aha"":4}","[0]","../img/tt/406tt.jpg","",""
"null","<div style=""font-size:60px;""> </div>","null","fixation","html-keyboard-response","328","1046616","0.0-6.0-0.46","2699057","co38215","norming","","","","","","",""
"null","../img/tt/1232tt.jpg","null","mooney1","image-keyboard-response","329","1049619","0.0-6.0-1.46","2699057","co38215","norming","","","","","","",""
"2505.659999999916","","","post_mooney1_questions","survey-likert","330","1052126","0.0-6.0-2.46","2699057","co38215","norming","","","{""curiosity"":1,""confidence"":1}","[0,1]","../img/tt/1232tt.jpg","",""
"2910.0849999999627","","","recognition","survey-text","331","1055038","0.0-6.0-3.46","2699057","co38215","norming","","","{""guess"":""planeten""}","","../img/tt/1232tt.jpg","",""
"null","../img/gs/1232gs.jpg","null","reveal","image-keyboard-response","332","1057050","0.0-6.0-4.46","2699057","co38215","norming","","","","","","",""
"null","../img/tt/1232tt.jpg","null","mooney2","image-keyboard-response","333","1059052","0.0-6.0-5.46","2699057","co38215","norming","","","","","","",""
"2545.0500000002794","","","post_reveal_questions","survey-likert","334","1061598","0.0-6.0-6.46","2699057","co38215","norming","","","{""aha"":5}","[0]","../img/tt/1232tt.jpg","",""
"null","<div style=""font-size:60px;""> </div>","null","fixation","html-keyboard-response","335","1061807","0.0-6.0-0.47","2699057","co38215","norming","","","","","","",""
"null","../img/tt/1156tt.jpg","null","mooney1","image-keyboard-response","336","1064810","0.0-6.0-1.47","2699057","co38215","norming","","","","","","",""
"2587.3899999998976","","","post_mooney1_questions","survey-likert","337","1067398","0.0-6.0-2.47","2699057","co38215","norming","","","{""curiosity"":1,""confidence"":2}","[0,1]","../img/tt/1156tt.jpg","",""
"3589.6099999998696","","","recognition","survey-text","338","1070990","0.0-6.0-3.47","2699057","co38215","norming","","","{""guess"":""superman""}","","../img/tt/1156tt.jpg","",""
"null","../img/gs/1156gs.jpg","null","reveal","image-keyboard-response","339","1072998","0.0-6.0-4.47","2699057","co38215","norming","","","","","","",""
"null","../img/tt/1156tt.jpg","null","mooney2","image-keyboard-response","340","1075003","0.0-6.0-5.47","2699057","co38215","norming","","","","","","",""
"3057.8649999999907","","","post_reveal_questions","survey-likert","341","1078062","0.0-6.0-6.47","2699057","co38215","norming","","","{""aha"":5}","[0]","../img/tt/1156tt.jpg","",""
"null","<div style=""font-size:60px;""> </div>","null","fixation","html-keyboard-response","342","1078267","0.0-6.0-0.48","2699057","co38215","norming","","","","","","",""
"null","../img/tt/358tt.jpg","null","mooney1","image-keyboard-response","343","1081274","0.0-6.0-1.48","2699057","co38215","norming","","","","","","",""
"3441","","","post_mooney1_questions","survey-likert","344","1084718","0.0-6.0-2.48","2699057","co38215","norming","","","{""curiosity"":2,""confidence"":2}","[0,1]","../img/tt/358tt.jpg","",""
"3038.0200000000186","","","recognition","survey-text","345","1087758","0.0-6.0-3.48","2699057","co38215","norming","","","{""guess"":""hond""}","","../img/tt/358tt.jpg","",""
"null","../img/gs/358gs.jpg","null","reveal","image-keyboard-response","346","1089763","0.0-6.0-4.48","2699057","co38215","norming","","","","","","",""
"null","../img/tt/358tt.jpg","null","mooney2","image-keyboard-response","347","1091768","0.0-6.0-5.48","2699057","co38215","norming","","","","","","",""
"2333.7549999998882","","","post_reveal_questions","survey-likert","348","1094102","0.0-6.0-6.48","2699057","co38215","norming","","","{""aha"":4}","[0]","../img/tt/358tt.jpg","",""
"null","<div style=""font-size:60px;""> </div>","null","fixation","html-keyboard-response","349","1094309","0.0-6.0-0.49","2699057","co38215","norming","","","","","","",""
"null","../img/tt/007tt.jpg","null","mooney1","image-keyboard-response","350","1097312","0.0-6.0-1.49","2699057","co38215","norming","","","","","","",""
"2507.399999999907","","","post_mooney1_questions","survey-likert","351","1099823","0.0-6.0-2.49","2699057","co38215","norming","","","{""curiosity"":2,""confidence"":1}","[0,1]","../img/tt/007tt.jpg","",""
"2782.0149999998976","","","recognition","survey-text","352","1102606","0.0-6.0-3.49","2699057","co38215","norming","","","{""guess"":""heks""}","","../img/tt/007tt.jpg","",""
"null","../img/gs/007gs.jpg","null","reveal","image-keyboard-response","353","1104614","0.0-6.0-4.49","2699057","co38215","norming","","","","","","",""
"null","../img/tt/007tt.jpg","null","mooney2","image-keyboard-response","354","1106629","0.0-6.0-5.49","2699057","co38215","norming","","","","","","",""
"3416.3850000000093","","","post_reveal_questions","survey-likert","355","1110048","0.0-6.0-6.49","2699057","co38215","norming","","","{""aha"":5}","[0]","../img/tt/007tt.jpg","",""
"null","<div style=""font-size:60px;""> </div>","null","fixation","html-keyboard-response","356","1110258","0.0-6.0-0.50","2699057","co38215","norming","","","","","","",""
"null","../img/tt/013tt.jpg","null","mooney1","image-keyboard-response","357","1113270","0.0-6.0-1.50","2699057","co38215","norming","","","","","","",""
"2887.905000000028","","","post_mooney1_questions","survey-likert","358","1116160","0.0-6.0-2.50","2699057","co38215","norming","","","{""curiosity"":0,""confidence"":0}","[0,1]","../img/tt/013tt.jpg","",""
"3334.0550000001676","","","recognition","survey-text","359","1119496","0.0-6.0-3.50","2699057","co38215","norming","","","{""guess"":""geen idee""}","","../img/tt/013tt.jpg","",""
"null","../img/gs/013gs.jpg","null","reveal","image-keyboard-response","360","1121506","0.0-6.0-4.50","2699057","co38215","norming","","","","","","",""
"null","../img/tt/013tt.jpg","null","mooney2","image-keyboard-response","361","1123509","0.0-6.0-5.50","2699057","co38215","norming","","","","","","",""
"2120.1149999999907","","","post_reveal_questions","survey-likert","362","1125632","0.0-6.0-6.50","2699057","co38215","norming","","","{""aha"":4}","[0]","../img/tt/013tt.jpg","",""
"null","<div style=""font-size:60px;""> </div>","null","fixation","html-keyboard-response","363","1125840","0.0-6.0-0.51","2699057","co38215","norming","","","","","","",""
"null","../img/tt/300tt.jpg","null","mooney1","image-keyboard-response","364","1128845","0.0-6.0-1.51","2699057","co38215","norming","","","","","","",""
"4177.5800000000745","","","post_mooney1_questions","survey-likert","365","1133024","0.0-6.0-2.51","2699057","co38215","norming","","","{""curiosity"":1,""confidence"":1}","[0,1]","../img/tt/300tt.jpg","",""
"2926.375","","","recognition","survey-text","366","1135952","0.0-6.0-3.51","2699057","co38215","norming","","","{""guess"":""vrouw""}","","../img/tt/300tt.jpg","",""
"null","../img/gs/300gs.jpg","null","reveal","image-keyboard-response","367","1137956","0.0-6.0-4.51","2699057","co38215","norming","","","","","","",""
"null","../img/tt/300tt.jpg","null","mooney2","image-keyboard-response","368","1139958","0.0-6.0-5.51","2699057","co38215","norming","","","","","","",""
"1999.7900000000373","","","post_reveal_questions","survey-likert","369","1141960","0.0-6.0-6.51","2699057","co38215","norming","","","{""aha"":4}","[0]","../img/tt/300tt.jpg","",""
"null","<div style=""font-size:60px;""> </div>","null","fixation","html-keyboard-response","370","1142163","0.0-6.0-0.52","2699057","co38215","norming","","","","","","",""
"null","../img/tt/1143tt.jpg","null","mooney1","image-keyboard-response","371","1145171","0.0-6.0-1.52","2699057","co38215","norming","","","","","","",""
"3217.8799999998882","","","post_mooney1_questions","survey-likert","372","1148392","0.0-6.0-2.52","2699057","co38215","norming","","","{""curiosity"":2,""confidence"":3}","[0,1]","../img/tt/1143tt.jpg","",""
"2486.2600000000093","","","recognition","survey-text","373","1150880","0.0-6.0-3.52","2699057","co38215","norming","","","{""guess"":""fitness""}","","../img/tt/1143tt.jpg","",""
"null","../img/gs/1143gs.jpg","null","reveal","image-keyboard-response","374","1152891","0.0-6.0-4.52","2699057","co38215","norming","","","","","","",""
"null","../img/tt/1143tt.jpg","null","mooney2","image-keyboard-response","375","1154900","0.0-6.0-5.52","2699057","co38215","norming","","","","","","",""
"3441.6100000001024","","","post_reveal_questions","survey-likert","376","1158344","0.0-6.0-6.52","2699057","co38215","norming","","","{""aha"":2}","[0]","../img/tt/1143tt.jpg","",""
"null","<div style=""font-size:60px;""> </div>","null","fixation","html-keyboard-response","377","1158545","0.0-6.0-0.53","2699057","co38215","norming","","","","","","",""
"null","../img/tt/1161tt.jpg","null","mooney1","image-keyboard-response","378","1161556","0.0-6.0-1.53","2699057","co38215","norming","","","","","","",""
"4251.550000000047","","","post_mooney1_questions","survey-likert","379","1165808","0.0-6.0-2.53","2699057","co38215","norming","","","{""curiosity"":2,""confidence"":2}","[0,1]","../img/tt/1161tt.jpg","",""
"4341.889999999898","","","recognition","survey-text","380","1170150","0.0-6.0-3.53","2699057","co38215","norming","","","{""guess"":""vallende man""}","","../img/tt/1161tt.jpg","",""
"null","../img/gs/1161gs.jpg","null","reveal","image-keyboard-response","381","1172155","0.0-6.0-4.53","2699057","co38215","norming","","","","","","",""
"null","../img/tt/1161tt.jpg","null","mooney2","image-keyboard-response","382","1174157","0.0-6.0-5.53","2699057","co38215","norming","","","","","","",""
"3254.6650000000373","","","post_reveal_questions","survey-likert","383","1177415","0.0-6.0-6.53","2699057","co38215","norming","","","{""aha"":4}","[0]","../img/tt/1161tt.jpg","",""
"null","<div style=""font-size:60px;""> </div>","null","fixation","html-keyboard-response","384","1177616","0.0-6.0-0.54","2699057","co38215","norming","","","","","","",""
"null","../img/tt/1189tt.jpg","null","mooney1","image-keyboard-response","385","1180622","0.0-6.0-1.54","2699057","co38215","norming","","","","","","",""
"3677.3249999997206","","","post_mooney1_questions","survey-likert","386","1184303","0.0-6.0-2.54","2699057","co38215","norming","","","{""curiosity"":0,""confidence"":0}","[0,1]","../img/tt/1189tt.jpg","",""
"2374.315000000177","","","recognition","survey-text","387","1186679","0.0-6.0-3.54","2699057","co38215","norming","","","{""guess"":""geen idee""}","","../img/tt/1189tt.jpg","",""
"null","../img/gs/1189gs.jpg","null","reveal","image-keyboard-response","388","1188681","0.0-6.0-4.54","2699057","co38215","norming","","","","","","",""
"null","../img/tt/1189tt.jpg","null","mooney2","image-keyboard-response","389","1190691","0.0-6.0-5.54","2699057","co38215","norming","","","","","","",""
"2816.600000000093","","","post_reveal_questions","survey-likert","390","1193511","0.0-6.0-6.54","2699057","co38215","norming","","","{""aha"":5}","[0]","../img/tt/1189tt.jpg","",""
"null","<div style=""font-size:60px;""> </div>","null","fixation","html-keyboard-response","391","1193712","0.0-6.0-0.55","2699057","co38215","norming","","","","","","",""
"null","../img/tt/1084tt.jpg","null","mooney1","image-keyboard-response","392","1196718","0.0-6.0-1.55","2699057","co38215","norming","","","","","","",""
"4388.839999999851","","","post_mooney1_questions","survey-likert","393","1201111","0.0-6.0-2.55","2699057","co38215","norming","","","{""curiosity"":1,""confidence"":2}","[0,1]","../img/tt/1084tt.jpg","",""
"2086.239999999758","","","recognition","survey-text","394","1203199","0.0-6.0-3.55","2699057","co38215","norming","","","{""guess"":""eten""}","","../img/tt/1084tt.jpg","",""
"null","../img/gs/1084gs.jpg","null","reveal","image-keyboard-response","395","1205202","0.0-6.0-4.55","2699057","co38215","norming","","","","","","",""
"null","../img/tt/1084tt.jpg","null","mooney2","image-keyboard-response","396","1207205","0.0-6.0-5.55","2699057","co38215","norming","","","","","","",""
"1982.2400000002235","","","post_reveal_questions","survey-likert","397","1209191","0.0-6.0-6.55","2699057","co38215","norming","","","{""aha"":4}","[0]","../img/tt/1084tt.jpg","",""
"null","<div style=""font-size:60px;""> </div>","null","fixation","html-keyboard-response","398","1209395","0.0-6.0-0.56","2699057","co38215","norming","","","","","","",""
"null","../img/tt/1270tt.jpg","null","mooney1","image-keyboard-response","399","1212403","0.0-6.0-1.56","2699057","co38215","norming","","","","","","",""
"3848.559999999823","","","post_mooney1_questions","survey-likert","400","1216255","0.0-6.0-2.56","2699057","co38215","norming","","","{""curiosity"":1,""confidence"":2}","[0,1]","../img/tt/1270tt.jpg","",""
"2381.6999999997206","","","recognition","survey-text","401","1218639","0.0-6.0-3.56","2699057","co38215","norming","","","{""guess"":""familie""}","","../img/tt/1270tt.jpg","",""
"null","../img/gs/1270gs.jpg","null","reveal","image-keyboard-response","402","1220644","0.0-6.0-4.56","2699057","co38215","norming","","","","","","",""
"null","../img/tt/1270tt.jpg","null","mooney2","image-keyboard-response","403","1222648","0.0-6.0-5.56","2699057","co38215","norming","","","","","","",""
"2572.090000000084","","","post_reveal_questions","survey-likert","404","1225222","0.0-6.0-6.56","2699057","co38215","norming","","","{""aha"":4}","[0]","../img/tt/1270tt.jpg","",""
"null","<div style=""font-size:60px;""> </div>","null","fixation","html-keyboard-response","405","1225426","0.0-6.0-0.57","2699057","co38215","norming","","","","","","",""
"null","../img/tt/1363tt.jpg","null","mooney1","image-keyboard-response","406","1228441","0.0-6.0-1.57","2699057","co38215","norming","","","","","","",""
"2967.530000000028","","","post_mooney1_questions","survey-likert","407","1231412","0.0-6.0-2.57","2699057","co38215","norming","","","{""curiosity"":2,""confidence"":1}","[0,1]","../img/tt/1363tt.jpg","",""
"2614.0999999998603","","","recognition","survey-text","408","1234028","0.0-6.0-3.57","2699057","co38215","norming","","","{""guess"":""jus""}","","../img/tt/1363tt.jpg","",""
"null","../img/gs/1363gs.jpg","null","reveal","image-keyboard-response","409","1236033","0.0-6.0-4.57","2699057","co38215","norming","","","","","","",""
"null","../img/tt/1363tt.jpg","null","mooney2","image-keyboard-response","410","1238041","0.0-6.0-5.57","2699057","co38215","norming","","","","","","",""
"4232.0449999999255","","","post_reveal_questions","survey-likert","411","1242276","0.0-6.0-6.57","2699057","co38215","norming","","","{""aha"":2}","[0]","../img/tt/1363tt.jpg","",""
"null","<div style=""font-size:60px;""> </div>","null","fixation","html-keyboard-response","412","1242485","0.0-6.0-0.58","2699057","co38215","norming","","","","","","",""
"null","../img/tt/1066tt.jpg","null","mooney1","image-keyboard-response","413","1245489","0.0-6.0-1.58","2699057","co38215","norming","","","","","","",""
"2943.5149999998976","","","post_mooney1_questions","survey-likert","414","1248436","0.0-6.0-2.58","2699057","co38215","norming","","","{""curiosity"":1,""confidence"":2}","[0,1]","../img/tt/1066tt.jpg","",""
"3373.9849999998696","","","recognition","survey-text","415","1251812","0.0-6.0-3.58","2699057","co38215","norming","","","{""guess"":""paardenstal""}","","../img/tt/1066tt.jpg","",""
"null","../img/gs/1066gs.jpg","null","reveal","image-keyboard-response","416","1253817","0.0-6.0-4.58","2699057","co38215","norming","","","","","","",""
"null","../img/tt/1066tt.jpg","null","mooney2","image-keyboard-response","417","1255823","0.0-6.0-5.58","2699057","co38215","norming","","","","","","",""
"2763.8249999999534","","","post_reveal_questions","survey-likert","418","1258588","0.0-6.0-6.58","2699057","co38215","norming","","","{""aha"":5}","[0]","../img/tt/1066tt.jpg","",""
"null","<div style=""font-size:60px;""> </div>","null","fixation","html-keyboard-response","419","1258792","0.0-6.0-0.59","2699057","co38215","norming","","","","","","",""
"null","../img/tt/1127tt.jpg","null","mooney1","image-keyboard-response","420","1261796","0.0-6.0-1.59","2699057","co38215","norming","","","","","","",""
"3918.845000000205","","","post_mooney1_questions","survey-likert","421","1265716","0.0-6.0-2.59","2699057","co38215","norming","","","{""curiosity"":2,""confidence"":3}","[0,1]","../img/tt/1127tt.jpg","",""
"1293.5600000002887","","","recognition","survey-text","422","1267012","0.0-6.0-3.59","2699057","co38215","norming","","","{""guess"":""ober""}","","../img/tt/1127tt.jpg","",""
"null","../img/gs/1127gs.jpg","null","reveal","image-keyboard-response","423","1269021","0.0-6.0-4.59","2699057","co38215","norming","","","","","","",""
"null","../img/tt/1127tt.jpg","null","mooney2","image-keyboard-response","424","1271025","0.0-6.0-5.59","2699057","co38215","norming","","","","","","",""
"2736.4550000003073","","","post_reveal_questions","survey-likert","425","1273764","0.0-6.0-6.59","2699057","co38215","norming","","","{""aha"":5}","[0]","../img/tt/1127tt.jpg","",""
"null","<div style=""font-size:60px;""> </div>","null","fixation","html-keyboard-response","426","1273973","0.0-6.0-0.60","2699057","co38215","norming","","","","","","",""
"null","../img/tt/111tt.jpg","null","mooney1","image-keyboard-response","427","1276981","0.0-6.0-1.60","2699057","co38215","norming","","","","","","",""
"2299.285000000149","","","post_mooney1_questions","survey-likert","428","1279284","0.0-6.0-2.60","2699057","co38215","norming","","","{""curiosity"":2,""confidence"":3}","[0,1]","../img/tt/111tt.jpg","",""
"2262.2899999998044","","","recognition","survey-text","429","1281548","0.0-6.0-3.60","2699057","co38215","norming","","","{""guess"":""telefoon""}","","../img/tt/111tt.jpg","",""
"null","../img/gs/111gs.jpg","null","reveal","image-keyboard-response","430","1283550","0.0-6.0-4.60","2699057","co38215","norming","","","","","","",""
"null","../img/tt/111tt.jpg","null","mooney2","image-keyboard-response","431","1285554","0.0-6.0-5.60","2699057","co38215","norming","","","","","","",""
"2495.6850000002887","","","post_reveal_questions","survey-likert","432","1288052","0.0-6.0-6.60","2699057","co38215","norming","","","{""aha"":4}","[0]","../img/tt/111tt.jpg","",""
"null","<div style=""font-size:60px;""> </div>","null","fixation","html-keyboard-response","433","1288254","0.0-6.0-0.61","2699057","co38215","norming","","","","","","",""
"null","../img/tt/1241tt.jpg","null","mooney1","image-keyboard-response","434","1291262","0.0-6.0-1.61","2699057","co38215","norming","","","","","","",""
"2810.565000000177","","","post_mooney1_questions","survey-likert","435","1294076","0.0-6.0-2.61","2699057","co38215","norming","","","{""curiosity"":2,""confidence"":3}","[0,1]","../img/tt/1241tt.jpg","",""
"1446.1899999999441","","","recognition","survey-text","436","1295524","0.0-6.0-3.61","2699057","co38215","norming","","","{""guess"":""beer""}","","../img/tt/1241tt.jpg","",""
"null","../img/gs/1241gs.jpg","null","reveal","image-keyboard-response","437","1297530","0.0-6.0-4.61","2699057","co38215","norming","","","","","","",""
"null","../img/tt/1241tt.jpg","null","mooney2","image-keyboard-response","438","1299537","0.0-6.0-5.61","2699057","co38215","norming","","","","","","",""
"1840.3049999999348","","","post_reveal_questions","survey-likert","439","1301380","0.0-6.0-6.61","2699057","co38215","norming","","","{""aha"":4}","[0]","../img/tt/1241tt.jpg","",""
"null","<div style=""font-size:60px;""> </div>","null","fixation","html-keyboard-response","440","1301590","0.0-6.0-0.62","2699057","co38215","norming","","","","","","",""
"null","../img/tt/1130tt.jpg","null","mooney1","image-keyboard-response","441","1304597","0.0-6.0-1.62","2699057","co38215","norming","","","","","","",""
"3371.840000000084","","","post_mooney1_questions","survey-likert","442","1307972","0.0-6.0-2.62","2699057","co38215","norming","","","{""curiosity"":3,""confidence"":4}","[0,1]","../img/tt/1130tt.jpg","",""
"1829.9899999999907","","","recognition","survey-text","443","1309804","0.0-6.0-3.62","2699057","co38215","norming","","","{""guess"":""fietser""}","","../img/tt/1130tt.jpg","",""
"null","../img/gs/1130gs.jpg","null","reveal","image-keyboard-response","444","1311813","0.0-6.0-4.62","2699057","co38215","norming","","","","","","",""
"null","../img/tt/1130tt.jpg","null","mooney2","image-keyboard-response","445","1313817","0.0-6.0-5.62","2699057","co38215","norming","","","","","","",""
"4041.6150000002235","","","post_reveal_questions","survey-likert","446","1317860","0.0-6.0-6.62","2699057","co38215","norming","","","{""aha"":3}","[0]","../img/tt/1130tt.jpg","",""
"null","<div style=""font-size:60px;""> </div>","null","fixation","html-keyboard-response","447","1318061","0.0-6.0-0.63","2699057","co38215","norming","","","","","","",""
"null","../img/tt/1199tt.jpg","null","mooney1","image-keyboard-response","448","1321070","0.0-6.0-1.63","2699057","co38215","norming","","","","","","",""
"2682.464999999851","","","post_mooney1_questions","survey-likert","449","1323756","0.0-6.0-2.63","2699057","co38215","norming","","","{""curiosity"":2,""confidence"":1}","[0,1]","../img/tt/1199tt.jpg","",""
"2982.2899999998044","","","recognition","survey-text","450","1326740","0.0-6.0-3.63","2699057","co38215","norming","","","{""guess"":""gymnast""}","","../img/tt/1199tt.jpg","",""
"null","../img/gs/1199gs.jpg","null","reveal","image-keyboard-response","451","1328741","0.0-6.0-4.63","2699057","co38215","norming","","","","","","",""
"null","../img/tt/1199tt.jpg","null","mooney2","image-keyboard-response","452","1330751","0.0-6.0-5.63","2699057","co38215","norming","","","","","","",""
"2731.2050000000745","","","post_reveal_questions","survey-likert","453","1333484","0.0-6.0-6.63","2699057","co38215","norming","","","{""aha"":1}","[0]","../img/tt/1199tt.jpg","",""
"null","<div style=""font-size:60px;""> </div>","null","fixation","html-keyboard-response","454","1333689","0.0-6.0-0.64","2699057","co38215","norming","","","","","","",""
"null","../img/tt/440tt.jpg","null","mooney1","image-keyboard-response","455","1336702","0.0-6.0-1.64","2699057","co38215","norming","","","","","","",""
"3698.8199999998324","","","post_mooney1_questions","survey-likert","456","1340404","0.0-6.0-2.64","2699057","co38215","norming","","","{""curiosity"":2,""confidence"":2}","[0,1]","../img/tt/440tt.jpg","",""
"4653.9550000000745","","","recognition","survey-text","457","1345060","0.0-6.0-3.64","2699057","co38215","norming","","","{""guess"":""paardenstal""}","","../img/tt/440tt.jpg","",""
"null","../img/gs/440gs.jpg","null","reveal","image-keyboard-response","458","1347064","0.0-6.0-4.64","2699057","co38215","norming","","","","","","",""
"null","../img/tt/440tt.jpg","null","mooney2","image-keyboard-response","459","1349067","0.0-6.0-5.64","2699057","co38215","norming","","","","","","",""
"2142.0250000001397","","","post_reveal_questions","survey-likert","460","1351212","0.0-6.0-6.64","2699057","co38215","norming","","","{""aha"":4}","[0]","../img/tt/440tt.jpg","",""
"null","<div style=""font-size:60px;""> </div>","null","fixation","html-keyboard-response","461","1351417","0.0-6.0-0.65","2699057","co38215","norming","","","","","","",""
"null","../img/tt/1171tt.jpg","null","mooney1","image-keyboard-response","462","1354419","0.0-6.0-1.65","2699057","co38215","norming","","","","","","",""
"3398.100000000093","","","post_mooney1_questions","survey-likert","463","1357820","0.0-6.0-2.65","2699057","co38215","norming","","","{""curiosity"":1,""confidence"":2}","[0,1]","../img/tt/1171tt.jpg","",""
"4390.229999999981","","","recognition","survey-text","464","1362212","0.0-6.0-3.65","2699057","co38215","norming","","","{""guess"":""boze man""}","","../img/tt/1171tt.jpg","",""
"null","../img/gs/1171gs.jpg","null","reveal","image-keyboard-response","465","1364218","0.0-6.0-4.65","2699057","co38215","norming","","","","","","",""
"null","../img/tt/1171tt.jpg","null","mooney2","image-keyboard-response","466","1366221","0.0-6.0-5.65","2699057","co38215","norming","","","","","","",""
"3068.1100000003353","","","post_reveal_questions","survey-likert","467","1369292","0.0-6.0-6.65","2699057","co38215","norming","","","{""aha"":6}","[0]","../img/tt/1171tt.jpg","",""
"null","<div style=""font-size:60px;""> </div>","null","fixation","html-keyboard-response","468","1369500","0.0-6.0-0.66","2699057","co38215","norming","","","","","","",""
"null","../img/tt/273tt.jpg","null","mooney1","image-keyboard-response","469","1372507","0.0-6.0-1.66","2699057","co38215","norming","","","","","","",""
"2717.3700000001118","","","post_mooney1_questions","survey-likert","470","1375228","0.0-6.0-2.66","2699057","co38215","norming","","","{""curiosity"":3,""confidence"":4}","[0,1]","../img/tt/273tt.jpg","",""
"2646.054999999935","","","recognition","survey-text","471","1377876","0.0-6.0-3.66","2699057","co38215","norming","","","{""guess"":""blokjes""}","","../img/tt/273tt.jpg","",""
"null","../img/gs/273gs.jpg","null","reveal","image-keyboard-response","472","1379878","0.0-6.0-4.66","2699057","co38215","norming","","","","","","",""
"null","../img/tt/273tt.jpg","null","mooney2","image-keyboard-response","473","1381882","0.0-6.0-5.66","2699057","co38215","norming","","","","","","",""
"1680.9350000000559","","","post_reveal_questions","survey-likert","474","1383564","0.0-6.0-6.66","2699057","co38215","norming","","","{""aha"":4}","[0]","../img/tt/273tt.jpg","",""
"null","<div style=""font-size:60px;""> </div>","null","fixation","html-keyboard-response","475","1383774","0.0-6.0-0.67","2699057","co38215","norming","","","","","","",""
"null","../img/tt/1200tt.jpg","null","mooney1","image-keyboard-response","476","1386780","0.0-6.0-1.67","2699057","co38215","norming","","","","","","",""
"3580.3599999998696","","","post_mooney1_questions","survey-likert","477","1390364","0.0-6.0-2.67","2699057","co38215","norming","","","{""curiosity"":2,""confidence"":3}","[0,1]","../img/tt/1200tt.jpg","",""
"1710.1399999998976","","","recognition","survey-text","478","1392076","0.0-6.0-3.67","2699057","co38215","norming","","","{""guess"":""auto""}","","../img/tt/1200tt.jpg","",""
"null","../img/gs/1200gs.jpg","null","reveal","image-keyboard-response","479","1394077","0.0-6.0-4.67","2699057","co38215","norming","","","","","","",""
"null","../img/tt/1200tt.jpg","null","mooney2","image-keyboard-response","480","1396090","0.0-6.0-5.67","2699057","co38215","norming","","","","","","",""
"2038.9450000000652","","","post_reveal_questions","survey-likert","481","1398132","0.0-6.0-6.67","2699057","co38215","norming","","","{""aha"":3}","[0]","../img/tt/1200tt.jpg","",""
"null","<div style=""font-size:60px;""> </div>","null","fixation","html-keyboard-response","482","1398336","0.0-6.0-0.68","2699057","co38215","norming","","","","","","",""
"null","../img/tt/1191tt.jpg","null","mooney1","image-keyboard-response","483","1401339","0.0-6.0-1.68","2699057","co38215","norming","","","","","","",""
"3052.535000000149","","","post_mooney1_questions","survey-likert","484","1404396","0.0-6.0-2.68","2699057","co38215","norming","","","{""curiosity"":2,""confidence"":3}","[0,1]","../img/tt/1191tt.jpg","",""
"1629.8149999999441","","","recognition","survey-text","485","1406028","0.0-6.0-3.68","2699057","co38215","norming","","","{""guess"":""circus""}","","../img/tt/1191tt.jpg","",""
"null","../img/gs/1191gs.jpg","null","reveal","image-keyboard-response","486","1408035","0.0-6.0-4.68","2699057","co38215","norming","","","","","","",""
"null","../img/tt/1191tt.jpg","null","mooney2","image-keyboard-response","487","1410039","0.0-6.0-5.68","2699057","co38215","norming","","","","","","",""
"2738.215000000084","","","post_reveal_questions","survey-likert","488","1412778","0.0-6.0-6.68","2699057","co38215","norming","","","{""aha"":5}","[0]","../img/tt/1191tt.jpg","",""
"null","<div style=""font-size:60px;""> </div>","null","fixation","html-keyboard-response","489","1412983","0.0-6.0-0.69","2699057","co38215","norming","","","","","","",""
"null","../img/tt/1040tt.jpg","null","mooney1","image-keyboard-response","490","1415992","0.0-6.0-1.69","2699057","co38215","norming","","","","","","",""
"3446.7900000000373","","","post_mooney1_questions","survey-likert","491","1419443","0.0-6.0-2.69","2699057","co38215","norming","","","{""curiosity"":0,""confidence"":0}","[0,1]","../img/tt/1040tt.jpg","",""
"2589.9350000002887","","","recognition","survey-text","492","1422034","0.0-6.0-3.69","2699057","co38215","norming","","","{""guess"":""geen idee""}","","../img/tt/1040tt.jpg","",""
"null","../img/gs/1040gs.jpg","null","reveal","image-keyboard-response","493","1424041","0.0-6.0-4.69","2699057","co38215","norming","","","","","","",""
"null","../img/tt/1040tt.jpg","null","mooney2","image-keyboard-response","494","1426051","0.0-6.0-5.69","2699057","co38215","norming","","","","","","",""
"2420.1200000001118","","","post_reveal_questions","survey-likert","495","1428475","0.0-6.0-6.69","2699057","co38215","norming","","","{""aha"":3}","[0]","../img/tt/1040tt.jpg","",""
"null","<div style=""font-size:60px;""> </div>","null","fixation","html-keyboard-response","496","1428682","0.0-6.0-0.70","2699057","co38215","norming","","","","","","",""
"null","../img/tt/1175tt.jpg","null","mooney1","image-keyboard-response","497","1431690","0.0-6.0-1.70","2699057","co38215","norming","","","","","","",""
"2724.619999999879","","","post_mooney1_questions","survey-likert","498","1434418","0.0-6.0-2.70","2699057","co38215","norming","","","{""curiosity"":2,""confidence"":3}","[0,1]","../img/tt/1175tt.jpg","",""
"2446.1149999999907","","","recognition","survey-text","499","1436866","0.0-6.0-3.70","2699057","co38215","norming","","","{""guess"":""publiek""}","","../img/tt/1175tt.jpg","",""
"null","../img/gs/1175gs.jpg","null","reveal","image-keyboard-response","500","1438877","0.0-6.0-4.70","2699057","co38215","norming","","","","","","",""
"null","../img/tt/1175tt.jpg","null","mooney2","image-keyboard-response","501","1440885","0.0-6.0-5.70","2699057","co38215","norming","","","","","","",""
"2882.534999999916","","","post_reveal_questions","survey-likert","502","1443770","0.0-6.0-6.70","2699057","co38215","norming","","","{""aha"":6}","[0]","../img/tt/1175tt.jpg","",""
"null","<div style=""font-size:60px;""> </div>","null","fixation","html-keyboard-response","503","1443974","0.0-6.0-0.71","2699057","co38215","norming","","","","","","",""
"null","../img/tt/036tt.jpg","null","mooney1","image-keyboard-response","504","1446985","0.0-6.0-1.71","2699057","co38215","norming","","","","","","",""
"4757.914999999804","","","post_mooney1_questions","survey-likert","505","1451747","0.0-6.0-2.71","2699057","co38215","norming","","","{""curiosity"":1,""confidence"":1}","[0,1]","../img/tt/036tt.jpg","",""
"2181.91500000027","","","recognition","survey-text","506","1453930","0.0-6.0-3.71","2699057","co38215","norming","","","{""guess"":""neuronen""}","","../img/tt/036tt.jpg","",""
"null","../img/gs/036gs.jpg","null","reveal","image-keyboard-response","507","1455932","0.0-6.0-4.71","2699057","co38215","norming","","","","","","",""
"null","../img/tt/036tt.jpg","null","mooney2","image-keyboard-response","508","1457939","0.0-6.0-5.71","2699057","co38215","norming","","","","","","",""
"2356.094999999972","","","post_reveal_questions","survey-likert","509","1460298","0.0-6.0-6.71","2699057","co38215","norming","","","{""aha"":6}","[0]","../img/tt/036tt.jpg","",""
"null","<div style=""font-size:60px;""> </div>","null","fixation","html-keyboard-response","510","1460505","0.0-6.0-0.72","2699057","co38215","norming","","","","","","",""
"null","../img/tt/1235tt.jpg","null","mooney1","image-keyboard-response","511","1463515","0.0-6.0-1.72","2699057","co38215","norming","","","","","","",""
"3078.0449999999255","","","post_mooney1_questions","survey-likert","512","1466595","0.0-6.0-2.72","2699057","co38215","norming","","","{""curiosity"":2,""confidence"":2}","[0,1]","../img/tt/1235tt.jpg","",""
"1629.6349999997765","","","recognition","survey-text","513","1468226","0.0-6.0-3.72","2699057","co38215","norming","","","{""guess"":""vrouw""}","","../img/tt/1235tt.jpg","",""
"null","../img/gs/1235gs.jpg","null","reveal","image-keyboard-response","514","1470234","0.0-6.0-4.72","2699057","co38215","norming","","","","","","",""
"null","../img/tt/1235tt.jpg","null","mooney2","image-keyboard-response","515","1472240","0.0-6.0-5.72","2699057","co38215","norming","","","","","","",""
"1817.5849999999627","","","post_reveal_questions","survey-likert","516","1474060","0.0-6.0-6.72","2699057","co38215","norming","","","{""aha"":4}","[0]","../img/tt/1235tt.jpg","",""
"null","<div style=""font-size:60px;""> </div>","null","fixation","html-keyboard-response","517","1474263","0.0-6.0-0.73","2699057","co38215","norming","","","","","","",""
"null","../img/tt/064tt.jpg","null","mooney1","image-keyboard-response","518","1477271","0.0-6.0-1.73","2699057","co38215","norming","","","","","","",""
"2217.899999999907","","","post_mooney1_questions","survey-likert","519","1479492","0.0-6.0-2.73","2699057","co38215","norming","","","{""curiosity"":1,""confidence"":2}","[0,1]","../img/tt/064tt.jpg","",""
"1390.0349999999162","","","recognition","survey-text","520","1480884","0.0-6.0-3.73","2699057","co38215","norming","","","{""guess"":""kikker""}","","../img/tt/064tt.jpg","",""
"null","../img/gs/064gs.jpg","null","reveal","image-keyboard-response","521","1482894","0.0-6.0-4.73","2699057","co38215","norming","","","","","","",""
"null","../img/tt/064tt.jpg","null","mooney2","image-keyboard-response","522","1484897","0.0-6.0-5.73","2699057","co38215","norming","","","","","","",""
"3047.994999999879","","","post_reveal_questions","survey-likert","523","1487948","0.0-6.0-6.73","2699057","co38215","norming","","","{""aha"":4}","[0]","../img/tt/064tt.jpg","",""
"null","<div style=""font-size:60px;""> </div>","null","fixation","html-keyboard-response","524","1488151","0.0-6.0-0.74","2699057","co38215","norming","","","","","","",""
"null","../img/tt/094tt.jpg","null","mooney1","image-keyboard-response","525","1491158","0.0-6.0-1.74","2699057","co38215","norming","","","","","","",""
"2641.7299999999814","","","post_mooney1_questions","survey-likert","526","1493804","0.0-6.0-2.74","2699057","co38215","norming","","","{""curiosity"":1,""confidence"":2}","[0,1]","../img/tt/094tt.jpg","",""
"1526.9200000001583","","","recognition","survey-text","527","1495332","0.0-6.0-3.74","2699057","co38215","norming","","","{""guess"":""koe""}","","../img/tt/094tt.jpg","",""
"null","../img/gs/094gs.jpg","null","reveal","image-keyboard-response","528","1497336","0.0-6.0-4.74","2699057","co38215","norming","","","","","","",""
"null","../img/tt/094tt.jpg","null","mooney2","image-keyboard-response","529","1499347","0.0-6.0-5.74","2699057","co38215","norming","","","","","","",""
"2501.6949999998324","","","post_reveal_questions","survey-likert","530","1501851","0.0-6.0-6.74","2699057","co38215","norming","","","{""aha"":5}","[0]","../img/tt/094tt.jpg","",""
"null","<div style=""font-size:60px;""> </div>","null","fixation","html-keyboard-response","531","1502055","0.0-6.0-0.75","2699057","co38215","norming","","","","","","",""
"null","../img/tt/1224tt.jpg","null","mooney1","image-keyboard-response","532","1505063","0.0-6.0-1.75","2699057","co38215","norming","","","","","","",""
"2593.024999999907","","","post_mooney1_questions","survey-likert","533","1507660","0.0-6.0-2.75","2699057","co38215","norming","","","{""curiosity"":2,""confidence"":2}","[0,1]","../img/tt/1224tt.jpg","",""
"4318.154999999795","","","recognition","survey-text","534","1511980","0.0-6.0-3.75","2699057","co38215","norming","","","{""guess"":""vrouw""}","","../img/tt/1224tt.jpg","",""
"null","../img/gs/1224gs.jpg","null","reveal","image-keyboard-response","535","1513987","0.0-6.0-4.75","2699057","co38215","norming","","","","","","",""
"null","../img/tt/1224tt.jpg","null","mooney2","image-keyboard-response","536","1515990","0.0-6.0-5.75","2699057","co38215","norming","","","","","","",""
"2083.1399999998976","","","post_reveal_questions","survey-likert","537","1518076","0.0-6.0-6.75","2699057","co38215","norming","","","{""aha"":5}","[0]","../img/tt/1224tt.jpg","",""
"null","<div style=""font-size:60px;""> </div>","null","fixation","html-keyboard-response","538","1518283","0.0-6.0-0.76","2699057","co38215","norming","","","","","","",""
"null","../img/tt/496tt.jpg","null","mooney1","image-keyboard-response","539","1521286","0.0-6.0-1.76","2699057","co38215","norming","","","","","","",""
"2570.989999999758","","","post_mooney1_questions","survey-likert","540","1523860","0.0-6.0-2.76","2699057","co38215","norming","","","{""curiosity"":2,""confidence"":3}","[0,1]","../img/tt/496tt.jpg","",""
"1949.9149999998044","","","recognition","survey-text","541","1525811","0.0-6.0-3.76","2699057","co38215","norming","","","{""guess"":""big""}","","../img/tt/496tt.jpg","",""
"null","../img/gs/496gs.jpg","null","reveal","image-keyboard-response","542","1527813","0.0-6.0-4.76","2699057","co38215","norming","","","","","","",""
"null","../img/tt/496tt.jpg","null","mooney2","image-keyboard-response","543","1529822","0.0-6.0-5.76","2699057","co38215","norming","","","","","","",""
"2125.08499999973","","","post_reveal_questions","survey-likert","544","1531948","0.0-6.0-6.76","2699057","co38215","norming","","","{""aha"":4}","[0]","../img/tt/496tt.jpg","",""
"null","<div style=""font-size:60px;""> </div>","null","fixation","html-keyboard-response","545","1532151","0.0-6.0-0.77","2699057","co38215","norming","","","","","","",""
"null","../img/tt/1366tt.jpg","null","mooney1","image-keyboard-response","546","1535160","0.0-6.0-1.77","2699057","co38215","norming","","","","","","",""
"3488.155000000028","","","post_mooney1_questions","survey-likert","547","1538652","0.0-6.0-2.77","2699057","co38215","norming","","","{""curiosity"":1,""confidence"":2}","[0,1]","../img/tt/1366tt.jpg","",""
"1573.9200000001583","","","recognition","survey-text","548","1540228","0.0-6.0-3.77","2699057","co38215","norming","","","{""guess"":""bord""}","","../img/tt/1366tt.jpg","",""
"null","../img/gs/1366gs.jpg","null","reveal","image-keyboard-response","549","1542234","0.0-6.0-4.77","2699057","co38215","norming","","","","","","",""
"null","../img/tt/1366tt.jpg","null","mooney2","image-keyboard-response","550","1544237","0.0-6.0-5.77","2699057","co38215","norming","","","","","","",""
"2395.719999999972","","","post_reveal_questions","survey-likert","551","1546636","0.0-6.0-6.77","2699057","co38215","norming","","","{""aha"":4}","[0]","../img/tt/1366tt.jpg","",""
