"rt","stimulus","key_press","test_part","trial_type","trial_index","time_elapsed","internal_node_id","totalTime","subject","experiment_name","button_pressed","success","responses","question_order","currentStim","old","correct"
"5289.709999999999","Welcome to the experiment. This is an online experiment so please don't close the tab/window until we say goodbye.  Press any key to begin.","100","instructions","html-keyboard-response","0","5304","0.0-0.0","2708163","co38356","norming","","","","","","",""
"35161.11500000001","<div style='word-wrap: break-word; width: 900px'><h3>Please consider this information carefully before deciding whether to participate in this research</h3><ul style='text-align: left; font-size: .8em;'><li><b>Purpose of the research</b>: To examine how people process images.</li><li><b>What you will do in this research</b>:  Stimuli (images) will be presented on the computer and you will be asked different questions about them.</li><li><b>Time required</b>: Participation will take between 45 and 60 minutes to complete.</li><li><b>Risks</b>:  There are no anticipated risks associated with participating in this study. The effects of participating should be comparable to those you would experience from viewing a computer monitor for 30 minutes and using a mouse or keyboard.</li><li><b>Benefits</b>:  This study provides no benefits to you individually except for the credit. The study provides important information about the nature of perception and learning.</li><li><b>Confidentiality</b>:  Your participation in this study will remain confidential. No personally identifiable information will be associated with your data. Your de-identified data may be shared with other researchers and used in future projects.</li><li><b>Participation and withdrawal</b>:  Your participation in this study is completely voluntary and you may refuse to participate or you may choose to withdraw at any time without penalty.</li><li><b>How to contact the researchers</b>: If you have questions or concerns about your participation or payment, or want to request a summary of research findings, please contact Sander Van de Cruys (KU Leuven), at sander.vandecruys@kuleuven.be.</li></ul><p>The nature and purpose of this research have been sufficiently explained and I agree to participate in this study.  I understand that I am free to withdraw at any time without incurring any penalty.</p><p>Please consent by clicking the button below to continue. Otherwise, please exit the study at this time.</p></div>","","instructions","html-button-response","1","40468","0.0-1.0","2708163","co38356","norming","0","","","","","",""
"","","","instructions","fullscreen","2","44053","0.0-2.0","2708163","co38356","norming","","true","","","","",""
"29629.484999999993","","","sona","survey-html-form","3","73689","0.0-3.0","2708163","co38356","norming","","","[{""name"":""sonaid"",""value"":""38356""},{""name"":""debrief"",""value"":""yes""},{""name"":""datajoin"",""value"":""yes""}]","","","",""
"73582.26499999998","<div style='word-wrap: break-word; width: 900px'><h3>Instructions</h3><p>This experiment will have 3 parts. In the first part you will see a series of distorted images like the one below on the left. As you can see in the righthand image, the distorted images are derived from actual photographs. In what follows, you will <strong>briefly</strong> be presented with <strong>only</strong> the distorted image.</p> <div style='float: left; margin-right: 20px;'><img src='../img/018tt.jpg' height='250' width='250'></img></div><div style='float: right; margin-left: 20px;'><img src='../img/018gs.jpg' height='250' width='250'></img></div><p>Subsequently you will be asked a few questions about the image: One question on how <strong>curious</strong> you are about the solution and one on how <strong>confident</strong> you are that you know the solution.</p>Next, we ask you to make a guess on what is in the image. Note that it is OK to name just the <strong>basic level category</strong>. For example when you see a parrot in the image, 'parrot' will obviously be a correct answer but also correct is 'bird'. However, 'animal' will <strong>not</strong> be counted as a correct response. For the example above, 'rose' would be correct or 'flower', but not 'plant'. When soccer players are depicted, 'soccer', 'football', 'soccer players' will be correct, but not 'humans', 'outdoors', or 'sports'. You do not need to describe the image in full, just name the main object in it <strong>in one or two words</strong>. All images depict objects from one of the following broad level categories: animals, inanimate objects, plants, sports, vehicles, and food. Recognizing means knowing <strong>more</strong> than these broad labels for a given image. But we always encourage you to <strong>make a guess</strong> if you can. Note that you are allowed to use <strong>Dutch and English</strong> in your answers, whatever comes easiest for you.</p><p>Press any key to continue.</p></div>","13","instructions","html-keyboard-response","4","147273","0.0-4.0","2708163","co38356","norming","","","","","","",""
"19423.295000000013","<div style='word-wrap: break-word; width: 900px'><h3>Instructions</h3> <p>Next, the solution image will be revealed to you and you'll be asked to indicate how strong your <strong>aha-experience</strong> was after seeing the solution. This describes the positive feeling of the 'click' you sometimes experience, when the pieces of the 'puzzle' fall together and you suddenly have 'insight' in the image.</p><img src='aha.jpg' height='188' width='250'></img><p>Note that there are no right or wrong answers. We are interested in what <strong>you</strong> see in the image and how <strong>you</strong> feel about it.</p><p>Press any key to start the experiment.</p></div>","13","instructions","html-keyboard-response","5","166697","0.0-5.0","2708163","co38356","norming","","","","","","",""
"null","<div style=""font-size:60px;""> </div>","null","fixation","html-keyboard-response","6","166901","0.0-6.0-0.0","2708163","co38356","norming","","","","","","",""
"null","../img/tt/1128tt.jpg","null","mooney1","image-keyboard-response","7","169909","0.0-6.0-1.0","2708163","co38356","norming","","","","","","",""
"10739.50000000003","","","post_mooney1_questions","survey-likert","8","180650","0.0-6.0-2.0","2708163","co38356","norming","","","{""curiosity"":4,""confidence"":2}","[0,1]","../img/tt/1128tt.jpg","",""
"3549.470000000001","","","recognition","survey-text","9","184202","0.0-6.0-3.0","2708163","co38356","norming","","","{""guess"":""Cow""}","","../img/tt/1128tt.jpg","",""
"null","../img/gs/1128gs.jpg","null","reveal","image-keyboard-response","10","186211","0.0-6.0-4.0","2708163","co38356","norming","","","","","","",""
"null","../img/tt/1128tt.jpg","null","mooney2","image-keyboard-response","11","188220","0.0-6.0-5.0","2708163","co38356","norming","","","","","","",""
"8316.815000000031","","","post_reveal_questions","survey-likert","12","196538","0.0-6.0-6.0","2708163","co38356","norming","","","{""aha"":1}","[0]","../img/tt/1128tt.jpg","",""
"null","<div style=""font-size:60px;""> </div>","null","fixation","html-keyboard-response","13","196739","0.0-6.0-0.1","2708163","co38356","norming","","","","","","",""
"null","../img/tt/1086tt.jpg","null","mooney1","image-keyboard-response","14","199748","0.0-6.0-1.1","2708163","co38356","norming","","","","","","",""
"7620.380000000005","","","post_mooney1_questions","survey-likert","15","207369","0.0-6.0-2.1","2708163","co38356","norming","","","{""curiosity"":4,""confidence"":1}","[0,1]","../img/tt/1086tt.jpg","",""
"1982.045000000042","","","recognition","survey-text","16","209353","0.0-6.0-3.1","2708163","co38356","norming","","","{""guess"":""Dog""}","","../img/tt/1086tt.jpg","",""
"null","../img/gs/1086gs.jpg","null","reveal","image-keyboard-response","17","211359","0.0-6.0-4.1","2708163","co38356","norming","","","","","","",""
"null","../img/tt/1086tt.jpg","null","mooney2","image-keyboard-response","18","213362","0.0-6.0-5.1","2708163","co38356","norming","","","","","","",""
"7142.005000000034","","","post_reveal_questions","survey-likert","19","220505","0.0-6.0-6.1","2708163","co38356","norming","","","{""aha"":4}","[0]","../img/tt/1086tt.jpg","",""
"null","<div style=""font-size:60px;""> </div>","null","fixation","html-keyboard-response","20","220713","0.0-6.0-0.2","2708163","co38356","norming","","","","","","",""
"null","../img/tt/081tt.jpg","null","mooney1","image-keyboard-response","21","223715","0.0-6.0-1.2","2708163","co38356","norming","","","","","","",""
"4245.204999999987","","","post_mooney1_questions","survey-likert","22","227961","0.0-6.0-2.2","2708163","co38356","norming","","","{""curiosity"":4,""confidence"":1}","[0,1]","../img/tt/081tt.jpg","",""
"1566.2749999999942","","","recognition","survey-text","23","229529","0.0-6.0-3.2","2708163","co38356","norming","","","{""guess"":""Dog""}","","../img/tt/081tt.jpg","",""
"null","../img/gs/081gs.jpg","null","reveal","image-keyboard-response","24","231538","0.0-6.0-4.2","2708163","co38356","norming","","","","","","",""
"null","../img/tt/081tt.jpg","null","mooney2","image-keyboard-response","25","233549","0.0-6.0-5.2","2708163","co38356","norming","","","","","","",""
"5627.655000000028","","","post_reveal_questions","survey-likert","26","239177","0.0-6.0-6.2","2708163","co38356","norming","","","{""aha"":2}","[0]","../img/tt/081tt.jpg","",""
"null","<div style=""font-size:60px;""> </div>","null","fixation","html-keyboard-response","27","239380","0.0-6.0-0.3","2708163","co38356","norming","","","","","","",""
"null","../img/tt/1070tt.jpg","null","mooney1","image-keyboard-response","28","242389","0.0-6.0-1.3","2708163","co38356","norming","","","","","","",""
"4755.6750000000175","","","post_mooney1_questions","survey-likert","29","247145","0.0-6.0-2.3","2708163","co38356","norming","","","{""curiosity"":4,""confidence"":1}","[0,1]","../img/tt/1070tt.jpg","",""
"1629.8150000000314","","","recognition","survey-text","30","248777","0.0-6.0-3.3","2708163","co38356","norming","","","{""guess"":""Corn""}","","../img/tt/1070tt.jpg","",""
"null","../img/gs/1070gs.jpg","null","reveal","image-keyboard-response","31","250781","0.0-6.0-4.3","2708163","co38356","norming","","","","","","",""
"null","../img/tt/1070tt.jpg","null","mooney2","image-keyboard-response","32","252782","0.0-6.0-5.3","2708163","co38356","norming","","","","","","",""
"8506.160000000033","","","post_reveal_questions","survey-likert","33","261289","0.0-6.0-6.3","2708163","co38356","norming","","","{""aha"":3}","[0]","../img/tt/1070tt.jpg","",""
"null","<div style=""font-size:60px;""> </div>","null","fixation","html-keyboard-response","34","261496","0.0-6.0-0.4","2708163","co38356","norming","","","","","","",""
"null","../img/tt/315tt.jpg","null","mooney1","image-keyboard-response","35","264499","0.0-6.0-1.4","2708163","co38356","norming","","","","","","",""
"7493.525000000023","","","post_mooney1_questions","survey-likert","36","271976","0.0-6.0-2.4","2708163","co38356","norming","","","{""curiosity"":5,""confidence"":4}","[0,1]","../img/tt/315tt.jpg","",""
"2110.2450000000536","","","recognition","survey-text","37","274088","0.0-6.0-3.4","2708163","co38356","norming","","","{""guess"":""Bird""}","","../img/tt/315tt.jpg","",""
"null","../img/gs/315gs.jpg","null","reveal","image-keyboard-response","38","276098","0.0-6.0-4.4","2708163","co38356","norming","","","","","","",""
"null","../img/tt/315tt.jpg","null","mooney2","image-keyboard-response","39","278103","0.0-6.0-5.4","2708163","co38356","norming","","","","","","",""
"6448.515000000014","","","post_reveal_questions","survey-likert","40","284553","0.0-6.0-6.4","2708163","co38356","norming","","","{""aha"":3}","[0]","../img/tt/315tt.jpg","",""
"null","<div style=""font-size:60px;""> </div>","null","fixation","html-keyboard-response","41","284755","0.0-6.0-0.5","2708163","co38356","norming","","","","","","",""
"null","../img/tt/517tt.jpg","null","mooney1","image-keyboard-response","42","287764","0.0-6.0-1.5","2708163","co38356","norming","","","","","","",""
"6105.859999999986","","","post_mooney1_questions","survey-likert","43","293872","0.0-6.0-2.5","2708163","co38356","norming","","","{""curiosity"":5,""confidence"":1}","[0,1]","../img/tt/517tt.jpg","",""
"1926.195000000007","","","recognition","survey-text","44","295800","0.0-6.0-3.5","2708163","co38356","norming","","","{""guess"":""Sloth""}","","../img/tt/517tt.jpg","",""
"null","../img/gs/517gs.jpg","null","reveal","image-keyboard-response","45","297804","0.0-6.0-4.5","2708163","co38356","norming","","","","","","",""
"null","../img/tt/517tt.jpg","null","mooney2","image-keyboard-response","46","299807","0.0-6.0-5.5","2708163","co38356","norming","","","","","","",""
"2654.9099999999744","","","post_reveal_questions","survey-likert","47","302464","0.0-6.0-6.5","2708163","co38356","norming","","","{""aha"":4}","[0]","../img/tt/517tt.jpg","",""
"null","<div style=""font-size:60px;""> </div>","null","fixation","html-keyboard-response","48","302666","0.0-6.0-0.6","2708163","co38356","norming","","","","","","",""
"null","../img/tt/1004tt.jpg","null","mooney1","image-keyboard-response","49","305675","0.0-6.0-1.6","2708163","co38356","norming","","","","","","",""
"6508.819999999949","","","post_mooney1_questions","survey-likert","50","312184","0.0-6.0-2.6","2708163","co38356","norming","","","{""curiosity"":4,""confidence"":0}","[0,1]","../img/tt/1004tt.jpg","",""
"2606.3249999999534","","","recognition","survey-text","51","314792","0.0-6.0-3.6","2708163","co38356","norming","","","{""guess"":""Spider""}","","../img/tt/1004tt.jpg","",""
"null","../img/gs/1004gs.jpg","null","reveal","image-keyboard-response","52","316795","0.0-6.0-4.6","2708163","co38356","norming","","","","","","",""
"null","../img/tt/1004tt.jpg","null","mooney2","image-keyboard-response","53","318798","0.0-6.0-5.6","2708163","co38356","norming","","","","","","",""
"1719.5599999999977","","","post_reveal_questions","survey-likert","54","320520","0.0-6.0-6.6","2708163","co38356","norming","","","{""aha"":4}","[0]","../img/tt/1004tt.jpg","",""
"null","<div style=""font-size:60px;""> </div>","null","fixation","html-keyboard-response","55","320730","0.0-6.0-0.7","2708163","co38356","norming","","","","","","",""
"null","../img/tt/378tt.jpg","null","mooney1","image-keyboard-response","56","323738","0.0-6.0-1.7","2708163","co38356","norming","","","","","","",""
"10435.310000000056","","","post_mooney1_questions","survey-likert","57","334136","0.0-6.0-2.7","2708163","co38356","norming","","","{""curiosity"":4,""confidence"":0}","[0,1]","../img/tt/378tt.jpg","",""
"2909.9199999999837","","","recognition","survey-text","58","337048","0.0-6.0-3.7","2708163","co38356","norming","","","{""guess"":""""}","","../img/tt/378tt.jpg","",""
"null","../img/gs/378gs.jpg","null","reveal","image-keyboard-response","59","339049","0.0-6.0-4.7","2708163","co38356","norming","","","","","","",""
"null","../img/tt/378tt.jpg","null","mooney2","image-keyboard-response","60","341051","0.0-6.0-5.7","2708163","co38356","norming","","","","","","",""
"2386.429999999993","","","post_reveal_questions","survey-likert","61","343440","0.0-6.0-6.7","2708163","co38356","norming","","","{""aha"":3}","[0]","../img/tt/378tt.jpg","",""
"null","<div style=""font-size:60px;""> </div>","null","fixation","html-keyboard-response","62","343641","0.0-6.0-0.8","2708163","co38356","norming","","","","","","",""
"null","../img/tt/1309tt.jpg","null","mooney1","image-keyboard-response","63","346652","0.0-6.0-1.8","2708163","co38356","norming","","","","","","",""
"6473.034999999974","","","post_mooney1_questions","survey-likert","64","353128","0.0-6.0-2.8","2708163","co38356","norming","","","{""curiosity"":4,""confidence"":3}","[0,1]","../img/tt/1309tt.jpg","",""
"1398.1049999999814","","","recognition","survey-text","65","354528","0.0-6.0-3.8","2708163","co38356","norming","","","{""guess"":""Car""}","","../img/tt/1309tt.jpg","",""
"null","../img/gs/1309gs.jpg","null","reveal","image-keyboard-response","66","356532","0.0-6.0-4.8","2708163","co38356","norming","","","","","","",""
"null","../img/tt/1309tt.jpg","null","mooney2","image-keyboard-response","67","358532","0.0-6.0-5.8","2708163","co38356","norming","","","","","","",""
"3473.9000000000233","","","post_reveal_questions","survey-likert","68","362008","0.0-6.0-6.8","2708163","co38356","norming","","","{""aha"":3}","[0]","../img/tt/1309tt.jpg","",""
"null","<div style=""font-size:60px;""> </div>","null","fixation","html-keyboard-response","69","362218","0.0-6.0-0.9","2708163","co38356","norming","","","","","","",""
"null","../img/tt/055tt.jpg","null","mooney1","image-keyboard-response","70","365225","0.0-6.0-1.9","2708163","co38356","norming","","","","","","",""
"3782.4499999999534","","","post_mooney1_questions","survey-likert","71","369008","0.0-6.0-2.9","2708163","co38356","norming","","","{""curiosity"":4,""confidence"":0}","[0,1]","../img/tt/055tt.jpg","",""
"822.1249999999418","","","recognition","survey-text","72","369832","0.0-6.0-3.9","2708163","co38356","norming","","","{""guess"":""""}","","../img/tt/055tt.jpg","",""
"null","../img/gs/055gs.jpg","null","reveal","image-keyboard-response","73","371838","0.0-6.0-4.9","2708163","co38356","norming","","","","","","",""
"null","../img/tt/055tt.jpg","null","mooney2","image-keyboard-response","74","373843","0.0-6.0-5.9","2708163","co38356","norming","","","","","","",""
"5746.914999999979","","","post_reveal_questions","survey-likert","75","379592","0.0-6.0-6.9","2708163","co38356","norming","","","{""aha"":3}","[0]","../img/tt/055tt.jpg","",""
"null","<div style=""font-size:60px;""> </div>","null","fixation","html-keyboard-response","76","379797","0.0-6.0-0.10","2708163","co38356","norming","","","","","","",""
"null","../img/tt/140tt.jpg","null","mooney1","image-keyboard-response","77","382803","0.0-6.0-1.10","2708163","co38356","norming","","","","","","",""
"4874.320000000007","","","post_mooney1_questions","survey-likert","78","387680","0.0-6.0-2.10","2708163","co38356","norming","","","{""curiosity"":4,""confidence"":5}","[0,1]","../img/tt/140tt.jpg","",""
"2078.1900000000023","","","recognition","survey-text","79","389760","0.0-6.0-3.10","2708163","co38356","norming","","","{""guess"":""Fork""}","","../img/tt/140tt.jpg","",""
"null","../img/gs/140gs.jpg","null","reveal","image-keyboard-response","80","391762","0.0-6.0-4.10","2708163","co38356","norming","","","","","","",""
"null","../img/tt/140tt.jpg","null","mooney2","image-keyboard-response","81","393725","0.0-6.0-5.10","2708163","co38356","norming","","","","","","",""
"5538.320000000007","","","post_reveal_questions","survey-likert","82","399266","0.0-6.0-6.10","2708163","co38356","norming","","","{""aha"":2}","[0]","../img/tt/140tt.jpg","",""
"null","<div style=""font-size:60px;""> </div>","null","fixation","html-keyboard-response","83","399476","0.0-6.0-0.11","2708163","co38356","norming","","","","","","",""
"null","../img/tt/096tt.jpg","null","mooney1","image-keyboard-response","84","402479","0.0-6.0-1.11","2708163","co38356","norming","","","","","","",""
"6800.675000000105","","","post_mooney1_questions","survey-likert","85","409282","0.0-6.0-2.11","2708163","co38356","norming","","","{""curiosity"":5,""confidence"":4}","[0,1]","../img/tt/096tt.jpg","",""
"1990.274999999965","","","recognition","survey-text","86","411274","0.0-6.0-3.11","2708163","co38356","norming","","","{""guess"":""Saw""}","","../img/tt/096tt.jpg","",""
"null","../img/gs/096gs.jpg","null","reveal","image-keyboard-response","87","413278","0.0-6.0-4.11","2708163","co38356","norming","","","","","","",""
"null","../img/tt/096tt.jpg","null","mooney2","image-keyboard-response","88","415289","0.0-6.0-5.11","2708163","co38356","norming","","","","","","",""
"3174.9400000000023","","","post_reveal_questions","survey-likert","89","418466","0.0-6.0-6.11","2708163","co38356","norming","","","{""aha"":4}","[0]","../img/tt/096tt.jpg","",""
"null","<div style=""font-size:60px;""> </div>","null","fixation","html-keyboard-response","90","418670","0.0-6.0-0.12","2708163","co38356","norming","","","","","","",""
"null","../img/tt/008tt.jpg","null","mooney1","image-keyboard-response","91","421676","0.0-6.0-1.12","2708163","co38356","norming","","","","","","",""
"3147.460000000021","","","post_mooney1_questions","survey-likert","92","424826","0.0-6.0-2.12","2708163","co38356","norming","","","{""curiosity"":4,""confidence"":0}","[0,1]","../img/tt/008tt.jpg","",""
"606","","","recognition","survey-text","93","425434","0.0-6.0-3.12","2708163","co38356","norming","","","{""guess"":""""}","","../img/tt/008tt.jpg","",""
"null","../img/gs/008gs.jpg","null","reveal","image-keyboard-response","94","427443","0.0-6.0-4.12","2708163","co38356","norming","","","","","","",""
"null","../img/tt/008tt.jpg","null","mooney2","image-keyboard-response","95","429454","0.0-6.0-5.12","2708163","co38356","norming","","","","","","",""
"3017.600000000035","","","post_reveal_questions","survey-likert","96","432474","0.0-6.0-6.12","2708163","co38356","norming","","","{""aha"":4}","[0]","../img/tt/008tt.jpg","",""
"null","<div style=""font-size:60px;""> </div>","null","fixation","html-keyboard-response","97","432677","0.0-6.0-0.13","2708163","co38356","norming","","","","","","",""
"null","../img/tt/1242tt.jpg","null","mooney1","image-keyboard-response","98","435688","0.0-6.0-1.13","2708163","co38356","norming","","","","","","",""
"3287.1699999999255","","","post_mooney1_questions","survey-likert","99","438978","0.0-6.0-2.13","2708163","co38356","norming","","","{""curiosity"":4,""confidence"":0}","[0,1]","../img/tt/1242tt.jpg","",""
"998.1550000000279","","","recognition","survey-text","100","439978","0.0-6.0-3.13","2708163","co38356","norming","","","{""guess"":""""}","","../img/tt/1242tt.jpg","",""
"null","../img/gs/1242gs.jpg","null","reveal","image-keyboard-response","101","441980","0.0-6.0-4.13","2708163","co38356","norming","","","","","","",""
"null","../img/tt/1242tt.jpg","null","mooney2","image-keyboard-response","102","443986","0.0-6.0-5.13","2708163","co38356","norming","","","","","","",""
"4511.515000000072","","","post_reveal_questions","survey-likert","103","448498","0.0-6.0-6.13","2708163","co38356","norming","","","{""aha"":2}","[0]","../img/tt/1242tt.jpg","",""
"null","<div style=""font-size:60px;""> </div>","null","fixation","html-keyboard-response","104","448708","0.0-6.0-0.14","2708163","co38356","norming","","","","","","",""
"null","../img/tt/063tt.jpg","null","mooney1","image-keyboard-response","105","451714","0.0-6.0-1.14","2708163","co38356","norming","","","","","","",""
"5093.415000000037","","","post_mooney1_questions","survey-likert","106","456763","0.0-6.0-2.14","2708163","co38356","norming","","","{""curiosity"":4,""confidence"":1}","[0,1]","../img/tt/063tt.jpg","",""
"2798.3099999999977","","","recognition","survey-text","107","459563","0.0-6.0-3.14","2708163","co38356","norming","","","{""guess"":""Wallet""}","","../img/tt/063tt.jpg","",""
"null","../img/gs/063gs.jpg","null","reveal","image-keyboard-response","108","461573","0.0-6.0-4.14","2708163","co38356","norming","","","","","","",""
"null","../img/tt/063tt.jpg","null","mooney2","image-keyboard-response","109","463575","0.0-6.0-5.14","2708163","co38356","norming","","","","","","",""
"2969.060000000056","","","post_reveal_questions","survey-likert","110","466547","0.0-6.0-6.14","2708163","co38356","norming","","","{""aha"":2}","[0]","../img/tt/063tt.jpg","",""
"null","<div style=""font-size:60px;""> </div>","null","fixation","html-keyboard-response","111","466752","0.0-6.0-0.15","2708163","co38356","norming","","","","","","",""
"null","../img/tt/1181tt.jpg","null","mooney1","image-keyboard-response","112","469760","0.0-6.0-1.15","2708163","co38356","norming","","","","","","",""
"8568.485000000044","","","post_mooney1_questions","survey-likert","113","478331","0.0-6.0-2.15","2708163","co38356","norming","","","{""curiosity"":4,""confidence"":1}","[0,1]","../img/tt/1181tt.jpg","",""
"3070.1149999999907","","","recognition","survey-text","114","481403","0.0-6.0-3.15","2708163","co38356","norming","","","{""guess"":""People""}","","../img/tt/1181tt.jpg","",""
"null","../img/gs/1181gs.jpg","null","reveal","image-keyboard-response","115","483409","0.0-6.0-4.15","2708163","co38356","norming","","","","","","",""
"null","../img/tt/1181tt.jpg","null","mooney2","image-keyboard-response","116","485419","0.0-6.0-5.15","2708163","co38356","norming","","","","","","",""
"4549.6900000000605","","","post_reveal_questions","survey-likert","117","489971","0.0-6.0-6.15","2708163","co38356","norming","","","{""aha"":4}","[0]","../img/tt/1181tt.jpg","",""
"null","<div style=""font-size:60px;""> </div>","null","fixation","html-keyboard-response","118","490175","0.0-6.0-0.16","2708163","co38356","norming","","","","","","",""
"null","../img/tt/1243tt.jpg","null","mooney1","image-keyboard-response","119","493180","0.0-6.0-1.16","2708163","co38356","norming","","","","","","",""
"8838.160000000033","","","post_mooney1_questions","survey-likert","120","502019","0.0-6.0-2.16","2708163","co38356","norming","","","{""curiosity"":5,""confidence"":1}","[0,1]","../img/tt/1243tt.jpg","",""
"3301.884999999951","","","recognition","survey-text","121","505323","0.0-6.0-3.16","2708163","co38356","norming","","","{""guess"":""Soccer players""}","","../img/tt/1243tt.jpg","",""
"null","../img/gs/1243gs.jpg","null","reveal","image-keyboard-response","122","507333","0.0-6.0-4.16","2708163","co38356","norming","","","","","","",""
"null","../img/tt/1243tt.jpg","null","mooney2","image-keyboard-response","123","509341","0.0-6.0-5.16","2708163","co38356","norming","","","","","","",""
"1899.4299999999348","","","post_reveal_questions","survey-likert","124","511243","0.0-6.0-6.16","2708163","co38356","norming","","","{""aha"":3}","[0]","../img/tt/1243tt.jpg","",""
"null","<div style=""font-size:60px;""> </div>","null","fixation","html-keyboard-response","125","511444","0.0-6.0-0.17","2708163","co38356","norming","","","","","","",""
"null","../img/tt/416tt.jpg","null","mooney1","image-keyboard-response","126","514420","0.0-6.0-1.17","2708163","co38356","norming","","","","","","",""
"6039.854999999981","","","post_mooney1_questions","survey-likert","127","520462","0.0-6.0-2.17","2708163","co38356","norming","","","{""curiosity"":4,""confidence"":2}","[0,1]","../img/tt/416tt.jpg","",""
"3086.4000000000233","","","recognition","survey-text","128","523551","0.0-6.0-3.17","2708163","co38356","norming","","","{""guess"":""Birds""}","","../img/tt/416tt.jpg","",""
"null","../img/gs/416gs.jpg","null","reveal","image-keyboard-response","129","525552","0.0-6.0-4.17","2708163","co38356","norming","","","","","","",""
"null","../img/tt/416tt.jpg","null","mooney2","image-keyboard-response","130","527554","0.0-6.0-5.17","2708163","co38356","norming","","","","","","",""
"3529.8799999998882","","","post_reveal_questions","survey-likert","131","531086","0.0-6.0-6.17","2708163","co38356","norming","","","{""aha"":4}","[0]","../img/tt/416tt.jpg","",""
"null","<div style=""font-size:60px;""> </div>","null","fixation","html-keyboard-response","132","531294","0.0-6.0-0.18","2708163","co38356","norming","","","","","","",""
"null","../img/tt/318tt.jpg","null","mooney1","image-keyboard-response","133","534299","0.0-6.0-1.18","2708163","co38356","norming","","","","","","",""
"3296.765000000014","","","post_mooney1_questions","survey-likert","134","537599","0.0-6.0-2.18","2708163","co38356","norming","","","{""curiosity"":4,""confidence"":0}","[0,1]","../img/tt/318tt.jpg","",""
"1030.0849999999627","","","recognition","survey-text","135","538630","0.0-6.0-3.18","2708163","co38356","norming","","","{""guess"":""""}","","../img/tt/318tt.jpg","",""
"null","../img/gs/318gs.jpg","null","reveal","image-keyboard-response","136","540631","0.0-6.0-4.18","2708163","co38356","norming","","","","","","",""
"null","../img/tt/318tt.jpg","null","mooney2","image-keyboard-response","137","542637","0.0-6.0-5.18","2708163","co38356","norming","","","","","","",""
"3086.9949999999953","","","post_reveal_questions","survey-likert","138","545726","0.0-6.0-6.18","2708163","co38356","norming","","","{""aha"":4}","[0]","../img/tt/318tt.jpg","",""
"null","<div style=""font-size:60px;""> </div>","null","fixation","html-keyboard-response","139","545937","0.0-6.0-0.19","2708163","co38356","norming","","","","","","",""
"null","../img/tt/1290tt.jpg","null","mooney1","image-keyboard-response","140","548947","0.0-6.0-1.19","2708163","co38356","norming","","","","","","",""
"9160.520000000019","","","post_mooney1_questions","survey-likert","141","558111","0.0-6.0-2.19","2708163","co38356","norming","","","{""curiosity"":5,""confidence"":1}","[0,1]","../img/tt/1290tt.jpg","",""
"2509.7449999999953","","","recognition","survey-text","142","560622","0.0-6.0-3.19","2708163","co38356","norming","","","{""guess"":""Blimp""}","","../img/tt/1290tt.jpg","",""
"null","../img/gs/1290gs.jpg","null","reveal","image-keyboard-response","143","562625","0.0-6.0-4.19","2708163","co38356","norming","","","","","","",""
"null","../img/tt/1290tt.jpg","null","mooney2","image-keyboard-response","144","564628","0.0-6.0-5.19","2708163","co38356","norming","","","","","","",""
"3375.9349999999395","","","post_reveal_questions","survey-likert","145","568006","0.0-6.0-6.19","2708163","co38356","norming","","","{""aha"":4}","[0]","../img/tt/1290tt.jpg","",""
"null","<div style=""font-size:60px;""> </div>","null","fixation","html-keyboard-response","146","568216","0.0-6.0-0.20","2708163","co38356","norming","","","","","","",""
"null","../img/tt/1048tt.jpg","null","mooney1","image-keyboard-response","147","571225","0.0-6.0-1.20","2708163","co38356","norming","","","","","","",""
"4476.865000000107","","","post_mooney1_questions","survey-likert","148","575681","0.0-6.0-2.20","2708163","co38356","norming","","","{""curiosity"":4,""confidence"":0}","[0,1]","../img/tt/1048tt.jpg","",""
"646.0749999999534","","","recognition","survey-text","149","576328","0.0-6.0-3.20","2708163","co38356","norming","","","{""guess"":""""}","","../img/tt/1048tt.jpg","",""
"null","../img/gs/1048gs.jpg","null","reveal","image-keyboard-response","150","578332","0.0-6.0-4.20","2708163","co38356","norming","","","","","","",""
"null","../img/tt/1048tt.jpg","null","mooney2","image-keyboard-response","151","580341","0.0-6.0-5.20","2708163","co38356","norming","","","","","","",""
"3474.229999999865","","","post_reveal_questions","survey-likert","152","583817","0.0-6.0-6.20","2708163","co38356","norming","","","{""aha"":2}","[0]","../img/tt/1048tt.jpg","",""
"null","<div style=""font-size:60px;""> </div>","null","fixation","html-keyboard-response","153","584027","0.0-6.0-0.21","2708163","co38356","norming","","","","","","",""
"null","../img/tt/040tt.jpg","null","mooney1","image-keyboard-response","154","587038","0.0-6.0-1.21","2708163","co38356","norming","","","","","","",""
"5938.040000000037","","","post_mooney1_questions","survey-likert","155","592977","0.0-6.0-2.21","2708163","co38356","norming","","","{""curiosity"":4,""confidence"":1}","[0,1]","../img/tt/040tt.jpg","",""
"1942.295000000042","","","recognition","survey-text","156","594921","0.0-6.0-3.21","2708163","co38356","norming","","","{""guess"":""Fox""}","","../img/tt/040tt.jpg","",""
"null","../img/gs/040gs.jpg","null","reveal","image-keyboard-response","157","596925","0.0-6.0-4.21","2708163","co38356","norming","","","","","","",""
"null","../img/tt/040tt.jpg","null","mooney2","image-keyboard-response","158","598935","0.0-6.0-5.21","2708163","co38356","norming","","","","","","",""
"5215.360000000102","","","post_reveal_questions","survey-likert","159","604152","0.0-6.0-6.21","2708163","co38356","norming","","","{""aha"":4}","[0]","../img/tt/040tt.jpg","",""
"null","<div style=""font-size:60px;""> </div>","null","fixation","html-keyboard-response","160","604359","0.0-6.0-0.22","2708163","co38356","norming","","","","","","",""
"null","../img/tt/079tt.jpg","null","mooney1","image-keyboard-response","161","607363","0.0-6.0-1.22","2708163","co38356","norming","","","","","","",""
"5426.795000000042","","","post_mooney1_questions","survey-likert","162","612793","0.0-6.0-2.22","2708163","co38356","norming","","","{""curiosity"":4,""confidence"":4}","[0,1]","../img/tt/079tt.jpg","",""
"2462.1600000000326","","","recognition","survey-text","163","615257","0.0-6.0-3.22","2708163","co38356","norming","","","{""guess"":""Bear""}","","../img/tt/079tt.jpg","",""
"null","../img/gs/079gs.jpg","null","reveal","image-keyboard-response","164","617259","0.0-6.0-4.22","2708163","co38356","norming","","","","","","",""
"null","../img/tt/079tt.jpg","null","mooney2","image-keyboard-response","165","619268","0.0-6.0-5.22","2708163","co38356","norming","","","","","","",""
"6873.989999999874","","","post_reveal_questions","survey-likert","166","626145","0.0-6.0-6.22","2708163","co38356","norming","","","{""aha"":2}","[0]","../img/tt/079tt.jpg","",""
"null","<div style=""font-size:60px;""> </div>","null","fixation","html-keyboard-response","167","626352","0.0-6.0-0.23","2708163","co38356","norming","","","","","","",""
"null","../img/tt/1123tt.jpg","null","mooney1","image-keyboard-response","168","629358","0.0-6.0-1.23","2708163","co38356","norming","","","","","","",""
"4031.3099999999395","","","post_mooney1_questions","survey-likert","169","633393","0.0-6.0-2.23","2708163","co38356","norming","","","{""curiosity"":4,""confidence"":0}","[0,1]","../img/tt/1123tt.jpg","",""
"510.2600000000093","","","recognition","survey-text","170","633904","0.0-6.0-3.23","2708163","co38356","norming","","","{""guess"":""""}","","../img/tt/1123tt.jpg","",""
"null","../img/gs/1123gs.jpg","null","reveal","image-keyboard-response","171","635912","0.0-6.0-4.23","2708163","co38356","norming","","","","","","",""
"null","../img/tt/1123tt.jpg","null","mooney2","image-keyboard-response","172","637914","0.0-6.0-5.23","2708163","co38356","norming","","","","","","",""
"4154.859999999986","","","post_reveal_questions","survey-likert","173","642070","0.0-6.0-6.23","2708163","co38356","norming","","","{""aha"":2}","[0]","../img/tt/1123tt.jpg","",""
"null","<div style=""font-size:60px;""> </div>","null","fixation","html-keyboard-response","174","642275","0.0-6.0-0.24","2708163","co38356","norming","","","","","","",""
"null","../img/tt/1040tt.jpg","null","mooney1","image-keyboard-response","175","645278","0.0-6.0-1.24","2708163","co38356","norming","","","","","","",""
"2812.814999999944","","","post_mooney1_questions","survey-likert","176","648094","0.0-6.0-2.24","2708163","co38356","norming","","","{""curiosity"":4,""confidence"":0}","[0,1]","../img/tt/1040tt.jpg","",""
"566.1199999999953","","","recognition","survey-text","177","648662","0.0-6.0-3.24","2708163","co38356","norming","","","{""guess"":""""}","","../img/tt/1040tt.jpg","",""
"null","../img/gs/1040gs.jpg","null","reveal","image-keyboard-response","178","650663","0.0-6.0-4.24","2708163","co38356","norming","","","","","","",""
"null","../img/tt/1040tt.jpg","null","mooney2","image-keyboard-response","179","652669","0.0-6.0-5.24","2708163","co38356","norming","","","","","","",""
"3846.934999999823","","","post_reveal_questions","survey-likert","180","656518","0.0-6.0-6.24","2708163","co38356","norming","","","{""aha"":2}","[0]","../img/tt/1040tt.jpg","",""
"null","<div style=""font-size:60px;""> </div>","null","fixation","html-keyboard-response","181","656727","0.0-6.0-0.25","2708163","co38356","norming","","","","","","",""
"null","../img/tt/1205tt.jpg","null","mooney1","image-keyboard-response","182","659732","0.0-6.0-1.25","2708163","co38356","norming","","","","","","",""
"4967.035000000033","","","post_mooney1_questions","survey-likert","183","664702","0.0-6.0-2.25","2708163","co38356","norming","","","{""curiosity"":4,""confidence"":3}","[0,1]","../img/tt/1205tt.jpg","",""
"4510.109999999986","","","recognition","survey-text","184","669214","0.0-6.0-3.25","2708163","co38356","norming","","","{""guess"":""Baseball players""}","","../img/tt/1205tt.jpg","",""
"null","../img/gs/1205gs.jpg","null","reveal","image-keyboard-response","185","671222","0.0-6.0-4.25","2708163","co38356","norming","","","","","","",""
"null","../img/tt/1205tt.jpg","null","mooney2","image-keyboard-response","186","673224","0.0-6.0-5.25","2708163","co38356","norming","","","","","","",""
"3635.819999999949","","","post_reveal_questions","survey-likert","187","676862","0.0-6.0-6.25","2708163","co38356","norming","","","{""aha"":2}","[0]","../img/tt/1205tt.jpg","",""
"null","<div style=""font-size:60px;""> </div>","null","fixation","html-keyboard-response","188","677065","0.0-6.0-0.26","2708163","co38356","norming","","","","","","",""
"null","../img/tt/300tt.jpg","null","mooney1","image-keyboard-response","189","680076","0.0-6.0-1.26","2708163","co38356","norming","","","","","","",""
"7183.179999999935","","","post_mooney1_questions","survey-likert","190","687262","0.0-6.0-2.26","2708163","co38356","norming","","","{""curiosity"":4,""confidence"":2}","[0,1]","../img/tt/300tt.jpg","",""
"3902.1149999999907","","","recognition","survey-text","191","691166","0.0-6.0-3.26","2708163","co38356","norming","","","{""guess"":""Native American""}","","../img/tt/300tt.jpg","",""
"null","../img/gs/300gs.jpg","null","reveal","image-keyboard-response","192","693169","0.0-6.0-4.26","2708163","co38356","norming","","","","","","",""
"null","../img/tt/300tt.jpg","null","mooney2","image-keyboard-response","193","695180","0.0-6.0-5.26","2708163","co38356","norming","","","","","","",""
"3752.3850000000093","","","post_reveal_questions","survey-likert","194","698934","0.0-6.0-6.26","2708163","co38356","norming","","","{""aha"":2}","[0]","../img/tt/300tt.jpg","",""
"null","<div style=""font-size:60px;""> </div>","null","fixation","html-keyboard-response","195","699137","0.0-6.0-0.27","2708163","co38356","norming","","","","","","",""
"null","../img/tt/036tt.jpg","null","mooney1","image-keyboard-response","196","702143","0.0-6.0-1.27","2708163","co38356","norming","","","","","","",""
"3387.5299999999115","","","post_mooney1_questions","survey-likert","197","705534","0.0-6.0-2.27","2708163","co38356","norming","","","{""curiosity"":4,""confidence"":3}","[0,1]","../img/tt/036tt.jpg","",""
"4798.165000000037","","","recognition","survey-text","198","710333","0.0-6.0-3.27","2708163","co38356","norming","","","{""guess"":""Twigs""}","","../img/tt/036tt.jpg","",""
"null","../img/gs/036gs.jpg","null","reveal","image-keyboard-response","199","712338","0.0-6.0-4.27","2708163","co38356","norming","","","","","","",""
"null","../img/tt/036tt.jpg","null","mooney2","image-keyboard-response","200","714347","0.0-6.0-5.27","2708163","co38356","norming","","","","","","",""
"4175.650000000023","","","post_reveal_questions","survey-likert","201","718525","0.0-6.0-6.27","2708163","co38356","norming","","","{""aha"":2}","[0]","../img/tt/036tt.jpg","",""
"null","<div style=""font-size:60px;""> </div>","null","fixation","html-keyboard-response","202","718727","0.0-6.0-0.28","2708163","co38356","norming","","","","","","",""
"null","../img/tt/1189tt.jpg","null","mooney1","image-keyboard-response","203","721731","0.0-6.0-1.28","2708163","co38356","norming","","","","","","",""
"3816.0999999999767","","","post_mooney1_questions","survey-likert","204","725550","0.0-6.0-2.28","2708163","co38356","norming","","","{""curiosity"":4,""confidence"":0}","[0,1]","../img/tt/1189tt.jpg","",""
"1606.094999999972","","","recognition","survey-text","205","727157","0.0-6.0-3.28","2708163","co38356","norming","","","{""guess"":""""}","","../img/tt/1189tt.jpg","",""
"null","../img/gs/1189gs.jpg","null","reveal","image-keyboard-response","206","729168","0.0-6.0-4.28","2708163","co38356","norming","","","","","","",""
"null","../img/tt/1189tt.jpg","null","mooney2","image-keyboard-response","207","731172","0.0-6.0-5.28","2708163","co38356","norming","","","","","","",""
"4759.179999999935","","","post_reveal_questions","survey-likert","208","735934","0.0-6.0-6.28","2708163","co38356","norming","","","{""aha"":1}","[0]","../img/tt/1189tt.jpg","",""
"null","<div style=""font-size:60px;""> </div>","null","fixation","html-keyboard-response","209","736143","0.0-6.0-0.29","2708163","co38356","norming","","","","","","",""
"null","../img/tt/1078tt.jpg","null","mooney1","image-keyboard-response","210","739150","0.0-6.0-1.29","2708163","co38356","norming","","","","","","",""
"2670.2050000000745","","","post_mooney1_questions","survey-likert","211","741822","0.0-6.0-2.29","2708163","co38356","norming","","","{""curiosity"":4,""confidence"":0}","[0,1]","../img/tt/1078tt.jpg","",""
"1901.9550000000745","","","recognition","survey-text","212","743725","0.0-6.0-3.29","2708163","co38356","norming","","","{""guess"":""""}","","../img/tt/1078tt.jpg","",""
"null","../img/gs/1078gs.jpg","null","reveal","image-keyboard-response","213","745731","0.0-6.0-4.29","2708163","co38356","norming","","","","","","",""
"null","../img/tt/1078tt.jpg","null","mooney2","image-keyboard-response","214","747734","0.0-6.0-5.29","2708163","co38356","norming","","","","","","",""
"3829.3699999999953","","","post_reveal_questions","survey-likert","215","751566","0.0-6.0-6.29","2708163","co38356","norming","","","{""aha"":1}","[0]","../img/tt/1078tt.jpg","",""
"null","<div style=""font-size:60px;""> </div>","null","fixation","html-keyboard-response","216","751768","0.0-6.0-0.30","2708163","co38356","norming","","","","","","",""
"null","../img/tt/222tt.jpg","null","mooney1","image-keyboard-response","217","754774","0.0-6.0-1.30","2708163","co38356","norming","","","","","","",""
"4011.319999999949","","","post_mooney1_questions","survey-likert","218","758788","0.0-6.0-2.30","2708163","co38356","norming","","","{""curiosity"":4,""confidence"":1}","[0,1]","../img/tt/222tt.jpg","",""
"3734.3800000000047","","","recognition","survey-text","219","762524","0.0-6.0-3.30","2708163","co38356","norming","","","{""guess"":""Kitchen""}","","../img/tt/222tt.jpg","",""
"null","../img/gs/222gs.jpg","null","reveal","image-keyboard-response","220","764532","0.0-6.0-4.30","2708163","co38356","norming","","","","","","",""
"null","../img/tt/222tt.jpg","null","mooney2","image-keyboard-response","221","766539","0.0-6.0-5.30","2708163","co38356","norming","","","","","","",""
"4686.75","","","post_reveal_questions","survey-likert","222","771228","0.0-6.0-6.30","2708163","co38356","norming","","","{""aha"":3}","[0]","../img/tt/222tt.jpg","",""
"null","<div style=""font-size:60px;""> </div>","null","fixation","html-keyboard-response","223","771436","0.0-6.0-0.31","2708163","co38356","norming","","","","","","",""
"null","../img/tt/1228tt.jpg","null","mooney1","image-keyboard-response","224","774442","0.0-6.0-1.31","2708163","co38356","norming","","","","","","",""
"5807.265000000014","","","post_mooney1_questions","survey-likert","225","780252","0.0-6.0-2.31","2708163","co38356","norming","","","{""curiosity"":4,""confidence"":0}","[0,1]","../img/tt/1228tt.jpg","",""
"957.5350000000326","","","recognition","survey-text","226","781212","0.0-6.0-3.31","2708163","co38356","norming","","","{""guess"":""""}","","../img/tt/1228tt.jpg","",""
"null","../img/gs/1228gs.jpg","null","reveal","image-keyboard-response","227","783214","0.0-6.0-4.31","2708163","co38356","norming","","","","","","",""
"null","../img/tt/1228tt.jpg","null","mooney2","image-keyboard-response","228","785218","0.0-6.0-5.31","2708163","co38356","norming","","","","","","",""
"4263.8099999999395","","","post_reveal_questions","survey-likert","229","789484","0.0-6.0-6.31","2708163","co38356","norming","","","{""aha"":2}","[0]","../img/tt/1228tt.jpg","",""
"null","<div style=""font-size:60px;""> </div>","null","fixation","html-keyboard-response","230","789687","0.0-6.0-0.32","2708163","co38356","norming","","","","","","",""
"null","../img/tt/124tt.jpg","null","mooney1","image-keyboard-response","231","792693","0.0-6.0-1.32","2708163","co38356","norming","","","","","","",""
"3627.505000000121","","","post_mooney1_questions","survey-likert","232","796324","0.0-6.0-2.32","2708163","co38356","norming","","","{""curiosity"":4,""confidence"":5}","[0,1]","../img/tt/124tt.jpg","",""
"2294.030000000028","","","recognition","survey-text","233","798620","0.0-6.0-3.32","2708163","co38356","norming","","","{""guess"":""Gorilla""}","","../img/tt/124tt.jpg","",""
"null","../img/gs/124gs.jpg","null","reveal","image-keyboard-response","234","800630","0.0-6.0-4.32","2708163","co38356","norming","","","","","","",""
"null","../img/tt/124tt.jpg","null","mooney2","image-keyboard-response","235","802634","0.0-6.0-5.32","2708163","co38356","norming","","","","","","",""
"2919.3300000000745","","","post_reveal_questions","survey-likert","236","805556","0.0-6.0-6.32","2708163","co38356","norming","","","{""aha"":2}","[0]","../img/tt/124tt.jpg","",""
"null","<div style=""font-size:60px;""> </div>","null","fixation","html-keyboard-response","237","805763","0.0-6.0-0.33","2708163","co38356","norming","","","","","","",""
"null","../img/tt/468tt.jpg","null","mooney1","image-keyboard-response","238","808774","0.0-6.0-1.33","2708163","co38356","norming","","","","","","",""
"3668.734999999986","","","post_mooney1_questions","survey-likert","239","812444","0.0-6.0-2.33","2708163","co38356","norming","","","{""curiosity"":4,""confidence"":0}","[0,1]","../img/tt/468tt.jpg","",""
"1374.255000000121","","","recognition","survey-text","240","813820","0.0-6.0-3.33","2708163","co38356","norming","","","{""guess"":""""}","","../img/tt/468tt.jpg","",""
"null","../img/gs/468gs.jpg","null","reveal","image-keyboard-response","241","815821","0.0-6.0-4.33","2708163","co38356","norming","","","","","","",""
"null","../img/tt/468tt.jpg","null","mooney2","image-keyboard-response","242","817829","0.0-6.0-5.33","2708163","co38356","norming","","","","","","",""
"2637.204999999958","","","post_reveal_questions","survey-likert","243","820469","0.0-6.0-6.33","2708163","co38356","norming","","","{""aha"":4}","[0]","../img/tt/468tt.jpg","",""
"null","<div style=""font-size:60px;""> </div>","null","fixation","html-keyboard-response","244","820674","0.0-6.0-0.34","2708163","co38356","norming","","","","","","",""
"null","../img/tt/1227tt.jpg","null","mooney1","image-keyboard-response","245","823683","0.0-6.0-1.34","2708163","co38356","norming","","","","","","",""
"3311.6049999999814","","","post_mooney1_questions","survey-likert","246","826997","0.0-6.0-2.34","2708163","co38356","norming","","","{""curiosity"":4,""confidence"":3}","[0,1]","../img/tt/1227tt.jpg","",""
"2726.2399999999907","","","recognition","survey-text","247","829725","0.0-6.0-3.34","2708163","co38356","norming","","","{""guess"":""Chickens""}","","../img/tt/1227tt.jpg","",""
"null","../img/gs/1227gs.jpg","null","reveal","image-keyboard-response","248","831727","0.0-6.0-4.34","2708163","co38356","norming","","","","","","",""
"null","../img/tt/1227tt.jpg","null","mooney2","image-keyboard-response","249","833731","0.0-6.0-5.34","2708163","co38356","norming","","","","","","",""
"2639.585000000079","","","post_reveal_questions","survey-likert","250","836373","0.0-6.0-6.34","2708163","co38356","norming","","","{""aha"":2}","[0]","../img/tt/1227tt.jpg","",""
"null","<div style=""font-size:60px;""> </div>","null","fixation","html-keyboard-response","251","836576","0.0-6.0-0.35","2708163","co38356","norming","","","","","","",""
"null","../img/tt/1247tt.jpg","null","mooney1","image-keyboard-response","252","839587","0.0-6.0-1.35","2708163","co38356","norming","","","","","","",""
"3287.1799999998184","","","post_mooney1_questions","survey-likert","253","842877","0.0-6.0-2.35","2708163","co38356","norming","","","{""curiosity"":4,""confidence"":0}","[0,1]","../img/tt/1247tt.jpg","",""
"493.9849999998696","","","recognition","survey-text","254","843373","0.0-6.0-3.35","2708163","co38356","norming","","","{""guess"":""""}","","../img/tt/1247tt.jpg","",""
"null","../img/gs/1247gs.jpg","null","reveal","image-keyboard-response","255","845374","0.0-6.0-4.35","2708163","co38356","norming","","","","","","",""
"null","../img/tt/1247tt.jpg","null","mooney2","image-keyboard-response","256","847384","0.0-6.0-5.35","2708163","co38356","norming","","","","","","",""
"3154.6650000000373","","","post_reveal_questions","survey-likert","257","850541","0.0-6.0-6.35","2708163","co38356","norming","","","{""aha"":3}","[0]","../img/tt/1247tt.jpg","",""
"null","<div style=""font-size:60px;""> </div>","null","fixation","html-keyboard-response","258","850743","0.0-6.0-0.36","2708163","co38356","norming","","","","","","",""
"null","../img/tt/1061tt.jpg","null","mooney1","image-keyboard-response","259","853748","0.0-6.0-1.36","2708163","co38356","norming","","","","","","",""
"4909.494999999995","","","post_mooney1_questions","survey-likert","260","858661","0.0-6.0-2.36","2708163","co38356","norming","","","{""curiosity"":4,""confidence"":1}","[0,1]","../img/tt/1061tt.jpg","",""
"6294.165000000037","","","recognition","survey-text","261","864957","0.0-6.0-3.36","2708163","co38356","norming","","","{""guess"":""Conciërge""}","","../img/tt/1061tt.jpg","",""
"null","../img/gs/1061gs.jpg","null","reveal","image-keyboard-response","262","866962","0.0-6.0-4.36","2708163","co38356","norming","","","","","","",""
"null","../img/tt/1061tt.jpg","null","mooney2","image-keyboard-response","263","868965","0.0-6.0-5.36","2708163","co38356","norming","","","","","","",""
"4068.734999999986","","","post_reveal_questions","survey-likert","264","873037","0.0-6.0-6.36","2708163","co38356","norming","","","{""aha"":2}","[0]","../img/tt/1061tt.jpg","",""
"null","<div style=""font-size:60px;""> </div>","null","fixation","html-keyboard-response","265","873238","0.0-6.0-0.37","2708163","co38356","norming","","","","","","",""
"null","../img/tt/1087tt.jpg","null","mooney1","image-keyboard-response","266","876241","0.0-6.0-1.37","2708163","co38356","norming","","","","","","",""
"3561.2650000001304","","","post_mooney1_questions","survey-likert","267","879806","0.0-6.0-2.37","2708163","co38356","norming","","","{""curiosity"":4,""confidence"":0}","[0,1]","../img/tt/1087tt.jpg","",""
"486.0549999999348","","","recognition","survey-text","268","880294","0.0-6.0-3.37","2708163","co38356","norming","","","{""guess"":""""}","","../img/tt/1087tt.jpg","",""
"null","../img/gs/1087gs.jpg","null","reveal","image-keyboard-response","269","882299","0.0-6.0-4.37","2708163","co38356","norming","","","","","","",""
"null","../img/tt/1087tt.jpg","null","mooney2","image-keyboard-response","270","884308","0.0-6.0-5.37","2708163","co38356","norming","","","","","","",""
"5216.969999999972","","","post_reveal_questions","survey-likert","271","889526","0.0-6.0-6.37","2708163","co38356","norming","","","{""aha"":1}","[0]","../img/tt/1087tt.jpg","",""
"null","<div style=""font-size:60px;""> </div>","null","fixation","html-keyboard-response","272","889727","0.0-6.0-0.38","2708163","co38356","norming","","","","","","",""
"null","../img/tt/1237tt.jpg","null","mooney1","image-keyboard-response","273","892732","0.0-6.0-1.38","2708163","co38356","norming","","","","","","",""
"3614.6149999998743","","","post_mooney1_questions","survey-likert","274","896350","0.0-6.0-2.38","2708163","co38356","norming","","","{""curiosity"":4,""confidence"":0}","[0,1]","../img/tt/1237tt.jpg","",""
"558.2399999999907","","","recognition","survey-text","275","896910","0.0-6.0-3.38","2708163","co38356","norming","","","{""guess"":""""}","","../img/tt/1237tt.jpg","",""
"null","../img/gs/1237gs.jpg","null","reveal","image-keyboard-response","276","898912","0.0-6.0-4.38","2708163","co38356","norming","","","","","","",""
"null","../img/tt/1237tt.jpg","null","mooney2","image-keyboard-response","277","900917","0.0-6.0-5.38","2708163","co38356","norming","","","","","","",""
"2974.07500000007","","","post_reveal_questions","survey-likert","278","903894","0.0-6.0-6.38","2708163","co38356","norming","","","{""aha"":2}","[0]","../img/tt/1237tt.jpg","",""
"null","<div style=""font-size:60px;""> </div>","null","fixation","html-keyboard-response","279","904100","0.0-6.0-0.39","2708163","co38356","norming","","","","","","",""
"null","../img/tt/084tt.jpg","null","mooney1","image-keyboard-response","280","907106","0.0-6.0-1.39","2708163","co38356","norming","","","","","","",""
"4306.155000000028","","","post_mooney1_questions","survey-likert","281","911414","0.0-6.0-2.39","2708163","co38356","norming","","","{""curiosity"":4,""confidence"":5}","[0,1]","../img/tt/084tt.jpg","",""
"4630.145000000019","","","recognition","survey-text","282","916045","0.0-6.0-3.39","2708163","co38356","norming","","","{""guess"":""Duck""}","","../img/tt/084tt.jpg","",""
"null","../img/gs/084gs.jpg","null","reveal","image-keyboard-response","283","918054","0.0-6.0-4.39","2708163","co38356","norming","","","","","","",""
"null","../img/tt/084tt.jpg","null","mooney2","image-keyboard-response","284","920062","0.0-6.0-5.39","2708163","co38356","norming","","","","","","",""
"3781.9950000001118","","","post_reveal_questions","survey-likert","285","923845","0.0-6.0-6.39","2708163","co38356","norming","","","{""aha"":2}","[0]","../img/tt/084tt.jpg","",""
"null","<div style=""font-size:60px;""> </div>","null","fixation","html-keyboard-response","286","924056","0.0-6.0-0.40","2708163","co38356","norming","","","","","","",""
"null","../img/tt/584tt.jpg","null","mooney1","image-keyboard-response","287","927063","0.0-6.0-1.40","2708163","co38356","norming","","","","","","",""
"6717.414999999921","","","post_mooney1_questions","survey-likert","288","933782","0.0-6.0-2.40","2708163","co38356","norming","","","{""curiosity"":4,""confidence"":4}","[0,1]","../img/tt/584tt.jpg","",""
"3877.8099999999395","","","recognition","survey-text","289","937662","0.0-6.0-3.40","2708163","co38356","norming","","","{""guess"":""Tools""}","","../img/tt/584tt.jpg","",""
"null","../img/gs/584gs.jpg","null","reveal","image-keyboard-response","290","939667","0.0-6.0-4.40","2708163","co38356","norming","","","","","","",""
"null","../img/tt/584tt.jpg","null","mooney2","image-keyboard-response","291","941674","0.0-6.0-5.40","2708163","co38356","norming","","","","","","",""
"3851.1350000001257","","","post_reveal_questions","survey-likert","292","945526","0.0-6.0-6.40","2708163","co38356","norming","","","{""aha"":2}","[0]","../img/tt/584tt.jpg","",""
"null","<div style=""font-size:60px;""> </div>","null","fixation","html-keyboard-response","293","945728","0.0-6.0-0.41","2708163","co38356","norming","","","","","","",""
"null","../img/tt/111tt.jpg","null","mooney1","image-keyboard-response","294","948734","0.0-6.0-1.41","2708163","co38356","norming","","","","","","",""
"5255.579999999725","","","post_mooney1_questions","survey-likert","295","953990","0.0-6.0-2.41","2708163","co38356","norming","","","{""curiosity"":4,""confidence"":0}","[0,1]","../img/tt/111tt.jpg","",""
"798.1949999999488","","","recognition","survey-text","296","954790","0.0-6.0-3.41","2708163","co38356","norming","","","{""guess"":""""}","","../img/tt/111tt.jpg","",""
"null","../img/gs/111gs.jpg","null","reveal","image-keyboard-response","297","956797","0.0-6.0-4.41","2708163","co38356","norming","","","","","","",""
"null","../img/tt/111tt.jpg","null","mooney2","image-keyboard-response","298","958801","0.0-6.0-5.41","2708163","co38356","norming","","","","","","",""
"4260.244999999995","","","post_reveal_questions","survey-likert","299","963062","0.0-6.0-6.41","2708163","co38356","norming","","","{""aha"":3}","[0]","../img/tt/111tt.jpg","",""
"null","<div style=""font-size:60px;""> </div>","null","fixation","html-keyboard-response","300","963270","0.0-6.0-0.42","2708163","co38356","norming","","","","","","",""
"null","../img/tt/1053tt.jpg","null","mooney1","image-keyboard-response","301","966274","0.0-6.0-1.42","2708163","co38356","norming","","","","","","",""
"4403.534999999916","","","post_mooney1_questions","survey-likert","302","970679","0.0-6.0-2.42","2708163","co38356","norming","","","{""curiosity"":4,""confidence"":4}","[0,1]","../img/tt/1053tt.jpg","",""
"1669.8850000000093","","","recognition","survey-text","303","972350","0.0-6.0-3.42","2708163","co38356","norming","","","{""guess"":""Cow""}","","../img/tt/1053tt.jpg","",""
"null","../img/gs/1053gs.jpg","null","reveal","image-keyboard-response","304","974352","0.0-6.0-4.42","2708163","co38356","norming","","","","","","",""
"null","../img/tt/1053tt.jpg","null","mooney2","image-keyboard-response","305","976361","0.0-6.0-5.42","2708163","co38356","norming","","","","","","",""
"3267.629999999772","","","post_reveal_questions","survey-likert","306","979630","0.0-6.0-6.42","2708163","co38356","norming","","","{""aha"":2}","[0]","../img/tt/1053tt.jpg","",""
"null","<div style=""font-size:60px;""> </div>","null","fixation","html-keyboard-response","307","979832","0.0-6.0-0.43","2708163","co38356","norming","","","","","","",""
"null","../img/tt/497tt.jpg","null","mooney1","image-keyboard-response","308","982838","0.0-6.0-1.43","2708163","co38356","norming","","","","","","",""
"4487.664999999921","","","post_mooney1_questions","survey-likert","309","987327","0.0-6.0-2.43","2708163","co38356","norming","","","{""curiosity"":4,""confidence"":0}","[0,1]","../img/tt/497tt.jpg","",""
"629.6249999997672","","","recognition","survey-text","310","987958","0.0-6.0-3.43","2708163","co38356","norming","","","{""guess"":""""}","","../img/tt/497tt.jpg","",""
"null","../img/gs/497gs.jpg","null","reveal","image-keyboard-response","311","989960","0.0-6.0-4.43","2708163","co38356","norming","","","","","","",""
"null","../img/tt/497tt.jpg","null","mooney2","image-keyboard-response","312","991961","0.0-6.0-5.43","2708163","co38356","norming","","","","","","",""
"1660.155000000028","","","post_reveal_questions","survey-likert","313","993622","0.0-6.0-6.43","2708163","co38356","norming","","","{""aha"":2}","[0]","../img/tt/497tt.jpg","",""
"null","<div style=""font-size:60px;""> </div>","null","fixation","html-keyboard-response","314","993829","0.0-6.0-0.44","2708163","co38356","norming","","","","","","",""
"null","../img/tt/1268tt.jpg","null","mooney1","image-keyboard-response","315","996835","0.0-6.0-1.44","2708163","co38356","norming","","","","","","",""
"3290.2850000000326","","","post_mooney1_questions","survey-likert","316","1000124","0.0-6.0-2.44","2708163","co38356","norming","","","{""curiosity"":4,""confidence"":0}","[0,1]","../img/tt/1268tt.jpg","",""
"1317.7900000001537","","","recognition","survey-text","317","1001444","0.0-6.0-3.44","2708163","co38356","norming","","","{""guess"":""""}","","../img/tt/1268tt.jpg","",""
"null","../img/gs/1268gs.jpg","null","reveal","image-keyboard-response","318","1003453","0.0-6.0-4.44","2708163","co38356","norming","","","","","","",""
"null","../img/tt/1268tt.jpg","null","mooney2","image-keyboard-response","319","1005463","0.0-6.0-5.44","2708163","co38356","norming","","","","","","",""
"2796.0599999999395","","","post_reveal_questions","survey-likert","320","1008260","0.0-6.0-6.44","2708163","co38356","norming","","","{""aha"":2}","[0]","../img/tt/1268tt.jpg","",""
"null","<div style=""font-size:60px;""> </div>","null","fixation","html-keyboard-response","321","1008471","0.0-6.0-0.45","2708163","co38356","norming","","","","","","",""
"null","../img/tt/1270tt.jpg","null","mooney1","image-keyboard-response","322","1011479","0.0-6.0-1.45","2708163","co38356","norming","","","","","","",""
"6707.604999999981","","","post_mooney1_questions","survey-likert","323","1018189","0.0-6.0-2.45","2708163","co38356","norming","","","{""curiosity"":4,""confidence"":5}","[0,1]","../img/tt/1270tt.jpg","",""
"2717.7649999998976","","","recognition","survey-text","324","1020908","0.0-6.0-3.45","2708163","co38356","norming","","","{""guess"":""Chipmunk""}","","../img/tt/1270tt.jpg","",""
"null","../img/gs/1270gs.jpg","null","reveal","image-keyboard-response","325","1022916","0.0-6.0-4.45","2708163","co38356","norming","","","","","","",""
"null","../img/tt/1270tt.jpg","null","mooney2","image-keyboard-response","326","1024923","0.0-6.0-5.45","2708163","co38356","norming","","","","","","",""
"3808.3850000000093","","","post_reveal_questions","survey-likert","327","1028732","0.0-6.0-6.45","2708163","co38356","norming","","","{""aha"":1}","[0]","../img/tt/1270tt.jpg","",""
"null","<div style=""font-size:60px;""> </div>","null","fixation","html-keyboard-response","328","1028939","0.0-6.0-0.46","2708163","co38356","norming","","","","","","",""
"null","../img/tt/1188tt.jpg","null","mooney1","image-keyboard-response","329","1031951","0.0-6.0-1.46","2708163","co38356","norming","","","","","","",""
"3042.875","","","post_mooney1_questions","survey-likert","330","1034997","0.0-6.0-2.46","2708163","co38356","norming","","","{""curiosity"":4,""confidence"":5}","[0,1]","../img/tt/1188tt.jpg","",""
"4102.079999999842","","","recognition","survey-text","331","1039100","0.0-6.0-3.46","2708163","co38356","norming","","","{""guess"":""Cyclist""}","","../img/tt/1188tt.jpg","",""
"null","../img/gs/1188gs.jpg","null","reveal","image-keyboard-response","332","1041110","0.0-6.0-4.46","2708163","co38356","norming","","","","","","",""
"null","../img/tt/1188tt.jpg","null","mooney2","image-keyboard-response","333","1043115","0.0-6.0-5.46","2708163","co38356","norming","","","","","","",""
"6656.574999999953","","","post_reveal_questions","survey-likert","334","1049773","0.0-6.0-6.46","2708163","co38356","norming","","","{""aha"":1}","[0]","../img/tt/1188tt.jpg","",""
"null","<div style=""font-size:60px;""> </div>","null","fixation","html-keyboard-response","335","1049974","0.0-6.0-0.47","2708163","co38356","norming","","","","","","",""
"null","../img/tt/1154tt.jpg","null","mooney1","image-keyboard-response","336","1052977","0.0-6.0-1.47","2708163","co38356","norming","","","","","","",""
"4048.159999999916","","","post_mooney1_questions","survey-likert","337","1057029","0.0-6.0-2.47","2708163","co38356","norming","","","{""curiosity"":4,""confidence"":4}","[0,1]","../img/tt/1154tt.jpg","",""
"10085.715000000084","","","recognition","survey-text","338","1067118","0.0-6.0-3.47","2708163","co38356","norming","","","{""guess"":""Kayakker""}","","../img/tt/1154tt.jpg","",""
"null","../img/gs/1154gs.jpg","null","reveal","image-keyboard-response","339","1069120","0.0-6.0-4.47","2708163","co38356","norming","","","","","","",""
"null","../img/tt/1154tt.jpg","null","mooney2","image-keyboard-response","340","1071123","0.0-6.0-5.47","2708163","co38356","norming","","","","","","",""
"4578.185000000056","","","post_reveal_questions","survey-likert","341","1075702","0.0-6.0-6.47","2708163","co38356","norming","","","{""aha"":2}","[0]","../img/tt/1154tt.jpg","",""
"null","<div style=""font-size:60px;""> </div>","null","fixation","html-keyboard-response","342","1075904","0.0-6.0-0.48","2708163","co38356","norming","","","","","","",""
"null","../img/tt/1097tt.jpg","null","mooney1","image-keyboard-response","343","1078907","0.0-6.0-1.48","2708163","co38356","norming","","","","","","",""
"14648.149999999907","","","post_mooney1_questions","survey-likert","344","1093559","0.0-6.0-2.48","2708163","co38356","norming","","","{""curiosity"":4,""confidence"":4}","[0,1]","../img/tt/1097tt.jpg","",""
"6541.870000000112","","","recognition","survey-text","345","1100102","0.0-6.0-3.48","2708163","co38356","norming","","","{""guess"":""Man on raft""}","","../img/tt/1097tt.jpg","",""
"null","../img/gs/1097gs.jpg","null","reveal","image-keyboard-response","346","1102105","0.0-6.0-4.48","2708163","co38356","norming","","","","","","",""
"null","../img/tt/1097tt.jpg","null","mooney2","image-keyboard-response","347","1104113","0.0-6.0-5.48","2708163","co38356","norming","","","","","","",""
"2058.280000000028","","","post_reveal_questions","survey-likert","348","1106174","0.0-6.0-6.48","2708163","co38356","norming","","","{""aha"":3}","[0]","../img/tt/1097tt.jpg","",""
"null","<div style=""font-size:60px;""> </div>","null","fixation","html-keyboard-response","349","1106379","0.0-6.0-0.49","2708163","co38356","norming","","","","","","",""
"null","../img/tt/1226tt.jpg","null","mooney1","image-keyboard-response","350","1109383","0.0-6.0-1.49","2708163","co38356","norming","","","","","","",""
"2668.864999999758","","","post_mooney1_questions","survey-likert","351","1112055","0.0-6.0-2.49","2708163","co38356","norming","","","{""curiosity"":4,""confidence"":4}","[0,1]","../img/tt/1226tt.jpg","",""
"2037.780000000028","","","recognition","survey-text","352","1114094","0.0-6.0-3.49","2708163","co38356","norming","","","{""guess"":""Birds""}","","../img/tt/1226tt.jpg","",""
"null","../img/gs/1226gs.jpg","null","reveal","image-keyboard-response","353","1116096","0.0-6.0-4.49","2708163","co38356","norming","","","","","","",""
"null","../img/tt/1226tt.jpg","null","mooney2","image-keyboard-response","354","1118107","0.0-6.0-5.49","2708163","co38356","norming","","","","","","",""
"3096.1149999999907","","","post_reveal_questions","survey-likert","355","1121210","0.0-6.0-6.49","2708163","co38356","norming","","","{""aha"":2}","[0]","../img/tt/1226tt.jpg","",""
"null","<div style=""font-size:60px;""> </div>","null","fixation","html-keyboard-response","356","1121419","0.0-6.0-0.50","2708163","co38356","norming","","","","","","",""
"null","../img/tt/126tt.jpg","null","mooney1","image-keyboard-response","357","1124430","0.0-6.0-1.50","2708163","co38356","norming","","","","","","",""
"3393.2349999998696","","","post_mooney1_questions","survey-likert","358","1127827","0.0-6.0-2.50","2708163","co38356","norming","","","{""curiosity"":4,""confidence"":0}","[0,1]","../img/tt/126tt.jpg","",""
"862.1099999998696","","","recognition","survey-text","359","1128690","0.0-6.0-3.50","2708163","co38356","norming","","","{""guess"":""""}","","../img/tt/126tt.jpg","",""
"null","../img/gs/126gs.jpg","null","reveal","image-keyboard-response","360","1130702","0.0-6.0-4.50","2708163","co38356","norming","","","","","","",""
"null","../img/tt/126tt.jpg","null","mooney2","image-keyboard-response","361","1132703","0.0-6.0-5.50","2708163","co38356","norming","","","","","","",""
"4024.8850000000093","","","post_reveal_questions","survey-likert","362","1136731","0.0-6.0-6.50","2708163","co38356","norming","","","{""aha"":1}","[0]","../img/tt/126tt.jpg","",""
"null","<div style=""font-size:60px;""> </div>","null","fixation","html-keyboard-response","363","1136940","0.0-6.0-0.51","2708163","co38356","norming","","","","","","",""
"null","../img/tt/123tt.jpg","null","mooney1","image-keyboard-response","364","1139946","0.0-6.0-1.51","2708163","co38356","norming","","","","","","",""
"5197.709999999963","","","post_mooney1_questions","survey-likert","365","1145147","0.0-6.0-2.51","2708163","co38356","norming","","","{""curiosity"":4,""confidence"":0}","[0,1]","../img/tt/123tt.jpg","",""
"1110.255000000121","","","recognition","survey-text","366","1146259","0.0-6.0-3.51","2708163","co38356","norming","","","{""guess"":""""}","","../img/tt/123tt.jpg","",""
"null","../img/gs/123gs.jpg","null","reveal","image-keyboard-response","367","1148261","0.0-6.0-4.51","2708163","co38356","norming","","","","","","",""
"null","../img/tt/123tt.jpg","null","mooney2","image-keyboard-response","368","1150269","0.0-6.0-5.51","2708163","co38356","norming","","","","","","",""
"3707.054999999935","","","post_reveal_questions","survey-likert","369","1153979","0.0-6.0-6.51","2708163","co38356","norming","","","{""aha"":2}","[0]","../img/tt/123tt.jpg","",""
"null","<div style=""font-size:60px;""> </div>","null","fixation","html-keyboard-response","370","1154184","0.0-6.0-0.52","2708163","co38356","norming","","","","","","",""
"null","../img/tt/1232tt.jpg","null","mooney1","image-keyboard-response","371","1157187","0.0-6.0-1.52","2708163","co38356","norming","","","","","","",""
"2613.7700000000186","","","post_mooney1_questions","survey-likert","372","1159803","0.0-6.0-2.52","2708163","co38356","norming","","","{""curiosity"":4,""confidence"":5}","[0,1]","../img/tt/1232tt.jpg","",""
"2294.0999999996275","","","recognition","survey-text","373","1162099","0.0-6.0-3.52","2708163","co38356","norming","","","{""guess"":""Pigeon""}","","../img/tt/1232tt.jpg","",""
"null","../img/gs/1232gs.jpg","null","reveal","image-keyboard-response","374","1164102","0.0-6.0-4.52","2708163","co38356","norming","","","","","","",""
"null","../img/tt/1232tt.jpg","null","mooney2","image-keyboard-response","375","1166103","0.0-6.0-5.52","2708163","co38356","norming","","","","","","",""
"2553.2400000002235","","","post_reveal_questions","survey-likert","376","1168659","0.0-6.0-6.52","2708163","co38356","norming","","","{""aha"":1}","[0]","../img/tt/1232tt.jpg","",""
"null","<div style=""font-size:60px;""> </div>","null","fixation","html-keyboard-response","377","1168864","0.0-6.0-0.53","2708163","co38356","norming","","","","","","",""
"null","../img/tt/477tt.jpg","null","mooney1","image-keyboard-response","378","1171867","0.0-6.0-1.53","2708163","co38356","norming","","","","","","",""
"3893.8350000001956","","","post_mooney1_questions","survey-likert","379","1175763","0.0-6.0-2.53","2708163","co38356","norming","","","{""curiosity"":4,""confidence"":3}","[0,1]","../img/tt/477tt.jpg","",""
"1902.2349999998696","","","recognition","survey-text","380","1177667","0.0-6.0-3.53","2708163","co38356","norming","","","{""guess"":""Rabbit""}","","../img/tt/477tt.jpg","",""
"null","../img/gs/477gs.jpg","null","reveal","image-keyboard-response","381","1179670","0.0-6.0-4.53","2708163","co38356","norming","","","","","","",""
"null","../img/tt/477tt.jpg","null","mooney2","image-keyboard-response","382","1181672","0.0-6.0-5.53","2708163","co38356","norming","","","","","","",""
"3146","","","post_reveal_questions","survey-likert","383","1184821","0.0-6.0-6.53","2708163","co38356","norming","","","{""aha"":2}","[0]","../img/tt/477tt.jpg","",""
"null","<div style=""font-size:60px;""> </div>","null","fixation","html-keyboard-response","384","1185027","0.0-6.0-0.54","2708163","co38356","norming","","","","","","",""
"null","../img/tt/1084tt.jpg","null","mooney1","image-keyboard-response","385","1188037","0.0-6.0-1.54","2708163","co38356","norming","","","","","","",""
"3462.005000000121","","","post_mooney1_questions","survey-likert","386","1191501","0.0-6.0-2.54","2708163","co38356","norming","","","{""curiosity"":4,""confidence"":4}","[0,1]","../img/tt/1084tt.jpg","",""
"2350.1350000000093","","","recognition","survey-text","387","1193853","0.0-6.0-3.54","2708163","co38356","norming","","","{""guess"":""Cup""}","","../img/tt/1084tt.jpg","",""
"null","../img/gs/1084gs.jpg","null","reveal","image-keyboard-response","388","1195858","0.0-6.0-4.54","2708163","co38356","norming","","","","","","",""
"null","../img/tt/1084tt.jpg","null","mooney2","image-keyboard-response","389","1197865","0.0-6.0-5.54","2708163","co38356","norming","","","","","","",""
"2049.304999999935","","","post_reveal_questions","survey-likert","390","1199917","0.0-6.0-6.54","2708163","co38356","norming","","","{""aha"":2}","[0]","../img/tt/1084tt.jpg","",""
"null","<div style=""font-size:60px;""> </div>","null","fixation","html-keyboard-response","391","1200127","0.0-6.0-0.55","2708163","co38356","norming","","","","","","",""
"null","../img/tt/1118tt.jpg","null","mooney1","image-keyboard-response","392","1203130","0.0-6.0-1.55","2708163","co38356","norming","","","","","","",""
"3265.8349999999627","","","post_mooney1_questions","survey-likert","393","1206397","0.0-6.0-2.55","2708163","co38356","norming","","","{""curiosity"":4,""confidence"":0}","[0,1]","../img/tt/1118tt.jpg","",""
"941.9150000000373","","","recognition","survey-text","394","1207341","0.0-6.0-3.55","2708163","co38356","norming","","","{""guess"":""""}","","../img/tt/1118tt.jpg","",""
"null","../img/gs/1118gs.jpg","null","reveal","image-keyboard-response","395","1209344","0.0-6.0-4.55","2708163","co38356","norming","","","","","","",""
"null","../img/tt/1118tt.jpg","null","mooney2","image-keyboard-response","396","1211347","0.0-6.0-5.55","2708163","co38356","norming","","","","","","",""
"2168.7349999998696","","","post_reveal_questions","survey-likert","397","1213517","0.0-6.0-6.55","2708163","co38356","norming","","","{""aha"":2}","[0]","../img/tt/1118tt.jpg","",""
"null","<div style=""font-size:60px;""> </div>","null","fixation","html-keyboard-response","398","1213720","0.0-6.0-0.56","2708163","co38356","norming","","","","","","",""
"null","../img/tt/1217tt.jpg","null","mooney1","image-keyboard-response","399","1216727","0.0-6.0-1.56","2708163","co38356","norming","","","","","","",""
"4257.970000000205","","","post_mooney1_questions","survey-likert","400","1220989","0.0-6.0-2.56","2708163","co38356","norming","","","{""curiosity"":4,""confidence"":0}","[0,1]","../img/tt/1217tt.jpg","",""
"870.2249999998603","","","recognition","survey-text","401","1221861","0.0-6.0-3.56","2708163","co38356","norming","","","{""guess"":""""}","","../img/tt/1217tt.jpg","",""
"null","../img/gs/1217gs.jpg","null","reveal","image-keyboard-response","402","1223864","0.0-6.0-4.56","2708163","co38356","norming","","","","","","",""
"null","../img/tt/1217tt.jpg","null","mooney2","image-keyboard-response","403","1225873","0.0-6.0-5.56","2708163","co38356","norming","","","","","","",""
"3321.469999999972","","","post_reveal_questions","survey-likert","404","1229197","0.0-6.0-6.56","2708163","co38356","norming","","","{""aha"":2}","[0]","../img/tt/1217tt.jpg","",""
"null","<div style=""font-size:60px;""> </div>","null","fixation","html-keyboard-response","405","1229407","0.0-6.0-0.57","2708163","co38356","norming","","","","","","",""
"null","../img/tt/1043tt.jpg","null","mooney1","image-keyboard-response","406","1232412","0.0-6.0-1.57","2708163","co38356","norming","","","","","","",""
"3893.769999999786","","","post_mooney1_questions","survey-likert","407","1236309","0.0-6.0-2.57","2708163","co38356","norming","","","{""curiosity"":4,""confidence"":0}","[0,1]","../img/tt/1043tt.jpg","",""
"566.1500000001397","","","recognition","survey-text","408","1236877","0.0-6.0-3.57","2708163","co38356","norming","","","{""guess"":""""}","","../img/tt/1043tt.jpg","",""
"null","../img/gs/1043gs.jpg","null","reveal","image-keyboard-response","409","1238879","0.0-6.0-4.57","2708163","co38356","norming","","","","","","",""
"null","../img/tt/1043tt.jpg","null","mooney2","image-keyboard-response","410","1240883","0.0-6.0-5.57","2708163","co38356","norming","","","","","","",""
"1984.780000000028","","","post_reveal_questions","survey-likert","411","1242871","0.0-6.0-6.57","2708163","co38356","norming","","","{""aha"":1}","[0]","../img/tt/1043tt.jpg","",""
"null","<div style=""font-size:60px;""> </div>","null","fixation","html-keyboard-response","412","1243074","0.0-6.0-0.58","2708163","co38356","norming","","","","","","",""
"null","../img/tt/053tt.jpg","null","mooney1","image-keyboard-response","413","1246077","0.0-6.0-1.58","2708163","co38356","norming","","","","","","",""
"6182.08499999973","","","post_mooney1_questions","survey-likert","414","1252263","0.0-6.0-2.58","2708163","co38356","norming","","","{""curiosity"":3,""confidence"":0}","[0,1]","../img/tt/053tt.jpg","",""
"621.8550000002142","","","recognition","survey-text","415","1252886","0.0-6.0-3.58","2708163","co38356","norming","","","{""guess"":""""}","","../img/tt/053tt.jpg","",""
"null","../img/gs/053gs.jpg","null","reveal","image-keyboard-response","416","1254891","0.0-6.0-4.58","2708163","co38356","norming","","","","","","",""
"null","../img/tt/053tt.jpg","null","mooney2","image-keyboard-response","417","1256897","0.0-6.0-5.58","2708163","co38356","norming","","","","","","",""
"3314.394999999786","","","post_reveal_questions","survey-likert","418","1260215","0.0-6.0-6.58","2708163","co38356","norming","","","{""aha"":1}","[0]","../img/tt/053tt.jpg","",""
"null","<div style=""font-size:60px;""> </div>","null","fixation","html-keyboard-response","419","1260417","0.0-6.0-0.59","2708163","co38356","norming","","","","","","",""
"null","../img/tt/1046tt.jpg","null","mooney1","image-keyboard-response","420","1263424","0.0-6.0-1.59","2708163","co38356","norming","","","","","","",""
"7490.659999999916","","","post_mooney1_questions","survey-likert","421","1270919","0.0-6.0-2.59","2708163","co38356","norming","","","{""curiosity"":2,""confidence"":0}","[0,1]","../img/tt/1046tt.jpg","",""
"605.5700000000652","","","recognition","survey-text","422","1271526","0.0-6.0-3.59","2708163","co38356","norming","","","{""guess"":""""}","","../img/tt/1046tt.jpg","",""
"null","../img/gs/1046gs.jpg","null","reveal","image-keyboard-response","423","1273534","0.0-6.0-4.59","2708163","co38356","norming","","","","","","",""
"null","../img/tt/1046tt.jpg","null","mooney2","image-keyboard-response","424","1275537","0.0-6.0-5.59","2708163","co38356","norming","","","","","","",""
"6266.695000000065","","","post_reveal_questions","survey-likert","425","1281807","0.0-6.0-6.59","2708163","co38356","norming","","","{""aha"":0}","[0]","../img/tt/1046tt.jpg","",""
"null","<div style=""font-size:60px;""> </div>","null","fixation","html-keyboard-response","426","1282012","0.0-6.0-0.60","2708163","co38356","norming","","","","","","",""
"null","../img/tt/1126tt.jpg","null","mooney1","image-keyboard-response","427","1285018","0.0-6.0-1.60","2708163","co38356","norming","","","","","","",""
"6969.2299999997485","","","post_mooney1_questions","survey-likert","428","1291991","0.0-6.0-2.60","2708163","co38356","norming","","","{""curiosity"":2,""confidence"":0}","[0,1]","../img/tt/1126tt.jpg","",""
"613.9599999999627","","","recognition","survey-text","429","1292607","0.0-6.0-3.60","2708163","co38356","norming","","","{""guess"":""""}","","../img/tt/1126tt.jpg","",""
"null","../img/gs/1126gs.jpg","null","reveal","image-keyboard-response","430","1294609","0.0-6.0-4.60","2708163","co38356","norming","","","","","","",""
"null","../img/tt/1126tt.jpg","null","mooney2","image-keyboard-response","431","1296617","0.0-6.0-5.60","2708163","co38356","norming","","","","","","",""
"2684.5200000000186","","","post_reveal_questions","survey-likert","432","1299303","0.0-6.0-6.60","2708163","co38356","norming","","","{""aha"":1}","[0]","../img/tt/1126tt.jpg","",""
"null","<div style=""font-size:60px;""> </div>","null","fixation","html-keyboard-response","433","1299504","0.0-6.0-0.61","2708163","co38356","norming","","","","","","",""
"null","../img/tt/279tt.jpg","null","mooney1","image-keyboard-response","434","1302514","0.0-6.0-1.61","2708163","co38356","norming","","","","","","",""
"5250.994999999879","","","post_mooney1_questions","survey-likert","435","1307768","0.0-6.0-2.61","2708163","co38356","norming","","","{""curiosity"":4,""confidence"":5}","[0,1]","../img/tt/279tt.jpg","",""
"3405.7650000001304","","","recognition","survey-text","436","1311175","0.0-6.0-3.61","2708163","co38356","norming","","","{""guess"":""Koala""}","","../img/tt/279tt.jpg","",""
"null","../img/gs/279gs.jpg","null","reveal","image-keyboard-response","437","1313176","0.0-6.0-4.61","2708163","co38356","norming","","","","","","",""
"null","../img/tt/279tt.jpg","null","mooney2","image-keyboard-response","438","1315178","0.0-6.0-5.61","2708163","co38356","norming","","","","","","",""
"3660.015000000363","","","post_reveal_questions","survey-likert","439","1318839","0.0-6.0-6.61","2708163","co38356","norming","","","{""aha"":1}","[0]","../img/tt/279tt.jpg","",""
"null","<div style=""font-size:60px;""> </div>","null","fixation","html-keyboard-response","440","1319043","0.0-6.0-0.62","2708163","co38356","norming","","","","","","",""
"null","../img/tt/406tt.jpg","null","mooney1","image-keyboard-response","441","1322054","0.0-6.0-1.62","2708163","co38356","norming","","","","","","",""
"9973.794999999925","","","post_mooney1_questions","survey-likert","442","1332032","0.0-6.0-2.62","2708163","co38356","norming","","","{""curiosity"":3,""confidence"":2}","[0,1]","../img/tt/406tt.jpg","",""
"2341.7949999999255","","","recognition","survey-text","443","1334375","0.0-6.0-3.62","2708163","co38356","norming","","","{""guess"":""Bat""}","","../img/tt/406tt.jpg","",""
"null","../img/gs/406gs.jpg","null","reveal","image-keyboard-response","444","1336379","0.0-6.0-4.62","2708163","co38356","norming","","","","","","",""
"null","../img/tt/406tt.jpg","null","mooney2","image-keyboard-response","445","1338388","0.0-6.0-5.62","2708163","co38356","norming","","","","","","",""
"2368.4499999999534","","","post_reveal_questions","survey-likert","446","1340759","0.0-6.0-6.62","2708163","co38356","norming","","","{""aha"":1}","[0]","../img/tt/406tt.jpg","",""
"null","<div style=""font-size:60px;""> </div>","null","fixation","html-keyboard-response","447","1340961","0.0-6.0-0.63","2708163","co38356","norming","","","","","","",""
"null","../img/tt/1261tt.jpg","null","mooney1","image-keyboard-response","448","1343967","0.0-6.0-1.63","2708163","co38356","norming","","","","","","",""
"4188.949999999953","","","post_mooney1_questions","survey-likert","449","1348159","0.0-6.0-2.63","2708163","co38356","norming","","","{""curiosity"":4,""confidence"":3}","[0,1]","../img/tt/1261tt.jpg","",""
"1126.005000000121","","","recognition","survey-text","450","1349287","0.0-6.0-3.63","2708163","co38356","norming","","","{""guess"":""Cow""}","","../img/tt/1261tt.jpg","",""
"null","../img/gs/1261gs.jpg","null","reveal","image-keyboard-response","451","1351291","0.0-6.0-4.63","2708163","co38356","norming","","","","","","",""
"null","../img/tt/1261tt.jpg","null","mooney2","image-keyboard-response","452","1353301","0.0-6.0-5.63","2708163","co38356","norming","","","","","","",""
"2366.4950000001118","","","post_reveal_questions","survey-likert","453","1355671","0.0-6.0-6.63","2708163","co38356","norming","","","{""aha"":0}","[0]","../img/tt/1261tt.jpg","",""
"null","<div style=""font-size:60px;""> </div>","null","fixation","html-keyboard-response","454","1355879","0.0-6.0-0.64","2708163","co38356","norming","","","","","","",""
"null","../img/tt/329tt.jpg","null","mooney1","image-keyboard-response","455","1358882","0.0-6.0-1.64","2708163","co38356","norming","","","","","","",""
"7258.010000000009","","","post_mooney1_questions","survey-likert","456","1366139","0.0-6.0-2.64","2708163","co38356","norming","","","{""curiosity"":1,""confidence"":0}","[0,1]","../img/tt/329tt.jpg","",""
"1013.8249999999534","","","recognition","survey-text","457","1367155","0.0-6.0-3.64","2708163","co38356","norming","","","{""guess"":""""}","","../img/tt/329tt.jpg","",""
"null","../img/gs/329gs.jpg","null","reveal","image-keyboard-response","458","1369156","0.0-6.0-4.64","2708163","co38356","norming","","","","","","",""
"null","../img/tt/329tt.jpg","null","mooney2","image-keyboard-response","459","1371165","0.0-6.0-5.64","2708163","co38356","norming","","","","","","",""
"2452.3300000000745","","","post_reveal_questions","survey-likert","460","1373619","0.0-6.0-6.64","2708163","co38356","norming","","","{""aha"":1}","[0]","../img/tt/329tt.jpg","",""
"null","<div style=""font-size:60px;""> </div>","null","fixation","html-keyboard-response","461","1373823","0.0-6.0-0.65","2708163","co38356","norming","","","","","","",""
"null","../img/tt/020tt.jpg","null","mooney1","image-keyboard-response","462","1376827","0.0-6.0-1.65","2708163","co38356","norming","","","","","","",""
"5566.930000000168","","","post_mooney1_questions","survey-likert","463","1382395","0.0-6.0-2.65","2708163","co38356","norming","","","{""curiosity"":3,""confidence"":0}","[0,1]","../img/tt/020tt.jpg","",""
"717.6599999996834","","","recognition","survey-text","464","1383114","0.0-6.0-3.65","2708163","co38356","norming","","","{""guess"":""""}","","../img/tt/020tt.jpg","",""
"null","../img/gs/020gs.jpg","null","reveal","image-keyboard-response","465","1385120","0.0-6.0-4.65","2708163","co38356","norming","","","","","","",""
"null","../img/tt/020tt.jpg","null","mooney2","image-keyboard-response","466","1387126","0.0-6.0-5.65","2708163","co38356","norming","","","","","","",""
"2827.475000000093","","","post_reveal_questions","survey-likert","467","1389955","0.0-6.0-6.65","2708163","co38356","norming","","","{""aha"":2}","[0]","../img/tt/020tt.jpg","",""
"null","<div style=""font-size:60px;""> </div>","null","fixation","html-keyboard-response","468","1390158","0.0-6.0-0.66","2708163","co38356","norming","","","","","","",""
"null","../img/tt/1255tt.jpg","null","mooney1","image-keyboard-response","469","1393161","0.0-6.0-1.66","2708163","co38356","norming","","","","","","",""
"8664.27500000014","","","post_mooney1_questions","survey-likert","470","1401827","0.0-6.0-2.66","2708163","co38356","norming","","","{""curiosity"":3,""confidence"":3}","[0,1]","../img/tt/1255tt.jpg","",""
"1950.0449999999255","","","recognition","survey-text","471","1403779","0.0-6.0-3.66","2708163","co38356","norming","","","{""guess"":""Rabbit""}","","../img/tt/1255tt.jpg","",""
"null","../img/gs/1255gs.jpg","null","reveal","image-keyboard-response","472","1405781","0.0-6.0-4.66","2708163","co38356","norming","","","","","","",""
"null","../img/tt/1255tt.jpg","null","mooney2","image-keyboard-response","473","1407784","0.0-6.0-5.66","2708163","co38356","norming","","","","","","",""
"2760.3650000002235","","","post_reveal_questions","survey-likert","474","1410547","0.0-6.0-6.66","2708163","co38356","norming","","","{""aha"":0}","[0]","../img/tt/1255tt.jpg","",""
"null","<div style=""font-size:60px;""> </div>","null","fixation","html-keyboard-response","475","1410755","0.0-6.0-0.67","2708163","co38356","norming","","","","","","",""
"null","../img/tt/105tt.jpg","null","mooney1","image-keyboard-response","476","1413763","0.0-6.0-1.67","2708163","co38356","norming","","","","","","",""
"4940.829999999842","","","post_mooney1_questions","survey-likert","477","1418707","0.0-6.0-2.67","2708163","co38356","norming","","","{""curiosity"":0,""confidence"":0}","[0,1]","../img/tt/105tt.jpg","",""
"829.8700000001118","","","recognition","survey-text","478","1419539","0.0-6.0-3.67","2708163","co38356","norming","","","{""guess"":""""}","","../img/tt/105tt.jpg","",""
"null","../img/gs/105gs.jpg","null","reveal","image-keyboard-response","479","1421544","0.0-6.0-4.67","2708163","co38356","norming","","","","","","",""
"null","../img/tt/105tt.jpg","null","mooney2","image-keyboard-response","480","1423561","0.0-6.0-5.67","2708163","co38356","norming","","","","","","",""
"2211.6750000000466","","","post_reveal_questions","survey-likert","481","1425775","0.0-6.0-6.67","2708163","co38356","norming","","","{""aha"":0}","[0]","../img/tt/105tt.jpg","",""
"null","<div style=""font-size:60px;""> </div>","null","fixation","html-keyboard-response","482","1425981","0.0-6.0-0.68","2708163","co38356","norming","","","","","","",""
"null","../img/tt/296tt.jpg","null","mooney1","image-keyboard-response","483","1428986","0.0-6.0-1.68","2708163","co38356","norming","","","","","","",""
"7403.125","","","post_mooney1_questions","survey-likert","484","1436391","0.0-6.0-2.68","2708163","co38356","norming","","","{""curiosity"":2,""confidence"":4}","[0,1]","../img/tt/296tt.jpg","",""
"3630.144999999786","","","recognition","survey-text","485","1440023","0.0-6.0-3.68","2708163","co38356","norming","","","{""guess"":""Dentist's office""}","","../img/tt/296tt.jpg","",""
"null","../img/gs/296gs.jpg","null","reveal","image-keyboard-response","486","1442030","0.0-6.0-4.68","2708163","co38356","norming","","","","","","",""
"null","../img/tt/296tt.jpg","null","mooney2","image-keyboard-response","487","1444040","0.0-6.0-5.68","2708163","co38356","norming","","","","","","",""
"2524.0500000000466","","","post_reveal_questions","survey-likert","488","1446567","0.0-6.0-6.68","2708163","co38356","norming","","","{""aha"":2}","[0]","../img/tt/296tt.jpg","",""
"null","<div style=""font-size:60px;""> </div>","null","fixation","html-keyboard-response","489","1446774","0.0-6.0-0.69","2708163","co38356","norming","","","","","","",""
"null","../img/tt/1044tt.jpg","null","mooney1","image-keyboard-response","490","1449778","0.0-6.0-1.69","2708163","co38356","norming","","","","","","",""
"12153.594999999972","","","post_mooney1_questions","survey-likert","491","1461935","0.0-6.0-2.69","2708163","co38356","norming","","","{""curiosity"":4,""confidence"":3}","[0,1]","../img/tt/1044tt.jpg","",""
"3078.125","","","recognition","survey-text","492","1465015","0.0-6.0-3.69","2708163","co38356","norming","","","{""guess"":""Cat""}","","../img/tt/1044tt.jpg","",""
"null","../img/gs/1044gs.jpg","null","reveal","image-keyboard-response","493","1467018","0.0-6.0-4.69","2708163","co38356","norming","","","","","","",""
"null","../img/tt/1044tt.jpg","null","mooney2","image-keyboard-response","494","1469028","0.0-6.0-5.69","2708163","co38356","norming","","","","","","",""
"3143.785000000149","","","post_reveal_questions","survey-likert","495","1472176","0.0-6.0-6.69","2708163","co38356","norming","","","{""aha"":2}","[0]","../img/tt/1044tt.jpg","",""
"null","<div style=""font-size:60px;""> </div>","null","fixation","html-keyboard-response","496","1472383","0.0-6.0-0.70","2708163","co38356","norming","","","","","","",""
"null","../img/tt/438tt.jpg","null","mooney1","image-keyboard-response","497","1475388","0.0-6.0-1.70","2708163","co38356","norming","","","","","","",""
"6600.219999999972","","","post_mooney1_questions","survey-likert","498","1481991","0.0-6.0-2.70","2708163","co38356","norming","","","{""curiosity"":1,""confidence"":0}","[0,1]","../img/tt/438tt.jpg","",""
"965.8000000002794","","","recognition","survey-text","499","1482959","0.0-6.0-3.70","2708163","co38356","norming","","","{""guess"":""""}","","../img/tt/438tt.jpg","",""
"null","../img/gs/438gs.jpg","null","reveal","image-keyboard-response","500","1484963","0.0-6.0-4.70","2708163","co38356","norming","","","","","","",""
"null","../img/tt/438tt.jpg","null","mooney2","image-keyboard-response","501","1486974","0.0-6.0-5.70","2708163","co38356","norming","","","","","","",""
"4950.210000000196","","","post_reveal_questions","survey-likert","502","1491927","0.0-6.0-6.70","2708163","co38356","norming","","","{""aha"":1}","[0]","../img/tt/438tt.jpg","",""
"null","<div style=""font-size:60px;""> </div>","null","fixation","html-keyboard-response","503","1492131","0.0-6.0-0.71","2708163","co38356","norming","","","","","","",""
"null","../img/tt/1080tt.jpg","null","mooney1","image-keyboard-response","504","1495141","0.0-6.0-1.71","2708163","co38356","norming","","","","","","",""
"4313.129999999888","","","post_mooney1_questions","survey-likert","505","1499455","0.0-6.0-2.71","2708163","co38356","norming","","","{""curiosity"":1,""confidence"":0}","[0,1]","../img/tt/1080tt.jpg","",""
"838.1100000001024","","","recognition","survey-text","506","1500295","0.0-6.0-3.71","2708163","co38356","norming","","","{""guess"":""""}","","../img/tt/1080tt.jpg","",""
"null","../img/gs/1080gs.jpg","null","reveal","image-keyboard-response","507","1502298","0.0-6.0-4.71","2708163","co38356","norming","","","","","","",""
"null","../img/tt/1080tt.jpg","null","mooney2","image-keyboard-response","508","1504300","0.0-6.0-5.71","2708163","co38356","norming","","","","","","",""
"3784.3700000001118","","","post_reveal_questions","survey-likert","509","1508087","0.0-6.0-6.71","2708163","co38356","norming","","","{""aha"":1}","[0]","../img/tt/1080tt.jpg","",""
"null","<div style=""font-size:60px;""> </div>","null","fixation","html-keyboard-response","510","1508291","0.0-6.0-0.72","2708163","co38356","norming","","","","","","",""
"null","../img/tt/1033tt.jpg","null","mooney1","image-keyboard-response","511","1511297","0.0-6.0-1.72","2708163","co38356","norming","","","","","","",""
"4745.26500000013","","","post_mooney1_questions","survey-likert","512","1516047","0.0-6.0-2.72","2708163","co38356","norming","","","{""curiosity"":1,""confidence"":0}","[0,1]","../img/tt/1033tt.jpg","",""
"678.0400000000373","","","recognition","survey-text","513","1516727","0.0-6.0-3.72","2708163","co38356","norming","","","{""guess"":""""}","","../img/tt/1033tt.jpg","",""
"null","../img/gs/1033gs.jpg","null","reveal","image-keyboard-response","514","1518731","0.0-6.0-4.72","2708163","co38356","norming","","","","","","",""
"null","../img/tt/1033tt.jpg","null","mooney2","image-keyboard-response","515","1520735","0.0-6.0-5.72","2708163","co38356","norming","","","","","","",""
"3732.7750000001397","","","post_reveal_questions","survey-likert","516","1524471","0.0-6.0-6.72","2708163","co38356","norming","","","{""aha"":1}","[0]","../img/tt/1033tt.jpg","",""
"null","<div style=""font-size:60px;""> </div>","null","fixation","html-keyboard-response","517","1524677","0.0-6.0-0.73","2708163","co38356","norming","","","","","","",""
"null","../img/tt/1283tt.jpg","null","mooney1","image-keyboard-response","518","1527688","0.0-6.0-1.73","2708163","co38356","norming","","","","","","",""
"5339.284999999916","","","post_mooney1_questions","survey-likert","519","1533031","0.0-6.0-2.73","2708163","co38356","norming","","","{""curiosity"":4,""confidence"":3}","[0,1]","../img/tt/1283tt.jpg","",""
"2542.089999999851","","","recognition","survey-text","520","1535575","0.0-6.0-3.73","2708163","co38356","norming","","","{""guess"":""Lynx""}","","../img/tt/1283tt.jpg","",""
"null","../img/gs/1283gs.jpg","null","reveal","image-keyboard-response","521","1537576","0.0-6.0-4.73","2708163","co38356","norming","","","","","","",""
"null","../img/tt/1283tt.jpg","null","mooney2","image-keyboard-response","522","1539578","0.0-6.0-5.73","2708163","co38356","norming","","","","","","",""
"8018.314999999944","","","post_reveal_questions","survey-likert","523","1547593","0.0-6.0-6.73","2708163","co38356","norming","","","{""aha"":3}","[0]","../img/tt/1283tt.jpg","",""
"null","<div style=""font-size:60px;""> </div>","null","fixation","html-keyboard-response","524","1547800","0.0-6.0-0.74","2708163","co38356","norming","","","","","","",""
"null","../img/tt/496tt.jpg","null","mooney1","image-keyboard-response","525","1550803","0.0-6.0-1.74","2708163","co38356","norming","","","","","","",""
"9522.364999999758","","","post_mooney1_questions","survey-likert","526","1560329","0.0-6.0-2.74","2708163","co38356","norming","","","{""curiosity"":3,""confidence"":5}","[0,1]","../img/tt/496tt.jpg","",""
"2901.9550000000745","","","recognition","survey-text","527","1563233","0.0-6.0-3.74","2708163","co38356","norming","","","{""guess"":""Pug""}","","../img/tt/496tt.jpg","",""
"null","../img/gs/496gs.jpg","null","reveal","image-keyboard-response","528","1565235","0.0-6.0-4.74","2708163","co38356","norming","","","","","","",""
"null","../img/tt/496tt.jpg","null","mooney2","image-keyboard-response","529","1567246","0.0-6.0-5.74","2708163","co38356","norming","","","","","","",""
"2992.1400000001304","","","post_reveal_questions","survey-likert","530","1570241","0.0-6.0-6.74","2708163","co38356","norming","","","{""aha"":1}","[0]","../img/tt/496tt.jpg","",""
"null","<div style=""font-size:60px;""> </div>","null","fixation","html-keyboard-response","531","1570448","0.0-6.0-0.75","2708163","co38356","norming","","","","","","",""
"null","../img/tt/507tt.jpg","null","mooney1","image-keyboard-response","532","1573461","0.0-6.0-1.75","2708163","co38356","norming","","","","","","",""
"10000.574999999953","","","post_mooney1_questions","survey-likert","533","1583465","0.0-6.0-2.75","2708163","co38356","norming","","","{""curiosity"":5,""confidence"":0}","[0,1]","../img/tt/507tt.jpg","",""
"606.0400000000373","","","recognition","survey-text","534","1584073","0.0-6.0-3.75","2708163","co38356","norming","","","{""guess"":""""}","","../img/tt/507tt.jpg","",""
"null","../img/gs/507gs.jpg","null","reveal","image-keyboard-response","535","1586079","0.0-6.0-4.75","2708163","co38356","norming","","","","","","",""
"null","../img/tt/507tt.jpg","null","mooney2","image-keyboard-response","536","1588091","0.0-6.0-5.75","2708163","co38356","norming","","","","","","",""
"4627.424999999814","","","post_reveal_questions","survey-likert","537","1592721","0.0-6.0-6.75","2708163","co38356","norming","","","{""aha"":4}","[0]","../img/tt/507tt.jpg","",""
"null","<div style=""font-size:60px;""> </div>","null","fixation","html-keyboard-response","538","1592928","0.0-6.0-0.76","2708163","co38356","norming","","","","","","",""
"null","../img/tt/194tt.jpg","null","mooney1","image-keyboard-response","539","1595935","0.0-6.0-1.76","2708163","co38356","norming","","","","","","",""
"5925.4799999997485","","","post_mooney1_questions","survey-likert","540","1601865","0.0-6.0-2.76","2708163","co38356","norming","","","{""curiosity"":4,""confidence"":4}","[0,1]","../img/tt/194tt.jpg","",""
"2582.030000000028","","","recognition","survey-text","541","1604449","0.0-6.0-3.76","2708163","co38356","norming","","","{""guess"":""Musician""}","","../img/tt/194tt.jpg","",""
"null","../img/gs/194gs.jpg","null","reveal","image-keyboard-response","542","1606451","0.0-6.0-4.76","2708163","co38356","norming","","","","","","",""
"null","../img/tt/194tt.jpg","null","mooney2","image-keyboard-response","543","1608469","0.0-6.0-5.76","2708163","co38356","norming","","","","","","",""
"2936.2000000001863","","","post_reveal_questions","survey-likert","544","1611408","0.0-6.0-6.76","2708163","co38356","norming","","","{""aha"":4}","[0]","../img/tt/194tt.jpg","",""
"null","<div style=""font-size:60px;""> </div>","null","fixation","html-keyboard-response","545","1611613","0.0-6.0-0.77","2708163","co38356","norming","","","","","","",""
"null","../img/tt/319tt.jpg","null","mooney1","image-keyboard-response","546","1614618","0.0-6.0-1.77","2708163","co38356","norming","","","","","","",""
"4218.5800000000745","","","post_mooney1_questions","survey-likert","547","1618840","0.0-6.0-2.77","2708163","co38356","norming","","","{""curiosity"":4,""confidence"":0}","[0,1]","../img/tt/319tt.jpg","",""
"645.7199999999721","","","recognition","survey-text","548","1619488","0.0-6.0-3.77","2708163","co38356","norming","","","{""guess"":""""}","","../img/tt/319tt.jpg","",""
"null","../img/gs/319gs.jpg","null","reveal","image-keyboard-response","549","1621489","0.0-6.0-4.77","2708163","co38356","norming","","","","","","",""
"null","../img/tt/319tt.jpg","null","mooney2","image-keyboard-response","550","1623494","0.0-6.0-5.77","2708163","co38356","norming","","","","","","",""
"4574.844999999739","","","post_reveal_questions","survey-likert","551","1628072","0.0-6.0-6.77","2708163","co38356","norming","","","{""aha"":1}","[0]","../img/tt/319tt.jpg","",""
"null","<div style=""font-size:60px;""> </div>","null","fixation","html-keyboard-response","552","1628273","0.0-6.0-0.78","2708163","co38356","norming","","","","","","",""
"null","../img/tt/1235tt.jpg","null","mooney1","image-keyboard-response","553","1631286","0.0-6.0-1.78","2708163","co38356","norming","","","","","","",""
