"rt","stimulus","key_press","test_part","trial_type","trial_index","time_elapsed","internal_node_id","totalTime","subject","experiment_name","button_pressed","success","responses","question_order","currentStim","old","correct"
"5752.84499999907","Welcome to the experiment. This is an online experiment so please don't close the tab/window until we say goodbye.  Press any key to begin.","188","instructions","html-keyboard-response","0","5768","0.0-0.0","3150034","co38293","norming","","","","","","",""
"56854.67999999855","<div style='word-wrap: break-word; width: 900px'><h3>Please consider this information carefully before deciding whether to participate in this research</h3><ul style='text-align: left; font-size: .8em;'><li><b>Purpose of the research</b>: To examine how people process images.</li><li><b>What you will do in this research</b>:  Stimuli (images) will be presented on the computer and you will be asked different questions about them.</li><li><b>Time required</b>: Participation will take between 45 and 60 minutes to complete.</li><li><b>Risks</b>:  There are no anticipated risks associated with participating in this study. The effects of participating should be comparable to those you would experience from viewing a computer monitor for 30 minutes and using a mouse or keyboard.</li><li><b>Benefits</b>:  This study provides no benefits to you individually except for the credit. The study provides important information about the nature of perception and learning.</li><li><b>Confidentiality</b>:  Your participation in this study will remain confidential. No personally identifiable information will be associated with your data. Your de-identified data may be shared with other researchers and used in future projects.</li><li><b>Participation and withdrawal</b>:  Your participation in this study is completely voluntary and you may refuse to participate or you may choose to withdraw at any time without penalty.</li><li><b>How to contact the researchers</b>: If you have questions or concerns about your participation or payment, or want to request a summary of research findings, please contact Sander Van de Cruys (KU Leuven), at sander.vandecruys@kuleuven.be.</li></ul><p>The nature and purpose of this research have been sufficiently explained and I agree to participate in this study.  I understand that I am free to withdraw at any time without incurring any penalty.</p><p>Please consent by clicking the button below to continue. Otherwise, please exit the study at this time.</p></div>","","instructions","html-button-response","1","62623","0.0-1.0","3150034","co38293","norming","0","","","","","",""
"","","","instructions","fullscreen","2","66847","0.0-2.0","3150034","co38293","norming","","true","","","","",""
"35700.36999999866","","","sona","survey-html-form","3","102554","0.0-3.0","3150034","co38293","norming","","","[{""name"":""sonaid"",""value"":""38293""},{""name"":""debrief"",""value"":""yes""},{""name"":""datajoin"",""value"":""no""}]","","","",""
"109579.59000000118","<div style='word-wrap: break-word; width: 900px'><h3>Instructions</h3><p>This experiment will have 3 parts. In the first part you will see a series of distorted images like the one below on the left. As you can see in the righthand image, the distorted images are derived from actual photographs. In what follows, you will <strong>briefly</strong> be presented with <strong>only</strong> the distorted image.</p> <div style='float: left; margin-right: 20px;'><img src='../img/018tt.jpg' height='250' width='250'></img></div><div style='float: right; margin-left: 20px;'><img src='../img/018gs.jpg' height='250' width='250'></img></div><p>Subsequently you will be asked a few questions about the image: One question on how <strong>curious</strong> you are about the solution and one on how <strong>confident</strong> you are that you know the solution.</p>Next, we ask you to make a guess on what is in the image. Note that it is OK to name just the <strong>basic level category</strong>. For example when you see a parrot in the image, 'parrot' will obviously be a correct answer but also correct is 'bird'. However, 'animal' will <strong>not</strong> be counted as a correct response. For the example above, 'rose' would be correct or 'flower', but not 'plant'. When soccer players are depicted, 'soccer', 'football', 'soccer players' will be correct, but not 'humans', 'outdoors', or 'sports'. You do not need to describe the image in full, just name the main object in it <strong>in one or two words</strong>. All images depict objects from one of the following broad level categories: animals, inanimate objects, plants, sports, vehicles, and food. Recognizing means knowing <strong>more</strong> than these broad labels for a given image. But we always encourage you to <strong>make a guess</strong> if you can. Note that you are allowed to use <strong>Dutch and English</strong> in your answers, whatever comes easiest for you.</p><p>Press any key to continue.</p></div>","76","instructions","html-keyboard-response","4","212139","0.0-4.0","3150034","co38293","norming","","","","","","",""
"89757.62500000023","<div style='word-wrap: break-word; width: 900px'><h3>Instructions</h3> <p>Next, the solution image will be revealed to you and you'll be asked to indicate how strong your <strong>aha-experience</strong> was after seeing the solution. This describes the positive feeling of the 'click' you sometimes experience, when the pieces of the 'puzzle' fall together and you suddenly have 'insight' in the image.</p><img src='aha.jpg' height='188' width='250'></img><p>Note that there are no right or wrong answers. We are interested in what <strong>you</strong> see in the image and how <strong>you</strong> feel about it.</p><p>Press any key to start the experiment.</p></div>","76","instructions","html-keyboard-response","5","301897","0.0-5.0","3150034","co38293","norming","","","","","","",""
"null","<div style=""font-size:60px;""> </div>","null","fixation","html-keyboard-response","6","302099","0.0-6.0-0.0","3150034","co38293","norming","","","","","","",""
"null","../img/tt/1217tt.jpg","null","mooney1","image-keyboard-response","7","305109","0.0-6.0-1.0","3150034","co38293","norming","","","","","","",""
"16007.37000000116","","","post_mooney1_questions","survey-likert","8","321120","0.0-6.0-2.0","3150034","co38293","norming","","","{""curiosity"":4,""confidence"":2}","[0,1]","../img/tt/1217tt.jpg","",""
"8197.775000000547","","","recognition","survey-text","9","329320","0.0-6.0-3.0","3150034","co38293","norming","","","{""guess"":""dog""}","","../img/tt/1217tt.jpg","",""
"null","../img/gs/1217gs.jpg","null","reveal","image-keyboard-response","10","331323","0.0-6.0-4.0","3150034","co38293","norming","","","","","","",""
"null","../img/tt/1217tt.jpg","null","mooney2","image-keyboard-response","11","333325","0.0-6.0-5.0","3150034","co38293","norming","","","","","","",""
"7120.000000000815","","","post_reveal_questions","survey-likert","12","340447","0.0-6.0-6.0","3150034","co38293","norming","","","{""aha"":0}","[0]","../img/tt/1217tt.jpg","",""
"null","<div style=""font-size:60px;""> </div>","null","fixation","html-keyboard-response","13","340656","0.0-6.0-0.1","3150034","co38293","norming","","","","","","",""
"null","../img/tt/270tt.jpg","null","mooney1","image-keyboard-response","14","343667","0.0-6.0-1.1","3150034","co38293","norming","","","","","","",""
"4122.885000000708","","","post_mooney1_questions","survey-likert","15","347792","0.0-6.0-2.1","3150034","co38293","norming","","","{""curiosity"":5,""confidence"":0}","[0,1]","../img/tt/270tt.jpg","",""
"4806.2699999991455","","","recognition","survey-text","16","352599","0.0-6.0-3.1","3150034","co38293","norming","","","{""guess"":""""}","","../img/tt/270tt.jpg","",""
"null","../img/gs/270gs.jpg","null","reveal","image-keyboard-response","17","354607","0.0-6.0-4.1","3150034","co38293","norming","","","","","","",""
"null","../img/tt/270tt.jpg","null","mooney2","image-keyboard-response","18","356610","0.0-6.0-5.1","3150034","co38293","norming","","","","","","",""
"4675.020000000601","","","post_reveal_questions","survey-likert","19","361287","0.0-6.0-6.1","3150034","co38293","norming","","","{""aha"":0}","[0]","../img/tt/270tt.jpg","",""
"null","<div style=""font-size:60px;""> </div>","null","fixation","html-keyboard-response","20","361492","0.0-6.0-0.2","3150034","co38293","norming","","","","","","",""
"null","../img/tt/1096tt.jpg","null","mooney1","image-keyboard-response","21","364507","0.0-6.0-1.2","3150034","co38293","norming","","","","","","",""
"6776.120000000461","","","post_mooney1_questions","survey-likert","22","371286","0.0-6.0-2.2","3150034","co38293","norming","","","{""curiosity"":4,""confidence"":1}","[0,1]","../img/tt/1096tt.jpg","",""
"2006.2649999999558","","","recognition","survey-text","23","373294","0.0-6.0-3.2","3150034","co38293","norming","","","{""guess"":""house""}","","../img/tt/1096tt.jpg","",""
"null","../img/gs/1096gs.jpg","null","reveal","image-keyboard-response","24","375301","0.0-6.0-4.2","3150034","co38293","norming","","","","","","",""
"null","../img/tt/1096tt.jpg","null","mooney2","image-keyboard-response","25","377306","0.0-6.0-5.2","3150034","co38293","norming","","","","","","",""
"3088.514999999432","","","post_reveal_questions","survey-likert","26","380397","0.0-6.0-6.2","3150034","co38293","norming","","","{""aha"":0}","[0]","../img/tt/1096tt.jpg","",""
"null","<div style=""font-size:60px;""> </div>","null","fixation","html-keyboard-response","27","380607","0.0-6.0-0.3","3150034","co38293","norming","","","","","","",""
"null","../img/tt/135tt.jpg","null","mooney1","image-keyboard-response","28","383610","0.0-6.0-1.3","3150034","co38293","norming","","","","","","",""
"5274.615000000282","","","post_mooney1_questions","survey-likert","29","388886","0.0-6.0-2.3","3150034","co38293","norming","","","{""curiosity"":1,""confidence"":4}","[0,1]","../img/tt/135tt.jpg","",""
"1989.9299999997602","","","recognition","survey-text","30","390877","0.0-6.0-3.3","3150034","co38293","norming","","","{""guess"":""toilet""}","","../img/tt/135tt.jpg","",""
"null","../img/gs/135gs.jpg","null","reveal","image-keyboard-response","31","392887","0.0-6.0-4.3","3150034","co38293","norming","","","","","","",""
"null","../img/tt/135tt.jpg","null","mooney2","image-keyboard-response","32","394890","0.0-6.0-5.3","3150034","co38293","norming","","","","","","",""
"3209.4999999990105","","","post_reveal_questions","survey-likert","33","398101","0.0-6.0-6.3","3150034","co38293","norming","","","{""aha"":0}","[0]","../img/tt/135tt.jpg","",""
"null","<div style=""font-size:60px;""> </div>","null","fixation","html-keyboard-response","34","398309","0.0-6.0-0.4","3150034","co38293","norming","","","","","","",""
"null","../img/tt/019tt.jpg","null","mooney1","image-keyboard-response","35","401317","0.0-6.0-1.4","3150034","co38293","norming","","","","","","",""
"6494.225000000384","","","post_mooney1_questions","survey-likert","36","407813","0.0-6.0-2.4","3150034","co38293","norming","","","{""curiosity"":4,""confidence"":2}","[0,1]","../img/tt/019tt.jpg","",""
"1734.3000000001048","","","recognition","survey-text","37","409549","0.0-6.0-3.4","3150034","co38293","norming","","","{""guess"":""shoes""}","","../img/tt/019tt.jpg","",""
"null","../img/gs/019gs.jpg","null","reveal","image-keyboard-response","38","411554","0.0-6.0-4.4","3150034","co38293","norming","","","","","","",""
"null","../img/tt/019tt.jpg","null","mooney2","image-keyboard-response","39","413559","0.0-6.0-5.4","3150034","co38293","norming","","","","","","",""
"2907.970000000205","","","post_reveal_questions","survey-likert","40","416469","0.0-6.0-6.4","3150034","co38293","norming","","","{""aha"":3}","[0]","../img/tt/019tt.jpg","",""
"null","<div style=""font-size:60px;""> </div>","null","fixation","html-keyboard-response","41","416677","0.0-6.0-0.5","3150034","co38293","norming","","","","","","",""
"null","../img/tt/1126tt.jpg","null","mooney1","image-keyboard-response","42","419688","0.0-6.0-1.5","3150034","co38293","norming","","","","","","",""
"7579.069999999774","","","post_mooney1_questions","survey-likert","43","427264","0.0-6.0-2.5","3150034","co38293","norming","","","{""curiosity"":4,""confidence"":0}","[0,1]","../img/tt/1126tt.jpg","",""
"694.3100000007544","","","recognition","survey-text","44","427960","0.0-6.0-3.5","3150034","co38293","norming","","","{""guess"":""""}","","../img/tt/1126tt.jpg","",""
"null","../img/gs/1126gs.jpg","null","reveal","image-keyboard-response","45","429961","0.0-6.0-4.5","3150034","co38293","norming","","","","","","",""
"null","../img/tt/1126tt.jpg","null","mooney2","image-keyboard-response","46","431964","0.0-6.0-5.5","3150034","co38293","norming","","","","","","",""
"3729.9899999998743","","","post_reveal_questions","survey-likert","47","435696","0.0-6.0-6.5","3150034","co38293","norming","","","{""aha"":3}","[0]","../img/tt/1126tt.jpg","",""
"null","<div style=""font-size:60px;""> </div>","null","fixation","html-keyboard-response","48","435901","0.0-6.0-0.6","3150034","co38293","norming","","","","","","",""
"null","../img/tt/008tt.jpg","null","mooney1","image-keyboard-response","49","438904","0.0-6.0-1.6","3150034","co38293","norming","","","","","","",""
"4229.859999999462","","","post_mooney1_questions","survey-likert","50","443136","0.0-6.0-2.6","3150034","co38293","norming","","","{""curiosity"":4,""confidence"":0}","[0,1]","../img/tt/008tt.jpg","",""
"646.1700000000419","","","recognition","survey-text","51","443784","0.0-6.0-3.6","3150034","co38293","norming","","","{""guess"":""""}","","../img/tt/008tt.jpg","",""
"null","../img/gs/008gs.jpg","null","reveal","image-keyboard-response","52","445788","0.0-6.0-4.6","3150034","co38293","norming","","","","","","",""
"null","../img/tt/008tt.jpg","null","mooney2","image-keyboard-response","53","447794","0.0-6.0-5.6","3150034","co38293","norming","","","","","","",""
"3818.9999999995343","","","post_reveal_questions","survey-likert","54","451616","0.0-6.0-6.6","3150034","co38293","norming","","","{""aha"":3}","[0]","../img/tt/008tt.jpg","",""
"null","<div style=""font-size:60px;""> </div>","null","fixation","html-keyboard-response","55","451826","0.0-6.0-0.7","3150034","co38293","norming","","","","","","",""
"null","../img/tt/091tt.jpg","null","mooney1","image-keyboard-response","56","454835","0.0-6.0-1.7","3150034","co38293","norming","","","","","","",""
"5626.789999998407","","","post_mooney1_questions","survey-likert","57","460464","0.0-6.0-2.7","3150034","co38293","norming","","","{""curiosity"":5,""confidence"":0}","[0,1]","../img/tt/091tt.jpg","",""
"726.3099999999977","","","recognition","survey-text","58","461192","0.0-6.0-3.7","3150034","co38293","norming","","","{""guess"":""""}","","../img/tt/091tt.jpg","",""
"null","../img/gs/091gs.jpg","null","reveal","image-keyboard-response","59","463195","0.0-6.0-4.7","3150034","co38293","norming","","","","","","",""
"null","../img/tt/091tt.jpg","null","mooney2","image-keyboard-response","60","465203","0.0-6.0-5.7","3150034","co38293","norming","","","","","","",""
"2226.834999999439","","","post_reveal_questions","survey-likert","61","467432","0.0-6.0-6.7","3150034","co38293","norming","","","{""aha"":4}","[0]","../img/tt/091tt.jpg","",""
"null","<div style=""font-size:60px;""> </div>","null","fixation","html-keyboard-response","62","467642","0.0-6.0-0.8","3150034","co38293","norming","","","","","","",""
"null","../img/tt/1070tt.jpg","null","mooney1","image-keyboard-response","63","470645","0.0-6.0-1.8","3150034","co38293","norming","","","","","","",""
"6808.404999999795","","","post_mooney1_questions","survey-likert","64","477456","0.0-6.0-2.8","3150034","co38293","norming","","","{""curiosity"":3,""confidence"":1}","[0,1]","../img/tt/1070tt.jpg","",""
"2966.1649999998044","","","recognition","survey-text","65","480424","0.0-6.0-3.8","3150034","co38293","norming","","","{""guess"":""meal""}","","../img/tt/1070tt.jpg","",""
"null","../img/gs/1070gs.jpg","null","reveal","image-keyboard-response","66","482429","0.0-6.0-4.8","3150034","co38293","norming","","","","","","",""
"null","../img/tt/1070tt.jpg","null","mooney2","image-keyboard-response","67","484436","0.0-6.0-5.8","3150034","co38293","norming","","","","","","",""
"3793.4850000001607","","","post_reveal_questions","survey-likert","68","488231","0.0-6.0-6.8","3150034","co38293","norming","","","{""aha"":2}","[0]","../img/tt/1070tt.jpg","",""
"null","<div style=""font-size:60px;""> </div>","null","fixation","html-keyboard-response","69","488435","0.0-6.0-0.9","3150034","co38293","norming","","","","","","",""
"null","../img/tt/1290tt.jpg","null","mooney1","image-keyboard-response","70","491447","0.0-6.0-1.9","3150034","co38293","norming","","","","","","",""
"5109.7600000011735","","","post_mooney1_questions","survey-likert","71","496559","0.0-6.0-2.9","3150034","co38293","norming","","","{""curiosity"":4,""confidence"":1}","[0,1]","../img/tt/1290tt.jpg","",""
"2150.3499999998603","","","recognition","survey-text","72","498712","0.0-6.0-3.9","3150034","co38293","norming","","","{""guess"":""grenade""}","","../img/tt/1290tt.jpg","",""
"null","../img/gs/1290gs.jpg","null","reveal","image-keyboard-response","73","500722","0.0-6.0-4.9","3150034","co38293","norming","","","","","","",""
"null","../img/tt/1290tt.jpg","null","mooney2","image-keyboard-response","74","502731","0.0-6.0-5.9","3150034","co38293","norming","","","","","","",""
"5657.9199999996345","","","post_reveal_questions","survey-likert","75","508391","0.0-6.0-6.9","3150034","co38293","norming","","","{""aha"":4}","[0]","../img/tt/1290tt.jpg","",""
"null","<div style=""font-size:60px;""> </div>","null","fixation","html-keyboard-response","76","508597","0.0-6.0-0.10","3150034","co38293","norming","","","","","","",""
"null","../img/tt/163tt.jpg","null","mooney1","image-keyboard-response","77","511601","0.0-6.0-1.10","3150034","co38293","norming","","","","","","",""
"3908.080000001064","","","post_mooney1_questions","survey-likert","78","515512","0.0-6.0-2.10","3150034","co38293","norming","","","{""curiosity"":4,""confidence"":0}","[0,1]","../img/tt/163tt.jpg","",""
"701.8699999990058","","","recognition","survey-text","79","516215","0.0-6.0-3.10","3150034","co38293","norming","","","{""guess"":""""}","","../img/tt/163tt.jpg","",""
"null","../img/gs/163gs.jpg","null","reveal","image-keyboard-response","80","518218","0.0-6.0-4.10","3150034","co38293","norming","","","","","","",""
"null","../img/tt/163tt.jpg","null","mooney2","image-keyboard-response","81","520223","0.0-6.0-5.10","3150034","co38293","norming","","","","","","",""
"2335.4899999994086","","","post_reveal_questions","survey-likert","82","522560","0.0-6.0-6.10","3150034","co38293","norming","","","{""aha"":4}","[0]","../img/tt/163tt.jpg","",""
"null","<div style=""font-size:60px;""> </div>","null","fixation","html-keyboard-response","83","522761","0.0-6.0-0.11","3150034","co38293","norming","","","","","","",""
"null","../img/tt/031tt.jpg","null","mooney1","image-keyboard-response","84","525773","0.0-6.0-1.11","3150034","co38293","norming","","","","","","",""
"7216.039999999339","","","post_mooney1_questions","survey-likert","85","532992","0.0-6.0-2.11","3150034","co38293","norming","","","{""curiosity"":4,""confidence"":0}","[0,1]","../img/tt/031tt.jpg","",""
"3350.3400000008987","","","recognition","survey-text","86","536344","0.0-6.0-3.11","3150034","co38293","norming","","","{""guess"":""""}","","../img/tt/031tt.jpg","",""
"null","../img/gs/031gs.jpg","null","reveal","image-keyboard-response","87","538351","0.0-6.0-4.11","3150034","co38293","norming","","","","","","",""
"null","../img/tt/031tt.jpg","null","mooney2","image-keyboard-response","88","540352","0.0-6.0-5.11","3150034","co38293","norming","","","","","","",""
"2629.049999999581","","","post_reveal_questions","survey-likert","89","542983","0.0-6.0-6.11","3150034","co38293","norming","","","{""aha"":4}","[0]","../img/tt/031tt.jpg","",""
"null","<div style=""font-size:60px;""> </div>","null","fixation","html-keyboard-response","90","543190","0.0-6.0-0.12","3150034","co38293","norming","","","","","","",""
"null","../img/tt/1069tt.jpg","null","mooney1","image-keyboard-response","91","546200","0.0-6.0-1.12","3150034","co38293","norming","","","","","","",""
"4444.8250000005355","","","post_mooney1_questions","survey-likert","92","550646","0.0-6.0-2.12","3150034","co38293","norming","","","{""curiosity"":5,""confidence"":0}","[0,1]","../img/tt/1069tt.jpg","",""
"854.4500000006519","","","recognition","survey-text","93","551502","0.0-6.0-3.12","3150034","co38293","norming","","","{""guess"":""""}","","../img/tt/1069tt.jpg","",""
"null","../img/gs/1069gs.jpg","null","reveal","image-keyboard-response","94","553504","0.0-6.0-4.12","3150034","co38293","norming","","","","","","",""
"null","../img/tt/1069tt.jpg","null","mooney2","image-keyboard-response","95","555513","0.0-6.0-5.12","3150034","co38293","norming","","","","","","",""
"4794.59499999939","","","post_reveal_questions","survey-likert","96","560310","0.0-6.0-6.12","3150034","co38293","norming","","","{""aha"":4}","[0]","../img/tt/1069tt.jpg","",""
"null","<div style=""font-size:60px;""> </div>","null","fixation","html-keyboard-response","97","560511","0.0-6.0-0.13","3150034","co38293","norming","","","","","","",""
"null","../img/tt/1227tt.jpg","null","mooney1","image-keyboard-response","98","563515","0.0-6.0-1.13","3150034","co38293","norming","","","","","","",""
"4376.749999999418","","","post_mooney1_questions","survey-likert","99","567894","0.0-6.0-2.13","3150034","co38293","norming","","","{""curiosity"":5,""confidence"":0}","[0,1]","../img/tt/1227tt.jpg","",""
"646.3000000003958","","","recognition","survey-text","100","568542","0.0-6.0-3.13","3150034","co38293","norming","","","{""guess"":""""}","","../img/tt/1227tt.jpg","",""
"null","../img/gs/1227gs.jpg","null","reveal","image-keyboard-response","101","570548","0.0-6.0-4.13","3150034","co38293","norming","","","","","","",""
"null","../img/tt/1227tt.jpg","null","mooney2","image-keyboard-response","102","572557","0.0-6.0-5.13","3150034","co38293","norming","","","","","","",""
"2350.0450000010896","","","post_reveal_questions","survey-likert","103","574910","0.0-6.0-6.13","3150034","co38293","norming","","","{""aha"":4}","[0]","../img/tt/1227tt.jpg","",""
"null","<div style=""font-size:60px;""> </div>","null","fixation","html-keyboard-response","104","575111","0.0-6.0-0.14","3150034","co38293","norming","","","","","","",""
"null","../img/tt/063tt.jpg","null","mooney1","image-keyboard-response","105","578118","0.0-6.0-1.14","3150034","co38293","norming","","","","","","",""
"4637.0950000000885","","","post_mooney1_questions","survey-likert","106","582758","0.0-6.0-2.14","3150034","co38293","norming","","","{""curiosity"":4,""confidence"":1}","[0,1]","../img/tt/063tt.jpg","",""
"2502.0450000010896","","","recognition","survey-text","107","585262","0.0-6.0-3.14","3150034","co38293","norming","","","{""guess"":""typing machine""}","","../img/tt/063tt.jpg","",""
"null","../img/gs/063gs.jpg","null","reveal","image-keyboard-response","108","587263","0.0-6.0-4.14","3150034","co38293","norming","","","","","","",""
"null","../img/tt/063tt.jpg","null","mooney2","image-keyboard-response","109","589266","0.0-6.0-5.14","3150034","co38293","norming","","","","","","",""
"3218.3800000002375","","","post_reveal_questions","survey-likert","110","592486","0.0-6.0-6.14","3150034","co38293","norming","","","{""aha"":5}","[0]","../img/tt/063tt.jpg","",""
"null","<div style=""font-size:60px;""> </div>","null","fixation","html-keyboard-response","111","592687","0.0-6.0-0.15","3150034","co38293","norming","","","","","","",""
"null","../img/tt/1107tt.jpg","null","mooney1","image-keyboard-response","112","595690","0.0-6.0-1.15","3150034","co38293","norming","","","","","","",""
"3823.125000000815","","","post_mooney1_questions","survey-likert","113","599518","0.0-6.0-2.15","3150034","co38293","norming","","","{""curiosity"":4,""confidence"":1}","[0,1]","../img/tt/1107tt.jpg","",""
"1694.2500000004657","","","recognition","survey-text","114","601214","0.0-6.0-3.15","3150034","co38293","norming","","","{""guess"":""wolf""}","","../img/tt/1107tt.jpg","",""
"null","../img/gs/1107gs.jpg","null","reveal","image-keyboard-response","115","603221","0.0-6.0-4.15","3150034","co38293","norming","","","","","","",""
"null","../img/tt/1107tt.jpg","null","mooney2","image-keyboard-response","116","605223","0.0-6.0-5.15","3150034","co38293","norming","","","","","","",""
"4588.390000000829","","","post_reveal_questions","survey-likert","117","609806","0.0-6.0-6.15","3150034","co38293","norming","","","{""aha"":4}","[0]","../img/tt/1107tt.jpg","",""
"null","<div style=""font-size:60px;""> </div>","null","fixation","html-keyboard-response","118","610007","0.0-6.0-0.16","3150034","co38293","norming","","","","","","",""
"null","../img/tt/076tt.jpg","null","mooney1","image-keyboard-response","119","613014","0.0-6.0-1.16","3150034","co38293","norming","","","","","","",""
"4989.499999999651","","","post_mooney1_questions","survey-likert","120","618006","0.0-6.0-2.16","3150034","co38293","norming","","","{""curiosity"":2,""confidence"":3}","[0,1]","../img/tt/076tt.jpg","",""
"2590.079999999958","","","recognition","survey-text","121","620598","0.0-6.0-3.16","3150034","co38293","norming","","","{""guess"":""roller blade""}","","../img/tt/076tt.jpg","",""
"null","../img/gs/076gs.jpg","null","reveal","image-keyboard-response","122","622609","0.0-6.0-4.16","3150034","co38293","norming","","","","","","",""
"null","../img/tt/076tt.jpg","null","mooney2","image-keyboard-response","123","624618","0.0-6.0-5.16","3150034","co38293","norming","","","","","","",""
"3522.054999999469","","","post_reveal_questions","survey-likert","124","628142","0.0-6.0-6.16","3150034","co38293","norming","","","{""aha"":1}","[0]","../img/tt/076tt.jpg","",""
"null","<div style=""font-size:60px;""> </div>","null","fixation","html-keyboard-response","125","628343","0.0-6.0-0.17","3150034","co38293","norming","","","","","","",""
"null","../img/tt/032tt.jpg","null","mooney1","image-keyboard-response","126","631346","0.0-6.0-1.17","3150034","co38293","norming","","","","","","",""
"8473.560000000405","","","post_mooney1_questions","survey-likert","127","639822","0.0-6.0-2.17","3150034","co38293","norming","","","{""curiosity"":4,""confidence"":4}","[0,1]","../img/tt/032tt.jpg","",""
"1942.1350000011735","","","recognition","survey-text","128","641766","0.0-6.0-3.17","3150034","co38293","norming","","","{""guess"":""zipper""}","","../img/tt/032tt.jpg","",""
"null","../img/gs/032gs.jpg","null","reveal","image-keyboard-response","129","643774","0.0-6.0-4.17","3150034","co38293","norming","","","","","","",""
"null","../img/tt/032tt.jpg","null","mooney2","image-keyboard-response","130","645776","0.0-6.0-5.17","3150034","co38293","norming","","","","","","",""
"2331.8500000004424","","","post_reveal_questions","survey-likert","131","648110","0.0-6.0-6.17","3150034","co38293","norming","","","{""aha"":1}","[0]","../img/tt/032tt.jpg","",""
"null","<div style=""font-size:60px;""> </div>","null","fixation","html-keyboard-response","132","648312","0.0-6.0-0.18","3150034","co38293","norming","","","","","","",""
"null","../img/tt/1012tt.jpg","null","mooney1","image-keyboard-response","133","651317","0.0-6.0-1.18","3150034","co38293","norming","","","","","","",""
"4662.0950000014855","","","post_mooney1_questions","survey-likert","134","655982","0.0-6.0-2.18","3150034","co38293","norming","","","{""curiosity"":3,""confidence"":2}","[0,1]","../img/tt/1012tt.jpg","",""
"1734.1050000013784","","","recognition","survey-text","135","657718","0.0-6.0-3.18","3150034","co38293","norming","","","{""guess"":""horse""}","","../img/tt/1012tt.jpg","",""
"null","../img/gs/1012gs.jpg","null","reveal","image-keyboard-response","136","659726","0.0-6.0-4.18","3150034","co38293","norming","","","","","","",""
"null","../img/tt/1012tt.jpg","null","mooney2","image-keyboard-response","137","661728","0.0-6.0-5.18","3150034","co38293","norming","","","","","","",""
"3348.2999999996973","","","post_reveal_questions","survey-likert","138","665078","0.0-6.0-6.18","3150034","co38293","norming","","","{""aha"":4}","[0]","../img/tt/1012tt.jpg","",""
"null","<div style=""font-size:60px;""> </div>","null","fixation","html-keyboard-response","139","665285","0.0-6.0-0.19","3150034","co38293","norming","","","","","","",""
"null","../img/tt/079tt.jpg","null","mooney1","image-keyboard-response","140","668295","0.0-6.0-1.19","3150034","co38293","norming","","","","","","",""
"6758.72500000149","","","post_mooney1_questions","survey-likert","141","675055","0.0-6.0-2.19","3150034","co38293","norming","","","{""curiosity"":2,""confidence"":3}","[0,1]","../img/tt/079tt.jpg","",""
"1718.200000001234","","","recognition","survey-text","142","676775","0.0-6.0-3.19","3150034","co38293","norming","","","{""guess"":""bear""}","","../img/tt/079tt.jpg","",""
"null","../img/gs/079gs.jpg","null","reveal","image-keyboard-response","143","678782","0.0-6.0-4.19","3150034","co38293","norming","","","","","","",""
"null","../img/tt/079tt.jpg","null","mooney2","image-keyboard-response","144","680792","0.0-6.0-5.19","3150034","co38293","norming","","","","","","",""
"4652.759999999078","","","post_reveal_questions","survey-likert","145","685447","0.0-6.0-6.19","3150034","co38293","norming","","","{""aha"":1}","[0]","../img/tt/079tt.jpg","",""
"null","<div style=""font-size:60px;""> </div>","null","fixation","html-keyboard-response","146","685648","0.0-6.0-0.20","3150034","co38293","norming","","","","","","",""
"null","../img/tt/598tt.jpg","null","mooney1","image-keyboard-response","147","688658","0.0-6.0-1.20","3150034","co38293","norming","","","","","","",""
"7233.889999999548","","","post_mooney1_questions","survey-likert","148","695895","0.0-6.0-2.20","3150034","co38293","norming","","","{""curiosity"":5,""confidence"":1}","[0,1]","../img/tt/598tt.jpg","",""
"1710.315000000177","","","recognition","survey-text","149","697607","0.0-6.0-3.20","3150034","co38293","norming","","","{""guess"":""horse""}","","../img/tt/598tt.jpg","",""
"null","../img/gs/598gs.jpg","null","reveal","image-keyboard-response","150","699610","0.0-6.0-4.20","3150034","co38293","norming","","","","","","",""
"null","../img/tt/598tt.jpg","null","mooney2","image-keyboard-response","151","701612","0.0-6.0-5.20","3150034","co38293","norming","","","","","","",""
"2952.735000000801","","","post_reveal_questions","survey-likert","152","704567","0.0-6.0-6.20","3150034","co38293","norming","","","{""aha"":3}","[0]","../img/tt/598tt.jpg","",""
"null","<div style=""font-size:60px;""> </div>","null","fixation","html-keyboard-response","153","704768","0.0-6.0-0.21","3150034","co38293","norming","","","","","","",""
"null","../img/tt/442tt.jpg","null","mooney1","image-keyboard-response","154","707780","0.0-6.0-1.21","3150034","co38293","norming","","","","","","",""
"3209.010000000475","","","post_mooney1_questions","survey-likert","155","710991","0.0-6.0-2.21","3150034","co38293","norming","","","{""curiosity"":4,""confidence"":0}","[0,1]","../img/tt/442tt.jpg","",""
"630.1149999998743","","","recognition","survey-text","156","711623","0.0-6.0-3.21","3150034","co38293","norming","","","{""guess"":""""}","","../img/tt/442tt.jpg","",""
"null","../img/gs/442gs.jpg","null","reveal","image-keyboard-response","157","713626","0.0-6.0-4.21","3150034","co38293","norming","","","","","","",""
"null","../img/tt/442tt.jpg","null","mooney2","image-keyboard-response","158","715631","0.0-6.0-5.21","3150034","co38293","norming","","","","","","",""
"3692.9700000000885","","","post_reveal_questions","survey-likert","159","719327","0.0-6.0-6.21","3150034","co38293","norming","","","{""aha"":1}","[0]","../img/tt/442tt.jpg","",""
"null","<div style=""font-size:60px;""> </div>","null","fixation","html-keyboard-response","160","719528","0.0-6.0-0.22","3150034","co38293","norming","","","","","","",""
"null","../img/tt/1063tt.jpg","null","mooney1","image-keyboard-response","161","722534","0.0-6.0-1.22","3150034","co38293","norming","","","","","","",""
"18957.870000000228","","","post_mooney1_questions","survey-likert","162","741502","0.0-6.0-2.22","3150034","co38293","norming","","","{""curiosity"":5,""confidence"":1}","[0,1]","../img/tt/1063tt.jpg","",""
"2494.1949999992503","","","recognition","survey-text","163","743998","0.0-6.0-3.22","3150034","co38293","norming","","","{""guess"":""horse""}","","../img/tt/1063tt.jpg","",""
"null","../img/gs/1063gs.jpg","null","reveal","image-keyboard-response","164","746003","0.0-6.0-4.22","3150034","co38293","norming","","","","","","",""
"null","../img/tt/1063tt.jpg","null","mooney2","image-keyboard-response","165","748006","0.0-6.0-5.22","3150034","co38293","norming","","","","","","",""
"6421.569999998668","","","post_reveal_questions","survey-likert","166","754430","0.0-6.0-6.22","3150034","co38293","norming","","","{""aha"":4}","[0]","../img/tt/1063tt.jpg","",""
"null","<div style=""font-size:60px;""> </div>","null","fixation","html-keyboard-response","167","754640","0.0-6.0-0.23","3150034","co38293","norming","","","","","","",""
"null","../img/tt/1123tt.jpg","null","mooney1","image-keyboard-response","168","757645","0.0-6.0-1.23","3150034","co38293","norming","","","","","","",""
"5798.595000000205","","","post_mooney1_questions","survey-likert","169","763446","0.0-6.0-2.23","3150034","co38293","norming","","","{""curiosity"":4,""confidence"":1}","[0,1]","../img/tt/1123tt.jpg","",""
"3014.105000000214","","","recognition","survey-text","170","766462","0.0-6.0-3.23","3150034","co38293","norming","","","{""guess"":""baseball player""}","","../img/tt/1123tt.jpg","",""
"null","../img/gs/1123gs.jpg","null","reveal","image-keyboard-response","171","768469","0.0-6.0-4.23","3150034","co38293","norming","","","","","","",""
"null","../img/tt/1123tt.jpg","null","mooney2","image-keyboard-response","172","770473","0.0-6.0-5.23","3150034","co38293","norming","","","","","","",""
"3730.1100000004517","","","post_reveal_questions","survey-likert","173","774205","0.0-6.0-6.23","3150034","co38293","norming","","","{""aha"":5}","[0]","../img/tt/1123tt.jpg","",""
"null","<div style=""font-size:60px;""> </div>","null","fixation","html-keyboard-response","174","774411","0.0-6.0-0.24","3150034","co38293","norming","","","","","","",""
"null","../img/tt/1146tt.jpg","null","mooney1","image-keyboard-response","175","777416","0.0-6.0-1.24","3150034","co38293","norming","","","","","","",""
"8218.885000000242","","","post_mooney1_questions","survey-likert","176","785638","0.0-6.0-2.24","3150034","co38293","norming","","","{""curiosity"":5,""confidence"":1}","[0,1]","../img/tt/1146tt.jpg","",""
"3030.0999999999767","","","recognition","survey-text","177","788670","0.0-6.0-3.24","3150034","co38293","norming","","","{""guess"":""arrow shooting""}","","../img/tt/1146tt.jpg","",""
"null","../img/gs/1146gs.jpg","null","reveal","image-keyboard-response","178","790675","0.0-6.0-4.24","3150034","co38293","norming","","","","","","",""
"null","../img/tt/1146tt.jpg","null","mooney2","image-keyboard-response","179","792683","0.0-6.0-5.24","3150034","co38293","norming","","","","","","",""
"5744.45000000007","","","post_reveal_questions","survey-likert","180","798430","0.0-6.0-6.24","3150034","co38293","norming","","","{""aha"":5}","[0]","../img/tt/1146tt.jpg","",""
"null","<div style=""font-size:60px;""> </div>","null","fixation","html-keyboard-response","181","798635","0.0-6.0-0.25","3150034","co38293","norming","","","","","","",""
"null","../img/tt/1202tt.jpg","null","mooney1","image-keyboard-response","182","801643","0.0-6.0-1.25","3150034","co38293","norming","","","","","","",""
"3645.849999998929","","","post_mooney1_questions","survey-likert","183","805290","0.0-6.0-2.25","3150034","co38293","norming","","","{""curiosity"":5,""confidence"":0}","[0,1]","../img/tt/1202tt.jpg","",""
"790.3550000010291","","","recognition","survey-text","184","806082","0.0-6.0-3.25","3150034","co38293","norming","","","{""guess"":""""}","","../img/tt/1202tt.jpg","",""
"null","../img/gs/1202gs.jpg","null","reveal","image-keyboard-response","185","808091","0.0-6.0-4.25","3150034","co38293","norming","","","","","","",""
"null","../img/tt/1202tt.jpg","null","mooney2","image-keyboard-response","186","810094","0.0-6.0-5.25","3150034","co38293","norming","","","","","","",""
"3265.7900000012014","","","post_reveal_questions","survey-likert","187","813362","0.0-6.0-6.25","3150034","co38293","norming","","","{""aha"":4}","[0]","../img/tt/1202tt.jpg","",""
"null","<div style=""font-size:60px;""> </div>","null","fixation","html-keyboard-response","188","813564","0.0-6.0-0.26","3150034","co38293","norming","","","","","","",""
"null","../img/tt/1239tt.jpg","null","mooney1","image-keyboard-response","189","816573","0.0-6.0-1.26","3150034","co38293","norming","","","","","","",""
"2730.3549999997485","","","post_mooney1_questions","survey-likert","190","819306","0.0-6.0-2.26","3150034","co38293","norming","","","{""curiosity"":5,""confidence"":0}","[0,1]","../img/tt/1239tt.jpg","",""
"614.3350000001956","","","recognition","survey-text","191","819922","0.0-6.0-3.26","3150034","co38293","norming","","","{""guess"":""""}","","../img/tt/1239tt.jpg","",""
"null","../img/gs/1239gs.jpg","null","reveal","image-keyboard-response","192","821926","0.0-6.0-4.26","3150034","co38293","norming","","","","","","",""
"null","../img/tt/1239tt.jpg","null","mooney2","image-keyboard-response","193","823933","0.0-6.0-5.26","3150034","co38293","norming","","","","","","",""
"5179.364999999991","","","post_reveal_questions","survey-likert","194","829114","0.0-6.0-6.26","3150034","co38293","norming","","","{""aha"":4}","[0]","../img/tt/1239tt.jpg","",""
"null","<div style=""font-size:60px;""> </div>","null","fixation","html-keyboard-response","195","829315","0.0-6.0-0.27","3150034","co38293","norming","","","","","","",""
"null","../img/tt/496tt.jpg","null","mooney1","image-keyboard-response","196","832319","0.0-6.0-1.27","3150034","co38293","norming","","","","","","",""
"4185.939999999362","","","post_mooney1_questions","survey-likert","197","836506","0.0-6.0-2.27","3150034","co38293","norming","","","{""curiosity"":5,""confidence"":0}","[0,1]","../img/tt/496tt.jpg","",""
"534.3400000002002","","","recognition","survey-text","198","837042","0.0-6.0-3.27","3150034","co38293","norming","","","{""guess"":""""}","","../img/tt/496tt.jpg","",""
"null","../img/gs/496gs.jpg","null","reveal","image-keyboard-response","199","839045","0.0-6.0-4.27","3150034","co38293","norming","","","","","","",""
"null","../img/tt/496tt.jpg","null","mooney2","image-keyboard-response","200","841055","0.0-6.0-5.27","3150034","co38293","norming","","","","","","",""
"3112.5799999990268","","","post_reveal_questions","survey-likert","201","844170","0.0-6.0-6.27","3150034","co38293","norming","","","{""aha"":5}","[0]","../img/tt/496tt.jpg","",""
"null","<div style=""font-size:60px;""> </div>","null","fixation","html-keyboard-response","202","844371","0.0-6.0-0.28","3150034","co38293","norming","","","","","","",""
"null","../img/tt/1066tt.jpg","null","mooney1","image-keyboard-response","203","847374","0.0-6.0-1.28","3150034","co38293","norming","","","","","","",""
"7257.25500000047","","","post_mooney1_questions","survey-likert","204","854634","0.0-6.0-2.28","3150034","co38293","norming","","","{""curiosity"":3,""confidence"":2}","[0,1]","../img/tt/1066tt.jpg","",""
"2118.044999999227","","","recognition","survey-text","205","856754","0.0-6.0-3.28","3150034","co38293","norming","","","{""guess"":""bus""}","","../img/tt/1066tt.jpg","",""
"null","../img/gs/1066gs.jpg","null","reveal","image-keyboard-response","206","858764","0.0-6.0-4.28","3150034","co38293","norming","","","","","","",""
"null","../img/tt/1066tt.jpg","null","mooney2","image-keyboard-response","207","860765","0.0-6.0-5.28","3150034","co38293","norming","","","","","","",""
"2658.9449999992503","","","post_reveal_questions","survey-likert","208","863426","0.0-6.0-6.28","3150034","co38293","norming","","","{""aha"":2}","[0]","../img/tt/1066tt.jpg","",""
"null","<div style=""font-size:60px;""> </div>","null","fixation","html-keyboard-response","209","863627","0.0-6.0-0.29","3150034","co38293","norming","","","","","","",""
"null","../img/tt/318tt.jpg","null","mooney1","image-keyboard-response","210","866633","0.0-6.0-1.29","3150034","co38293","norming","","","","","","",""
"4519.890000001411","","","post_mooney1_questions","survey-likert","211","871154","0.0-6.0-2.29","3150034","co38293","norming","","","{""curiosity"":4,""confidence"":2}","[0,1]","../img/tt/318tt.jpg","",""
"2334.0299999999115","","","recognition","survey-text","212","873490","0.0-6.0-3.29","3150034","co38293","norming","","","{""guess"":""driving wheel""}","","../img/tt/318tt.jpg","",""
"null","../img/gs/318gs.jpg","null","reveal","image-keyboard-response","213","875492","0.0-6.0-4.29","3150034","co38293","norming","","","","","","",""
"null","../img/tt/318tt.jpg","null","mooney2","image-keyboard-response","214","877494","0.0-6.0-5.29","3150034","co38293","norming","","","","","","",""
"2865.2950000013225","","","post_reveal_questions","survey-likert","215","880362","0.0-6.0-6.29","3150034","co38293","norming","","","{""aha"":3}","[0]","../img/tt/318tt.jpg","",""
"null","<div style=""font-size:60px;""> </div>","null","fixation","html-keyboard-response","216","880563","0.0-6.0-0.30","3150034","co38293","norming","","","","","","",""
"null","../img/tt/1048tt.jpg","null","mooney1","image-keyboard-response","217","883569","0.0-6.0-1.30","3150034","co38293","norming","","","","","","",""
"3222.2849999997998","","","post_mooney1_questions","survey-likert","218","886794","0.0-6.0-2.30","3150034","co38293","norming","","","{""curiosity"":4,""confidence"":1}","[0,1]","../img/tt/1048tt.jpg","",""
"1510.1300000005867","","","recognition","survey-text","219","888306","0.0-6.0-3.30","3150034","co38293","norming","","","{""guess"":""horse""}","","../img/tt/1048tt.jpg","",""
"null","../img/gs/1048gs.jpg","null","reveal","image-keyboard-response","220","890316","0.0-6.0-4.30","3150034","co38293","norming","","","","","","",""
"null","../img/tt/1048tt.jpg","null","mooney2","image-keyboard-response","221","892322","0.0-6.0-5.30","3150034","co38293","norming","","","","","","",""
"2831.045000000857","","","post_reveal_questions","survey-likert","222","895154","0.0-6.0-6.30","3150034","co38293","norming","","","{""aha"":4}","[0]","../img/tt/1048tt.jpg","",""
"null","<div style=""font-size:60px;""> </div>","null","fixation","html-keyboard-response","223","895356","0.0-6.0-0.31","3150034","co38293","norming","","","","","","",""
"null","../img/tt/435tt.jpg","null","mooney1","image-keyboard-response","224","898360","0.0-6.0-1.31","3150034","co38293","norming","","","","","","",""
"3320.7249999996275","","","post_mooney1_questions","survey-likert","225","901682","0.0-6.0-2.31","3150034","co38293","norming","","","{""curiosity"":4,""confidence"":1}","[0,1]","../img/tt/435tt.jpg","",""
"2286.439999999944","","","recognition","survey-text","226","903970","0.0-6.0-3.31","3150034","co38293","norming","","","{""guess"":""pool table""}","","../img/tt/435tt.jpg","",""
"null","../img/gs/435gs.jpg","null","reveal","image-keyboard-response","227","905978","0.0-6.0-4.31","3150034","co38293","norming","","","","","","",""
"null","../img/tt/435tt.jpg","null","mooney2","image-keyboard-response","228","907980","0.0-6.0-5.31","3150034","co38293","norming","","","","","","",""
"6443.750000000349","","","post_reveal_questions","survey-likert","229","914426","0.0-6.0-6.31","3150034","co38293","norming","","","{""aha"":2}","[0]","../img/tt/435tt.jpg","",""
"null","<div style=""font-size:60px;""> </div>","null","fixation","html-keyboard-response","230","914629","0.0-6.0-0.32","3150034","co38293","norming","","","","","","",""
"null","../img/tt/112tt.jpg","null","mooney1","image-keyboard-response","231","917633","0.0-6.0-1.32","3150034","co38293","norming","","","","","","",""
"4710.6399999993155","","","post_mooney1_questions","survey-likert","232","922346","0.0-6.0-2.32","3150034","co38293","norming","","","{""curiosity"":4,""confidence"":0}","[0,1]","../img/tt/112tt.jpg","",""
"534.1700000007404","","","recognition","survey-text","233","922882","0.0-6.0-3.32","3150034","co38293","norming","","","{""guess"":""""}","","../img/tt/112tt.jpg","",""
"null","../img/gs/112gs.jpg","null","reveal","image-keyboard-response","234","924885","0.0-6.0-4.32","3150034","co38293","norming","","","","","","",""
"null","../img/tt/112tt.jpg","null","mooney2","image-keyboard-response","235","926894","0.0-6.0-5.32","3150034","co38293","norming","","","","","","",""
"3028.645000000368","","","post_reveal_questions","survey-likert","236","929924","0.0-6.0-6.32","3150034","co38293","norming","","","{""aha"":4}","[0]","../img/tt/112tt.jpg","",""
"null","<div style=""font-size:60px;""> </div>","null","fixation","html-keyboard-response","237","930125","0.0-6.0-0.33","3150034","co38293","norming","","","","","","",""
"null","../img/tt/380tt.jpg","null","mooney1","image-keyboard-response","238","933126","0.0-6.0-1.33","3150034","co38293","norming","","","","","","",""
"3164.4550000000745","","","post_mooney1_questions","survey-likert","239","936292","0.0-6.0-2.33","3150034","co38293","norming","","","{""curiosity"":4,""confidence"":0}","[0,1]","../img/tt/380tt.jpg","",""
"702.054999999702","","","recognition","survey-text","240","936995","0.0-6.0-3.33","3150034","co38293","norming","","","{""guess"":""""}","","../img/tt/380tt.jpg","",""
"null","../img/gs/380gs.jpg","null","reveal","image-keyboard-response","241","939000","0.0-6.0-4.33","3150034","co38293","norming","","","","","","",""
"null","../img/tt/380tt.jpg","null","mooney2","image-keyboard-response","242","941003","0.0-6.0-5.33","3150034","co38293","norming","","","","","","",""
"5008.004999999655","","","post_reveal_questions","survey-likert","243","946012","0.0-6.0-6.33","3150034","co38293","norming","","","{""aha"":2}","[0]","../img/tt/380tt.jpg","",""
"null","<div style=""font-size:60px;""> </div>","null","fixation","html-keyboard-response","244","946213","0.0-6.0-0.34","3150034","co38293","norming","","","","","","",""
"null","../img/tt/456tt.jpg","null","mooney1","image-keyboard-response","245","949220","0.0-6.0-1.34","3150034","co38293","norming","","","","","","",""
"5710.750000000233","","","post_mooney1_questions","survey-likert","246","954932","0.0-6.0-2.34","3150034","co38293","norming","","","{""curiosity"":3,""confidence"":2}","[0,1]","../img/tt/456tt.jpg","",""
"1693.9399999991292","","","recognition","survey-text","247","956628","0.0-6.0-3.34","3150034","co38293","norming","","","{""guess"":""bear""}","","../img/tt/456tt.jpg","",""
"null","../img/gs/456gs.jpg","null","reveal","image-keyboard-response","248","958637","0.0-6.0-4.34","3150034","co38293","norming","","","","","","",""
"null","../img/tt/456tt.jpg","null","mooney2","image-keyboard-response","249","960638","0.0-6.0-5.34","3150034","co38293","norming","","","","","","",""
"4525.050000000163","","","post_reveal_questions","survey-likert","250","965164","0.0-6.0-6.34","3150034","co38293","norming","","","{""aha"":1}","[0]","../img/tt/456tt.jpg","",""
"null","<div style=""font-size:60px;""> </div>","null","fixation","html-keyboard-response","251","965365","0.0-6.0-0.35","3150034","co38293","norming","","","","","","",""
"null","../img/tt/1033tt.jpg","null","mooney1","image-keyboard-response","252","968374","0.0-6.0-1.35","3150034","co38293","norming","","","","","","",""
"4228.864999999059","","","post_mooney1_questions","survey-likert","253","972604","0.0-6.0-2.35","3150034","co38293","norming","","","{""curiosity"":5,""confidence"":0}","[0,1]","../img/tt/1033tt.jpg","",""
"598.1000000010245","","","recognition","survey-text","254","973204","0.0-6.0-3.35","3150034","co38293","norming","","","{""guess"":""""}","","../img/tt/1033tt.jpg","",""
"null","../img/gs/1033gs.jpg","null","reveal","image-keyboard-response","255","975215","0.0-6.0-4.35","3150034","co38293","norming","","","","","","",""
"null","../img/tt/1033tt.jpg","null","mooney2","image-keyboard-response","256","977218","0.0-6.0-5.35","3150034","co38293","norming","","","","","","",""
"2751.7299999999814","","","post_reveal_questions","survey-likert","257","979972","0.0-6.0-6.35","3150034","co38293","norming","","","{""aha"":5}","[0]","../img/tt/1033tt.jpg","",""
"null","<div style=""font-size:60px;""> </div>","null","fixation","html-keyboard-response","258","980173","0.0-6.0-0.36","3150034","co38293","norming","","","","","","",""
"null","../img/tt/124tt.jpg","null","mooney1","image-keyboard-response","259","983176","0.0-6.0-1.36","3150034","co38293","norming","","","","","","",""
"5201.00500000082","","","post_mooney1_questions","survey-likert","260","988372","0.0-6.0-2.36","3150034","co38293","norming","","","{""curiosity"":2,""confidence"":3}","[0,1]","../img/tt/124tt.jpg","",""
"3190.2350000001024","","","recognition","survey-text","261","991564","0.0-6.0-3.36","3150034","co38293","norming","","","{""guess"":""gorilla""}","","../img/tt/124tt.jpg","",""
"null","../img/gs/124gs.jpg","null","reveal","image-keyboard-response","262","993573","0.0-6.0-4.36","3150034","co38293","norming","","","","","","",""
"null","../img/tt/124tt.jpg","null","mooney2","image-keyboard-response","263","995582","0.0-6.0-5.36","3150034","co38293","norming","","","","","","",""
"5340.8900000012945","","","post_reveal_questions","survey-likert","264","1000924","0.0-6.0-6.36","3150034","co38293","norming","","","{""aha"":1}","[0]","../img/tt/124tt.jpg","",""
"null","<div style=""font-size:60px;""> </div>","null","fixation","html-keyboard-response","265","1001125","0.0-6.0-0.37","3150034","co38293","norming","","","","","","",""
"null","../img/tt/1046tt.jpg","null","mooney1","image-keyboard-response","266","1004136","0.0-6.0-1.37","3150034","co38293","norming","","","","","","",""
"9272.969999999972","","","post_mooney1_questions","survey-likert","267","1013412","0.0-6.0-2.37","3150034","co38293","norming","","","{""curiosity"":4,""confidence"":0}","[0,1]","../img/tt/1046tt.jpg","",""
"1606.0450000003912","","","recognition","survey-text","268","1015020","0.0-6.0-3.37","3150034","co38293","norming","","","{""guess"":""meal""}","","../img/tt/1046tt.jpg","",""
"null","../img/gs/1046gs.jpg","null","reveal","image-keyboard-response","269","1017021","0.0-6.0-4.37","3150034","co38293","norming","","","","","","",""
"null","../img/tt/1046tt.jpg","null","mooney2","image-keyboard-response","270","1019028","0.0-6.0-5.37","3150034","co38293","norming","","","","","","",""
"4629.525000000256","","","post_reveal_questions","survey-likert","271","1023660","0.0-6.0-6.37","3150034","co38293","norming","","","{""aha"":3}","[0]","../img/tt/1046tt.jpg","",""
"null","<div style=""font-size:60px;""> </div>","null","fixation","html-keyboard-response","272","1023862","0.0-6.0-0.38","3150034","co38293","norming","","","","","","",""
"null","../img/tt/1116tt.jpg","null","mooney1","image-keyboard-response","273","1026870","0.0-6.0-1.38","3150034","co38293","norming","","","","","","",""
"3953.9549999990268","","","post_mooney1_questions","survey-likert","274","1030828","0.0-6.0-2.38","3150034","co38293","norming","","","{""curiosity"":4,""confidence"":0}","[0,1]","../img/tt/1116tt.jpg","",""
"654.1099999995204","","","recognition","survey-text","275","1031484","0.0-6.0-3.38","3150034","co38293","norming","","","{""guess"":""""}","","../img/tt/1116tt.jpg","",""
"null","../img/gs/1116gs.jpg","null","reveal","image-keyboard-response","276","1033486","0.0-6.0-4.38","3150034","co38293","norming","","","","","","",""
"null","../img/tt/1116tt.jpg","null","mooney2","image-keyboard-response","277","1035488","0.0-6.0-5.38","3150034","co38293","norming","","","","","","",""
"4921.870000000112","","","post_reveal_questions","survey-likert","278","1040412","0.0-6.0-6.38","3150034","co38293","norming","","","{""aha"":1}","[0]","../img/tt/1116tt.jpg","",""
"null","<div style=""font-size:60px;""> </div>","null","fixation","html-keyboard-response","279","1040614","0.0-6.0-0.39","3150034","co38293","norming","","","","","","",""
"null","../img/tt/1243tt.jpg","null","mooney1","image-keyboard-response","280","1043621","0.0-6.0-1.39","3150034","co38293","norming","","","","","","",""
"12171.239999999641","","","post_mooney1_questions","survey-likert","281","1055804","0.0-6.0-2.39","3150034","co38293","norming","","","{""curiosity"":5,""confidence"":1}","[0,1]","../img/tt/1243tt.jpg","",""
"2534.279999999795","","","recognition","survey-text","282","1058340","0.0-6.0-3.39","3150034","co38293","norming","","","{""guess"":""ice skating""}","","../img/tt/1243tt.jpg","",""
"null","../img/gs/1243gs.jpg","null","reveal","image-keyboard-response","283","1060350","0.0-6.0-4.39","3150034","co38293","norming","","","","","","",""
"null","../img/tt/1243tt.jpg","null","mooney2","image-keyboard-response","284","1062358","0.0-6.0-5.39","3150034","co38293","norming","","","","","","",""
"6588.695000000298","","","post_reveal_questions","survey-likert","285","1068948","0.0-6.0-6.39","3150034","co38293","norming","","","{""aha"":1}","[0]","../img/tt/1243tt.jpg","",""
"null","<div style=""font-size:60px;""> </div>","null","fixation","html-keyboard-response","286","1069159","0.0-6.0-0.40","3150034","co38293","norming","","","","","","",""
"null","../img/tt/140tt.jpg","null","mooney1","image-keyboard-response","287","1072163","0.0-6.0-1.40","3150034","co38293","norming","","","","","","",""
"5310.824999998789","","","post_mooney1_questions","survey-likert","288","1077476","0.0-6.0-2.40","3150034","co38293","norming","","","{""curiosity"":2,""confidence"":5}","[0,1]","../img/tt/140tt.jpg","",""
"1646.1249999993015","","","recognition","survey-text","289","1079124","0.0-6.0-3.40","3150034","co38293","norming","","","{""guess"":""forks""}","","../img/tt/140tt.jpg","",""
"null","../img/gs/140gs.jpg","null","reveal","image-keyboard-response","290","1081127","0.0-6.0-4.40","3150034","co38293","norming","","","","","","",""
"null","../img/tt/140tt.jpg","null","mooney2","image-keyboard-response","291","1083129","0.0-6.0-5.40","3150034","co38293","norming","","","","","","",""
"2545.140000000363","","","post_reveal_questions","survey-likert","292","1085676","0.0-6.0-6.40","3150034","co38293","norming","","","{""aha"":0}","[0]","../img/tt/140tt.jpg","",""
"null","<div style=""font-size:60px;""> </div>","null","fixation","html-keyboard-response","293","1085877","0.0-6.0-0.41","3150034","co38293","norming","","","","","","",""
"null","../img/tt/1237tt.jpg","null","mooney1","image-keyboard-response","294","1088884","0.0-6.0-1.41","3150034","co38293","norming","","","","","","",""
"4077.250000000233","","","post_mooney1_questions","survey-likert","295","1092964","0.0-6.0-2.41","3150034","co38293","norming","","","{""curiosity"":5,""confidence"":1}","[0,1]","../img/tt/1237tt.jpg","",""
"1901.9200000003912","","","recognition","survey-text","296","1094868","0.0-6.0-3.41","3150034","co38293","norming","","","{""guess"":""pond""}","","../img/tt/1237tt.jpg","",""
"null","../img/gs/1237gs.jpg","null","reveal","image-keyboard-response","297","1096875","0.0-6.0-4.41","3150034","co38293","norming","","","","","","",""
"null","../img/tt/1237tt.jpg","null","mooney2","image-keyboard-response","298","1098878","0.0-6.0-5.41","3150034","co38293","norming","","","","","","",""
"3795.474999999162","","","post_reveal_questions","survey-likert","299","1102676","0.0-6.0-6.41","3150034","co38293","norming","","","{""aha"":5}","[0]","../img/tt/1237tt.jpg","",""
"null","<div style=""font-size:60px;""> </div>","null","fixation","html-keyboard-response","300","1102884","0.0-6.0-0.42","3150034","co38293","norming","","","","","","",""
"null","../img/tt/1279tt.jpg","null","mooney1","image-keyboard-response","301","1105887","0.0-6.0-1.42","3150034","co38293","norming","","","","","","",""
"3402.5999999993946","","","post_mooney1_questions","survey-likert","302","1109292","0.0-6.0-2.42","3150034","co38293","norming","","","{""curiosity"":4,""confidence"":0}","[0,1]","../img/tt/1279tt.jpg","",""
"742.135000000475","","","recognition","survey-text","303","1110036","0.0-6.0-3.42","3150034","co38293","norming","","","{""guess"":""""}","","../img/tt/1279tt.jpg","",""
"null","../img/gs/1279gs.jpg","null","reveal","image-keyboard-response","304","1112041","0.0-6.0-4.42","3150034","co38293","norming","","","","","","",""
"null","../img/tt/1279tt.jpg","null","mooney2","image-keyboard-response","305","1114052","0.0-6.0-5.42","3150034","co38293","norming","","","","","","",""
"5917.074999999255","","","post_reveal_questions","survey-likert","306","1119974","0.0-6.0-6.42","3150034","co38293","norming","","","{""aha"":1}","[0]","../img/tt/1279tt.jpg","",""
"null","<div style=""font-size:60px;""> </div>","null","fixation","html-keyboard-response","307","1120176","0.0-6.0-0.43","3150034","co38293","norming","","","","","","",""
"null","../img/tt/123tt.jpg","null","mooney1","image-keyboard-response","308","1123185","0.0-6.0-1.43","3150034","co38293","norming","","","","","","",""
"13810.409999999916","","","post_mooney1_questions","survey-likert","309","1136998","0.0-6.0-2.43","3150034","co38293","norming","","","{""curiosity"":4,""confidence"":1}","[0,1]","../img/tt/123tt.jpg","",""
"1998.2750000017695","","","recognition","survey-text","310","1138998","0.0-6.0-3.43","3150034","co38293","norming","","","{""guess"":""ice skate""}","","../img/tt/123tt.jpg","",""
"null","../img/gs/123gs.jpg","null","reveal","image-keyboard-response","311","1141004","0.0-6.0-4.43","3150034","co38293","norming","","","","","","",""
"null","../img/tt/123tt.jpg","null","mooney2","image-keyboard-response","312","1143006","0.0-6.0-5.43","3150034","co38293","norming","","","","","","",""
"4837.569999999832","","","post_reveal_questions","survey-likert","313","1147846","0.0-6.0-6.43","3150034","co38293","norming","","","{""aha"":4}","[0]","../img/tt/123tt.jpg","",""
"null","<div style=""font-size:60px;""> </div>","null","fixation","html-keyboard-response","314","1148047","0.0-6.0-0.44","3150034","co38293","norming","","","","","","",""
"null","../img/tt/060tt.jpg","null","mooney1","image-keyboard-response","315","1151058","0.0-6.0-1.44","3150034","co38293","norming","","","","","","",""
"4737.054999999469","","","post_mooney1_questions","survey-likert","316","1155798","0.0-6.0-2.44","3150034","co38293","norming","","","{""curiosity"":4,""confidence"":2}","[0,1]","../img/tt/060tt.jpg","",""
"2333.979999999283","","","recognition","survey-text","317","1158134","0.0-6.0-3.44","3150034","co38293","norming","","","{""guess"":""hamburger""}","","../img/tt/060tt.jpg","",""
"null","../img/gs/060gs.jpg","null","reveal","image-keyboard-response","318","1160141","0.0-6.0-4.44","3150034","co38293","norming","","","","","","",""
"null","../img/tt/060tt.jpg","null","mooney2","image-keyboard-response","319","1162152","0.0-6.0-5.44","3150034","co38293","norming","","","","","","",""
"2787.304999999702","","","post_reveal_questions","survey-likert","320","1164942","0.0-6.0-6.44","3150034","co38293","norming","","","{""aha"":1}","[0]","../img/tt/060tt.jpg","",""
"null","<div style=""font-size:60px;""> </div>","null","fixation","html-keyboard-response","321","1165144","0.0-6.0-0.45","3150034","co38293","norming","","","","","","",""
"null","../img/tt/1200tt.jpg","null","mooney1","image-keyboard-response","322","1168153","0.0-6.0-1.45","3150034","co38293","norming","","","","","","",""
"6929.664999999804","","","post_mooney1_questions","survey-likert","323","1175083","0.0-6.0-2.45","3150034","co38293","norming","","","{""curiosity"":3,""confidence"":2}","[0,1]","../img/tt/1200tt.jpg","",""
"2134.454999999376","","","recognition","survey-text","324","1177219","0.0-6.0-3.45","3150034","co38293","norming","","","{""guess"":""cano""}","","../img/tt/1200tt.jpg","",""
"null","../img/gs/1200gs.jpg","null","reveal","image-keyboard-response","325","1179224","0.0-6.0-4.45","3150034","co38293","norming","","","","","","",""
"null","../img/tt/1200tt.jpg","null","mooney2","image-keyboard-response","326","1181235","0.0-6.0-5.45","3150034","co38293","norming","","","","","","",""
"2469.380000000354","","","post_reveal_questions","survey-likert","327","1183707","0.0-6.0-6.45","3150034","co38293","norming","","","{""aha"":1}","[0]","../img/tt/1200tt.jpg","",""
"null","<div style=""font-size:60px;""> </div>","null","fixation","html-keyboard-response","328","1183908","0.0-6.0-0.46","3150034","co38293","norming","","","","","","",""
"null","../img/tt/1159tt.jpg","null","mooney1","image-keyboard-response","329","1186912","0.0-6.0-1.46","3150034","co38293","norming","","","","","","",""
"5631.875000000931","","","post_mooney1_questions","survey-likert","330","1192547","0.0-6.0-2.46","3150034","co38293","norming","","","{""curiosity"":5,""confidence"":1}","[0,1]","../img/tt/1159tt.jpg","",""
"3229.9199999999255","","","recognition","survey-text","331","1195779","0.0-6.0-3.46","3150034","co38293","norming","","","{""guess"":""train station""}","","../img/tt/1159tt.jpg","",""
"null","../img/gs/1159gs.jpg","null","reveal","image-keyboard-response","332","1197786","0.0-6.0-4.46","3150034","co38293","norming","","","","","","",""
"null","../img/tt/1159tt.jpg","null","mooney2","image-keyboard-response","333","1199791","0.0-6.0-5.46","3150034","co38293","norming","","","","","","",""
"5000.900000000838","","","post_reveal_questions","survey-likert","334","1204795","0.0-6.0-6.46","3150034","co38293","norming","","","{""aha"":4}","[0]","../img/tt/1159tt.jpg","",""
"null","<div style=""font-size:60px;""> </div>","null","fixation","html-keyboard-response","335","1204997","0.0-6.0-0.47","3150034","co38293","norming","","","","","","",""
"null","../img/tt/1122tt.jpg","null","mooney1","image-keyboard-response","336","1208001","0.0-6.0-1.47","3150034","co38293","norming","","","","","","",""
"3351.3850000000093","","","post_mooney1_questions","survey-likert","337","1211355","0.0-6.0-2.47","3150034","co38293","norming","","","{""curiosity"":3,""confidence"":2}","[0,1]","../img/tt/1122tt.jpg","",""
"1637.5650000008754","","","recognition","survey-text","338","1212995","0.0-6.0-3.47","3150034","co38293","norming","","","{""guess"":""boats""}","","../img/tt/1122tt.jpg","",""
"null","../img/gs/1122gs.jpg","null","reveal","image-keyboard-response","339","1215002","0.0-6.0-4.47","3150034","co38293","norming","","","","","","",""
"null","../img/tt/1122tt.jpg","null","mooney2","image-keyboard-response","340","1217005","0.0-6.0-5.47","3150034","co38293","norming","","","","","","",""
"1923.0449999996927","","","post_reveal_questions","survey-likert","341","1218931","0.0-6.0-6.47","3150034","co38293","norming","","","{""aha"":2}","[0]","../img/tt/1122tt.jpg","",""
"null","<div style=""font-size:60px;""> </div>","null","fixation","html-keyboard-response","342","1219132","0.0-6.0-0.48","3150034","co38293","norming","","","","","","",""
"null","../img/tt/080tt.jpg","null","mooney1","image-keyboard-response","343","1222144","0.0-6.0-1.48","3150034","co38293","norming","","","","","","",""
"7735.400000001304","","","post_mooney1_questions","survey-likert","344","1229883","0.0-6.0-2.48","3150034","co38293","norming","","","{""curiosity"":4,""confidence"":1}","[0,1]","../img/tt/080tt.jpg","",""
"2165.9749999998603","","","recognition","survey-text","345","1232051","0.0-6.0-3.48","3150034","co38293","norming","","","{""guess"":""mountain""}","","../img/tt/080tt.jpg","",""
"null","../img/gs/080gs.jpg","null","reveal","image-keyboard-response","346","1234057","0.0-6.0-4.48","3150034","co38293","norming","","","","","","",""
"null","../img/tt/080tt.jpg","null","mooney2","image-keyboard-response","347","1236072","0.0-6.0-5.48","3150034","co38293","norming","","","","","","",""
"2603.3100000002887","","","post_reveal_questions","survey-likert","348","1238679","0.0-6.0-6.48","3150034","co38293","norming","","","{""aha"":5}","[0]","../img/tt/080tt.jpg","",""
"null","<div style=""font-size:60px;""> </div>","null","fixation","html-keyboard-response","349","1238881","0.0-6.0-0.49","3150034","co38293","norming","","","","","","",""
"null","../img/tt/094tt.jpg","null","mooney1","image-keyboard-response","350","1241893","0.0-6.0-1.49","3150034","co38293","norming","","","","","","",""
"3991.3250000008848","","","post_mooney1_questions","survey-likert","351","1245888","0.0-6.0-2.49","3150034","co38293","norming","","","{""curiosity"":5,""confidence"":1}","[0,1]","../img/tt/094tt.jpg","",""
"1190.255000001518","","","recognition","survey-text","352","1247080","0.0-6.0-3.49","3150034","co38293","norming","","","{""guess"":""wolf""}","","../img/tt/094tt.jpg","",""
"null","../img/gs/094gs.jpg","null","reveal","image-keyboard-response","353","1249090","0.0-6.0-4.49","3150034","co38293","norming","","","","","","",""
"null","../img/tt/094tt.jpg","null","mooney2","image-keyboard-response","354","1251092","0.0-6.0-5.49","3150034","co38293","norming","","","","","","",""
"2712.2900000014342","","","post_reveal_questions","survey-likert","355","1253807","0.0-6.0-6.49","3150034","co38293","norming","","","{""aha"":5}","[0]","../img/tt/094tt.jpg","",""
"null","<div style=""font-size:60px;""> </div>","null","fixation","html-keyboard-response","356","1254016","0.0-6.0-0.50","3150034","co38293","norming","","","","","","",""
"null","../img/tt/1127tt.jpg","null","mooney1","image-keyboard-response","357","1257020","0.0-6.0-1.50","3150034","co38293","norming","","","","","","",""
"3768.5999999993946","","","post_mooney1_questions","survey-likert","358","1260792","0.0-6.0-2.50","3150034","co38293","norming","","","{""curiosity"":4,""confidence"":1}","[0,1]","../img/tt/1127tt.jpg","",""
"2797.784999998752","","","recognition","survey-text","359","1263591","0.0-6.0-3.50","3150034","co38293","norming","","","{""guess"":""judo player""}","","../img/tt/1127tt.jpg","",""
"null","../img/gs/1127gs.jpg","null","reveal","image-keyboard-response","360","1265601","0.0-6.0-4.50","3150034","co38293","norming","","","","","","",""
"null","../img/tt/1127tt.jpg","null","mooney2","image-keyboard-response","361","1267610","0.0-6.0-5.50","3150034","co38293","norming","","","","","","",""
"5098.739999999525","","","post_reveal_questions","survey-likert","362","1272711","0.0-6.0-6.50","3150034","co38293","norming","","","{""aha"":5}","[0]","../img/tt/1127tt.jpg","",""
"null","<div style=""font-size:60px;""> </div>","null","fixation","html-keyboard-response","363","1272913","0.0-6.0-0.51","3150034","co38293","norming","","","","","","",""
"null","../img/tt/1072tt.jpg","null","mooney1","image-keyboard-response","364","1275920","0.0-6.0-1.51","3150034","co38293","norming","","","","","","",""
"3773.535000000149","","","post_mooney1_questions","survey-likert","365","1279695","0.0-6.0-2.51","3150034","co38293","norming","","","{""curiosity"":5,""confidence"":1}","[0,1]","../img/tt/1072tt.jpg","",""
"1510.244999999646","","","recognition","survey-text","366","1281207","0.0-6.0-3.51","3150034","co38293","norming","","","{""guess"":""kitten""}","","../img/tt/1072tt.jpg","",""
"null","../img/gs/1072gs.jpg","null","reveal","image-keyboard-response","367","1283215","0.0-6.0-4.51","3150034","co38293","norming","","","","","","",""
"null","../img/tt/1072tt.jpg","null","mooney2","image-keyboard-response","368","1285223","0.0-6.0-5.51","3150034","co38293","norming","","","","","","",""
"2293.240000000922","","","post_reveal_questions","survey-likert","369","1287519","0.0-6.0-6.51","3150034","co38293","norming","","","{""aha"":5}","[0]","../img/tt/1072tt.jpg","",""
"null","<div style=""font-size:60px;""> </div>","null","fixation","html-keyboard-response","370","1287721","0.0-6.0-0.52","3150034","co38293","norming","","","","","","",""
"null","../img/tt/1118tt.jpg","null","mooney1","image-keyboard-response","371","1290725","0.0-6.0-1.52","3150034","co38293","norming","","","","","","",""
"2671.459999999497","","","post_mooney1_questions","survey-likert","372","1293399","0.0-6.0-2.52","3150034","co38293","norming","","","{""curiosity"":5,""confidence"":0}","[0,1]","../img/tt/1118tt.jpg","",""
"478.24000000045635","","","recognition","survey-text","373","1293879","0.0-6.0-3.52","3150034","co38293","norming","","","{""guess"":""""}","","../img/tt/1118tt.jpg","",""
"null","../img/gs/1118gs.jpg","null","reveal","image-keyboard-response","374","1295881","0.0-6.0-4.52","3150034","co38293","norming","","","","","","",""
"null","../img/tt/1118tt.jpg","null","mooney2","image-keyboard-response","375","1297884","0.0-6.0-5.52","3150034","co38293","norming","","","","","","",""
"2274.074999999255","","","post_reveal_questions","survey-likert","376","1300160","0.0-6.0-6.52","3150034","co38293","norming","","","{""aha"":1}","[0]","../img/tt/1118tt.jpg","",""
"null","<div style=""font-size:60px;""> </div>","null","fixation","html-keyboard-response","377","1300363","0.0-6.0-0.53","3150034","co38293","norming","","","","","","",""
"null","../img/tt/306tt.jpg","null","mooney1","image-keyboard-response","378","1303366","0.0-6.0-1.53","3150034","co38293","norming","","","","","","",""
"5838.905000000494","","","post_mooney1_questions","survey-likert","379","1309208","0.0-6.0-2.53","3150034","co38293","norming","","","{""curiosity"":3,""confidence"":2}","[0,1]","../img/tt/306tt.jpg","",""
"2429.920000000391","","","recognition","survey-text","380","1311640","0.0-6.0-3.53","3150034","co38293","norming","","","{""guess"":""frog""}","","../img/tt/306tt.jpg","",""
"null","../img/gs/306gs.jpg","null","reveal","image-keyboard-response","381","1313646","0.0-6.0-4.53","3150034","co38293","norming","","","","","","",""
"null","../img/tt/306tt.jpg","null","mooney2","image-keyboard-response","382","1315650","0.0-6.0-5.53","3150034","co38293","norming","","","","","","",""
"3147.3300000017043","","","post_reveal_questions","survey-likert","383","1318800","0.0-6.0-6.53","3150034","co38293","norming","","","{""aha"":1}","[0]","../img/tt/306tt.jpg","",""
"null","<div style=""font-size:60px;""> </div>","null","fixation","html-keyboard-response","384","1319001","0.0-6.0-0.54","3150034","co38293","norming","","","","","","",""
"null","../img/tt/524tt.jpg","null","mooney1","image-keyboard-response","385","1322011","0.0-6.0-1.54","3150034","co38293","norming","","","","","","",""
"5305.710000000661","","","post_mooney1_questions","survey-likert","386","1327320","0.0-6.0-2.54","3150034","co38293","norming","","","{""curiosity"":3,""confidence"":2}","[0,1]","../img/tt/524tt.jpg","",""
"1774.094999998808","","","recognition","survey-text","387","1329096","0.0-6.0-3.54","3150034","co38293","norming","","","{""guess"":""bear""}","","../img/tt/524tt.jpg","",""
"null","../img/gs/524gs.jpg","null","reveal","image-keyboard-response","388","1331106","0.0-6.0-4.54","3150034","co38293","norming","","","","","","",""
"null","../img/tt/524tt.jpg","null","mooney2","image-keyboard-response","389","1333111","0.0-6.0-5.54","3150034","co38293","norming","","","","","","",""
"2566.6249999995343","","","post_reveal_questions","survey-likert","390","1335680","0.0-6.0-6.54","3150034","co38293","norming","","","{""aha"":4}","[0]","../img/tt/524tt.jpg","",""
"null","<div style=""font-size:60px;""> </div>","null","fixation","html-keyboard-response","391","1335882","0.0-6.0-0.55","3150034","co38293","norming","","","","","","",""
"null","../img/tt/517tt.jpg","null","mooney1","image-keyboard-response","392","1338887","0.0-6.0-1.55","3150034","co38293","norming","","","","","","",""
"3942.179999999935","","","post_mooney1_questions","survey-likert","393","1342832","0.0-6.0-2.55","3150034","co38293","norming","","","{""curiosity"":5,""confidence"":1}","[0,1]","../img/tt/517tt.jpg","",""
"1622.1149999999907","","","recognition","survey-text","394","1344456","0.0-6.0-3.55","3150034","co38293","norming","","","{""guess"":""sloth""}","","../img/tt/517tt.jpg","",""
"null","../img/gs/517gs.jpg","null","reveal","image-keyboard-response","395","1346462","0.0-6.0-4.55","3150034","co38293","norming","","","","","","",""
"null","../img/tt/517tt.jpg","null","mooney2","image-keyboard-response","396","1348473","0.0-6.0-5.55","3150034","co38293","norming","","","","","","",""
"3732.4499999994878","","","post_reveal_questions","survey-likert","397","1352208","0.0-6.0-6.55","3150034","co38293","norming","","","{""aha"":4}","[0]","../img/tt/517tt.jpg","",""
"null","<div style=""font-size:60px;""> </div>","null","fixation","html-keyboard-response","398","1352410","0.0-6.0-0.56","3150034","co38293","norming","","","","","","",""
"null","../img/tt/1002tt.jpg","null","mooney1","image-keyboard-response","399","1355417","0.0-6.0-1.56","3150034","co38293","norming","","","","","","",""
"3045.6649999998044","","","post_mooney1_questions","survey-likert","400","1358463","0.0-6.0-2.56","3150034","co38293","norming","","","{""curiosity"":4,""confidence"":1}","[0,1]","../img/tt/1002tt.jpg","",""
"1366.0099999995437","","","recognition","survey-text","401","1359831","0.0-6.0-3.56","3150034","co38293","norming","","","{""guess"":""bear""}","","../img/tt/1002tt.jpg","",""
"null","../img/gs/1002gs.jpg","null","reveal","image-keyboard-response","402","1361832","0.0-6.0-4.56","3150034","co38293","norming","","","","","","",""
"null","../img/tt/1002tt.jpg","null","mooney2","image-keyboard-response","403","1363841","0.0-6.0-5.56","3150034","co38293","norming","","","","","","",""
"2282.7649999998976","","","post_reveal_questions","survey-likert","404","1366127","0.0-6.0-6.56","3150034","co38293","norming","","","{""aha"":2}","[0]","../img/tt/1002tt.jpg","",""
"null","<div style=""font-size:60px;""> </div>","null","fixation","html-keyboard-response","405","1366328","0.0-6.0-0.57","3150034","co38293","norming","","","","","","",""
"null","../img/tt/307tt.jpg","null","mooney1","image-keyboard-response","406","1369332","0.0-6.0-1.57","3150034","co38293","norming","","","","","","",""
"5287.159999999916","","","post_mooney1_questions","survey-likert","407","1374623","0.0-6.0-2.57","3150034","co38293","norming","","","{""curiosity"":5,""confidence"":0}","[0,1]","../img/tt/307tt.jpg","",""
"982.1900000006426","","","recognition","survey-text","408","1375607","0.0-6.0-3.57","3150034","co38293","norming","","","{""guess"":""""}","","../img/tt/307tt.jpg","",""
"null","../img/gs/307gs.jpg","null","reveal","image-keyboard-response","409","1377613","0.0-6.0-4.57","3150034","co38293","norming","","","","","","",""
"null","../img/tt/307tt.jpg","null","mooney2","image-keyboard-response","410","1379616","0.0-6.0-5.57","3150034","co38293","norming","","","","","","",""
"4380.469999999972","","","post_reveal_questions","survey-likert","411","1383999","0.0-6.0-6.57","3150034","co38293","norming","","","{""aha"":5}","[0]","../img/tt/307tt.jpg","",""
"null","<div style=""font-size:60px;""> </div>","null","fixation","html-keyboard-response","412","1384200","0.0-6.0-0.58","3150034","co38293","norming","","","","","","",""
"null","../img/tt/082tt.jpg","null","mooney1","image-keyboard-response","413","1387204","0.0-6.0-1.58","3150034","co38293","norming","","","","","","",""
"3983.3850000014063","","","post_mooney1_questions","survey-likert","414","1391191","0.0-6.0-2.58","3150034","co38293","norming","","","{""curiosity"":5,""confidence"":0}","[0,1]","../img/tt/082tt.jpg","",""
"638.3599999989383","","","recognition","survey-text","415","1391831","0.0-6.0-3.58","3150034","co38293","norming","","","{""guess"":""""}","","../img/tt/082tt.jpg","",""
"null","../img/gs/082gs.jpg","null","reveal","image-keyboard-response","416","1393833","0.0-6.0-4.58","3150034","co38293","norming","","","","","","",""
"null","../img/tt/082tt.jpg","null","mooney2","image-keyboard-response","417","1395844","0.0-6.0-5.58","3150034","co38293","norming","","","","","","",""
"1624.3500000000931","","","post_reveal_questions","survey-likert","418","1397471","0.0-6.0-6.58","3150034","co38293","norming","","","{""aha"":1}","[0]","../img/tt/082tt.jpg","",""
"null","<div style=""font-size:60px;""> </div>","null","fixation","html-keyboard-response","419","1397673","0.0-6.0-0.59","3150034","co38293","norming","","","","","","",""
"null","../img/tt/1142tt.jpg","null","mooney1","image-keyboard-response","420","1400677","0.0-6.0-1.59","3150034","co38293","norming","","","","","","",""
"11038.735000000102","","","post_mooney1_questions","survey-likert","421","1411719","0.0-6.0-2.59","3150034","co38293","norming","","","{""curiosity"":5,""confidence"":2}","[0,1]","../img/tt/1142tt.jpg","",""
"2605.3200000007637","","","recognition","survey-text","422","1414326","0.0-6.0-3.59","3150034","co38293","norming","","","{""guess"":""athletics""}","","../img/tt/1142tt.jpg","",""
"null","../img/gs/1142gs.jpg","null","reveal","image-keyboard-response","423","1416328","0.0-6.0-4.59","3150034","co38293","norming","","","","","","",""
"null","../img/tt/1142tt.jpg","null","mooney2","image-keyboard-response","424","1418337","0.0-6.0-5.59","3150034","co38293","norming","","","","","","",""
"3942.73000000068","","","post_reveal_questions","survey-likert","425","1422281","0.0-6.0-6.59","3150034","co38293","norming","","","{""aha"":4}","[0]","../img/tt/1142tt.jpg","",""
"null","<div style=""font-size:60px;""> </div>","null","fixation","html-keyboard-response","426","1422482","0.0-6.0-0.60","3150034","co38293","norming","","","","","","",""
"null","../img/tt/007tt.jpg","null","mooney1","image-keyboard-response","427","1425491","0.0-6.0-1.60","3150034","co38293","norming","","","","","","",""
"2666.6349999995437","","","post_mooney1_questions","survey-likert","428","1428161","0.0-6.0-2.60","3150034","co38293","norming","","","{""curiosity"":5,""confidence"":1}","[0,1]","../img/tt/007tt.jpg","",""
"3046.2999999998137","","","recognition","survey-text","429","1431209","0.0-6.0-3.60","3150034","co38293","norming","","","{""guess"":""mushroom""}","","../img/tt/007tt.jpg","",""
"null","../img/gs/007gs.jpg","null","reveal","image-keyboard-response","430","1433218","0.0-6.0-4.60","3150034","co38293","norming","","","","","","",""
"null","../img/tt/007tt.jpg","null","mooney2","image-keyboard-response","431","1435220","0.0-6.0-5.60","3150034","co38293","norming","","","","","","",""
"2203.0950000009034","","","post_reveal_questions","survey-likert","432","1437425","0.0-6.0-6.60","3150034","co38293","norming","","","{""aha"":4}","[0]","../img/tt/007tt.jpg","",""
"null","<div style=""font-size:60px;""> </div>","null","fixation","html-keyboard-response","433","1437626","0.0-6.0-0.61","3150034","co38293","norming","","","","","","",""
"null","../img/tt/055tt.jpg","null","mooney1","image-keyboard-response","434","1440633","0.0-6.0-1.61","3150034","co38293","norming","","","","","","",""
"2381.1600000008475","","","post_mooney1_questions","survey-likert","435","1443017","0.0-6.0-2.61","3150034","co38293","norming","","","{""curiosity"":5,""confidence"":0}","[0,1]","../img/tt/055tt.jpg","",""
"510.2150000000838","","","recognition","survey-text","436","1443529","0.0-6.0-3.61","3150034","co38293","norming","","","{""guess"":""""}","","../img/tt/055tt.jpg","",""
"null","../img/gs/055gs.jpg","null","reveal","image-keyboard-response","437","1445537","0.0-6.0-4.61","3150034","co38293","norming","","","","","","",""
"null","../img/tt/055tt.jpg","null","mooney2","image-keyboard-response","438","1447538","0.0-6.0-5.61","3150034","co38293","norming","","","","","","",""
"3731.784999999916","","","post_reveal_questions","survey-likert","439","1451273","0.0-6.0-6.61","3150034","co38293","norming","","","{""aha"":2}","[0]","../img/tt/055tt.jpg","",""
"null","<div style=""font-size:60px;""> </div>","null","fixation","html-keyboard-response","440","1451475","0.0-6.0-0.62","3150034","co38293","norming","","","","","","",""
"null","../img/tt/497tt.jpg","null","mooney1","image-keyboard-response","441","1454477","0.0-6.0-1.62","3150034","co38293","norming","","","","","","",""
"7384.915000000503","","","post_mooney1_questions","survey-likert","442","1461865","0.0-6.0-2.62","3150034","co38293","norming","","","{""curiosity"":5,""confidence"":1}","[0,1]","../img/tt/497tt.jpg","",""
"3501.9699999995064","","","recognition","survey-text","443","1465369","0.0-6.0-3.62","3150034","co38293","norming","","","{""guess"":""contraption""}","","../img/tt/497tt.jpg","",""
"null","../img/gs/497gs.jpg","null","reveal","image-keyboard-response","444","1467375","0.0-6.0-4.62","3150034","co38293","norming","","","","","","",""
"null","../img/tt/497tt.jpg","null","mooney2","image-keyboard-response","445","1469377","0.0-6.0-5.62","3150034","co38293","norming","","","","","","",""
"4837.3549999997485","","","post_reveal_questions","survey-likert","446","1474217","0.0-6.0-6.62","3150034","co38293","norming","","","{""aha"":5}","[0]","../img/tt/497tt.jpg","",""
"null","<div style=""font-size:60px;""> </div>","null","fixation","html-keyboard-response","447","1474418","0.0-6.0-0.63","3150034","co38293","norming","","","","","","",""
"null","../img/tt/1043tt.jpg","null","mooney1","image-keyboard-response","448","1477425","0.0-6.0-1.63","3150034","co38293","norming","","","","","","",""
"3876.7999999998137","","","post_mooney1_questions","survey-likert","449","1481301","0.0-6.0-2.63","3150034","co38293","norming","","","{""curiosity"":5,""confidence"":0}","[0,1]","../img/tt/1043tt.jpg","",""
"1278.3349999990314","","","recognition","survey-text","450","1482581","0.0-6.0-3.63","3150034","co38293","norming","","","{""guess"":""""}","","../img/tt/1043tt.jpg","",""
"null","../img/gs/1043gs.jpg","null","reveal","image-keyboard-response","451","1484583","0.0-6.0-4.63","3150034","co38293","norming","","","","","","",""
"null","../img/tt/1043tt.jpg","null","mooney2","image-keyboard-response","452","1486586","0.0-6.0-5.63","3150034","co38293","norming","","","","","","",""
"1360.3400000010151","","","post_reveal_questions","survey-likert","453","1487949","0.0-6.0-6.63","3150034","co38293","norming","","","{""aha"":1}","[0]","../img/tt/1043tt.jpg","",""
"null","<div style=""font-size:60px;""> </div>","null","fixation","html-keyboard-response","454","1488150","0.0-6.0-0.64","3150034","co38293","norming","","","","","","",""
"null","../img/tt/590tt.jpg","null","mooney1","image-keyboard-response","455","1491154","0.0-6.0-1.64","3150034","co38293","norming","","","","","","",""
"4287.674999999581","","","post_mooney1_questions","survey-likert","456","1495445","0.0-6.0-2.64","3150034","co38293","norming","","","{""curiosity"":5,""confidence"":0}","[0,1]","../img/tt/590tt.jpg","",""
"1581.9600000013597","","","recognition","survey-text","457","1497029","0.0-6.0-3.64","3150034","co38293","norming","","","{""guess"":""desk""}","","../img/tt/590tt.jpg","",""
"null","../img/gs/590gs.jpg","null","reveal","image-keyboard-response","458","1499036","0.0-6.0-4.64","3150034","co38293","norming","","","","","","",""
"null","../img/tt/590tt.jpg","null","mooney2","image-keyboard-response","459","1501045","0.0-6.0-5.64","3150034","co38293","norming","","","","","","",""
"2748.8299999986775","","","post_reveal_questions","survey-likert","460","1503797","0.0-6.0-6.64","3150034","co38293","norming","","","{""aha"":1}","[0]","../img/tt/590tt.jpg","",""
"null","<div style=""font-size:60px;""> </div>","null","fixation","html-keyboard-response","461","1503998","0.0-6.0-0.65","3150034","co38293","norming","","","","","","",""
"null","../img/tt/603tt.jpg","null","mooney1","image-keyboard-response","462","1507006","0.0-6.0-1.65","3150034","co38293","norming","","","","","","",""
"6243.45999999973","","","post_mooney1_questions","survey-likert","463","1513253","0.0-6.0-2.65","3150034","co38293","norming","","","{""curiosity"":2,""confidence"":4}","[0,1]","../img/tt/603tt.jpg","",""
"1549.7549999998882","","","recognition","survey-text","464","1514805","0.0-6.0-3.65","3150034","co38293","norming","","","{""guess"":""cat""}","","../img/tt/603tt.jpg","",""
"null","../img/gs/603gs.jpg","null","reveal","image-keyboard-response","465","1516810","0.0-6.0-4.65","3150034","co38293","norming","","","","","","",""
"null","../img/tt/603tt.jpg","null","mooney2","image-keyboard-response","466","1518812","0.0-6.0-5.65","3150034","co38293","norming","","","","","","",""
"3189.914999998873","","","post_reveal_questions","survey-likert","467","1522005","0.0-6.0-6.65","3150034","co38293","norming","","","{""aha"":1}","[0]","../img/tt/603tt.jpg","",""
"null","<div style=""font-size:60px;""> </div>","null","fixation","html-keyboard-response","468","1522206","0.0-6.0-0.66","3150034","co38293","norming","","","","","","",""
"null","../img/tt/1186tt.jpg","null","mooney1","image-keyboard-response","469","1525216","0.0-6.0-1.66","3150034","co38293","norming","","","","","","",""
"8792.900000000373","","","post_mooney1_questions","survey-likert","470","1534013","0.0-6.0-2.66","3150034","co38293","norming","","","{""curiosity"":5,""confidence"":1}","[0,1]","../img/tt/1186tt.jpg","",""
"6982.324999999022","","","recognition","survey-text","471","1540995","0.0-6.0-3.66","3150034","co38293","norming","","","{""guess"":""football player""}","","../img/tt/1186tt.jpg","",""
"null","../img/gs/1186gs.jpg","null","reveal","image-keyboard-response","472","1543002","0.0-6.0-4.66","3150034","co38293","norming","","","","","","",""
"null","../img/tt/1186tt.jpg","null","mooney2","image-keyboard-response","473","1545013","0.0-6.0-5.66","3150034","co38293","norming","","","","","","",""
"4683.184999999823","","","post_reveal_questions","survey-likert","474","1549699","0.0-6.0-6.66","3150034","co38293","norming","","","{""aha"":4}","[0]","../img/tt/1186tt.jpg","",""
"null","<div style=""font-size:60px;""> </div>","null","fixation","html-keyboard-response","475","1549900","0.0-6.0-0.67","3150034","co38293","norming","","","","","","",""
"null","../img/tt/549tt.jpg","null","mooney1","image-keyboard-response","476","1552906","0.0-6.0-1.67","3150034","co38293","norming","","","","","","",""
"4765.629999999888","","","post_mooney1_questions","survey-likert","477","1557675","0.0-6.0-2.67","3150034","co38293","norming","","","{""curiosity"":4,""confidence"":1}","[0,1]","../img/tt/549tt.jpg","",""
"2421.914999999106","","","recognition","survey-text","478","1560099","0.0-6.0-3.67","3150034","co38293","norming","","","{""guess"":""hockey player""}","","../img/tt/549tt.jpg","",""
"null","../img/gs/549gs.jpg","null","reveal","image-keyboard-response","479","1562106","0.0-6.0-4.67","3150034","co38293","norming","","","","","","",""
"null","../img/tt/549tt.jpg","null","mooney2","image-keyboard-response","480","1564119","0.0-6.0-5.67","3150034","co38293","norming","","","","","","",""
"3442.81500000041","","","post_reveal_questions","survey-likert","481","1567563","0.0-6.0-6.67","3150034","co38293","norming","","","{""aha"":3}","[0]","../img/tt/549tt.jpg","",""
"null","<div style=""font-size:60px;""> </div>","null","fixation","html-keyboard-response","482","1567764","0.0-6.0-0.68","3150034","co38293","norming","","","","","","",""
"null","../img/tt/507tt.jpg","null","mooney1","image-keyboard-response","483","1570778","0.0-6.0-1.68","3150034","co38293","norming","","","","","","",""
"2701.984999999637","","","post_mooney1_questions","survey-likert","484","1573483","0.0-6.0-2.68","3150034","co38293","norming","","","{""curiosity"":4,""confidence"":1}","[0,1]","../img/tt/507tt.jpg","",""
"1462.2349999991711","","","recognition","survey-text","485","1574947","0.0-6.0-3.68","3150034","co38293","norming","","","{""guess"":""dog""}","","../img/tt/507tt.jpg","",""
"null","../img/gs/507gs.jpg","null","reveal","image-keyboard-response","486","1576954","0.0-6.0-4.68","3150034","co38293","norming","","","","","","",""
"null","../img/tt/507tt.jpg","null","mooney2","image-keyboard-response","487","1578964","0.0-6.0-5.68","3150034","co38293","norming","","","","","","",""
"2252.2549999994226","","","post_reveal_questions","survey-likert","488","1581219","0.0-6.0-6.68","3150034","co38293","norming","","","{""aha"":2}","[0]","../img/tt/507tt.jpg","",""
"null","<div style=""font-size:60px;""> </div>","null","fixation","html-keyboard-response","489","1581420","0.0-6.0-0.69","3150034","co38293","norming","","","","","","",""
"null","../img/tt/468tt.jpg","null","mooney1","image-keyboard-response","490","1584433","0.0-6.0-1.69","3150034","co38293","norming","","","","","","",""
"5727.224999998929","","","post_mooney1_questions","survey-likert","491","1590163","0.0-6.0-2.69","3150034","co38293","norming","","","{""curiosity"":5,""confidence"":0}","[0,1]","../img/tt/468tt.jpg","",""
"2797.970000001602","","","recognition","survey-text","492","1592963","0.0-6.0-3.69","3150034","co38293","norming","","","{""guess"":""mad hatter""}","","../img/tt/468tt.jpg","",""
"null","../img/gs/468gs.jpg","null","reveal","image-keyboard-response","493","1594971","0.0-6.0-4.69","3150034","co38293","norming","","","","","","",""
"null","../img/tt/468tt.jpg","null","mooney2","image-keyboard-response","494","1596981","0.0-6.0-5.69","3150034","co38293","norming","","","","","","",""
"5035.1799999990035","","","post_reveal_questions","survey-likert","495","1602024","0.0-6.0-6.69","3150034","co38293","norming","","","{""aha"":2}","[0]","../img/tt/468tt.jpg","",""
"null","<div style=""font-size:60px;""> </div>","null","fixation","html-keyboard-response","496","1602226","0.0-6.0-0.70","3150034","co38293","norming","","","","","","",""
"null","../img/tt/584tt.jpg","null","mooney1","image-keyboard-response","497","1605239","0.0-6.0-1.70","3150034","co38293","norming","","","","","","",""
"3638.4799999997485","","","post_mooney1_questions","survey-likert","498","1608880","0.0-6.0-2.70","3150034","co38293","norming","","","{""curiosity"":2,""confidence"":4}","[0,1]","../img/tt/584tt.jpg","",""
"2085.9400000008754","","","recognition","survey-text","499","1610968","0.0-6.0-3.70","3150034","co38293","norming","","","{""guess"":""flower""}","","../img/tt/584tt.jpg","",""
"null","../img/gs/584gs.jpg","null","reveal","image-keyboard-response","500","1612970","0.0-6.0-4.70","3150034","co38293","norming","","","","","","",""
"null","../img/tt/584tt.jpg","null","mooney2","image-keyboard-response","501","1614977","0.0-6.0-5.70","3150034","co38293","norming","","","","","","",""
"3316.030000000028","","","post_reveal_questions","survey-likert","502","1618296","0.0-6.0-6.70","3150034","co38293","norming","","","{""aha"":4}","[0]","../img/tt/584tt.jpg","",""
"null","<div style=""font-size:60px;""> </div>","null","fixation","html-keyboard-response","503","1618497","0.0-6.0-0.71","3150034","co38293","norming","","","","","","",""
"null","../img/tt/1247tt.jpg","null","mooney1","image-keyboard-response","504","1621507","0.0-6.0-1.71","3150034","co38293","norming","","","","","","",""
"7337.929999999702","","","post_mooney1_questions","survey-likert","505","1628848","0.0-6.0-2.71","3150034","co38293","norming","","","{""curiosity"":5,""confidence"":0}","[0,1]","../img/tt/1247tt.jpg","",""
"838.305000001099","","","recognition","survey-text","506","1629688","0.0-6.0-3.71","3150034","co38293","norming","","","{""guess"":""""}","","../img/tt/1247tt.jpg","",""
"null","../img/gs/1247gs.jpg","null","reveal","image-keyboard-response","507","1631695","0.0-6.0-4.71","3150034","co38293","norming","","","","","","",""
"null","../img/tt/1247tt.jpg","null","mooney2","image-keyboard-response","508","1633705","0.0-6.0-5.71","3150034","co38293","norming","","","","","","",""
"6164.075000000652","","","post_reveal_questions","survey-likert","509","1639872","0.0-6.0-6.71","3150034","co38293","norming","","","{""aha"":4}","[0]","../img/tt/1247tt.jpg","",""
"null","<div style=""font-size:60px;""> </div>","null","fixation","html-keyboard-response","510","1640073","0.0-6.0-0.72","3150034","co38293","norming","","","","","","",""
"null","../img/tt/044tt.jpg","null","mooney1","image-keyboard-response","511","1643079","0.0-6.0-1.72","3150034","co38293","norming","","","","","","",""
"4741.939999999944","","","post_mooney1_questions","survey-likert","512","1647824","0.0-6.0-2.72","3150034","co38293","norming","","","{""curiosity"":4,""confidence"":1}","[0,1]","../img/tt/044tt.jpg","",""
"2053.3650000016205","","","recognition","survey-text","513","1649880","0.0-6.0-3.72","3150034","co38293","norming","","","{""guess"":""perforator""}","","../img/tt/044tt.jpg","",""
"null","../img/gs/044gs.jpg","null","reveal","image-keyboard-response","514","1651891","0.0-6.0-4.72","3150034","co38293","norming","","","","","","",""
"null","../img/tt/044tt.jpg","null","mooney2","image-keyboard-response","515","1653894","0.0-6.0-5.72","3150034","co38293","norming","","","","","","",""
"3391.2249999993946","","","post_reveal_questions","survey-likert","516","1657288","0.0-6.0-6.72","3150034","co38293","norming","","","{""aha"":4}","[0]","../img/tt/044tt.jpg","",""
"null","<div style=""font-size:60px;""> </div>","null","fixation","html-keyboard-response","517","1657489","0.0-6.0-0.73","3150034","co38293","norming","","","","","","",""
"null","../img/tt/353tt.jpg","null","mooney1","image-keyboard-response","518","1660495","0.0-6.0-1.73","3150034","co38293","norming","","","","","","",""
"3504.160000000382","","","post_mooney1_questions","survey-likert","519","1664003","0.0-6.0-2.73","3150034","co38293","norming","","","{""curiosity"":2,""confidence"":4}","[0,1]","../img/tt/353tt.jpg","",""
"3142.5099999995437","","","recognition","survey-text","520","1667147","0.0-6.0-3.73","3150034","co38293","norming","","","{""guess"":""penguin""}","","../img/tt/353tt.jpg","",""
"null","../img/gs/353gs.jpg","null","reveal","image-keyboard-response","521","1669154","0.0-6.0-4.73","3150034","co38293","norming","","","","","","",""
"null","../img/tt/353tt.jpg","null","mooney2","image-keyboard-response","522","1671156","0.0-6.0-5.73","3150034","co38293","norming","","","","","","",""
"4011.310000000056","","","post_reveal_questions","survey-likert","523","1675171","0.0-6.0-6.73","3150034","co38293","norming","","","{""aha"":1}","[0]","../img/tt/353tt.jpg","",""
"null","<div style=""font-size:60px;""> </div>","null","fixation","html-keyboard-response","524","1675372","0.0-6.0-0.74","3150034","co38293","norming","","","","","","",""
"null","../img/tt/1307tt.jpg","null","mooney1","image-keyboard-response","525","1678377","0.0-6.0-1.74","3150034","co38293","norming","","","","","","",""
"5209.254999999655","","","post_mooney1_questions","survey-likert","526","1683587","0.0-6.0-2.74","3150034","co38293","norming","","","{""curiosity"":5,""confidence"":0}","[0,1]","../img/tt/1307tt.jpg","",""
"1029.7500000016298","","","recognition","survey-text","527","1684619","0.0-6.0-3.74","3150034","co38293","norming","","","{""guess"":""""}","","../img/tt/1307tt.jpg","",""
"null","../img/gs/1307gs.jpg","null","reveal","image-keyboard-response","528","1686628","0.0-6.0-4.74","3150034","co38293","norming","","","","","","",""
"null","../img/tt/1307tt.jpg","null","mooney2","image-keyboard-response","529","1688639","0.0-6.0-5.74","3150034","co38293","norming","","","","","","",""
"2792.980000000214","","","post_reveal_questions","survey-likert","530","1691434","0.0-6.0-6.74","3150034","co38293","norming","","","{""aha"":4}","[0]","../img/tt/1307tt.jpg","",""
"null","<div style=""font-size:60px;""> </div>","null","fixation","html-keyboard-response","531","1691636","0.0-6.0-0.75","3150034","co38293","norming","","","","","","",""
"null","../img/tt/1261tt.jpg","null","mooney1","image-keyboard-response","532","1694642","0.0-6.0-1.75","3150034","co38293","norming","","","","","","",""
"3980.8749999993015","","","post_mooney1_questions","survey-likert","533","1698627","0.0-6.0-2.75","3150034","co38293","norming","","","{""curiosity"":3,""confidence"":2}","[0,1]","../img/tt/1261tt.jpg","",""
"1285.9449999995995","","","recognition","survey-text","534","1699915","0.0-6.0-3.75","3150034","co38293","norming","","","{""guess"":""dog""}","","../img/tt/1261tt.jpg","",""
"null","../img/gs/1261gs.jpg","null","reveal","image-keyboard-response","535","1701916","0.0-6.0-4.75","3150034","co38293","norming","","","","","","",""
"null","../img/tt/1261tt.jpg","null","mooney2","image-keyboard-response","536","1703927","0.0-6.0-5.75","3150034","co38293","norming","","","","","","",""
"1968.9999999990687","","","post_reveal_questions","survey-likert","537","1705899","0.0-6.0-6.75","3150034","co38293","norming","","","{""aha"":5}","[0]","../img/tt/1261tt.jpg","",""
"null","<div style=""font-size:60px;""> </div>","null","fixation","html-keyboard-response","538","1706100","0.0-6.0-0.76","3150034","co38293","norming","","","","","","",""
"null","../img/tt/1224tt.jpg","null","mooney1","image-keyboard-response","539","1709106","0.0-6.0-1.76","3150034","co38293","norming","","","","","","",""
"6568.079999999143","","","post_mooney1_questions","survey-likert","540","1715675","0.0-6.0-2.76","3150034","co38293","norming","","","{""curiosity"":4,""confidence"":2}","[0,1]","../img/tt/1224tt.jpg","",""
"2621.6349999995437","","","recognition","survey-text","541","1718298","0.0-6.0-3.76","3150034","co38293","norming","","","{""guess"":""judo player""}","","../img/tt/1224tt.jpg","",""
"null","../img/gs/1224gs.jpg","null","reveal","image-keyboard-response","542","1720305","0.0-6.0-4.76","3150034","co38293","norming","","","","","","",""
"null","../img/tt/1224tt.jpg","null","mooney2","image-keyboard-response","543","1722314","0.0-6.0-5.76","3150034","co38293","norming","","","","","","",""
"2472.51999999932","","","post_reveal_questions","survey-likert","544","1724787","0.0-6.0-6.76","3150034","co38293","norming","","","{""aha"":5}","[0]","../img/tt/1224tt.jpg","",""
"null","<div style=""font-size:60px;""> </div>","null","fixation","html-keyboard-response","545","1724996","0.0-6.0-0.77","3150034","co38293","norming","","","","","","",""
"null","../img/tt/194tt.jpg","null","mooney1","image-keyboard-response","546","1728005","0.0-6.0-1.77","3150034","co38293","norming","","","","","","",""
"9290.909999999683","","","post_mooney1_questions","survey-likert","547","1737299","0.0-6.0-2.77","3150034","co38293","norming","","","{""curiosity"":4,""confidence"":2}","[0,1]","../img/tt/194tt.jpg","",""
"1654.0000000004657","","","recognition","survey-text","548","1738955","0.0-6.0-3.77","3150034","co38293","norming","","","{""guess"":""musician""}","","../img/tt/194tt.jpg","",""
"null","../img/gs/194gs.jpg","null","reveal","image-keyboard-response","549","1740957","0.0-6.0-4.77","3150034","co38293","norming","","","","","","",""
"null","../img/tt/194tt.jpg","null","mooney2","image-keyboard-response","550","1742959","0.0-6.0-5.77","3150034","co38293","norming","","","","","","",""
"5729.364999999292","","","post_reveal_questions","survey-likert","551","1748691","0.0-6.0-6.77","3150034","co38293","norming","","","{""aha"":1}","[0]","../img/tt/194tt.jpg","",""
"null","<div style=""font-size:60px;""> </div>","null","fixation","html-keyboard-response","552","1748892","0.0-6.0-0.78","3150034","co38293","norming","","","","","","",""
