"rt","stimulus","key_press","test_part","trial_type","trial_index","time_elapsed","internal_node_id","totalTime","subject","experiment_name","button_pressed","success","responses","question_order","currentStim","old","correct"
"10863.704999996116","Welcome to the experiment. This is an online experiment so please don't close the tab/window until we say goodbye.  Press any key to begin.","80","instructions","html-keyboard-response","0","10888","0.0-0.0","3134532","co38389","norming","","","","","","",""
"18281.535000001895","<div style='word-wrap: break-word; width: 900px'><h3>Please consider this information carefully before deciding whether to participate in this research</h3><ul style='text-align: left; font-size: .8em;'><li><b>Purpose of the research</b>: To examine how people process images.</li><li><b>What you will do in this research</b>:  Stimuli (images) will be presented on the computer and you will be asked different questions about them.</li><li><b>Time required</b>: Participation will take between 45 and 60 minutes to complete.</li><li><b>Risks</b>:  There are no anticipated risks associated with participating in this study. The effects of participating should be comparable to those you would experience from viewing a computer monitor for 30 minutes and using a mouse or keyboard.</li><li><b>Benefits</b>:  This study provides no benefits to you individually except for the credit. The study provides important information about the nature of perception and learning.</li><li><b>Confidentiality</b>:  Your participation in this study will remain confidential. No personally identifiable information will be associated with your data. Your de-identified data may be shared with other researchers and used in future projects.</li><li><b>Participation and withdrawal</b>:  Your participation in this study is completely voluntary and you may refuse to participate or you may choose to withdraw at any time without penalty.</li><li><b>How to contact the researchers</b>: If you have questions or concerns about your participation or payment, or want to request a summary of research findings, please contact Sander Van de Cruys (KU Leuven), at sander.vandecruys@kuleuven.be.</li></ul><p>The nature and purpose of this research have been sufficiently explained and I agree to participate in this study.  I understand that I am free to withdraw at any time without incurring any penalty.</p><p>Please consent by clicking the button below to continue. Otherwise, please exit the study at this time.</p></div>","","instructions","html-button-response","1","29173","0.0-1.0","3134532","co38389","norming","0","","","","","",""
"","","","instructions","fullscreen","2","38509","0.0-2.0","3134532","co38389","norming","","true","","","","",""
"62772.87999998953","","","sona","survey-html-form","3","101294","0.0-3.0","3134532","co38389","norming","","","[{""name"":""sonaid"",""value"":""38389""},{""name"":""debrief"",""value"":""no""},{""name"":""datajoin"",""value"":""yes""}]","","","",""
"61163.43000000052","<div style='word-wrap: break-word; width: 900px'><h3>Instructions</h3><p>This experiment will have 3 parts. In the first part you will see a series of distorted images like the one below on the left. As you can see in the righthand image, the distorted images are derived from actual photographs. In what follows, you will <strong>briefly</strong> be presented with <strong>only</strong> the distorted image.</p> <div style='float: left; margin-right: 20px;'><img src='../img/018tt.jpg' height='250' width='250'></img></div><div style='float: right; margin-left: 20px;'><img src='../img/018gs.jpg' height='250' width='250'></img></div><p>Subsequently you will be asked a few questions about the image: One question on how <strong>curious</strong> you are about the solution and one on how <strong>confident</strong> you are that you know the solution.</p>Next, we ask you to make a guess on what is in the image. Note that it is OK to name just the <strong>basic level category</strong>. For example when you see a parrot in the image, 'parrot' will obviously be a correct answer but also correct is 'bird'. However, 'animal' will <strong>not</strong> be counted as a correct response. For the example above, 'rose' would be correct or 'flower', but not 'plant'. When soccer players are depicted, 'soccer', 'football', 'soccer players' will be correct, but not 'humans', 'outdoors', or 'sports'. You do not need to describe the image in full, just name the main object in it <strong>in one or two words</strong>. All images depict objects from one of the following broad level categories: animals, inanimate objects, plants, sports, vehicles, and food. Recognizing means knowing <strong>more</strong> than these broad labels for a given image. But we always encourage you to <strong>make a guess</strong> if you can. Note that you are allowed to use <strong>Dutch and English</strong> in your answers, whatever comes easiest for you.</p><p>Press any key to continue.</p></div>","73","instructions","html-keyboard-response","4","162462","0.0-4.0","3134532","co38389","norming","","","","","","",""
"18798.479999997653","<div style='word-wrap: break-word; width: 900px'><h3>Instructions</h3> <p>Next, the solution image will be revealed to you and you'll be asked to indicate how strong your <strong>aha-experience</strong> was after seeing the solution. This describes the positive feeling of the 'click' you sometimes experience, when the pieces of the 'puzzle' fall together and you suddenly have 'insight' in the image.</p><img src='aha.jpg' height='188' width='250'></img><p>Note that there are no right or wrong answers. We are interested in what <strong>you</strong> see in the image and how <strong>you</strong> feel about it.</p><p>Press any key to start the experiment.</p></div>","73","instructions","html-keyboard-response","5","181262","0.0-5.0","3134532","co38389","norming","","","","","","",""
"null","<div style=""font-size:60px;""> </div>","null","fixation","html-keyboard-response","6","181468","0.0-6.0-0.0","3134532","co38389","norming","","","","","","",""
"null","../img/tt/135tt.jpg","null","mooney1","image-keyboard-response","7","184469","0.0-6.0-1.0","3134532","co38389","norming","","","","","","",""
"53197.17500000843","","","post_mooney1_questions","survey-likert","8","237667","0.0-6.0-2.0","3134532","co38389","norming","","","{""curiosity"":5,""confidence"":2}","[0,1]","../img/tt/135tt.jpg","",""
"9205.275000000256","","","recognition","survey-text","9","246874","0.0-6.0-3.0","3134532","co38389","norming","","","{""guess"":""wc-bril""}","","../img/tt/135tt.jpg","",""
"null","../img/gs/135gs.jpg","null","reveal","image-keyboard-response","10","248881","0.0-6.0-4.0","3134532","co38389","norming","","","","","","",""
"null","../img/tt/135tt.jpg","null","mooney2","image-keyboard-response","11","250892","0.0-6.0-5.0","3134532","co38389","norming","","","","","","",""
"14020.804999992833","","","post_reveal_questions","survey-likert","12","264915","0.0-6.0-6.0","3134532","co38389","norming","","","{""aha"":3}","[0]","../img/tt/135tt.jpg","",""
"null","<div style=""font-size:60px;""> </div>","null","fixation","html-keyboard-response","13","265126","0.0-6.0-0.1","3134532","co38389","norming","","","","","","",""
"null","../img/tt/1196tt.jpg","null","mooney1","image-keyboard-response","14","268130","0.0-6.0-1.1","3134532","co38389","norming","","","","","","",""
"5670.805000001565","","","post_mooney1_questions","survey-likert","15","273803","0.0-6.0-2.1","3134532","co38389","norming","","","{""curiosity"":5,""confidence"":0}","[0,1]","../img/tt/1196tt.jpg","",""
"2942.094999991241","","","recognition","survey-text","16","276746","0.0-6.0-3.1","3134532","co38389","norming","","","{""guess"":""""}","","../img/tt/1196tt.jpg","",""
"null","../img/gs/1196gs.jpg","null","reveal","image-keyboard-response","17","278752","0.0-6.0-4.1","3134532","co38389","norming","","","","","","",""
"null","../img/tt/1196tt.jpg","null","mooney2","image-keyboard-response","18","280754","0.0-6.0-5.1","3134532","co38389","norming","","","","","","",""
"3078.334999998333","","","post_reveal_questions","survey-likert","19","283834","0.0-6.0-6.1","3134532","co38389","norming","","","{""aha"":5}","[0]","../img/tt/1196tt.jpg","",""
"null","<div style=""font-size:60px;""> </div>","null","fixation","html-keyboard-response","20","284039","0.0-6.0-0.2","3134532","co38389","norming","","","","","","",""
"null","../img/tt/1268tt.jpg","null","mooney1","image-keyboard-response","21","287050","0.0-6.0-1.2","3134532","co38389","norming","","","","","","",""
"8381.54499999655","","","post_mooney1_questions","survey-likert","22","295434","0.0-6.0-2.2","3134532","co38389","norming","","","{""curiosity"":5,""confidence"":0}","[0,1]","../img/tt/1268tt.jpg","",""
"1398.3600000065053","","","recognition","survey-text","23","296840","0.0-6.0-3.2","3134532","co38389","norming","","","{""guess"":""""}","","../img/tt/1268tt.jpg","",""
"null","../img/gs/1268gs.jpg","null","reveal","image-keyboard-response","24","298848","0.0-6.0-4.2","3134532","co38389","norming","","","","","","",""
"null","../img/tt/1268tt.jpg","null","mooney2","image-keyboard-response","25","300855","0.0-6.0-5.2","3134532","co38389","norming","","","","","","",""
"3550.9100000053877","","","post_reveal_questions","survey-likert","26","304408","0.0-6.0-6.2","3134532","co38389","norming","","","{""aha"":4}","[0]","../img/tt/1268tt.jpg","",""
"null","<div style=""font-size:60px;""> </div>","null","fixation","html-keyboard-response","27","304614","0.0-6.0-0.3","3134532","co38389","norming","","","","","","",""
"null","../img/tt/436tt.jpg","null","mooney1","image-keyboard-response","28","307621","0.0-6.0-1.3","3134532","co38389","norming","","","","","","",""
"7786.4450000051875","","","post_mooney1_questions","survey-likert","29","315408","0.0-6.0-2.3","3134532","co38389","norming","","","{""curiosity"":6,""confidence"":1}","[0,1]","../img/tt/436tt.jpg","",""
"6006.149999986519","","","recognition","survey-text","30","321416","0.0-6.0-3.3","3134532","co38389","norming","","","{""guess"":""krokodil""}","","../img/tt/436tt.jpg","",""
"null","../img/gs/436gs.jpg","null","reveal","image-keyboard-response","31","323418","0.0-6.0-4.3","3134532","co38389","norming","","","","","","",""
"null","../img/tt/436tt.jpg","null","mooney2","image-keyboard-response","32","325421","0.0-6.0-5.3","3134532","co38389","norming","","","","","","",""
"3200.9350000007544","","","post_reveal_questions","survey-likert","33","328624","0.0-6.0-6.3","3134532","co38389","norming","","","{""aha"":6}","[0]","../img/tt/436tt.jpg","",""
"null","<div style=""font-size:60px;""> </div>","null","fixation","html-keyboard-response","34","328825","0.0-6.0-0.4","3134532","co38389","norming","","","","","","",""
"null","../img/tt/358tt.jpg","null","mooney1","image-keyboard-response","35","331835","0.0-6.0-1.4","3134532","co38389","norming","","","","","","",""
"10810.364999997546","","","post_mooney1_questions","survey-likert","36","342648","0.0-6.0-2.4","3134532","co38389","norming","","","{""curiosity"":6,""confidence"":0}","[0,1]","../img/tt/358tt.jpg","",""
"821.89500000095","","","recognition","survey-text","37","343472","0.0-6.0-3.4","3134532","co38389","norming","","","{""guess"":""""}","","../img/tt/358tt.jpg","",""
"null","../img/gs/358gs.jpg","null","reveal","image-keyboard-response","38","345479","0.0-6.0-4.4","3134532","co38389","norming","","","","","","",""
"null","../img/tt/358tt.jpg","null","mooney2","image-keyboard-response","39","347488","0.0-6.0-5.4","3134532","co38389","norming","","","","","","",""
"2639.3799999932526","","","post_reveal_questions","survey-likert","40","350128","0.0-6.0-6.4","3134532","co38389","norming","","","{""aha"":6}","[0]","../img/tt/358tt.jpg","",""
"null","<div style=""font-size:60px;""> </div>","null","fixation","html-keyboard-response","41","350329","0.0-6.0-0.5","3134532","co38389","norming","","","","","","",""
"null","../img/tt/1053tt.jpg","null","mooney1","image-keyboard-response","42","353341","0.0-6.0-1.5","3134532","co38389","norming","","","","","","",""
"6952.854999995907","","","post_mooney1_questions","survey-likert","43","360292","0.0-6.0-2.5","3134532","co38389","norming","","","{""curiosity"":5,""confidence"":1}","[0,1]","../img/tt/1053tt.jpg","",""
"4086.105000009411","","","recognition","survey-text","44","364380","0.0-6.0-3.5","3134532","co38389","norming","","","{""guess"":""eekhoorn""}","","../img/tt/1053tt.jpg","",""
"null","../img/gs/1053gs.jpg","null","reveal","image-keyboard-response","45","366381","0.0-6.0-4.5","3134532","co38389","norming","","","","","","",""
"null","../img/tt/1053tt.jpg","null","mooney2","image-keyboard-response","46","368384","0.0-6.0-5.5","3134532","co38389","norming","","","","","","",""
"2968.699999997625","","","post_reveal_questions","survey-likert","47","371355","0.0-6.0-6.5","3134532","co38389","norming","","","{""aha"":6}","[0]","../img/tt/1053tt.jpg","",""
"null","<div style=""font-size:60px;""> </div>","null","fixation","html-keyboard-response","48","371565","0.0-6.0-0.6","3134532","co38389","norming","","","","","","",""
"null","../img/tt/1128tt.jpg","null","mooney1","image-keyboard-response","49","374572","0.0-6.0-1.6","3134532","co38389","norming","","","","","","",""
"7782.429999992019","","","post_mooney1_questions","survey-likert","50","382356","0.0-6.0-2.6","3134532","co38389","norming","","","{""curiosity"":4,""confidence"":3}","[0,1]","../img/tt/1128tt.jpg","",""
"4582.110000003013","","","recognition","survey-text","51","386939","0.0-6.0-3.6","3134532","co38389","norming","","","{""guess"":""pandabeer""}","","../img/tt/1128tt.jpg","",""
"null","../img/gs/1128gs.jpg","null","reveal","image-keyboard-response","52","388942","0.0-6.0-4.6","3134532","co38389","norming","","","","","","",""
"null","../img/tt/1128tt.jpg","null","mooney2","image-keyboard-response","53","390944","0.0-6.0-5.6","3134532","co38389","norming","","","","","","",""
"1641.3500000053318","","","post_reveal_questions","survey-likert","54","392588","0.0-6.0-6.6","3134532","co38389","norming","","","{""aha"":6}","[0]","../img/tt/1128tt.jpg","",""
"null","<div style=""font-size:60px;""> </div>","null","fixation","html-keyboard-response","55","392793","0.0-6.0-0.7","3134532","co38389","norming","","","","","","",""
"null","../img/tt/1175tt.jpg","null","mooney1","image-keyboard-response","56","395796","0.0-6.0-1.7","3134532","co38389","norming","","","","","","",""
"7813.630000004196","","","post_mooney1_questions","survey-likert","57","403612","0.0-6.0-2.7","3134532","co38389","norming","","","{""curiosity"":4,""confidence"":0}","[0,1]","../img/tt/1175tt.jpg","",""
"862.040000007255","","","recognition","survey-text","58","404475","0.0-6.0-3.7","3134532","co38389","norming","","","{""guess"":""""}","","../img/tt/1175tt.jpg","",""
"null","../img/gs/1175gs.jpg","null","reveal","image-keyboard-response","59","406486","0.0-6.0-4.7","3134532","co38389","norming","","","","","","",""
"null","../img/tt/1175tt.jpg","null","mooney2","image-keyboard-response","60","408490","0.0-6.0-5.7","3134532","co38389","norming","","","","","","",""
"2599.7600000118837","","","post_reveal_questions","survey-likert","61","411092","0.0-6.0-6.7","3134532","co38389","norming","","","{""aha"":5}","[0]","../img/tt/1175tt.jpg","",""
"null","<div style=""font-size:60px;""> </div>","null","fixation","html-keyboard-response","62","411295","0.0-6.0-0.8","3134532","co38389","norming","","","","","","",""
"null","../img/tt/435tt.jpg","null","mooney1","image-keyboard-response","63","414302","0.0-6.0-1.8","3134532","co38389","norming","","","","","","",""
"7194.795000003069","","","post_mooney1_questions","survey-likert","64","421506","0.0-6.0-2.8","3134532","co38389","norming","","","{""curiosity"":4,""confidence"":2}","[0,1]","../img/tt/435tt.jpg","",""
"4958.295000004","","","recognition","survey-text","65","426466","0.0-6.0-3.8","3134532","co38389","norming","","","{""guess"":""pooltafel""}","","../img/tt/435tt.jpg","",""
"null","../img/gs/435gs.jpg","null","reveal","image-keyboard-response","66","428468","0.0-6.0-4.8","3134532","co38389","norming","","","","","","",""
"null","../img/tt/435tt.jpg","null","mooney2","image-keyboard-response","67","430470","0.0-6.0-5.8","3134532","co38389","norming","","","","","","",""
"2834.2050000064773","","","post_reveal_questions","survey-likert","68","433306","0.0-6.0-6.8","3134532","co38389","norming","","","{""aha"":5}","[0]","../img/tt/435tt.jpg","",""
"null","<div style=""font-size:60px;""> </div>","null","fixation","html-keyboard-response","69","433507","0.0-6.0-0.9","3134532","co38389","norming","","","","","","",""
"null","../img/tt/1061tt.jpg","null","mooney1","image-keyboard-response","70","436515","0.0-6.0-1.9","3134532","co38389","norming","","","","","","",""
"12109.819999997853","","","post_mooney1_questions","survey-likert","71","448627","0.0-6.0-2.9","3134532","co38389","norming","","","{""curiosity"":4,""confidence"":3}","[0,1]","../img/tt/1061tt.jpg","",""
"4525.735000002896","","","recognition","survey-text","72","453154","0.0-6.0-3.9","3134532","co38389","norming","","","{""guess"":""stadspark""}","","../img/tt/1061tt.jpg","",""
"null","../img/gs/1061gs.jpg","null","reveal","image-keyboard-response","73","455161","0.0-6.0-4.9","3134532","co38389","norming","","","","","","",""
"null","../img/tt/1061tt.jpg","null","mooney2","image-keyboard-response","74","457171","0.0-6.0-5.9","3134532","co38389","norming","","","","","","",""
"3037.625000011758","","","post_reveal_questions","survey-likert","75","460210","0.0-6.0-6.9","3134532","co38389","norming","","","{""aha"":6}","[0]","../img/tt/1061tt.jpg","",""
"null","<div style=""font-size:60px;""> </div>","null","fixation","html-keyboard-response","76","460420","0.0-6.0-0.10","3134532","co38389","norming","","","","","","",""
"null","../img/tt/091tt.jpg","null","mooney1","image-keyboard-response","77","463431","0.0-6.0-1.10","3134532","co38389","norming","","","","","","",""
"13360.530000005383","","","post_mooney1_questions","survey-likert","78","476794","0.0-6.0-2.10","3134532","co38389","norming","","","{""curiosity"":5,""confidence"":0}","[0,1]","../img/tt/091tt.jpg","",""
"3173.194999995758","","","recognition","survey-text","79","479966","0.0-6.0-3.10","3134532","co38389","norming","","","{""guess"":""haan""}","","../img/tt/091tt.jpg","",""
"null","../img/gs/091gs.jpg","null","reveal","image-keyboard-response","80","481969","0.0-6.0-4.10","3134532","co38389","norming","","","","","","",""
"null","../img/tt/091tt.jpg","null","mooney2","image-keyboard-response","81","483972","0.0-6.0-5.10","3134532","co38389","norming","","","","","","",""
"3527.1750000101747","","","post_reveal_questions","survey-likert","82","487501","0.0-6.0-6.10","3134532","co38389","norming","","","{""aha"":4}","[0]","../img/tt/091tt.jpg","",""
"null","<div style=""font-size:60px;""> </div>","null","fixation","html-keyboard-response","83","487705","0.0-6.0-0.11","3134532","co38389","norming","","","","","","",""
"null","../img/tt/082tt.jpg","null","mooney1","image-keyboard-response","84","490707","0.0-6.0-1.11","3134532","co38389","norming","","","","","","",""
"19215.930000005756","","","post_mooney1_questions","survey-likert","85","509926","0.0-6.0-2.11","3134532","co38389","norming","","","{""curiosity"":3,""confidence"":4}","[0,1]","../img/tt/082tt.jpg","",""
"6694.264999998268","","","recognition","survey-text","86","516621","0.0-6.0-3.11","3134532","co38389","norming","","","{""guess"":""vogel""}","","../img/tt/082tt.jpg","",""
"null","../img/gs/082gs.jpg","null","reveal","image-keyboard-response","87","518627","0.0-6.0-4.11","3134532","co38389","norming","","","","","","",""
"null","../img/tt/082tt.jpg","null","mooney2","image-keyboard-response","88","520630","0.0-6.0-5.11","3134532","co38389","norming","","","","","","",""
"3717.3100000072736","","","post_reveal_questions","survey-likert","89","524349","0.0-6.0-6.11","3134532","co38389","norming","","","{""aha"":2}","[0]","../img/tt/082tt.jpg","",""
"null","<div style=""font-size:60px;""> </div>","null","fixation","html-keyboard-response","90","524556","0.0-6.0-0.12","3134532","co38389","norming","","","","","","",""
"null","../img/tt/1276tt.jpg","null","mooney1","image-keyboard-response","91","527560","0.0-6.0-1.12","3134532","co38389","norming","","","","","","",""
"6844.844999999623","","","post_mooney1_questions","survey-likert","92","534406","0.0-6.0-2.12","3134532","co38389","norming","","","{""curiosity"":5,""confidence"":0}","[0,1]","../img/tt/1276tt.jpg","",""
"1366.1900000006426","","","recognition","survey-text","93","535773","0.0-6.0-3.12","3134532","co38389","norming","","","{""guess"":""""}","","../img/tt/1276tt.jpg","",""
"null","../img/gs/1276gs.jpg","null","reveal","image-keyboard-response","94","537777","0.0-6.0-4.12","3134532","co38389","norming","","","","","","",""
"null","../img/tt/1276tt.jpg","null","mooney2","image-keyboard-response","95","539786","0.0-6.0-5.12","3134532","co38389","norming","","","","","","",""
"1751.4649999939138","","","post_reveal_questions","survey-likert","96","541540","0.0-6.0-6.12","3134532","co38389","norming","","","{""aha"":2}","[0]","../img/tt/1276tt.jpg","",""
"null","<div style=""font-size:60px;""> </div>","null","fixation","html-keyboard-response","97","541741","0.0-6.0-0.13","3134532","co38389","norming","","","","","","",""
"null","../img/tt/105tt.jpg","null","mooney1","image-keyboard-response","98","544751","0.0-6.0-1.13","3134532","co38389","norming","","","","","","",""
"6330.1249999931315","","","post_mooney1_questions","survey-likert","99","551084","0.0-6.0-2.13","3134532","co38389","norming","","","{""curiosity"":5,""confidence"":1}","[0,1]","../img/tt/105tt.jpg","",""
"5238.174999991315","","","recognition","survey-text","100","556324","0.0-6.0-3.13","3134532","co38389","norming","","","{""guess"":""vogel""}","","../img/tt/105tt.jpg","",""
"null","../img/gs/105gs.jpg","null","reveal","image-keyboard-response","101","558331","0.0-6.0-4.13","3134532","co38389","norming","","","","","","",""
"null","../img/tt/105tt.jpg","null","mooney2","image-keyboard-response","102","560338","0.0-6.0-5.13","3134532","co38389","norming","","","","","","",""
"5087.4799999874085","","","post_reveal_questions","survey-likert","103","565428","0.0-6.0-6.13","3134532","co38389","norming","","","{""aha"":5}","[0]","../img/tt/105tt.jpg","",""
"null","<div style=""font-size:60px;""> </div>","null","fixation","html-keyboard-response","104","565632","0.0-6.0-0.14","3134532","co38389","norming","","","","","","",""
"null","../img/tt/044tt.jpg","null","mooney1","image-keyboard-response","105","568643","0.0-6.0-1.14","3134532","co38389","norming","","","","","","",""
"7846.2799999979325","","","post_mooney1_questions","survey-likert","106","576492","0.0-6.0-2.14","3134532","co38389","norming","","","{""curiosity"":4,""confidence"":1}","[0,1]","../img/tt/044tt.jpg","",""
"3758.269999991171","","","recognition","survey-text","107","580252","0.0-6.0-3.14","3134532","co38389","norming","","","{""guess"":""laptop""}","","../img/tt/044tt.jpg","",""
"null","../img/gs/044gs.jpg","null","reveal","image-keyboard-response","108","582260","0.0-6.0-4.14","3134532","co38389","norming","","","","","","",""
"null","../img/tt/044tt.jpg","null","mooney2","image-keyboard-response","109","584263","0.0-6.0-5.14","3134532","co38389","norming","","","","","","",""
"1571.0149999940768","","","post_reveal_questions","survey-likert","110","585836","0.0-6.0-6.14","3134532","co38389","norming","","","{""aha"":5}","[0]","../img/tt/044tt.jpg","",""
"null","<div style=""font-size:60px;""> </div>","null","fixation","html-keyboard-response","111","586043","0.0-6.0-0.15","3134532","co38389","norming","","","","","","",""
"null","../img/tt/584tt.jpg","null","mooney1","image-keyboard-response","112","589053","0.0-6.0-1.15","3134532","co38389","norming","","","","","","",""
"5588.620000009541","","","post_mooney1_questions","survey-likert","113","594644","0.0-6.0-2.15","3134532","co38389","norming","","","{""curiosity"":3,""confidence"":2}","[0,1]","../img/tt/584tt.jpg","",""
"3318.134999994072","","","recognition","survey-text","114","597964","0.0-6.0-3.15","3134532","co38389","norming","","","{""guess"":""handen""}","","../img/tt/584tt.jpg","",""
"null","../img/gs/584gs.jpg","null","reveal","image-keyboard-response","115","599966","0.0-6.0-4.15","3134532","co38389","norming","","","","","","",""
"null","../img/tt/584tt.jpg","null","mooney2","image-keyboard-response","116","601969","0.0-6.0-5.15","3134532","co38389","norming","","","","","","",""
"2666.0700000065845","","","post_reveal_questions","survey-likert","117","604637","0.0-6.0-6.15","3134532","co38389","norming","","","{""aha"":5}","[0]","../img/tt/584tt.jpg","",""
"null","<div style=""font-size:60px;""> </div>","null","fixation","html-keyboard-response","118","604847","0.0-6.0-0.16","3134532","co38389","norming","","","","","","",""
"null","../img/tt/163tt.jpg","null","mooney1","image-keyboard-response","119","607849","0.0-6.0-1.16","3134532","co38389","norming","","","","","","",""
"3752.9750000103377","","","post_mooney1_questions","survey-likert","120","611605","0.0-6.0-2.16","3134532","co38389","norming","","","{""curiosity"":3,""confidence"":2}","[0,1]","../img/tt/163tt.jpg","",""
"3310.0549999944633","","","recognition","survey-text","121","614916","0.0-6.0-3.16","3134532","co38389","norming","","","{""guess"":""bloemen""}","","../img/tt/163tt.jpg","",""
"null","../img/gs/163gs.jpg","null","reveal","image-keyboard-response","122","616919","0.0-6.0-4.16","3134532","co38389","norming","","","","","","",""
"null","../img/tt/163tt.jpg","null","mooney2","image-keyboard-response","123","618921","0.0-6.0-5.16","3134532","co38389","norming","","","","","","",""
"4065.6850000086706","","","post_reveal_questions","survey-likert","124","622989","0.0-6.0-6.16","3134532","co38389","norming","","","{""aha"":4}","[0]","../img/tt/163tt.jpg","",""
"null","<div style=""font-size:60px;""> </div>","null","fixation","html-keyboard-response","125","623196","0.0-6.0-0.17","3134532","co38389","norming","","","","","","",""
"null","../img/tt/1227tt.jpg","null","mooney1","image-keyboard-response","126","626205","0.0-6.0-1.17","3134532","co38389","norming","","","","","","",""
"4877.195000008214","","","post_mooney1_questions","survey-likert","127","631085","0.0-6.0-2.17","3134532","co38389","norming","","","{""curiosity"":4,""confidence"":0}","[0,1]","../img/tt/1227tt.jpg","",""
"613.7749999907101","","","recognition","survey-text","128","631700","0.0-6.0-3.17","3134532","co38389","norming","","","{""guess"":""""}","","../img/tt/1227tt.jpg","",""
"null","../img/gs/1227gs.jpg","null","reveal","image-keyboard-response","129","633705","0.0-6.0-4.17","3134532","co38389","norming","","","","","","",""
"null","../img/tt/1227tt.jpg","null","mooney2","image-keyboard-response","130","635707","0.0-6.0-5.17","3134532","co38389","norming","","","","","","",""
"1863.534999996773","","","post_reveal_questions","survey-likert","131","637572","0.0-6.0-6.17","3134532","co38389","norming","","","{""aha"":2}","[0]","../img/tt/1227tt.jpg","",""
"null","<div style=""font-size:60px;""> </div>","null","fixation","html-keyboard-response","132","637776","0.0-6.0-0.18","3134532","co38389","norming","","","","","","",""
"null","../img/tt/416tt.jpg","null","mooney1","image-keyboard-response","133","640783","0.0-6.0-1.18","3134532","co38389","norming","","","","","","",""
"5714.994999987539","","","post_mooney1_questions","survey-likert","134","646501","0.0-6.0-2.18","3134532","co38389","norming","","","{""curiosity"":4,""confidence"":4}","[0,1]","../img/tt/416tt.jpg","",""
"6725.900000004913","","","recognition","survey-text","135","653228","0.0-6.0-3.18","3134532","co38389","norming","","","{""guess"":""struisvogel""}","","../img/tt/416tt.jpg","",""
"null","../img/gs/416gs.jpg","null","reveal","image-keyboard-response","136","655230","0.0-6.0-4.18","3134532","co38389","norming","","","","","","",""
"null","../img/tt/416tt.jpg","null","mooney2","image-keyboard-response","137","657239","0.0-6.0-5.18","3134532","co38389","norming","","","","","","",""
"4644.249999997555","","","post_reveal_questions","survey-likert","138","661885","0.0-6.0-6.18","3134532","co38389","norming","","","{""aha"":1}","[0]","../img/tt/416tt.jpg","",""
"null","<div style=""font-size:60px;""> </div>","null","fixation","html-keyboard-response","139","662094","0.0-6.0-0.19","3134532","co38389","norming","","","","","","",""
"null","../img/tt/524tt.jpg","null","mooney1","image-keyboard-response","140","665106","0.0-6.0-1.19","3134532","co38389","norming","","","","","","",""
"4264.494999995804","","","post_mooney1_questions","survey-likert","141","669373","0.0-6.0-2.19","3134532","co38389","norming","","","{""curiosity"":4,""confidence"":2}","[0,1]","../img/tt/524tt.jpg","",""
"5597.7550000097835","","","recognition","survey-text","142","674972","0.0-6.0-3.19","3134532","co38389","norming","","","{""guess"":""struisvogel""}","","../img/tt/524tt.jpg","",""
"null","../img/gs/524gs.jpg","null","reveal","image-keyboard-response","143","676976","0.0-6.0-4.19","3134532","co38389","norming","","","","","","",""
"null","../img/tt/524tt.jpg","null","mooney2","image-keyboard-response","144","678979","0.0-6.0-5.19","3134532","co38389","norming","","","","","","",""
"2191.8099999893457","","","post_reveal_questions","survey-likert","145","681173","0.0-6.0-6.19","3134532","co38389","norming","","","{""aha"":2}","[0]","../img/tt/524tt.jpg","",""
"null","<div style=""font-size:60px;""> </div>","null","fixation","html-keyboard-response","146","681380","0.0-6.0-0.20","3134532","co38389","norming","","","","","","",""
"null","../img/tt/194tt.jpg","null","mooney1","image-keyboard-response","147","684390","0.0-6.0-1.20","3134532","co38389","norming","","","","","","",""
"8309.005000002799","","","post_mooney1_questions","survey-likert","148","692701","0.0-6.0-2.20","3134532","co38389","norming","","","{""curiosity"":5,""confidence"":1}","[0,1]","../img/tt/194tt.jpg","",""
"9437.5","","","recognition","survey-text","149","702140","0.0-6.0-3.20","3134532","co38389","norming","","","{""guess"":""vrouw op bus""}","","../img/tt/194tt.jpg","",""
"null","../img/gs/194gs.jpg","null","reveal","image-keyboard-response","150","704145","0.0-6.0-4.20","3134532","co38389","norming","","","","","","",""
"null","../img/tt/194tt.jpg","null","mooney2","image-keyboard-response","151","706151","0.0-6.0-5.20","3134532","co38389","norming","","","","","","",""
"4067.940000008093","","","post_reveal_questions","survey-likert","152","710221","0.0-6.0-6.20","3134532","co38389","norming","","","{""aha"":5}","[0]","../img/tt/194tt.jpg","",""
"null","<div style=""font-size:60px;""> </div>","null","fixation","html-keyboard-response","153","710426","0.0-6.0-0.21","3134532","co38389","norming","","","","","","",""
"null","../img/tt/418tt.jpg","null","mooney1","image-keyboard-response","154","713429","0.0-6.0-1.21","3134532","co38389","norming","","","","","","",""
"5549.899999998161","","","post_mooney1_questions","survey-likert","155","718981","0.0-6.0-2.21","3134532","co38389","norming","","","{""curiosity"":6,""confidence"":0}","[0,1]","../img/tt/418tt.jpg","",""
"845.9700000094017","","","recognition","survey-text","156","719829","0.0-6.0-3.21","3134532","co38389","norming","","","{""guess"":""""}","","../img/tt/418tt.jpg","",""
"null","../img/gs/418gs.jpg","null","reveal","image-keyboard-response","157","721831","0.0-6.0-4.21","3134532","co38389","norming","","","","","","",""
"null","../img/tt/418tt.jpg","null","mooney2","image-keyboard-response","158","723840","0.0-6.0-5.21","3134532","co38389","norming","","","","","","",""
"2356.03500000434","","","post_reveal_questions","survey-likert","159","726198","0.0-6.0-6.21","3134532","co38389","norming","","","{""aha"":6}","[0]","../img/tt/418tt.jpg","",""
"null","<div style=""font-size:60px;""> </div>","null","fixation","html-keyboard-response","160","726403","0.0-6.0-0.22","3134532","co38389","norming","","","","","","",""
"null","../img/tt/1046tt.jpg","null","mooney1","image-keyboard-response","161","729407","0.0-6.0-1.22","3134532","co38389","norming","","","","","","",""
"5867.790000003879","","","post_mooney1_questions","survey-likert","162","735278","0.0-6.0-2.22","3134532","co38389","norming","","","{""curiosity"":3,""confidence"":3}","[0,1]","../img/tt/1046tt.jpg","",""
"3134.23499999044","","","recognition","survey-text","163","738414","0.0-6.0-3.22","3134532","co38389","norming","","","{""guess"":""pizza""}","","../img/tt/1046tt.jpg","",""
"null","../img/gs/1046gs.jpg","null","reveal","image-keyboard-response","164","740416","0.0-6.0-4.22","3134532","co38389","norming","","","","","","",""
"null","../img/tt/1046tt.jpg","null","mooney2","image-keyboard-response","165","742425","0.0-6.0-5.22","3134532","co38389","norming","","","","","","",""
"1698.6150000011548","","","post_reveal_questions","survey-likert","166","744126","0.0-6.0-6.22","3134532","co38389","norming","","","{""aha"":1}","[0]","../img/tt/1046tt.jpg","",""
"null","<div style=""font-size:60px;""> </div>","null","fixation","html-keyboard-response","167","744328","0.0-6.0-0.23","3134532","co38389","norming","","","","","","",""
"null","../img/tt/1186tt.jpg","null","mooney1","image-keyboard-response","168","747330","0.0-6.0-1.23","3134532","co38389","norming","","","","","","",""
"5825.865000006161","","","post_mooney1_questions","survey-likert","169","753158","0.0-6.0-2.23","3134532","co38389","norming","","","{""curiosity"":2,""confidence"":5}","[0,1]","../img/tt/1186tt.jpg","",""
"5677.8400000039255","","","recognition","survey-text","170","758838","0.0-6.0-3.23","3134532","co38389","norming","","","{""guess"":""inline-skaten""}","","../img/tt/1186tt.jpg","",""
"null","../img/gs/1186gs.jpg","null","reveal","image-keyboard-response","171","760844","0.0-6.0-4.23","3134532","co38389","norming","","","","","","",""
"null","../img/tt/1186tt.jpg","null","mooney2","image-keyboard-response","172","762852","0.0-6.0-5.23","3134532","co38389","norming","","","","","","",""
"2456.0050000000047","","","post_reveal_questions","survey-likert","173","765310","0.0-6.0-6.23","3134532","co38389","norming","","","{""aha"":1}","[0]","../img/tt/1186tt.jpg","",""
"null","<div style=""font-size:60px;""> </div>","null","fixation","html-keyboard-response","174","765514","0.0-6.0-0.24","3134532","co38389","norming","","","","","","",""
"null","../img/tt/273tt.jpg","null","mooney1","image-keyboard-response","175","768519","0.0-6.0-1.24","3134532","co38389","norming","","","","","","",""
"4348.379999995814","","","post_mooney1_questions","survey-likert","176","772870","0.0-6.0-2.24","3134532","co38389","norming","","","{""curiosity"":1,""confidence"":4}","[0,1]","../img/tt/273tt.jpg","",""
"5374.005000005127","","","recognition","survey-text","177","778246","0.0-6.0-3.24","3134532","co38389","norming","","","{""guess"":""mond met blokjes""}","","../img/tt/273tt.jpg","",""
"null","../img/gs/273gs.jpg","null","reveal","image-keyboard-response","178","780252","0.0-6.0-4.24","3134532","co38389","norming","","","","","","",""
"null","../img/tt/273tt.jpg","null","mooney2","image-keyboard-response","179","782263","0.0-6.0-5.24","3134532","co38389","norming","","","","","","",""
"2709.3949999980396","","","post_reveal_questions","survey-likert","180","784975","0.0-6.0-6.24","3134532","co38389","norming","","","{""aha"":0}","[0]","../img/tt/273tt.jpg","",""
"null","<div style=""font-size:60px;""> </div>","null","fixation","html-keyboard-response","181","785176","0.0-6.0-0.25","3134532","co38389","norming","","","","","","",""
"null","../img/tt/1040tt.jpg","null","mooney1","image-keyboard-response","182","788180","0.0-6.0-1.25","3134532","co38389","norming","","","","","","",""
"5135.90499998827","","","post_mooney1_questions","survey-likert","183","793319","0.0-6.0-2.25","3134532","co38389","norming","","","{""curiosity"":5,""confidence"":0}","[0,1]","../img/tt/1040tt.jpg","",""
"565.6849999941187","","","recognition","survey-text","184","793887","0.0-6.0-3.25","3134532","co38389","norming","","","{""guess"":""""}","","../img/tt/1040tt.jpg","",""
"null","../img/gs/1040gs.jpg","null","reveal","image-keyboard-response","185","795895","0.0-6.0-4.25","3134532","co38389","norming","","","","","","",""
"null","../img/tt/1040tt.jpg","null","mooney2","image-keyboard-response","186","797906","0.0-6.0-5.25","3134532","co38389","norming","","","","","","",""
"3666.7249999882188","","","post_reveal_questions","survey-likert","187","801575","0.0-6.0-6.25","3134532","co38389","norming","","","{""aha"":6}","[0]","../img/tt/1040tt.jpg","",""
"null","<div style=""font-size:60px;""> </div>","null","fixation","html-keyboard-response","188","801785","0.0-6.0-0.26","3134532","co38389","norming","","","","","","",""
"null","../img/tt/1118tt.jpg","null","mooney1","image-keyboard-response","189","804793","0.0-6.0-1.26","3134532","co38389","norming","","","","","","",""
"7482.845000005909","","","post_mooney1_questions","survey-likert","190","812279","0.0-6.0-2.26","3134532","co38389","norming","","","{""curiosity"":4,""confidence"":0}","[0,1]","../img/tt/1118tt.jpg","",""
"3614.014999999199","","","recognition","survey-text","191","815895","0.0-6.0-3.26","3134532","co38389","norming","","","{""guess"":""motorfiets""}","","../img/tt/1118tt.jpg","",""
"null","../img/gs/1118gs.jpg","null","reveal","image-keyboard-response","192","817900","0.0-6.0-4.26","3134532","co38389","norming","","","","","","",""
"null","../img/tt/1118tt.jpg","null","mooney2","image-keyboard-response","193","819911","0.0-6.0-5.26","3134532","co38389","norming","","","","","","",""
"3294.0699999890057","","","post_reveal_questions","survey-likert","194","823207","0.0-6.0-6.26","3134532","co38389","norming","","","{""aha"":5}","[0]","../img/tt/1118tt.jpg","",""
"null","<div style=""font-size:60px;""> </div>","null","fixation","html-keyboard-response","195","823408","0.0-6.0-0.27","3134532","co38389","norming","","","","","","",""
"null","../img/tt/1255tt.jpg","null","mooney1","image-keyboard-response","196","826416","0.0-6.0-1.27","3134532","co38389","norming","","","","","","",""
"5516.285000005155","","","post_mooney1_questions","survey-likert","197","831935","0.0-6.0-2.27","3134532","co38389","norming","","","{""curiosity"":5,""confidence"":0}","[0,1]","../img/tt/1255tt.jpg","",""
"573.820000005071","","","recognition","survey-text","198","832510","0.0-6.0-3.27","3134532","co38389","norming","","","{""guess"":""""}","","../img/tt/1255tt.jpg","",""
"null","../img/gs/1255gs.jpg","null","reveal","image-keyboard-response","199","834515","0.0-6.0-4.27","3134532","co38389","norming","","","","","","",""
"null","../img/tt/1255tt.jpg","null","mooney2","image-keyboard-response","200","836523","0.0-6.0-5.27","3134532","co38389","norming","","","","","","",""
"3545.3750000015134","","","post_reveal_questions","survey-likert","201","840071","0.0-6.0-6.27","3134532","co38389","norming","","","{""aha"":1}","[0]","../img/tt/1255tt.jpg","",""
"null","<div style=""font-size:60px;""> </div>","null","fixation","html-keyboard-response","202","840272","0.0-6.0-0.28","3134532","co38389","norming","","","","","","",""
"null","../img/tt/496tt.jpg","null","mooney1","image-keyboard-response","203","843275","0.0-6.0-1.28","3134532","co38389","norming","","","","","","",""
"4609.6399999951245","","","post_mooney1_questions","survey-likert","204","847887","0.0-6.0-2.28","3134532","co38389","norming","","","{""curiosity"":2,""confidence"":5}","[0,1]","../img/tt/496tt.jpg","",""
"2870.2550000016345","","","recognition","survey-text","205","850759","0.0-6.0-3.28","3134532","co38389","norming","","","{""guess"":""hond""}","","../img/tt/496tt.jpg","",""
"null","../img/gs/496gs.jpg","null","reveal","image-keyboard-response","206","852761","0.0-6.0-4.28","3134532","co38389","norming","","","","","","",""
"null","../img/tt/496tt.jpg","null","mooney2","image-keyboard-response","207","854766","0.0-6.0-5.28","3134532","co38389","norming","","","","","","",""
"2055.1350000023376","","","post_reveal_questions","survey-likert","208","856823","0.0-6.0-6.28","3134532","co38389","norming","","","{""aha"":1}","[0]","../img/tt/496tt.jpg","",""
"null","<div style=""font-size:60px;""> </div>","null","fixation","html-keyboard-response","209","857024","0.0-6.0-0.29","3134532","co38389","norming","","","","","","",""
"null","../img/tt/098tt.jpg","null","mooney1","image-keyboard-response","210","860034","0.0-6.0-1.29","3134532","co38389","norming","","","","","","",""
"5548.220000011497","","","post_mooney1_questions","survey-likert","211","865584","0.0-6.0-2.29","3134532","co38389","norming","","","{""curiosity"":4,""confidence"":0}","[0,1]","../img/tt/098tt.jpg","",""
"4110.189999992144","","","recognition","survey-text","212","869695","0.0-6.0-3.29","3134532","co38389","norming","","","{""guess"":""olifant""}","","../img/tt/098tt.jpg","",""
"null","../img/gs/098gs.jpg","null","reveal","image-keyboard-response","213","871699","0.0-6.0-4.29","3134532","co38389","norming","","","","","","",""
"null","../img/tt/098tt.jpg","null","mooney2","image-keyboard-response","214","873702","0.0-6.0-5.29","3134532","co38389","norming","","","","","","",""
"3551.4300000068033","","","post_reveal_questions","survey-likert","215","877255","0.0-6.0-6.29","3134532","co38389","norming","","","{""aha"":2}","[0]","../img/tt/098tt.jpg","",""
"null","<div style=""font-size:60px;""> </div>","null","fixation","html-keyboard-response","216","877460","0.0-6.0-0.30","3134532","co38389","norming","","","","","","",""
"null","../img/tt/1156tt.jpg","null","mooney1","image-keyboard-response","217","880465","0.0-6.0-1.30","3134532","co38389","norming","","","","","","",""
"7635.8150000014575","","","post_mooney1_questions","survey-likert","218","888103","0.0-6.0-2.30","3134532","co38389","norming","","","{""curiosity"":3,""confidence"":4}","[0,1]","../img/tt/1156tt.jpg","",""
"7581.944999998086","","","recognition","survey-text","219","895687","0.0-6.0-3.30","3134532","co38389","norming","","","{""guess"":""zonnebaden""}","","../img/tt/1156tt.jpg","",""
"null","../img/gs/1156gs.jpg","null","reveal","image-keyboard-response","220","897696","0.0-6.0-4.30","3134532","co38389","norming","","","","","","",""
"null","../img/tt/1156tt.jpg","null","mooney2","image-keyboard-response","221","899704","0.0-6.0-5.30","3134532","co38389","norming","","","","","","",""
"5525.775000001886","","","post_reveal_questions","survey-likert","222","905226","0.0-6.0-6.30","3134532","co38389","norming","","","{""aha"":4}","[0]","../img/tt/1156tt.jpg","",""
"null","<div style=""font-size:60px;""> </div>","null","fixation","html-keyboard-response","223","905434","0.0-6.0-0.31","3134532","co38389","norming","","","","","","",""
"null","../img/tt/189tt.jpg","null","mooney1","image-keyboard-response","224","908445","0.0-6.0-1.31","3134532","co38389","norming","","","","","","",""
"9707.775000002584","","","post_mooney1_questions","survey-likert","225","918155","0.0-6.0-2.31","3134532","co38389","norming","","","{""curiosity"":5,""confidence"":1}","[0,1]","../img/tt/189tt.jpg","",""
"4477.8950000036275","","","recognition","survey-text","226","922634","0.0-6.0-3.31","3134532","co38389","norming","","","{""guess"":""surfplank""}","","../img/tt/189tt.jpg","",""
"null","../img/gs/189gs.jpg","null","reveal","image-keyboard-response","227","924636","0.0-6.0-4.31","3134532","co38389","norming","","","","","","",""
"null","../img/tt/189tt.jpg","null","mooney2","image-keyboard-response","228","926643","0.0-6.0-5.31","3134532","co38389","norming","","","","","","",""
"2516.8499999999767","","","post_reveal_questions","survey-likert","229","929162","0.0-6.0-6.31","3134532","co38389","norming","","","{""aha"":5}","[0]","../img/tt/189tt.jpg","",""
"null","<div style=""font-size:60px;""> </div>","null","fixation","html-keyboard-response","230","929369","0.0-6.0-0.32","3134532","co38389","norming","","","","","","",""
"null","../img/tt/468tt.jpg","null","mooney1","image-keyboard-response","231","932373","0.0-6.0-1.32","3134532","co38389","norming","","","","","","",""
"3755.254999996396","","","post_mooney1_questions","survey-likert","232","936131","0.0-6.0-2.32","3134532","co38389","norming","","","{""curiosity"":6,""confidence"":0}","[0,1]","../img/tt/468tt.jpg","",""
"1157.760000001872","","","recognition","survey-text","233","937290","0.0-6.0-3.32","3134532","co38389","norming","","","{""guess"":""""}","","../img/tt/468tt.jpg","",""
"null","../img/gs/468gs.jpg","null","reveal","image-keyboard-response","234","939299","0.0-6.0-4.32","3134532","co38389","norming","","","","","","",""
"null","../img/tt/468tt.jpg","null","mooney2","image-keyboard-response","235","941301","0.0-6.0-5.32","3134532","co38389","norming","","","","","","",""
"4370.04499998875","","","post_reveal_questions","survey-likert","236","945675","0.0-6.0-6.32","3134532","co38389","norming","","","{""aha"":5}","[0]","../img/tt/468tt.jpg","",""
"null","<div style=""font-size:60px;""> </div>","null","fixation","html-keyboard-response","237","945880","0.0-6.0-0.33","3134532","co38389","norming","","","","","","",""
"null","../img/tt/121tt.jpg","null","mooney1","image-keyboard-response","238","948886","0.0-6.0-1.33","3134532","co38389","norming","","","","","","",""
"5297.935000009602","","","post_mooney1_questions","survey-likert","239","954187","0.0-6.0-2.33","3134532","co38389","norming","","","{""curiosity"":3,""confidence"":0}","[0,1]","../img/tt/121tt.jpg","",""
"6837.809999997262","","","recognition","survey-text","240","961026","0.0-6.0-3.33","3134532","co38389","norming","","","{""guess"":""kano""}","","../img/tt/121tt.jpg","",""
"null","../img/gs/121gs.jpg","null","reveal","image-keyboard-response","241","963034","0.0-6.0-4.33","3134532","co38389","norming","","","","","","",""
"null","../img/tt/121tt.jpg","null","mooney2","image-keyboard-response","242","965047","0.0-6.0-5.33","3134532","co38389","norming","","","","","","",""
"3696.430000010878","","","post_reveal_questions","survey-likert","243","968745","0.0-6.0-6.33","3134532","co38389","norming","","","{""aha"":6}","[0]","../img/tt/121tt.jpg","",""
"null","<div style=""font-size:60px;""> </div>","null","fixation","html-keyboard-response","244","968946","0.0-6.0-0.34","3134532","co38389","norming","","","","","","",""
"null","../img/tt/567tt.jpg","null","mooney1","image-keyboard-response","245","971955","0.0-6.0-1.34","3134532","co38389","norming","","","","","","",""
"4420.704999996815","","","post_mooney1_questions","survey-likert","246","976377","0.0-6.0-2.34","3134532","co38389","norming","","","{""curiosity"":3,""confidence"":3}","[0,1]","../img/tt/567tt.jpg","",""
"3605.9300000051735","","","recognition","survey-text","247","979985","0.0-6.0-3.34","3134532","co38389","norming","","","{""guess"":""toaster""}","","../img/tt/567tt.jpg","",""
"null","../img/gs/567gs.jpg","null","reveal","image-keyboard-response","248","981988","0.0-6.0-4.34","3134532","co38389","norming","","","","","","",""
"null","../img/tt/567tt.jpg","null","mooney2","image-keyboard-response","249","983998","0.0-6.0-5.34","3134532","co38389","norming","","","","","","",""
"2600.1799999939976","","","post_reveal_questions","survey-likert","250","986600","0.0-6.0-6.34","3134532","co38389","norming","","","{""aha"":2}","[0]","../img/tt/567tt.jpg","",""
"null","<div style=""font-size:60px;""> </div>","null","fixation","html-keyboard-response","251","986808","0.0-6.0-0.35","3134532","co38389","norming","","","","","","",""
"null","../img/tt/076tt.jpg","null","mooney1","image-keyboard-response","252","989809","0.0-6.0-1.35","3134532","co38389","norming","","","","","","",""
"6276.920000003884","","","post_mooney1_questions","survey-likert","253","996089","0.0-6.0-2.35","3134532","co38389","norming","","","{""curiosity"":2,""confidence"":4}","[0,1]","../img/tt/076tt.jpg","",""
"5078.095000004396","","","recognition","survey-text","254","1001169","0.0-6.0-3.35","3134532","co38389","norming","","","{""guess"":""inline-skate""}","","../img/tt/076tt.jpg","",""
"null","../img/gs/076gs.jpg","null","reveal","image-keyboard-response","255","1003174","0.0-6.0-4.35","3134532","co38389","norming","","","","","","",""
"null","../img/tt/076tt.jpg","null","mooney2","image-keyboard-response","256","1005185","0.0-6.0-5.35","3134532","co38389","norming","","","","","","",""
"4276.920000003884","","","post_reveal_questions","survey-likert","257","1009464","0.0-6.0-6.35","3134532","co38389","norming","","","{""aha"":1}","[0]","../img/tt/076tt.jpg","",""
"null","<div style=""font-size:60px;""> </div>","null","fixation","html-keyboard-response","258","1009665","0.0-6.0-0.36","3134532","co38389","norming","","","","","","",""
"null","../img/tt/1173tt.jpg","null","mooney1","image-keyboard-response","259","1012667","0.0-6.0-1.36","3134532","co38389","norming","","","","","","",""
"5828.2449999969685","","","post_mooney1_questions","survey-likert","260","1018496","0.0-6.0-2.36","3134532","co38389","norming","","","{""curiosity"":3,""confidence"":1}","[0,1]","../img/tt/1173tt.jpg","",""
"3549.845000001369","","","recognition","survey-text","261","1022048","0.0-6.0-3.36","3134532","co38389","norming","","","{""guess"":""turnen""}","","../img/tt/1173tt.jpg","",""
"null","../img/gs/1173gs.jpg","null","reveal","image-keyboard-response","262","1024053","0.0-6.0-4.36","3134532","co38389","norming","","","","","","",""
"null","../img/tt/1173tt.jpg","null","mooney2","image-keyboard-response","263","1026056","0.0-6.0-5.36","3134532","co38389","norming","","","","","","",""
"4544.630000003963","","","post_reveal_questions","survey-likert","264","1030601","0.0-6.0-6.36","3134532","co38389","norming","","","{""aha"":4}","[0]","../img/tt/1173tt.jpg","",""
"null","<div style=""font-size:60px;""> </div>","null","fixation","html-keyboard-response","265","1030804","0.0-6.0-0.37","3134532","co38389","norming","","","","","","",""
"null","../img/tt/1262tt.jpg","null","mooney1","image-keyboard-response","266","1033814","0.0-6.0-1.37","3134532","co38389","norming","","","","","","",""
"4666.42999999749","","","post_mooney1_questions","survey-likert","267","1038482","0.0-6.0-2.37","3134532","co38389","norming","","","{""curiosity"":4,""confidence"":0}","[0,1]","../img/tt/1262tt.jpg","",""
"1005.6349999940721","","","recognition","survey-text","268","1039489","0.0-6.0-3.37","3134532","co38389","norming","","","{""guess"":""""}","","../img/tt/1262tt.jpg","",""
"null","../img/gs/1262gs.jpg","null","reveal","image-keyboard-response","269","1041495","0.0-6.0-4.37","3134532","co38389","norming","","","","","","",""
"null","../img/tt/1262tt.jpg","null","mooney2","image-keyboard-response","270","1043502","0.0-6.0-5.37","3134532","co38389","norming","","","","","","",""
"2474.25500000827","","","post_reveal_questions","survey-likert","271","1045977","0.0-6.0-6.37","3134532","co38389","norming","","","{""aha"":5}","[0]","../img/tt/1262tt.jpg","",""
"null","<div style=""font-size:60px;""> </div>","null","fixation","html-keyboard-response","272","1046186","0.0-6.0-0.38","3134532","co38389","norming","","","","","","",""
"null","../img/tt/357tt.jpg","null","mooney1","image-keyboard-response","273","1049191","0.0-6.0-1.38","3134532","co38389","norming","","","","","","",""
"7785.519999990473","","","post_mooney1_questions","survey-likert","274","1056978","0.0-6.0-2.38","3134532","co38389","norming","","","{""curiosity"":4,""confidence"":0}","[0,1]","../img/tt/357tt.jpg","",""
"741.6500000108499","","","recognition","survey-text","275","1057721","0.0-6.0-3.38","3134532","co38389","norming","","","{""guess"":""""}","","../img/tt/357tt.jpg","",""
"null","../img/gs/357gs.jpg","null","reveal","image-keyboard-response","276","1059729","0.0-6.0-4.38","3134532","co38389","norming","","","","","","",""
"null","../img/tt/357tt.jpg","null","mooney2","image-keyboard-response","277","1061732","0.0-6.0-5.38","3134532","co38389","norming","","","","","","",""
"1668.0250000061933","","","post_reveal_questions","survey-likert","278","1063402","0.0-6.0-6.38","3134532","co38389","norming","","","{""aha"":6}","[0]","../img/tt/357tt.jpg","",""
"null","<div style=""font-size:60px;""> </div>","null","fixation","html-keyboard-response","279","1063612","0.0-6.0-0.39","3134532","co38389","norming","","","","","","",""
"null","../img/tt/1237tt.jpg","null","mooney1","image-keyboard-response","280","1066616","0.0-6.0-1.39","3134532","co38389","norming","","","","","","",""
"5696.184999993537","","","post_mooney1_questions","survey-likert","281","1072314","0.0-6.0-2.39","3134532","co38389","norming","","","{""curiosity"":2,""confidence"":5}","[0,1]","../img/tt/1237tt.jpg","",""
"3525.9950000033714","","","recognition","survey-text","282","1075841","0.0-6.0-3.39","3134532","co38389","norming","","","{""guess"":""eend""}","","../img/tt/1237tt.jpg","",""
"null","../img/gs/1237gs.jpg","null","reveal","image-keyboard-response","283","1077850","0.0-6.0-4.39","3134532","co38389","norming","","","","","","",""
"null","../img/tt/1237tt.jpg","null","mooney2","image-keyboard-response","284","1079854","0.0-6.0-5.39","3134532","co38389","norming","","","","","","",""
"2290.550000004936","","","post_reveal_questions","survey-likert","285","1082145","0.0-6.0-6.39","3134532","co38389","norming","","","{""aha"":0}","[0]","../img/tt/1237tt.jpg","",""
"null","<div style=""font-size:60px;""> </div>","null","fixation","html-keyboard-response","286","1082348","0.0-6.0-0.40","3134532","co38389","norming","","","","","","",""
"null","../img/tt/1236tt.jpg","null","mooney1","image-keyboard-response","287","1085355","0.0-6.0-1.40","3134532","co38389","norming","","","","","","",""
"6524.835000003921","","","post_mooney1_questions","survey-likert","288","1091882","0.0-6.0-2.40","3134532","co38389","norming","","","{""curiosity"":4,""confidence"":0}","[0,1]","../img/tt/1236tt.jpg","",""
"12901.935000001453","","","recognition","survey-text","289","1104785","0.0-6.0-3.40","3134532","co38389","norming","","","{""guess"":""pingun""}","","../img/tt/1236tt.jpg","",""
"null","../img/gs/1236gs.jpg","null","reveal","image-keyboard-response","290","1106792","0.0-6.0-4.40","3134532","co38389","norming","","","","","","",""
"null","../img/tt/1236tt.jpg","null","mooney2","image-keyboard-response","291","1108799","0.0-6.0-5.40","3134532","co38389","norming","","","","","","",""
"5433.440000008093","","","post_reveal_questions","survey-likert","292","1114234","0.0-6.0-6.40","3134532","co38389","norming","","","{""aha"":3}","[0]","../img/tt/1236tt.jpg","",""
"null","<div style=""font-size:60px;""> </div>","null","fixation","html-keyboard-response","293","1114435","0.0-6.0-0.41","3134532","co38389","norming","","","","","","",""
"null","../img/tt/1055tt.jpg","null","mooney1","image-keyboard-response","294","1117437","0.0-6.0-1.41","3134532","co38389","norming","","","","","","",""
"3235.8099999981932","","","post_mooney1_questions","survey-likert","295","1120674","0.0-6.0-2.41","3134532","co38389","norming","","","{""curiosity"":5,""confidence"":0}","[0,1]","../img/tt/1055tt.jpg","",""
"957.7399999978952","","","recognition","survey-text","296","1121633","0.0-6.0-3.41","3134532","co38389","norming","","","{""guess"":""""}","","../img/tt/1055tt.jpg","",""
"null","../img/gs/1055gs.jpg","null","reveal","image-keyboard-response","297","1123637","0.0-6.0-4.41","3134532","co38389","norming","","","","","","",""
"null","../img/tt/1055tt.jpg","null","mooney2","image-keyboard-response","298","1125642","0.0-6.0-5.41","3134532","co38389","norming","","","","","","",""
"1670.0399999972433","","","post_reveal_questions","survey-likert","299","1127313","0.0-6.0-6.41","3134532","co38389","norming","","","{""aha"":2}","[0]","../img/tt/1055tt.jpg","",""
"null","<div style=""font-size:60px;""> </div>","null","fixation","html-keyboard-response","300","1127516","0.0-6.0-0.42","3134532","co38389","norming","","","","","","",""
"null","../img/tt/055tt.jpg","null","mooney1","image-keyboard-response","301","1130517","0.0-6.0-1.42","3134532","co38389","norming","","","","","","",""
"4147.409999990603","","","post_mooney1_questions","survey-likert","302","1134666","0.0-6.0-2.42","3134532","co38389","norming","","","{""curiosity"":4,""confidence"":0}","[0,1]","../img/tt/055tt.jpg","",""
"638.1350000011735","","","recognition","survey-text","303","1135305","0.0-6.0-3.42","3134532","co38389","norming","","","{""guess"":""""}","","../img/tt/055tt.jpg","",""
"null","../img/gs/055gs.jpg","null","reveal","image-keyboard-response","304","1137315","0.0-6.0-4.42","3134532","co38389","norming","","","","","","",""
"null","../img/tt/055tt.jpg","null","mooney2","image-keyboard-response","305","1139317","0.0-6.0-5.42","3134532","co38389","norming","","","","","","",""
"1723.0699999928474","","","post_reveal_questions","survey-likert","306","1141042","0.0-6.0-6.42","3134532","co38389","norming","","","{""aha"":2}","[0]","../img/tt/055tt.jpg","",""
"null","<div style=""font-size:60px;""> </div>","null","fixation","html-keyboard-response","307","1141245","0.0-6.0-0.43","3134532","co38389","norming","","","","","","",""
"null","../img/tt/1146tt.jpg","null","mooney1","image-keyboard-response","308","1144253","0.0-6.0-1.43","3134532","co38389","norming","","","","","","",""
"5003.035000001546","","","post_mooney1_questions","survey-likert","309","1149258","0.0-6.0-2.43","3134532","co38389","norming","","","{""curiosity"":5,""confidence"":1}","[0,1]","../img/tt/1146tt.jpg","",""
"4790.054999990389","","","recognition","survey-text","310","1154042","0.0-6.0-3.43","3134532","co38389","norming","","","{""guess"":""boogschieten""}","","../img/tt/1146tt.jpg","",""
"null","../img/gs/1146gs.jpg","null","reveal","image-keyboard-response","311","1156045","0.0-6.0-4.43","3134532","co38389","norming","","","","","","",""
"null","../img/tt/1146tt.jpg","null","mooney2","image-keyboard-response","312","1158051","0.0-6.0-5.43","3134532","co38389","norming","","","","","","",""
"3326.4699999997392","","","post_reveal_questions","survey-likert","313","1161378","0.0-6.0-6.43","3134532","co38389","norming","","","{""aha"":4}","[0]","../img/tt/1146tt.jpg","",""
"null","<div style=""font-size:60px;""> </div>","null","fixation","html-keyboard-response","314","1161580","0.0-6.0-0.44","3134532","co38389","norming","","","","","","",""
"null","../img/tt/036tt.jpg","null","mooney1","image-keyboard-response","315","1164590","0.0-6.0-1.44","3134532","co38389","norming","","","","","","",""
"6875.530000004917","","","post_mooney1_questions","survey-likert","316","1171466","0.0-6.0-2.44","3134532","co38389","norming","","","{""curiosity"":4,""confidence"":1}","[0,1]","../img/tt/036tt.jpg","",""
"6701.329999996349","","","recognition","survey-text","317","1178170","0.0-6.0-3.44","3134532","co38389","norming","","","{""guess"":""celweefsel""}","","../img/tt/036tt.jpg","",""
"null","../img/gs/036gs.jpg","null","reveal","image-keyboard-response","318","1180179","0.0-6.0-4.44","3134532","co38389","norming","","","","","","",""
"null","../img/tt/036tt.jpg","null","mooney2","image-keyboard-response","319","1182186","0.0-6.0-5.44","3134532","co38389","norming","","","","","","",""
"3735.3650000004563","","","post_reveal_questions","survey-likert","320","1185922","0.0-6.0-6.44","3134532","co38389","norming","","","{""aha"":3}","[0]","../img/tt/036tt.jpg","",""
"null","<div style=""font-size:60px;""> </div>","null","fixation","html-keyboard-response","321","1186128","0.0-6.0-0.45","3134532","co38389","norming","","","","","","",""
"null","../img/tt/108tt.jpg","null","mooney1","image-keyboard-response","322","1189135","0.0-6.0-1.45","3134532","co38389","norming","","","","","","",""
"6378.734999991255","","","post_mooney1_questions","survey-likert","323","1195515","0.0-6.0-2.45","3134532","co38389","norming","","","{""curiosity"":2,""confidence"":0}","[0,1]","../img/tt/108tt.jpg","",""
"581.5949999960139","","","recognition","survey-text","324","1196098","0.0-6.0-3.45","3134532","co38389","norming","","","{""guess"":""""}","","../img/tt/108tt.jpg","",""
"null","../img/gs/108gs.jpg","null","reveal","image-keyboard-response","325","1198100","0.0-6.0-4.45","3134532","co38389","norming","","","","","","",""
"null","../img/tt/108tt.jpg","null","mooney2","image-keyboard-response","326","1200105","0.0-6.0-5.45","3134532","co38389","norming","","","","","","",""
"3568.509999997448","","","post_reveal_questions","survey-likert","327","1203674","0.0-6.0-6.45","3134532","co38389","norming","","","{""aha"":1}","[0]","../img/tt/108tt.jpg","",""
"null","<div style=""font-size:60px;""> </div>","null","fixation","html-keyboard-response","328","1203884","0.0-6.0-0.46","3134532","co38389","norming","","","","","","",""
"null","../img/tt/1353tt.jpg","null","mooney1","image-keyboard-response","329","1206889","0.0-6.0-1.46","3134532","co38389","norming","","","","","","",""
"5367.615000010002","","","post_mooney1_questions","survey-likert","330","1212266","0.0-6.0-2.46","3134532","co38389","norming","","","{""curiosity"":6,""confidence"":0}","[0,1]","../img/tt/1353tt.jpg","",""
"909.9949999945238","","","recognition","survey-text","331","1213177","0.0-6.0-3.46","3134532","co38389","norming","","","{""guess"":""""}","","../img/tt/1353tt.jpg","",""
"null","../img/gs/1353gs.jpg","null","reveal","image-keyboard-response","332","1215180","0.0-6.0-4.46","3134532","co38389","norming","","","","","","",""
"null","../img/tt/1353tt.jpg","null","mooney2","image-keyboard-response","333","1217182","0.0-6.0-5.46","3134532","co38389","norming","","","","","","",""
"2818.910000001779","","","post_reveal_questions","survey-likert","334","1220002","0.0-6.0-6.46","3134532","co38389","norming","","","{""aha"":6}","[0]","../img/tt/1353tt.jpg","",""
"null","<div style=""font-size:60px;""> </div>","null","fixation","html-keyboard-response","335","1220204","0.0-6.0-0.47","3134532","co38389","norming","","","","","","",""
"null","../img/tt/010tt.jpg","null","mooney1","image-keyboard-response","336","1223214","0.0-6.0-1.47","3134532","co38389","norming","","","","","","",""
"6066.364999991609","","","post_mooney1_questions","survey-likert","337","1229282","0.0-6.0-2.47","3134532","co38389","norming","","","{""curiosity"":5,""confidence"":0}","[0,1]","../img/tt/010tt.jpg","",""
"3613.5549999889918","","","recognition","survey-text","338","1232897","0.0-6.0-3.47","3134532","co38389","norming","","","{""guess"":""hand""}","","../img/tt/010tt.jpg","",""
"null","../img/gs/010gs.jpg","null","reveal","image-keyboard-response","339","1234904","0.0-6.0-4.47","3134532","co38389","norming","","","","","","",""
"null","../img/tt/010tt.jpg","null","mooney2","image-keyboard-response","340","1236914","0.0-6.0-5.47","3134532","co38389","norming","","","","","","",""
"2790.2349999928847","","","post_reveal_questions","survey-likert","341","1239706","0.0-6.0-6.47","3134532","co38389","norming","","","{""aha"":1}","[0]","../img/tt/010tt.jpg","",""
"null","<div style=""font-size:60px;""> </div>","null","fixation","html-keyboard-response","342","1239913","0.0-6.0-0.48","3134532","co38389","norming","","","","","","",""
"null","../img/tt/1243tt.jpg","null","mooney1","image-keyboard-response","343","1242919","0.0-6.0-1.48","3134532","co38389","norming","","","","","","",""
"4353.669999996899","","","post_mooney1_questions","survey-likert","344","1247274","0.0-6.0-2.48","3134532","co38389","norming","","","{""curiosity"":2,""confidence"":3}","[0,1]","../img/tt/1243tt.jpg","",""
"3029.4599999906495","","","recognition","survey-text","345","1250305","0.0-6.0-3.48","3134532","co38389","norming","","","{""guess"":""aap""}","","../img/tt/1243tt.jpg","",""
"null","../img/gs/1243gs.jpg","null","reveal","image-keyboard-response","346","1252308","0.0-6.0-4.48","3134532","co38389","norming","","","","","","",""
"null","../img/tt/1243tt.jpg","null","mooney2","image-keyboard-response","347","1254310","0.0-6.0-5.48","3134532","co38389","norming","","","","","","",""
"3113.985000003595","","","post_reveal_questions","survey-likert","348","1257425","0.0-6.0-6.48","3134532","co38389","norming","","","{""aha"":3}","[0]","../img/tt/1243tt.jpg","",""
"null","<div style=""font-size:60px;""> </div>","null","fixation","html-keyboard-response","349","1257628","0.0-6.0-0.49","3134532","co38389","norming","","","","","","",""
"null","../img/tt/063tt.jpg","null","mooney1","image-keyboard-response","350","1260631","0.0-6.0-1.49","3134532","co38389","norming","","","","","","",""
"3825.3900000127032","","","post_mooney1_questions","survey-likert","351","1264457","0.0-6.0-2.49","3134532","co38389","norming","","","{""curiosity"":2,""confidence"":2}","[0,1]","../img/tt/063tt.jpg","",""
"5133.91000000434","","","recognition","survey-text","352","1269593","0.0-6.0-3.49","3134532","co38389","norming","","","{""guess"":""typewriter""}","","../img/tt/063tt.jpg","",""
"null","../img/gs/063gs.jpg","null","reveal","image-keyboard-response","353","1271599","0.0-6.0-4.49","3134532","co38389","norming","","","","","","",""
"null","../img/tt/063tt.jpg","null","mooney2","image-keyboard-response","354","1273603","0.0-6.0-5.49","3134532","co38389","norming","","","","","","",""
"3255.755000005709","","","post_reveal_questions","survey-likert","355","1276859","0.0-6.0-6.49","3134532","co38389","norming","","","{""aha"":5}","[0]","../img/tt/063tt.jpg","",""
"null","<div style=""font-size:60px;""> </div>","null","fixation","html-keyboard-response","356","1277062","0.0-6.0-0.50","3134532","co38389","norming","","","","","","",""
"null","../img/tt/1127tt.jpg","null","mooney1","image-keyboard-response","357","1280069","0.0-6.0-1.50","3134532","co38389","norming","","","","","","",""
"6477.474999992643","","","post_mooney1_questions","survey-likert","358","1286547","0.0-6.0-2.50","3134532","co38389","norming","","","{""curiosity"":4,""confidence"":1}","[0,1]","../img/tt/1127tt.jpg","",""
"8318.07500000298","","","recognition","survey-text","359","1294867","0.0-6.0-3.50","3134532","co38389","norming","","","{""guess"":""dansen""}","","../img/tt/1127tt.jpg","",""
"null","../img/gs/1127gs.jpg","null","reveal","image-keyboard-response","360","1296877","0.0-6.0-4.50","3134532","co38389","norming","","","","","","",""
"null","../img/tt/1127tt.jpg","null","mooney2","image-keyboard-response","361","1298888","0.0-6.0-5.50","3134532","co38389","norming","","","","","","",""
"4514.789999986533","","","post_reveal_questions","survey-likert","362","1303403","0.0-6.0-6.50","3134532","co38389","norming","","","{""aha"":5}","[0]","../img/tt/1127tt.jpg","",""
"null","<div style=""font-size:60px;""> </div>","null","fixation","html-keyboard-response","363","1303607","0.0-6.0-0.51","3134532","co38389","norming","","","","","","",""
"null","../img/tt/222tt.jpg","null","mooney1","image-keyboard-response","364","1306609","0.0-6.0-1.51","3134532","co38389","norming","","","","","","",""
"9929.86499999836","","","post_mooney1_questions","survey-likert","365","1316540","0.0-6.0-2.51","3134532","co38389","norming","","","{""curiosity"":2,""confidence"":1}","[0,1]","../img/tt/222tt.jpg","",""
"3389.8699999991804","","","recognition","survey-text","366","1319931","0.0-6.0-3.51","3134532","co38389","norming","","","{""guess"":""viool""}","","../img/tt/222tt.jpg","",""
"null","../img/gs/222gs.jpg","null","reveal","image-keyboard-response","367","1321933","0.0-6.0-4.51","3134532","co38389","norming","","","","","","",""
"null","../img/tt/222tt.jpg","null","mooney2","image-keyboard-response","368","1323939","0.0-6.0-5.51","3134532","co38389","norming","","","","","","",""
"5319.530000008177","","","post_reveal_questions","survey-likert","369","1329259","0.0-6.0-6.51","3134532","co38389","norming","","","{""aha"":1}","[0]","../img/tt/222tt.jpg","",""
"null","<div style=""font-size:60px;""> </div>","null","fixation","html-keyboard-response","370","1329462","0.0-6.0-0.52","3134532","co38389","norming","","","","","","",""
"null","../img/tt/1002tt.jpg","null","mooney1","image-keyboard-response","371","1332469","0.0-6.0-1.52","3134532","co38389","norming","","","","","","",""
"4805.454999994254","","","post_mooney1_questions","survey-likert","372","1337276","0.0-6.0-2.52","3134532","co38389","norming","","","{""curiosity"":4,""confidence"":0}","[0,1]","../img/tt/1002tt.jpg","",""
"4750.149999992689","","","recognition","survey-text","373","1342028","0.0-6.0-3.52","3134532","co38389","norming","","","{""guess"":""neushoorn""}","","../img/tt/1002tt.jpg","",""
"null","../img/gs/1002gs.jpg","null","reveal","image-keyboard-response","374","1344030","0.0-6.0-4.52","3134532","co38389","norming","","","","","","",""
"null","../img/tt/1002tt.jpg","null","mooney2","image-keyboard-response","375","1346031","0.0-6.0-5.52","3134532","co38389","norming","","","","","","",""
"2100.04499999946","","","post_reveal_questions","survey-likert","376","1348132","0.0-6.0-6.52","3134532","co38389","norming","","","{""aha"":3}","[0]","../img/tt/1002tt.jpg","",""
"null","<div style=""font-size:60px;""> </div>","null","fixation","html-keyboard-response","377","1348340","0.0-6.0-0.53","3134532","co38389","norming","","","","","","",""
"null","../img/tt/1096tt.jpg","null","mooney1","image-keyboard-response","378","1351347","0.0-6.0-1.53","3134532","co38389","norming","","","","","","",""
"5727.97000000719","","","post_mooney1_questions","survey-likert","379","1357076","0.0-6.0-2.53","3134532","co38389","norming","","","{""curiosity"":4,""confidence"":1}","[0,1]","../img/tt/1096tt.jpg","",""
"3613.7849999940954","","","recognition","survey-text","380","1360692","0.0-6.0-3.53","3134532","co38389","norming","","","{""guess"":""piano""}","","../img/tt/1096tt.jpg","",""
"null","../img/gs/1096gs.jpg","null","reveal","image-keyboard-response","381","1362701","0.0-6.0-4.53","3134532","co38389","norming","","","","","","",""
"null","../img/tt/1096tt.jpg","null","mooney2","image-keyboard-response","382","1364709","0.0-6.0-5.53","3134532","co38389","norming","","","","","","",""
"3221.5449999931734","","","post_reveal_questions","survey-likert","383","1367932","0.0-6.0-6.53","3134532","co38389","norming","","","{""aha"":4}","[0]","../img/tt/1096tt.jpg","",""
"null","<div style=""font-size:60px;""> </div>","null","fixation","html-keyboard-response","384","1368138","0.0-6.0-0.54","3134532","co38389","norming","","","","","","",""
"null","../img/tt/1272tt.jpg","null","mooney1","image-keyboard-response","385","1371148","0.0-6.0-1.54","3134532","co38389","norming","","","","","","",""
"6742.714999985881","","","post_mooney1_questions","survey-likert","386","1377892","0.0-6.0-2.54","3134532","co38389","norming","","","{""curiosity"":3,""confidence"":0}","[0,1]","../img/tt/1272tt.jpg","",""
"4581.840000013588","","","recognition","survey-text","387","1382476","0.0-6.0-3.54","3134532","co38389","norming","","","{""guess"":""neushoorn""}","","../img/tt/1272tt.jpg","",""
"null","../img/gs/1272gs.jpg","null","reveal","image-keyboard-response","388","1384477","0.0-6.0-4.54","3134532","co38389","norming","","","","","","",""
"null","../img/tt/1272tt.jpg","null","mooney2","image-keyboard-response","389","1386486","0.0-6.0-5.54","3134532","co38389","norming","","","","","","",""
"4956.640000003856","","","post_reveal_questions","survey-likert","390","1391444","0.0-6.0-6.54","3134532","co38389","norming","","","{""aha"":2}","[0]","../img/tt/1272tt.jpg","",""
"null","<div style=""font-size:60px;""> </div>","null","fixation","html-keyboard-response","391","1391645","0.0-6.0-0.55","3134532","co38389","norming","","","","","","",""
"null","../img/tt/1283tt.jpg","null","mooney1","image-keyboard-response","392","1394648","0.0-6.0-1.55","3134532","co38389","norming","","","","","","",""
"4796.124999993481","","","post_mooney1_questions","survey-likert","393","1399445","0.0-6.0-2.55","3134532","co38389","norming","","","{""curiosity"":2,""confidence"":1}","[0,1]","../img/tt/1283tt.jpg","",""
"3333.394999994198","","","recognition","survey-text","394","1402781","0.0-6.0-3.55","3134532","co38389","norming","","","{""guess"":""ferret""}","","../img/tt/1283tt.jpg","",""
"null","../img/gs/1283gs.jpg","null","reveal","image-keyboard-response","395","1404784","0.0-6.0-4.55","3134532","co38389","norming","","","","","","",""
"null","../img/tt/1283tt.jpg","null","mooney2","image-keyboard-response","396","1406794","0.0-6.0-5.55","3134532","co38389","norming","","","","","","",""
"4009.8200000065845","","","post_reveal_questions","survey-likert","397","1410805","0.0-6.0-6.55","3134532","co38389","norming","","","{""aha"":4}","[0]","../img/tt/1283tt.jpg","",""
"null","<div style=""font-size:60px;""> </div>","null","fixation","html-keyboard-response","398","1411007","0.0-6.0-0.56","3134532","co38389","norming","","","","","","",""
"null","../img/tt/1123tt.jpg","null","mooney1","image-keyboard-response","399","1414010","0.0-6.0-1.56","3134532","co38389","norming","","","","","","",""
"7417.714999988675","","","post_mooney1_questions","survey-likert","400","1421429","0.0-6.0-2.56","3134532","co38389","norming","","","{""curiosity"":2,""confidence"":2}","[0,1]","../img/tt/1123tt.jpg","",""
"4933.51000000257","","","recognition","survey-text","401","1426365","0.0-6.0-3.56","3134532","co38389","norming","","","{""guess"":""trefbal""}","","../img/tt/1123tt.jpg","",""
"null","../img/gs/1123gs.jpg","null","reveal","image-keyboard-response","402","1428366","0.0-6.0-4.56","3134532","co38389","norming","","","","","","",""
"null","../img/tt/1123tt.jpg","null","mooney2","image-keyboard-response","403","1430369","0.0-6.0-5.56","3134532","co38389","norming","","","","","","",""
"2473.664999997709","","","post_reveal_questions","survey-likert","404","1432845","0.0-6.0-6.56","3134532","co38389","norming","","","{""aha"":3}","[0]","../img/tt/1123tt.jpg","",""
"null","<div style=""font-size:60px;""> </div>","null","fixation","html-keyboard-response","405","1433046","0.0-6.0-0.57","3134532","co38389","norming","","","","","","",""
"null","../img/tt/1241tt.jpg","null","mooney1","image-keyboard-response","406","1436051","0.0-6.0-1.57","3134532","co38389","norming","","","","","","",""
"6535.489999994868","","","post_mooney1_questions","survey-likert","407","1442589","0.0-6.0-2.57","3134532","co38389","norming","","","{""curiosity"":3,""confidence"":1}","[0,1]","../img/tt/1241tt.jpg","",""
"2709.749999994412","","","recognition","survey-text","408","1445301","0.0-6.0-3.57","3134532","co38389","norming","","","{""guess"":""kat""}","","../img/tt/1241tt.jpg","",""
"null","../img/gs/1241gs.jpg","null","reveal","image-keyboard-response","409","1447311","0.0-6.0-4.57","3134532","co38389","norming","","","","","","",""
"null","../img/tt/1241tt.jpg","null","mooney2","image-keyboard-response","410","1449313","0.0-6.0-5.57","3134532","co38389","norming","","","","","","",""
"3353.4100000106264","","","post_reveal_questions","survey-likert","411","1452669","0.0-6.0-6.57","3134532","co38389","norming","","","{""aha"":2}","[0]","../img/tt/1241tt.jpg","",""
"null","<div style=""font-size:60px;""> </div>","null","fixation","html-keyboard-response","412","1452870","0.0-6.0-0.58","3134532","co38389","norming","","","","","","",""
"null","../img/tt/1188tt.jpg","null","mooney1","image-keyboard-response","413","1455879","0.0-6.0-1.58","3134532","co38389","norming","","","","","","",""
"7866.339999993332","","","post_mooney1_questions","survey-likert","414","1463749","0.0-6.0-2.58","3134532","co38389","norming","","","{""curiosity"":1,""confidence"":1}","[0,1]","../img/tt/1188tt.jpg","",""
"5846.275000003399","","","recognition","survey-text","415","1469597","0.0-6.0-3.58","3134532","co38389","norming","","","{""guess"":""footballplayer""}","","../img/tt/1188tt.jpg","",""
"null","../img/gs/1188gs.jpg","null","reveal","image-keyboard-response","416","1471599","0.0-6.0-4.58","3134532","co38389","norming","","","","","","",""
"null","../img/tt/1188tt.jpg","null","mooney2","image-keyboard-response","417","1473608","0.0-6.0-5.58","3134532","co38389","norming","","","","","","",""
"2884.0849999978673","","","post_reveal_questions","survey-likert","418","1476493","0.0-6.0-6.58","3134532","co38389","norming","","","{""aha"":3}","[0]","../img/tt/1188tt.jpg","",""
"null","<div style=""font-size:60px;""> </div>","null","fixation","html-keyboard-response","419","1476696","0.0-6.0-0.59","3134532","co38389","norming","","","","","","",""
"null","../img/tt/1307tt.jpg","null","mooney1","image-keyboard-response","420","1479704","0.0-6.0-1.59","3134532","co38389","norming","","","","","","",""
"6993.849999998929","","","post_mooney1_questions","survey-likert","421","1486701","0.0-6.0-2.59","3134532","co38389","norming","","","{""curiosity"":4,""confidence"":0}","[0,1]","../img/tt/1307tt.jpg","",""
"590.0400000098161","","","recognition","survey-text","422","1487293","0.0-6.0-3.59","3134532","co38389","norming","","","{""guess"":""""}","","../img/tt/1307tt.jpg","",""
"null","../img/gs/1307gs.jpg","null","reveal","image-keyboard-response","423","1489299","0.0-6.0-4.59","3134532","co38389","norming","","","","","","",""
"null","../img/tt/1307tt.jpg","null","mooney2","image-keyboard-response","424","1491308","0.0-6.0-5.59","3134532","co38389","norming","","","","","","",""
"2157.995000001276","","","post_reveal_questions","survey-likert","425","1493469","0.0-6.0-6.59","3134532","co38389","norming","","","{""aha"":5}","[0]","../img/tt/1307tt.jpg","",""
"null","<div style=""font-size:60px;""> </div>","null","fixation","html-keyboard-response","426","1493670","0.0-6.0-0.60","3134532","co38389","norming","","","","","","",""
"null","../img/tt/1049tt.jpg","null","mooney1","image-keyboard-response","427","1496681","0.0-6.0-1.60","3134532","co38389","norming","","","","","","",""
"5591.619999991963","","","post_mooney1_questions","survey-likert","428","1502277","0.0-6.0-2.60","3134532","co38389","norming","","","{""curiosity"":3,""confidence"":0}","[0,1]","../img/tt/1049tt.jpg","",""
"4366.05499999132","","","recognition","survey-text","429","1506645","0.0-6.0-3.60","3134532","co38389","norming","","","{""guess"":""ruimtevaarder""}","","../img/tt/1049tt.jpg","",""
"null","../img/gs/1049gs.jpg","null","reveal","image-keyboard-response","430","1508647","0.0-6.0-4.60","3134532","co38389","norming","","","","","","",""
"null","../img/tt/1049tt.jpg","null","mooney2","image-keyboard-response","431","1510656","0.0-6.0-5.60","3134532","co38389","norming","","","","","","",""
"3746.4849999959115","","","post_reveal_questions","survey-likert","432","1514404","0.0-6.0-6.60","3134532","co38389","norming","","","{""aha"":5}","[0]","../img/tt/1049tt.jpg","",""
"null","<div style=""font-size:60px;""> </div>","null","fixation","html-keyboard-response","433","1514614","0.0-6.0-0.61","3134532","co38389","norming","","","","","","",""
"null","../img/tt/1066tt.jpg","null","mooney1","image-keyboard-response","434","1517618","0.0-6.0-1.61","3134532","co38389","norming","","","","","","",""
"3410.950000004843","","","post_mooney1_questions","survey-likert","435","1521030","0.0-6.0-2.61","3134532","co38389","norming","","","{""curiosity"":2,""confidence"":5}","[0,1]","../img/tt/1066tt.jpg","",""
"3302.2199999976438","","","recognition","survey-text","436","1524334","0.0-6.0-3.61","3134532","co38389","norming","","","{""guess"":""bus""}","","../img/tt/1066tt.jpg","",""
"null","../img/gs/1066gs.jpg","null","reveal","image-keyboard-response","437","1526336","0.0-6.0-4.61","3134532","co38389","norming","","","","","","",""
"null","../img/tt/1066tt.jpg","null","mooney2","image-keyboard-response","438","1528339","0.0-6.0-5.61","3134532","co38389","norming","","","","","","",""
"1912.700000000652","","","post_reveal_questions","survey-likert","439","1530254","0.0-6.0-6.61","3134532","co38389","norming","","","{""aha"":1}","[0]","../img/tt/1066tt.jpg","",""
"null","<div style=""font-size:60px;""> </div>","null","fixation","html-keyboard-response","440","1530456","0.0-6.0-0.62","3134532","co38389","norming","","","","","","",""
"null","../img/tt/517tt.jpg","null","mooney1","image-keyboard-response","441","1533465","0.0-6.0-1.62","3134532","co38389","norming","","","","","","",""
"3714.6199999989476","","","post_mooney1_questions","survey-likert","442","1537182","0.0-6.0-2.62","3134532","co38389","norming","","","{""curiosity"":3,""confidence"":1}","[0,1]","../img/tt/517tt.jpg","",""
"2733.9899999932386","","","recognition","survey-text","443","1539918","0.0-6.0-3.62","3134532","co38389","norming","","","{""guess"":""beer""}","","../img/tt/517tt.jpg","",""
"null","../img/gs/517gs.jpg","null","reveal","image-keyboard-response","444","1541920","0.0-6.0-4.62","3134532","co38389","norming","","","","","","",""
"null","../img/tt/517tt.jpg","null","mooney2","image-keyboard-response","445","1543922","0.0-6.0-5.62","3134532","co38389","norming","","","","","","",""
"2833.6100000017323","","","post_reveal_questions","survey-likert","446","1546758","0.0-6.0-6.62","3134532","co38389","norming","","","{""aha"":2}","[0]","../img/tt/517tt.jpg","",""
"null","<div style=""font-size:60px;""> </div>","null","fixation","html-keyboard-response","447","1546960","0.0-6.0-0.63","3134532","co38389","norming","","","","","","",""
"null","../img/tt/1224tt.jpg","null","mooney1","image-keyboard-response","448","1549962","0.0-6.0-1.63","3134532","co38389","norming","","","","","","",""
"5386.554999989923","","","post_mooney1_questions","survey-likert","449","1555350","0.0-6.0-2.63","3134532","co38389","norming","","","{""curiosity"":3,""confidence"":1}","[0,1]","../img/tt/1224tt.jpg","",""
"5462.014999997336","","","recognition","survey-text","450","1560814","0.0-6.0-3.63","3134532","co38389","norming","","","{""guess"":""doedlzakspeler""}","","../img/tt/1224tt.jpg","",""
"null","../img/gs/1224gs.jpg","null","reveal","image-keyboard-response","451","1562820","0.0-6.0-4.63","3134532","co38389","norming","","","","","","",""
"null","../img/tt/1224tt.jpg","null","mooney2","image-keyboard-response","452","1564822","0.0-6.0-5.63","3134532","co38389","norming","","","","","","",""
"3686.249999998836","","","post_reveal_questions","survey-likert","453","1568510","0.0-6.0-6.63","3134532","co38389","norming","","","{""aha"":5}","[0]","../img/tt/1224tt.jpg","",""
"null","<div style=""font-size:60px;""> </div>","null","fixation","html-keyboard-response","454","1568712","0.0-6.0-0.64","3134532","co38389","norming","","","","","","",""
"null","../img/tt/507tt.jpg","null","mooney1","image-keyboard-response","455","1571717","0.0-6.0-1.64","3134532","co38389","norming","","","","","","",""
"10750.335000004387","","","post_mooney1_questions","survey-likert","456","1582462","0.0-6.0-2.64","3134532","co38389","norming","","","{""curiosity"":4,""confidence"":1}","[0,1]","../img/tt/507tt.jpg","",""
"6085.95500000217","","","recognition","survey-text","457","1588549","0.0-6.0-3.64","3134532","co38389","norming","","","{""guess"":""zangeres""}","","../img/tt/507tt.jpg","",""
"null","../img/gs/507gs.jpg","null","reveal","image-keyboard-response","458","1590555","0.0-6.0-4.64","3134532","co38389","norming","","","","","","",""
"null","../img/tt/507tt.jpg","null","mooney2","image-keyboard-response","459","1592559","0.0-6.0-5.64","3134532","co38389","norming","","","","","","",""
"4738.915000009118","","","post_reveal_questions","survey-likert","460","1597302","0.0-6.0-6.64","3134532","co38389","norming","","","{""aha"":1}","[0]","../img/tt/507tt.jpg","",""
"null","<div style=""font-size:60px;""> </div>","null","fixation","html-keyboard-response","461","1597512","0.0-6.0-0.65","3134532","co38389","norming","","","","","","",""
"null","../img/tt/1130tt.jpg","null","mooney1","image-keyboard-response","462","1600516","0.0-6.0-1.65","3134532","co38389","norming","","","","","","",""
"5103.254999994766","","","post_mooney1_questions","survey-likert","463","1605622","0.0-6.0-2.65","3134532","co38389","norming","","","{""curiosity"":2,""confidence"":5}","[0,1]","../img/tt/1130tt.jpg","",""
"3933.940000002738","","","recognition","survey-text","464","1609557","0.0-6.0-3.65","3134532","co38389","norming","","","{""guess"":""fietser""}","","../img/tt/1130tt.jpg","",""
"null","../img/gs/1130gs.jpg","null","reveal","image-keyboard-response","465","1611559","0.0-6.0-4.65","3134532","co38389","norming","","","","","","",""
"null","../img/tt/1130tt.jpg","null","mooney2","image-keyboard-response","466","1613561","0.0-6.0-5.65","3134532","co38389","norming","","","","","","",""
"1371.440000002738","","","post_reveal_questions","survey-likert","467","1614934","0.0-6.0-6.65","3134532","co38389","norming","","","{""aha"":1}","[0]","../img/tt/1130tt.jpg","",""
"null","<div style=""font-size:60px;""> </div>","null","fixation","html-keyboard-response","468","1615135","0.0-6.0-0.66","3134532","co38389","norming","","","","","","",""
"null","../img/tt/078tt.jpg","null","mooney1","image-keyboard-response","469","1618144","0.0-6.0-1.66","3134532","co38389","norming","","","","","","",""
"4930.89000000339","","","post_mooney1_questions","survey-likert","470","1623078","0.0-6.0-2.66","3134532","co38389","norming","","","{""curiosity"":2,""confidence"":5}","[0,1]","../img/tt/078tt.jpg","",""
"8894.15999999619","","","recognition","survey-text","471","1631974","0.0-6.0-3.66","3134532","co38389","norming","","","{""guess"":""druiven""}","","../img/tt/078tt.jpg","",""
"null","../img/gs/078gs.jpg","null","reveal","image-keyboard-response","472","1633976","0.0-6.0-4.66","3134532","co38389","norming","","","","","","",""
"null","../img/tt/078tt.jpg","null","mooney2","image-keyboard-response","473","1635979","0.0-6.0-5.66","3134532","co38389","norming","","","","","","",""
"1967.9750000068452","","","post_reveal_questions","survey-likert","474","1637950","0.0-6.0-6.66","3134532","co38389","norming","","","{""aha"":1}","[0]","../img/tt/078tt.jpg","",""
"null","<div style=""font-size:60px;""> </div>","null","fixation","html-keyboard-response","475","1638151","0.0-6.0-0.67","3134532","co38389","norming","","","","","","",""
"null","../img/tt/442tt.jpg","null","mooney1","image-keyboard-response","476","1641166","0.0-6.0-1.67","3134532","co38389","norming","","","","","","",""
"11606.749999991851","","","post_mooney1_questions","survey-likert","477","1652776","0.0-6.0-2.67","3134532","co38389","norming","","","{""curiosity"":4,""confidence"":0}","[0,1]","../img/tt/442tt.jpg","",""
"3353.6650000023656","","","recognition","survey-text","478","1656135","0.0-6.0-3.67","3134532","co38389","norming","","","{""guess"":""bessen""}","","../img/tt/442tt.jpg","",""
"null","../img/gs/442gs.jpg","null","reveal","image-keyboard-response","479","1658136","0.0-6.0-4.67","3134532","co38389","norming","","","","","","",""
"null","../img/tt/442tt.jpg","null","mooney2","image-keyboard-response","480","1660148","0.0-6.0-5.67","3134532","co38389","norming","","","","","","",""
"2600.729999991134","","","post_reveal_questions","survey-likert","481","1662751","0.0-6.0-6.67","3134532","co38389","norming","","","{""aha"":5}","[0]","../img/tt/442tt.jpg","",""
"null","<div style=""font-size:60px;""> </div>","null","fixation","html-keyboard-response","482","1662959","0.0-6.0-0.68","3134532","co38389","norming","","","","","","",""
"null","../img/tt/032tt.jpg","null","mooney1","image-keyboard-response","483","1665963","0.0-6.0-1.68","3134532","co38389","norming","","","","","","",""
"8403.100000010338","","","post_mooney1_questions","survey-likert","484","1674367","0.0-6.0-2.68","3134532","co38389","norming","","","{""curiosity"":5,""confidence"":1}","[0,1]","../img/tt/032tt.jpg","",""
"6982.084999996005","","","recognition","survey-text","485","1681351","0.0-6.0-3.68","3134532","co38389","norming","","","{""guess"":""ruggengraat""}","","../img/tt/032tt.jpg","",""
"null","../img/gs/032gs.jpg","null","reveal","image-keyboard-response","486","1683362","0.0-6.0-4.68","3134532","co38389","norming","","","","","","",""
"null","../img/tt/032tt.jpg","null","mooney2","image-keyboard-response","487","1685373","0.0-6.0-5.68","3134532","co38389","norming","","","","","","",""
"2751.3949999990873","","","post_reveal_questions","survey-likert","488","1688127","0.0-6.0-6.68","3134532","co38389","norming","","","{""aha"":6}","[0]","../img/tt/032tt.jpg","",""
"null","<div style=""font-size:60px;""> </div>","null","fixation","html-keyboard-response","489","1688329","0.0-6.0-0.69","3134532","co38389","norming","","","","","","",""
"null","../img/tt/1247tt.jpg","null","mooney1","image-keyboard-response","490","1691341","0.0-6.0-1.69","3134532","co38389","norming","","","","","","",""
"6151.045000005979","","","post_mooney1_questions","survey-likert","491","1697496","0.0-6.0-2.69","3134532","co38389","norming","","","{""curiosity"":4,""confidence"":0}","[0,1]","../img/tt/1247tt.jpg","",""
"3573.9750000066124","","","recognition","survey-text","492","1701071","0.0-6.0-3.69","3134532","co38389","norming","","","{""guess"":""bever""}","","../img/tt/1247tt.jpg","",""
"null","../img/gs/1247gs.jpg","null","reveal","image-keyboard-response","493","1703079","0.0-6.0-4.69","3134532","co38389","norming","","","","","","",""
"null","../img/tt/1247tt.jpg","null","mooney2","image-keyboard-response","494","1705081","0.0-6.0-5.69","3134532","co38389","norming","","","","","","",""
"7644.360000005458","","","post_reveal_questions","survey-likert","495","1712728","0.0-6.0-6.69","3134532","co38389","norming","","","{""aha"":4}","[0]","../img/tt/1247tt.jpg","",""
"null","<div style=""font-size:60px;""> </div>","null","fixation","html-keyboard-response","496","1712931","0.0-6.0-0.70","3134532","co38389","norming","","","","","","",""
"null","../img/tt/1228tt.jpg","null","mooney1","image-keyboard-response","497","1715940","0.0-6.0-1.70","3134532","co38389","norming","","","","","","",""
"8416.60500000557","","","post_mooney1_questions","survey-likert","498","1724360","0.0-6.0-2.70","3134532","co38389","norming","","","{""curiosity"":4,""confidence"":0}","[0,1]","../img/tt/1228tt.jpg","",""
"3589.7899999981746","","","recognition","survey-text","499","1727951","0.0-6.0-3.70","3134532","co38389","norming","","","{""guess"":""zwemmer""}","","../img/tt/1228tt.jpg","",""
"null","../img/gs/1228gs.jpg","null","reveal","image-keyboard-response","500","1729962","0.0-6.0-4.70","3134532","co38389","norming","","","","","","",""
"null","../img/tt/1228tt.jpg","null","mooney2","image-keyboard-response","501","1731966","0.0-6.0-5.70","3134532","co38389","norming","","","","","","",""
"3119.4300000062212","","","post_reveal_questions","survey-likert","502","1735088","0.0-6.0-6.70","3134532","co38389","norming","","","{""aha"":5}","[0]","../img/tt/1228tt.jpg","",""
"null","<div style=""font-size:60px;""> </div>","null","fixation","html-keyboard-response","503","1735297","0.0-6.0-0.71","3134532","co38389","norming","","","","","","",""
"null","../img/tt/064tt.jpg","null","mooney1","image-keyboard-response","504","1738310","0.0-6.0-1.71","3134532","co38389","norming","","","","","","",""
"6894.199999995297","","","post_mooney1_questions","survey-likert","505","1745208","0.0-6.0-2.71","3134532","co38389","norming","","","{""curiosity"":2,""confidence"":0}","[0,1]","../img/tt/064tt.jpg","",""
"973.9899999988265","","","recognition","survey-text","506","1746183","0.0-6.0-3.71","3134532","co38389","norming","","","{""guess"":""""}","","../img/tt/064tt.jpg","",""
"null","../img/gs/064gs.jpg","null","reveal","image-keyboard-response","507","1748186","0.0-6.0-4.71","3134532","co38389","norming","","","","","","",""
"null","../img/tt/064tt.jpg","null","mooney2","image-keyboard-response","508","1750194","0.0-6.0-5.71","3134532","co38389","norming","","","","","","",""
"6099.354999998352","","","post_reveal_questions","survey-likert","509","1756295","0.0-6.0-6.71","3134532","co38389","norming","","","{""aha"":3}","[0]","../img/tt/064tt.jpg","",""
"null","<div style=""font-size:60px;""> </div>","null","fixation","html-keyboard-response","510","1756504","0.0-6.0-0.72","3134532","co38389","norming","","","","","","",""
"null","../img/tt/112tt.jpg","null","mooney1","image-keyboard-response","511","1759517","0.0-6.0-1.72","3134532","co38389","norming","","","","","","",""
"8377.384999999776","","","post_mooney1_questions","survey-likert","512","1767895","0.0-6.0-2.72","3134532","co38389","norming","","","{""curiosity"":2,""confidence"":1}","[0,1]","../img/tt/112tt.jpg","",""
"6622.3650000030175","","","recognition","survey-text","513","1774519","0.0-6.0-3.72","3134532","co38389","norming","","","{""guess"":""wijnfles""}","","../img/tt/112tt.jpg","",""
"null","../img/gs/112gs.jpg","null","reveal","image-keyboard-response","514","1776525","0.0-6.0-4.72","3134532","co38389","norming","","","","","","",""
"null","../img/tt/112tt.jpg","null","mooney2","image-keyboard-response","515","1778529","0.0-6.0-5.72","3134532","co38389","norming","","","","","","",""
"3908.009999999078","","","post_reveal_questions","survey-likert","516","1782440","0.0-6.0-6.72","3134532","co38389","norming","","","{""aha"":4}","[0]","../img/tt/112tt.jpg","",""
"null","<div style=""font-size:60px;""> </div>","null","fixation","html-keyboard-response","517","1782644","0.0-6.0-0.73","3134532","co38389","norming","","","","","","",""
"null","../img/tt/315tt.jpg","null","mooney1","image-keyboard-response","518","1785655","0.0-6.0-1.73","3134532","co38389","norming","","","","","","",""
"4583.50999999675","","","post_mooney1_questions","survey-likert","519","1790240","0.0-6.0-2.73","3134532","co38389","norming","","","{""curiosity"":4,""confidence"":1}","[0,1]","../img/tt/315tt.jpg","",""
"6981.8450000020675","","","recognition","survey-text","520","1797223","0.0-6.0-3.73","3134532","co38389","norming","","","{""guess"":""vogel""}","","../img/tt/315tt.jpg","",""
"null","../img/gs/315gs.jpg","null","reveal","image-keyboard-response","521","1799233","0.0-6.0-4.73","3134532","co38389","norming","","","","","","",""
"null","../img/tt/315tt.jpg","null","mooney2","image-keyboard-response","522","1801242","0.0-6.0-5.73","3134532","co38389","norming","","","","","","",""
"3499.0799999942537","","","post_reveal_questions","survey-likert","523","1804743","0.0-6.0-6.73","3134532","co38389","norming","","","{""aha"":5}","[0]","../img/tt/315tt.jpg","",""
"null","<div style=""font-size:60px;""> </div>","null","fixation","html-keyboard-response","524","1804945","0.0-6.0-0.74","3134532","co38389","norming","","","","","","",""
"null","../img/tt/534tt.jpg","null","mooney1","image-keyboard-response","525","1807948","0.0-6.0-1.74","3134532","co38389","norming","","","","","","",""
"5928.879999992205","","","post_mooney1_questions","survey-likert","526","1813879","0.0-6.0-2.74","3134532","co38389","norming","","","{""curiosity"":4,""confidence"":3}","[0,1]","../img/tt/534tt.jpg","",""
"5293.854999996256","","","recognition","survey-text","527","1819175","0.0-6.0-3.74","3134532","co38389","norming","","","{""guess"":""cactus""}","","../img/tt/534tt.jpg","",""
"null","../img/gs/534gs.jpg","null","reveal","image-keyboard-response","528","1821185","0.0-6.0-4.74","3134532","co38389","norming","","","","","","",""
"null","../img/tt/534tt.jpg","null","mooney2","image-keyboard-response","529","1823188","0.0-6.0-5.74","3134532","co38389","norming","","","","","","",""
"1633.1550000030547","","","post_reveal_questions","survey-likert","530","1824823","0.0-6.0-6.74","3134532","co38389","norming","","","{""aha"":1}","[0]","../img/tt/534tt.jpg","",""
"null","<div style=""font-size:60px;""> </div>","null","fixation","html-keyboard-response","531","1825026","0.0-6.0-0.75","3134532","co38389","norming","","","","","","",""
"null","../img/tt/053tt.jpg","null","mooney1","image-keyboard-response","532","1828029","0.0-6.0-1.75","3134532","co38389","norming","","","","","","",""
"5075.255000003381","","","post_mooney1_questions","survey-likert","533","1833105","0.0-6.0-2.75","3134532","co38389","norming","","","{""curiosity"":2,""confidence"":3}","[0,1]","../img/tt/053tt.jpg","",""
"5725.850000002654","","","recognition","survey-text","534","1838833","0.0-6.0-3.75","3134532","co38389","norming","","","{""guess"":""kano""}","","../img/tt/053tt.jpg","",""
"null","../img/gs/053gs.jpg","null","reveal","image-keyboard-response","535","1840835","0.0-6.0-4.75","3134532","co38389","norming","","","","","","",""
"null","../img/tt/053tt.jpg","null","mooney2","image-keyboard-response","536","1842837","0.0-6.0-5.75","3134532","co38389","norming","","","","","","",""
"2665.6549999897834","","","post_reveal_questions","survey-likert","537","1845505","0.0-6.0-6.75","3134532","co38389","norming","","","{""aha"":2}","[0]","../img/tt/053tt.jpg","",""
"null","<div style=""font-size:60px;""> </div>","null","fixation","html-keyboard-response","538","1845707","0.0-6.0-0.76","3134532","co38389","norming","","","","","","",""
"null","../img/tt/001tt.jpg","null","mooney1","image-keyboard-response","539","1848711","0.0-6.0-1.76","3134532","co38389","norming","","","","","","",""
"4273.214999993797","","","post_mooney1_questions","survey-likert","540","1852985","0.0-6.0-2.76","3134532","co38389","norming","","","{""curiosity"":3,""confidence"":1}","[0,1]","../img/tt/001tt.jpg","",""
"4421.694999997038","","","recognition","survey-text","541","1857409","0.0-6.0-3.76","3134532","co38389","norming","","","{""guess"":""katachtige""}","","../img/tt/001tt.jpg","",""
"null","../img/gs/001gs.jpg","null","reveal","image-keyboard-response","542","1859410","0.0-6.0-4.76","3134532","co38389","norming","","","","","","",""
"null","../img/tt/001tt.jpg","null","mooney2","image-keyboard-response","543","1861412","0.0-6.0-5.76","3134532","co38389","norming","","","","","","",""
"3834.2950000078417","","","post_reveal_questions","survey-likert","544","1865249","0.0-6.0-6.76","3134532","co38389","norming","","","{""aha"":1}","[0]","../img/tt/001tt.jpg","",""
"null","<div style=""font-size:60px;""> </div>","null","fixation","html-keyboard-response","545","1865458","0.0-6.0-0.77","3134532","co38389","norming","","","","","","",""
"null","../img/tt/1278tt.jpg","null","mooney1","image-keyboard-response","546","1868460","0.0-6.0-1.77","3134532","co38389","norming","","","","","","",""
"7137.400000006892","","","post_mooney1_questions","survey-likert","547","1875601","0.0-6.0-2.77","3134532","co38389","norming","","","{""curiosity"":3,""confidence"":0}","[0,1]","../img/tt/1278tt.jpg","",""
"2653.8350000046194","","","recognition","survey-text","548","1878256","0.0-6.0-3.77","3134532","co38389","norming","","","{""guess"":""uil""}","","../img/tt/1278tt.jpg","",""
"null","../img/gs/1278gs.jpg","null","reveal","image-keyboard-response","549","1880264","0.0-6.0-4.77","3134532","co38389","norming","","","","","","",""
"null","../img/tt/1278tt.jpg","null","mooney2","image-keyboard-response","550","1882276","0.0-6.0-5.77","3134532","co38389","norming","","","","","","",""
"4218.070000002626","","","post_reveal_questions","survey-likert","551","1886497","0.0-6.0-6.77","3134532","co38389","norming","","","{""aha"":3}","[0]","../img/tt/1278tt.jpg","",""
