"rt","stimulus","key_press","test_part","trial_type","trial_index","time_elapsed","internal_node_id","totalTime","subject","experiment_name","button_pressed","success","responses","question_order","currentStim","old","correct"
"26619.035000000167","Welcome to the experiment. This is an online experiment so please don't close the tab/window until we say goodbye.  Press any key to begin.","32","instructions","html-keyboard-response","0","26672","0.0-0.0","3012024","co38050","norming","","","","","","",""
"12616.060000000063","<div style='word-wrap: break-word; width: 900px'><h3>Please consider this information carefully before deciding whether to participate in this research</h3><ul style='text-align: left; font-size: .8em;'><li><b>Purpose of the research</b>: To examine how people process images.</li><li><b>What you will do in this research</b>:  Stimuli (images) will be presented on the computer and you will be asked different questions about them.</li><li><b>Time required</b>: Participation will take between 45 and 60 minutes to complete.</li><li><b>Risks</b>:  There are no anticipated risks associated with participating in this study. The effects of participating should be comparable to those you would experience from viewing a computer monitor for 30 minutes and using a mouse or keyboard.</li><li><b>Benefits</b>:  This study provides no benefits to you individually except for the credit. The study provides important information about the nature of perception and learning.</li><li><b>Confidentiality</b>:  Your participation in this study will remain confidential. No personally identifiable information will be associated with your data. Your de-identified data may be shared with other researchers and used in future projects.</li><li><b>Participation and withdrawal</b>:  Your participation in this study is completely voluntary and you may refuse to participate or you may choose to withdraw at any time without penalty.</li><li><b>How to contact the researchers</b>: If you have questions or concerns about your participation or payment, or want to request a summary of research findings, please contact Sander Van de Cruys (KU Leuven), at sander.vandecruys@kuleuven.be.</li></ul><p>The nature and purpose of this research have been sufficiently explained and I agree to participate in this study.  I understand that I am free to withdraw at any time without incurring any penalty.</p><p>Please consent by clicking the button below to continue. Otherwise, please exit the study at this time.</p></div>","","instructions","html-button-response","1","39291","0.0-1.0","3012024","co38050","norming","0","","","","","",""
"","","","instructions","fullscreen","2","41732","0.0-2.0","3012024","co38050","norming","","true","","","","",""
"28212.695000000167","","","sona","survey-html-form","3","69951","0.0-3.0","3012024","co38050","norming","","","[{""name"":""sonaid"",""value"":""38050""},{""name"":""debrief"",""value"":""yes""},{""name"":""datajoin"",""value"":""yes""}]","","","",""
"55851.12000000004","<div style='word-wrap: break-word; width: 900px'><h3>Instructions</h3><p>This experiment will have 3 parts. In the first part you will see a series of distorted images like the one below on the left. As you can see in the righthand image, the distorted images are derived from actual photographs. In what follows, you will <strong>briefly</strong> be presented with <strong>only</strong> the distorted image.</p> <div style='float: left; margin-right: 20px;'><img src='../img/018tt.jpg' height='250' width='250'></img></div><div style='float: right; margin-left: 20px;'><img src='../img/018gs.jpg' height='250' width='250'></img></div><p>Subsequently you will be asked a few questions about the image: One question on how <strong>curious</strong> you are about the solution and one on how <strong>confident</strong> you are that you know the solution.</p>Next, we ask you to make a guess on what is in the image. Note that it is OK to name just the <strong>basic level category</strong>. For example when you see a parrot in the image, 'parrot' will obviously be a correct answer but also correct is 'bird'. However, 'animal' will <strong>not</strong> be counted as a correct response. For the example above, 'rose' would be correct or 'flower', but not 'plant'. When soccer players are depicted, 'soccer', 'football', 'soccer players' will be correct, but not 'humans', 'outdoors', or 'sports'. You do not need to describe the image in full, just name the main object in it <strong>in one or two words</strong>. All images depict objects from one of the following broad level categories: animals, inanimate objects, plants, sports, vehicles, and food. Recognizing means knowing <strong>more</strong> than these broad labels for a given image. But we always encourage you to <strong>make a guess</strong> if you can. Note that you are allowed to use <strong>Dutch and English</strong> in your answers, whatever comes easiest for you.</p><p>Press any key to continue.</p></div>","32","instructions","html-keyboard-response","4","125811","0.0-4.0","3012024","co38050","norming","","","","","","",""
"16318.545000000086","<div style='word-wrap: break-word; width: 900px'><h3>Instructions</h3> <p>Next, the solution image will be revealed to you and you'll be asked to indicate how strong your <strong>aha-experience</strong> was after seeing the solution. This describes the positive feeling of the 'click' you sometimes experience, when the pieces of the 'puzzle' fall together and you suddenly have 'insight' in the image.</p><img src='aha.jpg' height='188' width='250'></img><p>Note that there are no right or wrong answers. We are interested in what <strong>you</strong> see in the image and how <strong>you</strong> feel about it.</p><p>Press any key to start the experiment.</p></div>","32","instructions","html-keyboard-response","5","142131","0.0-5.0","3012024","co38050","norming","","","","","","",""
"null","<div style=""font-size:60px;""> </div>","null","fixation","html-keyboard-response","6","142339","0.0-6.0-0.0","3012024","co38050","norming","","","","","","",""
"null","../img/tt/1116tt.jpg","null","mooney1","image-keyboard-response","7","145349","0.0-6.0-1.0","3012024","co38050","norming","","","","","","",""
"38673.915000000066","","","post_mooney1_questions","survey-likert","8","184027","0.0-6.0-2.0","3012024","co38050","norming","","","{""curiosity"":5,""confidence"":0}","[0,1]","../img/tt/1116tt.jpg","",""
"4853.264999999956","","","recognition","survey-text","9","188883","0.0-6.0-3.0","3012024","co38050","norming","","","{""guess"":""""}","","../img/tt/1116tt.jpg","",""
"null","../img/gs/1116gs.jpg","null","reveal","image-keyboard-response","10","190884","0.0-6.0-4.0","3012024","co38050","norming","","","","","","",""
"null","../img/tt/1116tt.jpg","null","mooney2","image-keyboard-response","11","192887","0.0-6.0-5.0","3012024","co38050","norming","","","","","","",""
"5392.99500000017","","","post_reveal_questions","survey-likert","12","198282","0.0-6.0-6.0","3012024","co38050","norming","","","{""aha"":5}","[0]","../img/tt/1116tt.jpg","",""
"null","<div style=""font-size:60px;""> </div>","null","fixation","html-keyboard-response","13","198484","0.0-6.0-0.1","3012024","co38050","norming","","","","","","",""
"null","../img/tt/1156tt.jpg","null","mooney1","image-keyboard-response","14","201486","0.0-6.0-1.1","3012024","co38050","norming","","","","","","",""
"9530.149999999849","","","post_mooney1_questions","survey-likert","15","211019","0.0-6.0-2.1","3012024","co38050","norming","","","{""curiosity"":4,""confidence"":3}","[0,1]","../img/tt/1156tt.jpg","",""
"13118.339999999967","","","recognition","survey-text","16","224139","0.0-6.0-3.1","3012024","co38050","norming","","","{""guess"":""girl in bikini""}","","../img/tt/1156tt.jpg","",""
"null","../img/gs/1156gs.jpg","null","reveal","image-keyboard-response","17","226144","0.0-6.0-4.1","3012024","co38050","norming","","","","","","",""
"null","../img/tt/1156tt.jpg","null","mooney2","image-keyboard-response","18","228147","0.0-6.0-5.1","3012024","co38050","norming","","","","","","",""
"9399.535000000003","","","post_reveal_questions","survey-likert","19","237548","0.0-6.0-6.1","3012024","co38050","norming","","","{""aha"":4}","[0]","../img/tt/1156tt.jpg","",""
"null","<div style=""font-size:60px;""> </div>","null","fixation","html-keyboard-response","20","237750","0.0-6.0-0.2","3012024","co38050","norming","","","","","","",""
"null","../img/tt/019tt.jpg","null","mooney1","image-keyboard-response","21","240751","0.0-6.0-1.2","3012024","co38050","norming","","","","","","",""
"5552.895000000019","","","post_mooney1_questions","survey-likert","22","246306","0.0-6.0-2.2","3012024","co38050","norming","","","{""curiosity"":5,""confidence"":0}","[0,1]","../img/tt/019tt.jpg","",""
"958.280000000057","","","recognition","survey-text","23","247266","0.0-6.0-3.2","3012024","co38050","norming","","","{""guess"":""""}","","../img/tt/019tt.jpg","",""
"null","../img/gs/019gs.jpg","null","reveal","image-keyboard-response","24","249277","0.0-6.0-4.2","3012024","co38050","norming","","","","","","",""
"null","../img/tt/019tt.jpg","null","mooney2","image-keyboard-response","25","251279","0.0-6.0-5.2","3012024","co38050","norming","","","","","","",""
"1962.9800000000105","","","post_reveal_questions","survey-likert","26","253244","0.0-6.0-6.2","3012024","co38050","norming","","","{""aha"":5}","[0]","../img/tt/019tt.jpg","",""
"null","<div style=""font-size:60px;""> </div>","null","fixation","html-keyboard-response","27","253451","0.0-6.0-0.3","3012024","co38050","norming","","","","","","",""
"null","../img/tt/118tt.jpg","null","mooney1","image-keyboard-response","28","256454","0.0-6.0-1.3","3012024","co38050","norming","","","","","","",""
"5291.880000000005","","","post_mooney1_questions","survey-likert","29","261748","0.0-6.0-2.3","3012024","co38050","norming","","","{""curiosity"":4,""confidence"":1}","[0,1]","../img/tt/118tt.jpg","",""
"4990.610000000044","","","recognition","survey-text","30","266740","0.0-6.0-3.3","3012024","co38050","norming","","","{""guess"":""accordeon""}","","../img/tt/118tt.jpg","",""
"null","../img/gs/118gs.jpg","null","reveal","image-keyboard-response","31","268749","0.0-6.0-4.3","3012024","co38050","norming","","","","","","",""
"null","../img/tt/118tt.jpg","null","mooney2","image-keyboard-response","32","270750","0.0-6.0-5.3","3012024","co38050","norming","","","","","","",""
"2107.874999999942","","","post_reveal_questions","survey-likert","33","272860","0.0-6.0-6.3","3012024","co38050","norming","","","{""aha"":5}","[0]","../img/tt/118tt.jpg","",""
"null","<div style=""font-size:60px;""> </div>","null","fixation","html-keyboard-response","34","273068","0.0-6.0-0.4","3012024","co38050","norming","","","","","","",""
"null","../img/tt/435tt.jpg","null","mooney1","image-keyboard-response","35","276071","0.0-6.0-1.4","3012024","co38050","norming","","","","","","",""
"4418.700000000128","","","post_mooney1_questions","survey-likert","36","280492","0.0-6.0-2.4","3012024","co38050","norming","","","{""curiosity"":4,""confidence"":0}","[0,1]","../img/tt/435tt.jpg","",""
"974.0500000000466","","","recognition","survey-text","37","281468","0.0-6.0-3.4","3012024","co38050","norming","","","{""guess"":""""}","","../img/tt/435tt.jpg","",""
"null","../img/gs/435gs.jpg","null","reveal","image-keyboard-response","38","283469","0.0-6.0-4.4","3012024","co38050","norming","","","","","","",""
"null","../img/tt/435tt.jpg","null","mooney2","image-keyboard-response","39","285486","0.0-6.0-5.4","3012024","co38050","norming","","","","","","",""
"2957.159999999916","","","post_reveal_questions","survey-likert","40","288444","0.0-6.0-6.4","3012024","co38050","norming","","","{""aha"":5}","[0]","../img/tt/435tt.jpg","",""
"null","<div style=""font-size:60px;""> </div>","null","fixation","html-keyboard-response","41","288649","0.0-6.0-0.5","3012024","co38050","norming","","","","","","",""
"null","../img/tt/084tt.jpg","null","mooney1","image-keyboard-response","42","291657","0.0-6.0-1.5","3012024","co38050","norming","","","","","","",""
"19992.749999999884","","","post_mooney1_questions","survey-likert","43","311651","0.0-6.0-2.5","3012024","co38050","norming","","","{""curiosity"":4,""confidence"":2}","[0,1]","../img/tt/084tt.jpg","",""
"5293.944999999891","","","recognition","survey-text","44","316947","0.0-6.0-3.5","3012024","co38050","norming","","","{""guess"":""bird ""}","","../img/tt/084tt.jpg","",""
"null","../img/gs/084gs.jpg","null","reveal","image-keyboard-response","45","318957","0.0-6.0-4.5","3012024","co38050","norming","","","","","","",""
"null","../img/tt/084tt.jpg","null","mooney2","image-keyboard-response","46","320964","0.0-6.0-5.5","3012024","co38050","norming","","","","","","",""
"4668.265000000014","","","post_reveal_questions","survey-likert","47","325634","0.0-6.0-6.5","3012024","co38050","norming","","","{""aha"":4}","[0]","../img/tt/084tt.jpg","",""
"null","<div style=""font-size:60px;""> </div>","null","fixation","html-keyboard-response","48","325843","0.0-6.0-0.6","3012024","co38050","norming","","","","","","",""
"null","../img/tt/1171tt.jpg","null","mooney1","image-keyboard-response","49","328851","0.0-6.0-1.6","3012024","co38050","norming","","","","","","",""
"8037.115000000107","","","post_mooney1_questions","survey-likert","50","336891","0.0-6.0-2.6","3012024","co38050","norming","","","{""curiosity"":5,""confidence"":1}","[0,1]","../img/tt/1171tt.jpg","",""
"5133.969999999914","","","recognition","survey-text","51","342027","0.0-6.0-3.6","3012024","co38050","norming","","","{""guess"":""baby face""}","","../img/tt/1171tt.jpg","",""
"null","../img/gs/1171gs.jpg","null","reveal","image-keyboard-response","52","344030","0.0-6.0-4.6","3012024","co38050","norming","","","","","","",""
"null","../img/tt/1171tt.jpg","null","mooney2","image-keyboard-response","53","346033","0.0-6.0-5.6","3012024","co38050","norming","","","","","","",""
"2647.789999999979","","","post_reveal_questions","survey-likert","54","348683","0.0-6.0-6.6","3012024","co38050","norming","","","{""aha"":5}","[0]","../img/tt/1171tt.jpg","",""
"null","<div style=""font-size:60px;""> </div>","null","fixation","html-keyboard-response","55","348888","0.0-6.0-0.7","3012024","co38050","norming","","","","","","",""
"null","../img/tt/105tt.jpg","null","mooney1","image-keyboard-response","56","351894","0.0-6.0-1.7","3012024","co38050","norming","","","","","","",""
"5497.979999999865","","","post_mooney1_questions","survey-likert","57","357395","0.0-6.0-2.7","3012024","co38050","norming","","","{""curiosity"":5,""confidence"":0}","[0,1]","../img/tt/105tt.jpg","",""
"1142.0949999999139","","","recognition","survey-text","58","358538","0.0-6.0-3.7","3012024","co38050","norming","","","{""guess"":""""}","","../img/tt/105tt.jpg","",""
"null","../img/gs/105gs.jpg","null","reveal","image-keyboard-response","59","360540","0.0-6.0-4.7","3012024","co38050","norming","","","","","","",""
"null","../img/tt/105tt.jpg","null","mooney2","image-keyboard-response","60","362545","0.0-6.0-5.7","3012024","co38050","norming","","","","","","",""
"1879.4049999999115","","","post_reveal_questions","survey-likert","61","364427","0.0-6.0-6.7","3012024","co38050","norming","","","{""aha"":6}","[0]","../img/tt/105tt.jpg","",""
"null","<div style=""font-size:60px;""> </div>","null","fixation","html-keyboard-response","62","364631","0.0-6.0-0.8","3012024","co38050","norming","","","","","","",""
"null","../img/tt/1283tt.jpg","null","mooney1","image-keyboard-response","63","367633","0.0-6.0-1.8","3012024","co38050","norming","","","","","","",""
"5416.750000000058","","","post_mooney1_questions","survey-likert","64","373051","0.0-6.0-2.8","3012024","co38050","norming","","","{""curiosity"":3,""confidence"":0}","[0,1]","../img/tt/1283tt.jpg","",""
"1110.0699999999488","","","recognition","survey-text","65","374163","0.0-6.0-3.8","3012024","co38050","norming","","","{""guess"":""""}","","../img/tt/1283tt.jpg","",""
"null","../img/gs/1283gs.jpg","null","reveal","image-keyboard-response","66","376165","0.0-6.0-4.8","3012024","co38050","norming","","","","","","",""
"null","../img/tt/1283tt.jpg","null","mooney2","image-keyboard-response","67","378173","0.0-6.0-5.8","3012024","co38050","norming","","","","","","",""
"2491.4500000000116","","","post_reveal_questions","survey-likert","68","380667","0.0-6.0-6.8","3012024","co38050","norming","","","{""aha"":4}","[0]","../img/tt/1283tt.jpg","",""
"null","<div style=""font-size:60px;""> </div>","null","fixation","html-keyboard-response","69","380870","0.0-6.0-0.9","3012024","co38050","norming","","","","","","",""
"null","../img/tt/412tt.jpg","null","mooney1","image-keyboard-response","70","383881","0.0-6.0-1.9","3012024","co38050","norming","","","","","","",""
"5800.165000000154","","","post_mooney1_questions","survey-likert","71","389683","0.0-6.0-2.9","3012024","co38050","norming","","","{""curiosity"":3,""confidence"":1}","[0,1]","../img/tt/412tt.jpg","",""
"5918.07500000007","","","recognition","survey-text","72","395603","0.0-6.0-3.9","3012024","co38050","norming","","","{""guess"":""man with gun""}","","../img/tt/412tt.jpg","",""
"null","../img/gs/412gs.jpg","null","reveal","image-keyboard-response","73","397609","0.0-6.0-4.9","3012024","co38050","norming","","","","","","",""
"null","../img/tt/412tt.jpg","null","mooney2","image-keyboard-response","74","399618","0.0-6.0-5.9","3012024","co38050","norming","","","","","","",""
"3270.7900000000373","","","post_reveal_questions","survey-likert","75","402891","0.0-6.0-6.9","3012024","co38050","norming","","","{""aha"":5}","[0]","../img/tt/412tt.jpg","",""
"null","<div style=""font-size:60px;""> </div>","null","fixation","html-keyboard-response","76","403101","0.0-6.0-0.10","3012024","co38050","norming","","","","","","",""
"null","../img/tt/1247tt.jpg","null","mooney1","image-keyboard-response","77","406109","0.0-6.0-1.10","3012024","co38050","norming","","","","","","",""
"4810.874999999651","","","post_mooney1_questions","survey-likert","78","410923","0.0-6.0-2.10","3012024","co38050","norming","","","{""curiosity"":3,""confidence"":0}","[0,1]","../img/tt/1247tt.jpg","",""
"1213.2249999999767","","","recognition","survey-text","79","412139","0.0-6.0-3.10","3012024","co38050","norming","","","{""guess"":""""}","","../img/tt/1247tt.jpg","",""
"null","../img/gs/1247gs.jpg","null","reveal","image-keyboard-response","80","414140","0.0-6.0-4.10","3012024","co38050","norming","","","","","","",""
"null","../img/tt/1247tt.jpg","null","mooney2","image-keyboard-response","81","416149","0.0-6.0-5.10","3012024","co38050","norming","","","","","","",""
"2403.2600000000675","","","post_reveal_questions","survey-likert","82","418555","0.0-6.0-6.10","3012024","co38050","norming","","","{""aha"":5}","[0]","../img/tt/1247tt.jpg","",""
"null","<div style=""font-size:60px;""> </div>","null","fixation","html-keyboard-response","83","418766","0.0-6.0-0.11","3012024","co38050","norming","","","","","","",""
"null","../img/tt/440tt.jpg","null","mooney1","image-keyboard-response","84","421775","0.0-6.0-1.11","3012024","co38050","norming","","","","","","",""
"4865.405000000028","","","post_mooney1_questions","survey-likert","85","426643","0.0-6.0-2.11","3012024","co38050","norming","","","{""curiosity"":4,""confidence"":0}","[0,1]","../img/tt/440tt.jpg","",""
"702.0200000001932","","","recognition","survey-text","86","427347","0.0-6.0-3.11","3012024","co38050","norming","","","{""guess"":""""}","","../img/tt/440tt.jpg","",""
"null","../img/gs/440gs.jpg","null","reveal","image-keyboard-response","87","429349","0.0-6.0-4.11","3012024","co38050","norming","","","","","","",""
"null","../img/tt/440tt.jpg","null","mooney2","image-keyboard-response","88","431351","0.0-6.0-5.11","3012024","co38050","norming","","","","","","",""
"3217.9550000000745","","","post_reveal_questions","survey-likert","89","434572","0.0-6.0-6.11","3012024","co38050","norming","","","{""aha"":5}","[0]","../img/tt/440tt.jpg","",""
"null","<div style=""font-size:60px;""> </div>","null","fixation","html-keyboard-response","90","434783","0.0-6.0-0.12","3012024","co38050","norming","","","","","","",""
"null","../img/tt/085tt.jpg","null","mooney1","image-keyboard-response","91","437794","0.0-6.0-1.12","3012024","co38050","norming","","","","","","",""
"7823.910000000091","","","post_mooney1_questions","survey-likert","92","445621","0.0-6.0-2.12","3012024","co38050","norming","","","{""curiosity"":4,""confidence"":1}","[0,1]","../img/tt/085tt.jpg","",""
"4078.190000000177","","","recognition","survey-text","93","449700","0.0-6.0-3.12","3012024","co38050","norming","","","{""guess"":""horse""}","","../img/tt/085tt.jpg","",""
"null","../img/gs/085gs.jpg","null","reveal","image-keyboard-response","94","451701","0.0-6.0-4.12","3012024","co38050","norming","","","","","","",""
"null","../img/tt/085tt.jpg","null","mooney2","image-keyboard-response","95","453704","0.0-6.0-5.12","3012024","co38050","norming","","","","","","",""
"3554.1100000000442","","","post_reveal_questions","survey-likert","96","457261","0.0-6.0-6.12","3012024","co38050","norming","","","{""aha"":4}","[0]","../img/tt/085tt.jpg","",""
"null","<div style=""font-size:60px;""> </div>","null","fixation","html-keyboard-response","97","457462","0.0-6.0-0.13","3012024","co38050","norming","","","","","","",""
"null","../img/tt/013tt.jpg","null","mooney1","image-keyboard-response","98","460468","0.0-6.0-1.13","3012024","co38050","norming","","","","","","",""
"4206.5299999999115","","","post_mooney1_questions","survey-likert","99","464677","0.0-6.0-2.13","3012024","co38050","norming","","","{""curiosity"":4,""confidence"":0}","[0,1]","../img/tt/013tt.jpg","",""
"686.0500000002212","","","recognition","survey-text","100","465364","0.0-6.0-3.13","3012024","co38050","norming","","","{""guess"":""""}","","../img/tt/013tt.jpg","",""
"null","../img/gs/013gs.jpg","null","reveal","image-keyboard-response","101","467375","0.0-6.0-4.13","3012024","co38050","norming","","","","","","",""
"null","../img/tt/013tt.jpg","null","mooney2","image-keyboard-response","102","469378","0.0-6.0-5.13","3012024","co38050","norming","","","","","","",""
"2984.550000000163","","","post_reveal_questions","survey-likert","103","472364","0.0-6.0-6.13","3012024","co38050","norming","","","{""aha"":4}","[0]","../img/tt/013tt.jpg","",""
"null","<div style=""font-size:60px;""> </div>","null","fixation","html-keyboard-response","104","472570","0.0-6.0-0.14","3012024","co38050","norming","","","","","","",""
"null","../img/tt/194tt.jpg","null","mooney1","image-keyboard-response","105","475575","0.0-6.0-1.14","3012024","co38050","norming","","","","","","",""
"8282.379999999655","","","post_mooney1_questions","survey-likert","106","483861","0.0-6.0-2.14","3012024","co38050","norming","","","{""curiosity"":4,""confidence"":2}","[0,1]","../img/tt/194tt.jpg","",""
"7342.0799999999","","","recognition","survey-text","107","491204","0.0-6.0-3.14","3012024","co38050","norming","","","{""guess"":""a woman""}","","../img/tt/194tt.jpg","",""
"null","../img/gs/194gs.jpg","null","reveal","image-keyboard-response","108","493215","0.0-6.0-4.14","3012024","co38050","norming","","","","","","",""
"null","../img/tt/194tt.jpg","null","mooney2","image-keyboard-response","109","495220","0.0-6.0-5.14","3012024","co38050","norming","","","","","","",""
"4680.789999999863","","","post_reveal_questions","survey-likert","110","499903","0.0-6.0-6.14","3012024","co38050","norming","","","{""aha"":4}","[0]","../img/tt/194tt.jpg","",""
"null","<div style=""font-size:60px;""> </div>","null","fixation","html-keyboard-response","111","500106","0.0-6.0-0.15","3012024","co38050","norming","","","","","","",""
"null","../img/tt/279tt.jpg","null","mooney1","image-keyboard-response","112","503109","0.0-6.0-1.15","3012024","co38050","norming","","","","","","",""
"8087.725000000268","","","post_mooney1_questions","survey-likert","113","511199","0.0-6.0-2.15","3012024","co38050","norming","","","{""curiosity"":4,""confidence"":6}","[0,1]","../img/tt/279tt.jpg","",""
"3542.1649999998626","","","recognition","survey-text","114","514743","0.0-6.0-3.15","3012024","co38050","norming","","","{""guess"":""koala""}","","../img/tt/279tt.jpg","",""
"null","../img/gs/279gs.jpg","null","reveal","image-keyboard-response","115","516745","0.0-6.0-4.15","3012024","co38050","norming","","","","","","",""
"null","../img/tt/279tt.jpg","null","mooney2","image-keyboard-response","116","518755","0.0-6.0-5.15","3012024","co38050","norming","","","","","","",""
"4481.784999999974","","","post_reveal_questions","survey-likert","117","523239","0.0-6.0-6.15","3012024","co38050","norming","","","{""aha"":1}","[0]","../img/tt/279tt.jpg","",""
"null","<div style=""font-size:60px;""> </div>","null","fixation","html-keyboard-response","118","523448","0.0-6.0-0.16","3012024","co38050","norming","","","","","","",""
"null","../img/tt/477tt.jpg","null","mooney1","image-keyboard-response","119","526454","0.0-6.0-1.16","3012024","co38050","norming","","","","","","",""
"7599.125000000116","","","post_mooney1_questions","survey-likert","120","534055","0.0-6.0-2.16","3012024","co38050","norming","","","{""curiosity"":5,""confidence"":0}","[0,1]","../img/tt/477tt.jpg","",""
"1061.899999999674","","","recognition","survey-text","121","535119","0.0-6.0-3.16","3012024","co38050","norming","","","{""guess"":""""}","","../img/tt/477tt.jpg","",""
"null","../img/gs/477gs.jpg","null","reveal","image-keyboard-response","122","537125","0.0-6.0-4.16","3012024","co38050","norming","","","","","","",""
"null","../img/tt/477tt.jpg","null","mooney2","image-keyboard-response","123","539135","0.0-6.0-5.16","3012024","co38050","norming","","","","","","",""
"2997.705000000191","","","post_reveal_questions","survey-likert","124","542135","0.0-6.0-6.16","3012024","co38050","norming","","","{""aha"":5}","[0]","../img/tt/477tt.jpg","",""
"null","<div style=""font-size:60px;""> </div>","null","fixation","html-keyboard-response","125","542339","0.0-6.0-0.17","3012024","co38050","norming","","","","","","",""
"null","../img/tt/1269tt.jpg","null","mooney1","image-keyboard-response","126","545350","0.0-6.0-1.17","3012024","co38050","norming","","","","","","",""
"4206.944999999949","","","post_mooney1_questions","survey-likert","127","549559","0.0-6.0-2.17","3012024","co38050","norming","","","{""curiosity"":4,""confidence"":3}","[0,1]","../img/tt/1269tt.jpg","",""
"5062.295000000158","","","recognition","survey-text","128","554623","0.0-6.0-3.17","3012024","co38050","norming","","","{""guess"":""rabbit""}","","../img/tt/1269tt.jpg","",""
"null","../img/gs/1269gs.jpg","null","reveal","image-keyboard-response","129","556628","0.0-6.0-4.17","3012024","co38050","norming","","","","","","",""
"null","../img/tt/1269tt.jpg","null","mooney2","image-keyboard-response","130","558635","0.0-6.0-5.17","3012024","co38050","norming","","","","","","",""
"4109.425000000047","","","post_reveal_questions","survey-likert","131","562746","0.0-6.0-6.17","3012024","co38050","norming","","","{""aha"":5}","[0]","../img/tt/1269tt.jpg","",""
"null","<div style=""font-size:60px;""> </div>","null","fixation","html-keyboard-response","132","562953","0.0-6.0-0.18","3012024","co38050","norming","","","","","","",""
"null","../img/tt/1188tt.jpg","null","mooney1","image-keyboard-response","133","565955","0.0-6.0-1.18","3012024","co38050","norming","","","","","","",""
"5133.945000000065","","","post_mooney1_questions","survey-likert","134","571091","0.0-6.0-2.18","3012024","co38050","norming","","","{""curiosity"":4,""confidence"":0}","[0,1]","../img/tt/1188tt.jpg","",""
"742.0249999999069","","","recognition","survey-text","135","571834","0.0-6.0-3.18","3012024","co38050","norming","","","{""guess"":""""}","","../img/tt/1188tt.jpg","",""
"null","../img/gs/1188gs.jpg","null","reveal","image-keyboard-response","136","573839","0.0-6.0-4.18","3012024","co38050","norming","","","","","","",""
"null","../img/tt/1188tt.jpg","null","mooney2","image-keyboard-response","137","575847","0.0-6.0-5.18","3012024","co38050","norming","","","","","","",""
"2161.120000000228","","","post_reveal_questions","survey-likert","138","578010","0.0-6.0-6.18","3012024","co38050","norming","","","{""aha"":5}","[0]","../img/tt/1188tt.jpg","",""
"null","<div style=""font-size:60px;""> </div>","null","fixation","html-keyboard-response","139","578217","0.0-6.0-0.19","3012024","co38050","norming","","","","","","",""
"null","../img/tt/123tt.jpg","null","mooney1","image-keyboard-response","140","581222","0.0-6.0-1.19","3012024","co38050","norming","","","","","","",""
"7522.125000000349","","","post_mooney1_questions","survey-likert","141","588747","0.0-6.0-2.19","3012024","co38050","norming","","","{""curiosity"":4,""confidence"":4}","[0,1]","../img/tt/123tt.jpg","",""
"5869.990000000107","","","recognition","survey-text","142","594618","0.0-6.0-3.19","3012024","co38050","norming","","","{""guess"":""suitcase""}","","../img/tt/123tt.jpg","",""
"null","../img/gs/123gs.jpg","null","reveal","image-keyboard-response","143","596620","0.0-6.0-4.19","3012024","co38050","norming","","","","","","",""
"null","../img/tt/123tt.jpg","null","mooney2","image-keyboard-response","144","598629","0.0-6.0-5.19","3012024","co38050","norming","","","","","","",""
"3170.6399999998976","","","post_reveal_questions","survey-likert","145","601802","0.0-6.0-6.19","3012024","co38050","norming","","","{""aha"":3}","[0]","../img/tt/123tt.jpg","",""
"null","<div style=""font-size:60px;""> </div>","null","fixation","html-keyboard-response","146","602007","0.0-6.0-0.20","3012024","co38050","norming","","","","","","",""
"null","../img/tt/358tt.jpg","null","mooney1","image-keyboard-response","147","605016","0.0-6.0-1.20","3012024","co38050","norming","","","","","","",""
"5127.739999999991","","","post_mooney1_questions","survey-likert","148","610147","0.0-6.0-2.20","3012024","co38050","norming","","","{""curiosity"":5,""confidence"":0}","[0,1]","../img/tt/358tt.jpg","",""
"821.9200000003912","","","recognition","survey-text","149","610970","0.0-6.0-3.20","3012024","co38050","norming","","","{""guess"":""""}","","../img/tt/358tt.jpg","",""
"null","../img/gs/358gs.jpg","null","reveal","image-keyboard-response","150","612975","0.0-6.0-4.20","3012024","co38050","norming","","","","","","",""
"null","../img/tt/358tt.jpg","null","mooney2","image-keyboard-response","151","614977","0.0-6.0-5.20","3012024","co38050","norming","","","","","","",""
"4326.685000000056","","","post_reveal_questions","survey-likert","152","619303","0.0-6.0-6.20","3012024","co38050","norming","","","{""aha"":5}","[0]","../img/tt/358tt.jpg","",""
"null","<div style=""font-size:60px;""> </div>","null","fixation","html-keyboard-response","153","619504","0.0-6.0-0.21","3012024","co38050","norming","","","","","","",""
"null","../img/tt/1175tt.jpg","null","mooney1","image-keyboard-response","154","622507","0.0-6.0-1.21","3012024","co38050","norming","","","","","","",""
"5681.585000000312","","","post_mooney1_questions","survey-likert","155","628191","0.0-6.0-2.21","3012024","co38050","norming","","","{""curiosity"":4,""confidence"":0}","[0,1]","../img/tt/1175tt.jpg","",""
"1198.0450000001583","","","recognition","survey-text","156","629391","0.0-6.0-3.21","3012024","co38050","norming","","","{""guess"":""""}","","../img/tt/1175tt.jpg","",""
"null","../img/gs/1175gs.jpg","null","reveal","image-keyboard-response","157","631397","0.0-6.0-4.21","3012024","co38050","norming","","","","","","",""
"null","../img/tt/1175tt.jpg","null","mooney2","image-keyboard-response","158","633399","0.0-6.0-5.21","3012024","co38050","norming","","","","","","",""
"3797.4899999999907","","","post_reveal_questions","survey-likert","159","637199","0.0-6.0-6.21","3012024","co38050","norming","","","{""aha"":5}","[0]","../img/tt/1175tt.jpg","",""
"null","<div style=""font-size:60px;""> </div>","null","fixation","html-keyboard-response","160","637404","0.0-6.0-0.22","3012024","co38050","norming","","","","","","",""
"null","../img/tt/1250tt.jpg","null","mooney1","image-keyboard-response","161","640407","0.0-6.0-1.22","3012024","co38050","norming","","","","","","",""
"4836.365000000107","","","post_mooney1_questions","survey-likert","162","645247","0.0-6.0-2.22","3012024","co38050","norming","","","{""curiosity"":4,""confidence"":1}","[0,1]","../img/tt/1250tt.jpg","",""
"4102.135000000009","","","recognition","survey-text","163","649351","0.0-6.0-3.22","3012024","co38050","norming","","","{""guess"":""bear""}","","../img/tt/1250tt.jpg","",""
"null","../img/gs/1250gs.jpg","null","reveal","image-keyboard-response","164","651360","0.0-6.0-4.22","3012024","co38050","norming","","","","","","",""
"null","../img/tt/1250tt.jpg","null","mooney2","image-keyboard-response","165","653369","0.0-6.0-5.22","3012024","co38050","norming","","","","","","",""
"5402.739999999991","","","post_reveal_questions","survey-likert","166","658775","0.0-6.0-6.22","3012024","co38050","norming","","","{""aha"":4}","[0]","../img/tt/1250tt.jpg","",""
"null","<div style=""font-size:60px;""> </div>","null","fixation","html-keyboard-response","167","658985","0.0-6.0-0.23","3012024","co38050","norming","","","","","","",""
"null","../img/tt/040tt.jpg","null","mooney1","image-keyboard-response","168","661989","0.0-6.0-1.23","3012024","co38050","norming","","","","","","",""
"6743.735000000102","","","post_mooney1_questions","survey-likert","169","668735","0.0-6.0-2.23","3012024","co38050","norming","","","{""curiosity"":3,""confidence"":3}","[0,1]","../img/tt/040tt.jpg","",""
"5501.879999999772","","","recognition","survey-text","170","674238","0.0-6.0-3.23","3012024","co38050","norming","","","{""guess"":""wolf""}","","../img/tt/040tt.jpg","",""
"null","../img/gs/040gs.jpg","null","reveal","image-keyboard-response","171","676241","0.0-6.0-4.23","3012024","co38050","norming","","","","","","",""
"null","../img/tt/040tt.jpg","null","mooney2","image-keyboard-response","172","678252","0.0-6.0-5.23","3012024","co38050","norming","","","","","","",""
"4387.890000000014","","","post_reveal_questions","survey-likert","173","682641","0.0-6.0-6.23","3012024","co38050","norming","","","{""aha"":5}","[0]","../img/tt/040tt.jpg","",""
"null","<div style=""font-size:60px;""> </div>","null","fixation","html-keyboard-response","174","682844","0.0-6.0-0.24","3012024","co38050","norming","","","","","","",""
"null","../img/tt/405tt.jpg","null","mooney1","image-keyboard-response","175","685854","0.0-6.0-1.24","3012024","co38050","norming","","","","","","",""
"7631.605000000098","","","post_mooney1_questions","survey-likert","176","693488","0.0-6.0-2.24","3012024","co38050","norming","","","{""curiosity"":3,""confidence"":6}","[0,1]","../img/tt/405tt.jpg","",""
"3718.2900000001537","","","recognition","survey-text","177","697208","0.0-6.0-3.24","3012024","co38050","norming","","","{""guess"":""koala""}","","../img/tt/405tt.jpg","",""
"null","../img/gs/405gs.jpg","null","reveal","image-keyboard-response","178","699210","0.0-6.0-4.24","3012024","co38050","norming","","","","","","",""
"null","../img/tt/405tt.jpg","null","mooney2","image-keyboard-response","179","701220","0.0-6.0-5.24","3012024","co38050","norming","","","","","","",""
"7065.685000000056","","","post_reveal_questions","survey-likert","180","708288","0.0-6.0-6.24","3012024","co38050","norming","","","{""aha"":2}","[0]","../img/tt/405tt.jpg","",""
"null","<div style=""font-size:60px;""> </div>","null","fixation","html-keyboard-response","181","708489","0.0-6.0-0.25","3012024","co38050","norming","","","","","","",""
"null","../img/tt/1097tt.jpg","null","mooney1","image-keyboard-response","182","711493","0.0-6.0-1.25","3012024","co38050","norming","","","","","","",""
"23624.784999999916","","","post_mooney1_questions","survey-likert","183","735121","0.0-6.0-2.25","3012024","co38050","norming","","","{""curiosity"":3,""confidence"":3}","[0,1]","../img/tt/1097tt.jpg","",""
"5221.904999999795","","","recognition","survey-text","184","740343","0.0-6.0-3.25","3012024","co38050","norming","","","{""guess"":""peddle""}","","../img/tt/1097tt.jpg","",""
"null","../img/gs/1097gs.jpg","null","reveal","image-keyboard-response","185","742344","0.0-6.0-4.25","3012024","co38050","norming","","","","","","",""
"null","../img/tt/1097tt.jpg","null","mooney2","image-keyboard-response","186","744350","0.0-6.0-5.25","3012024","co38050","norming","","","","","","",""
"4279.614999999874","","","post_reveal_questions","survey-likert","187","748631","0.0-6.0-6.25","3012024","co38050","norming","","","{""aha"":1}","[0]","../img/tt/1097tt.jpg","",""
"null","<div style=""font-size:60px;""> </div>","null","fixation","html-keyboard-response","188","748832","0.0-6.0-0.26","3012024","co38050","norming","","","","","","",""
"null","../img/tt/1181tt.jpg","null","mooney1","image-keyboard-response","189","751836","0.0-6.0-1.26","3012024","co38050","norming","","","","","","",""
"5320.574999999721","","","post_mooney1_questions","survey-likert","190","757159","0.0-6.0-2.26","3012024","co38050","norming","","","{""curiosity"":5,""confidence"":0}","[0,1]","../img/tt/1181tt.jpg","",""
"918.3600000001024","","","recognition","survey-text","191","758079","0.0-6.0-3.26","3012024","co38050","norming","","","{""guess"":""""}","","../img/tt/1181tt.jpg","",""
"null","../img/gs/1181gs.jpg","null","reveal","image-keyboard-response","192","760081","0.0-6.0-4.26","3012024","co38050","norming","","","","","","",""
"null","../img/tt/1181tt.jpg","null","mooney2","image-keyboard-response","193","762082","0.0-6.0-5.26","3012024","co38050","norming","","","","","","",""
"4201.930000000168","","","post_reveal_questions","survey-likert","194","766287","0.0-6.0-6.26","3012024","co38050","norming","","","{""aha"":4}","[0]","../img/tt/1181tt.jpg","",""
"null","<div style=""font-size:60px;""> </div>","null","fixation","html-keyboard-response","195","766491","0.0-6.0-0.27","3012024","co38050","norming","","","","","","",""
"null","../img/tt/468tt.jpg","null","mooney1","image-keyboard-response","196","769501","0.0-6.0-1.27","3012024","co38050","norming","","","","","","",""
"4998.7799999999115","","","post_mooney1_questions","survey-likert","197","774503","0.0-6.0-2.27","3012024","co38050","norming","","","{""curiosity"":4,""confidence"":0}","[0,1]","../img/tt/468tt.jpg","",""
"1046.354999999865","","","recognition","survey-text","198","775551","0.0-6.0-3.27","3012024","co38050","norming","","","{""guess"":""""}","","../img/tt/468tt.jpg","",""
"null","../img/gs/468gs.jpg","null","reveal","image-keyboard-response","199","777554","0.0-6.0-4.27","3012024","co38050","norming","","","","","","",""
"null","../img/tt/468tt.jpg","null","mooney2","image-keyboard-response","200","779562","0.0-6.0-5.27","3012024","co38050","norming","","","","","","",""
"2642.345000000205","","","post_reveal_questions","survey-likert","201","782207","0.0-6.0-6.27","3012024","co38050","norming","","","{""aha"":5}","[0]","../img/tt/468tt.jpg","",""
"null","<div style=""font-size:60px;""> </div>","null","fixation","html-keyboard-response","202","782409","0.0-6.0-0.28","3012024","co38050","norming","","","","","","",""
"null","../img/tt/1118tt.jpg","null","mooney1","image-keyboard-response","203","785419","0.0-6.0-1.28","3012024","co38050","norming","","","","","","",""
"4489.39000000013","","","post_mooney1_questions","survey-likert","204","789911","0.0-6.0-2.28","3012024","co38050","norming","","","{""curiosity"":4,""confidence"":0}","[0,1]","../img/tt/1118tt.jpg","",""
"966.199999999837","","","recognition","survey-text","205","790879","0.0-6.0-3.28","3012024","co38050","norming","","","{""guess"":""""}","","../img/tt/1118tt.jpg","",""
"null","../img/gs/1118gs.jpg","null","reveal","image-keyboard-response","206","792881","0.0-6.0-4.28","3012024","co38050","norming","","","","","","",""
"null","../img/tt/1118tt.jpg","null","mooney2","image-keyboard-response","207","794884","0.0-6.0-5.28","3012024","co38050","norming","","","","","","",""
"2495.859999999986","","","post_reveal_questions","survey-likert","208","797383","0.0-6.0-6.28","3012024","co38050","norming","","","{""aha"":5}","[0]","../img/tt/1118tt.jpg","",""
"null","<div style=""font-size:60px;""> </div>","null","fixation","html-keyboard-response","209","797584","0.0-6.0-0.29","3012024","co38050","norming","","","","","","",""
"null","../img/tt/1241tt.jpg","null","mooney1","image-keyboard-response","210","800593","0.0-6.0-1.29","3012024","co38050","norming","","","","","","",""
"6478.070000000065","","","post_mooney1_questions","survey-likert","211","807074","0.0-6.0-2.29","3012024","co38050","norming","","","{""curiosity"":4,""confidence"":0}","[0,1]","../img/tt/1241tt.jpg","",""
"654.1300000003539","","","recognition","survey-text","212","807730","0.0-6.0-3.29","3012024","co38050","norming","","","{""guess"":""""}","","../img/tt/1241tt.jpg","",""
"null","../img/gs/1241gs.jpg","null","reveal","image-keyboard-response","213","809735","0.0-6.0-4.29","3012024","co38050","norming","","","","","","",""
"null","../img/tt/1241tt.jpg","null","mooney2","image-keyboard-response","214","811744","0.0-6.0-5.29","3012024","co38050","norming","","","","","","",""
"2911.444999999716","","","post_reveal_questions","survey-likert","215","814658","0.0-6.0-6.29","3012024","co38050","norming","","","{""aha"":4}","[0]","../img/tt/1241tt.jpg","",""
"null","<div style=""font-size:60px;""> </div>","null","fixation","html-keyboard-response","216","814867","0.0-6.0-0.30","3012024","co38050","norming","","","","","","",""
"null","../img/tt/1078tt.jpg","null","mooney1","image-keyboard-response","217","817871","0.0-6.0-1.30","3012024","co38050","norming","","","","","","",""
"8832.760000000242","","","post_mooney1_questions","survey-likert","218","826707","0.0-6.0-2.30","3012024","co38050","norming","","","{""curiosity"":3,""confidence"":1}","[0,1]","../img/tt/1078tt.jpg","",""
"5805.85999999987","","","recognition","survey-text","219","832514","0.0-6.0-3.30","3012024","co38050","norming","","","{""guess"":""a boy""}","","../img/tt/1078tt.jpg","",""
"null","../img/gs/1078gs.jpg","null","reveal","image-keyboard-response","220","834515","0.0-6.0-4.30","3012024","co38050","norming","","","","","","",""
"null","../img/tt/1078tt.jpg","null","mooney2","image-keyboard-response","221","836525","0.0-6.0-5.30","3012024","co38050","norming","","","","","","",""
"3476.5250000000233","","","post_reveal_questions","survey-likert","222","840002","0.0-6.0-6.30","3012024","co38050","norming","","","{""aha"":4}","[0]","../img/tt/1078tt.jpg","",""
"null","<div style=""font-size:60px;""> </div>","null","fixation","html-keyboard-response","223","840205","0.0-6.0-0.31","3012024","co38050","norming","","","","","","",""
"null","../img/tt/063tt.jpg","null","mooney1","image-keyboard-response","224","843208","0.0-6.0-1.31","3012024","co38050","norming","","","","","","",""
"6007.260000000359","","","post_mooney1_questions","survey-likert","225","849218","0.0-6.0-2.31","3012024","co38050","norming","","","{""curiosity"":4,""confidence"":0}","[0,1]","../img/tt/063tt.jpg","",""
"1445.7949999996927","","","recognition","survey-text","226","850666","0.0-6.0-3.31","3012024","co38050","norming","","","{""guess"":""""}","","../img/tt/063tt.jpg","",""
"null","../img/gs/063gs.jpg","null","reveal","image-keyboard-response","227","852673","0.0-6.0-4.31","3012024","co38050","norming","","","","","","",""
"null","../img/tt/063tt.jpg","null","mooney2","image-keyboard-response","228","854683","0.0-6.0-5.31","3012024","co38050","norming","","","","","","",""
"3285.0750000003027","","","post_reveal_questions","survey-likert","229","857970","0.0-6.0-6.31","3012024","co38050","norming","","","{""aha"":5}","[0]","../img/tt/063tt.jpg","",""
"null","<div style=""font-size:60px;""> </div>","null","fixation","html-keyboard-response","230","858172","0.0-6.0-0.32","3012024","co38050","norming","","","","","","",""
"null","../img/tt/055tt.jpg","null","mooney1","image-keyboard-response","231","861177","0.0-6.0-1.32","3012024","co38050","norming","","","","","","",""
"4237.929999999818","","","post_mooney1_questions","survey-likert","232","865418","0.0-6.0-2.32","3012024","co38050","norming","","","{""curiosity"":4,""confidence"":0}","[0,1]","../img/tt/055tt.jpg","",""
"1750.0999999997439","","","recognition","survey-text","233","867170","0.0-6.0-3.32","3012024","co38050","norming","","","{""guess"":""""}","","../img/tt/055tt.jpg","",""
"null","../img/gs/055gs.jpg","null","reveal","image-keyboard-response","234","869177","0.0-6.0-4.32","3012024","co38050","norming","","","","","","",""
"null","../img/tt/055tt.jpg","null","mooney2","image-keyboard-response","235","871187","0.0-6.0-5.32","3012024","co38050","norming","","","","","","",""
"3380.805000000284","","","post_reveal_questions","survey-likert","236","874570","0.0-6.0-6.32","3012024","co38050","norming","","","{""aha"":5}","[0]","../img/tt/055tt.jpg","",""
"null","<div style=""font-size:60px;""> </div>","null","fixation","html-keyboard-response","237","874772","0.0-6.0-0.33","3012024","co38050","norming","","","","","","",""
"null","../img/tt/1290tt.jpg","null","mooney1","image-keyboard-response","238","877777","0.0-6.0-1.33","3012024","co38050","norming","","","","","","",""
"5342.570000000298","","","post_mooney1_questions","survey-likert","239","883122","0.0-6.0-2.33","3012024","co38050","norming","","","{""curiosity"":4,""confidence"":1}","[0,1]","../img/tt/1290tt.jpg","",""
"6493.730000000098","","","recognition","survey-text","240","889618","0.0-6.0-3.33","3012024","co38050","norming","","","{""guess"":""gorilla""}","","../img/tt/1290tt.jpg","",""
"null","../img/gs/1290gs.jpg","null","reveal","image-keyboard-response","241","891619","0.0-6.0-4.33","3012024","co38050","norming","","","","","","",""
"null","../img/tt/1290tt.jpg","null","mooney2","image-keyboard-response","242","893619","0.0-6.0-5.33","3012024","co38050","norming","","","","","","",""
"6781.405000000144","","","post_reveal_questions","survey-likert","243","900402","0.0-6.0-6.33","3012024","co38050","norming","","","{""aha"":5}","[0]","../img/tt/1290tt.jpg","",""
"null","<div style=""font-size:60px;""> </div>","null","fixation","html-keyboard-response","244","900603","0.0-6.0-0.34","3012024","co38050","norming","","","","","","",""
"null","../img/tt/1128tt.jpg","null","mooney1","image-keyboard-response","245","903610","0.0-6.0-1.34","3012024","co38050","norming","","","","","","",""
"7863.00999999966","","","post_mooney1_questions","survey-likert","246","911474","0.0-6.0-2.34","3012024","co38050","norming","","","{""curiosity"":4,""confidence"":2}","[0,1]","../img/tt/1128tt.jpg","",""
"4349.984999999753","","","recognition","survey-text","247","915826","0.0-6.0-3.34","3012024","co38050","norming","","","{""guess"":""monkey""}","","../img/tt/1128tt.jpg","",""
"null","../img/gs/1128gs.jpg","null","reveal","image-keyboard-response","248","917830","0.0-6.0-4.34","3012024","co38050","norming","","","","","","",""
"null","../img/tt/1128tt.jpg","null","mooney2","image-keyboard-response","249","919832","0.0-6.0-5.34","3012024","co38050","norming","","","","","","",""
"3352.015000000014","","","post_reveal_questions","survey-likert","250","923180","0.0-6.0-6.34","3012024","co38050","norming","","","{""aha"":5}","[0]","../img/tt/1128tt.jpg","",""
"null","<div style=""font-size:60px;""> </div>","null","fixation","html-keyboard-response","251","923386","0.0-6.0-0.35","3012024","co38050","norming","","","","","","",""
"null","../img/tt/1089tt.jpg","null","mooney1","image-keyboard-response","252","926389","0.0-6.0-1.35","3012024","co38050","norming","","","","","","",""
"5590.400000000023","","","post_mooney1_questions","survey-likert","253","931981","0.0-6.0-2.35","3012024","co38050","norming","","","{""curiosity"":4,""confidence"":1}","[0,1]","../img/tt/1089tt.jpg","",""
"5893.8549999997485","","","recognition","survey-text","254","937876","0.0-6.0-3.35","3012024","co38050","norming","","","{""guess"":""elephant""}","","../img/tt/1089tt.jpg","",""
"null","../img/gs/1089gs.jpg","null","reveal","image-keyboard-response","255","939877","0.0-6.0-4.35","3012024","co38050","norming","","","","","","",""
"null","../img/tt/1089tt.jpg","null","mooney2","image-keyboard-response","256","941880","0.0-6.0-5.35","3012024","co38050","norming","","","","","","",""
"3210.354999999632","","","post_reveal_questions","survey-likert","257","945092","0.0-6.0-6.35","3012024","co38050","norming","","","{""aha"":3}","[0]","../img/tt/1089tt.jpg","",""
"null","<div style=""font-size:60px;""> </div>","null","fixation","html-keyboard-response","258","945300","0.0-6.0-0.36","3012024","co38050","norming","","","","","","",""
"null","../img/tt/296tt.jpg","null","mooney1","image-keyboard-response","259","948310","0.0-6.0-1.36","3012024","co38050","norming","","","","","","",""
"5157.4099999998","","","post_mooney1_questions","survey-likert","260","953468","0.0-6.0-2.36","3012024","co38050","norming","","","{""curiosity"":4,""confidence"":0}","[0,1]","../img/tt/296tt.jpg","",""
"1662.220000000205","","","recognition","survey-text","261","955132","0.0-6.0-3.36","3012024","co38050","norming","","","{""guess"":""""}","","../img/tt/296tt.jpg","",""
"null","../img/gs/296gs.jpg","null","reveal","image-keyboard-response","262","957138","0.0-6.0-4.36","3012024","co38050","norming","","","","","","",""
"null","../img/tt/296tt.jpg","null","mooney2","image-keyboard-response","263","959141","0.0-6.0-5.36","3012024","co38050","norming","","","","","","",""
"15403.714999999967","","","post_reveal_questions","survey-likert","264","974548","0.0-6.0-6.36","3012024","co38050","norming","","","{""aha"":4}","[0]","../img/tt/296tt.jpg","",""
"null","<div style=""font-size:60px;""> </div>","null","fixation","html-keyboard-response","265","974751","0.0-6.0-0.37","3012024","co38050","norming","","","","","","",""
"null","../img/tt/1012tt.jpg","null","mooney1","image-keyboard-response","266","977758","0.0-6.0-1.37","3012024","co38050","norming","","","","","","",""
"4099.930000000284","","","post_mooney1_questions","survey-likert","267","981861","0.0-6.0-2.37","3012024","co38050","norming","","","{""curiosity"":4,""confidence"":0}","[0,1]","../img/tt/1012tt.jpg","",""
"1069.9400000002934","","","recognition","survey-text","268","982931","0.0-6.0-3.37","3012024","co38050","norming","","","{""guess"":""""}","","../img/tt/1012tt.jpg","",""
"null","../img/gs/1012gs.jpg","null","reveal","image-keyboard-response","269","984934","0.0-6.0-4.37","3012024","co38050","norming","","","","","","",""
"null","../img/tt/1012tt.jpg","null","mooney2","image-keyboard-response","270","986941","0.0-6.0-5.37","3012024","co38050","norming","","","","","","",""
"3755.1149999999907","","","post_reveal_questions","survey-likert","271","990699","0.0-6.0-6.37","3012024","co38050","norming","","","{""aha"":5}","[0]","../img/tt/1012tt.jpg","",""
"null","<div style=""font-size:60px;""> </div>","null","fixation","html-keyboard-response","272","990909","0.0-6.0-0.38","3012024","co38050","norming","","","","","","",""
"null","../img/tt/1148tt.jpg","null","mooney1","image-keyboard-response","273","993913","0.0-6.0-1.38","3012024","co38050","norming","","","","","","",""
"4183.035000000033","","","post_mooney1_questions","survey-likert","274","998099","0.0-6.0-2.38","3012024","co38050","norming","","","{""curiosity"":4,""confidence"":0}","[0,1]","../img/tt/1148tt.jpg","",""
"1141.9599999998463","","","recognition","survey-text","275","999243","0.0-6.0-3.38","3012024","co38050","norming","","","{""guess"":""""}","","../img/tt/1148tt.jpg","",""
"null","../img/gs/1148gs.jpg","null","reveal","image-keyboard-response","276","1001250","0.0-6.0-4.38","3012024","co38050","norming","","","","","","",""
"null","../img/tt/1148tt.jpg","null","mooney2","image-keyboard-response","277","1003259","0.0-6.0-5.38","3012024","co38050","norming","","","","","","",""
"2245.015000000014","","","post_reveal_questions","survey-likert","278","1005507","0.0-6.0-6.38","3012024","co38050","norming","","","{""aha"":5}","[0]","../img/tt/1148tt.jpg","",""
"null","<div style=""font-size:60px;""> </div>","null","fixation","html-keyboard-response","279","1005715","0.0-6.0-0.39","3012024","co38050","norming","","","","","","",""
"null","../img/tt/1101tt.jpg","null","mooney1","image-keyboard-response","280","1008718","0.0-6.0-1.39","3012024","co38050","norming","","","","","","",""
"5962.540000000037","","","post_mooney1_questions","survey-likert","281","1014683","0.0-6.0-2.39","3012024","co38050","norming","","","{""curiosity"":3,""confidence"":6}","[0,1]","../img/tt/1101tt.jpg","",""
"9102.219999999856","","","recognition","survey-text","282","1023787","0.0-6.0-3.39","3012024","co38050","norming","","","{""guess"":""footballplayer""}","","../img/tt/1101tt.jpg","",""
"null","../img/gs/1101gs.jpg","null","reveal","image-keyboard-response","283","1025790","0.0-6.0-4.39","3012024","co38050","norming","","","","","","",""
"null","../img/tt/1101tt.jpg","null","mooney2","image-keyboard-response","284","1027801","0.0-6.0-5.39","3012024","co38050","norming","","","","","","",""
"5935.870000000345","","","post_reveal_questions","survey-likert","285","1033739","0.0-6.0-6.39","3012024","co38050","norming","","","{""aha"":2}","[0]","../img/tt/1101tt.jpg","",""
"null","<div style=""font-size:60px;""> </div>","null","fixation","html-keyboard-response","286","1033941","0.0-6.0-0.40","3012024","co38050","norming","","","","","","",""
"null","../img/tt/091tt.jpg","null","mooney1","image-keyboard-response","287","1036952","0.0-6.0-1.40","3012024","co38050","norming","","","","","","",""
"5215.644999999786","","","post_mooney1_questions","survey-likert","288","1042171","0.0-6.0-2.40","3012024","co38050","norming","","","{""curiosity"":5,""confidence"":0}","[0,1]","../img/tt/091tt.jpg","",""
"1077.905000000028","","","recognition","survey-text","289","1043257","0.0-6.0-3.40","3012024","co38050","norming","","","{""guess"":""""}","","../img/tt/091tt.jpg","",""
"null","../img/gs/091gs.jpg","null","reveal","image-keyboard-response","290","1045259","0.0-6.0-4.40","3012024","co38050","norming","","","","","","",""
"null","../img/tt/091tt.jpg","null","mooney2","image-keyboard-response","291","1047265","0.0-6.0-5.40","3012024","co38050","norming","","","","","","",""
"6413.239999999991","","","post_reveal_questions","survey-likert","292","1053681","0.0-6.0-6.40","3012024","co38050","norming","","","{""aha"":4}","[0]","../img/tt/091tt.jpg","",""
"null","<div style=""font-size:60px;""> </div>","null","fixation","html-keyboard-response","293","1053882","0.0-6.0-0.41","3012024","co38050","norming","","","","","","",""
"null","../img/tt/1146tt.jpg","null","mooney1","image-keyboard-response","294","1056890","0.0-6.0-1.41","3012024","co38050","norming","","","","","","",""
"10507.464999999618","","","post_mooney1_questions","survey-likert","295","1067401","0.0-6.0-2.41","3012024","co38050","norming","","","{""curiosity"":4,""confidence"":1}","[0,1]","../img/tt/1146tt.jpg","",""
"4078.125","","","recognition","survey-text","296","1071481","0.0-6.0-3.41","3012024","co38050","norming","","","{""guess"":""bow""}","","../img/tt/1146tt.jpg","",""
"null","../img/gs/1146gs.jpg","null","reveal","image-keyboard-response","297","1073482","0.0-6.0-4.41","3012024","co38050","norming","","","","","","",""
"null","../img/tt/1146tt.jpg","null","mooney2","image-keyboard-response","298","1075486","0.0-6.0-5.41","3012024","co38050","norming","","","","","","",""
"4264.19000000041","","","post_reveal_questions","survey-likert","299","1079753","0.0-6.0-6.41","3012024","co38050","norming","","","{""aha"":2}","[0]","../img/tt/1146tt.jpg","",""
"null","<div style=""font-size:60px;""> </div>","null","fixation","html-keyboard-response","300","1079958","0.0-6.0-0.42","3012024","co38050","norming","","","","","","",""
"null","../img/tt/598tt.jpg","null","mooney1","image-keyboard-response","301","1082965","0.0-6.0-1.42","3012024","co38050","norming","","","","","","",""
"5208.870000000345","","","post_mooney1_questions","survey-likert","302","1088177","0.0-6.0-2.42","3012024","co38050","norming","","","{""curiosity"":4,""confidence"":1}","[0,1]","../img/tt/598tt.jpg","",""
"3686.1450000000186","","","recognition","survey-text","303","1091864","0.0-6.0-3.42","3012024","co38050","norming","","","{""guess"":""bug ""}","","../img/tt/598tt.jpg","",""
"null","../img/gs/598gs.jpg","null","reveal","image-keyboard-response","304","1093870","0.0-6.0-4.42","3012024","co38050","norming","","","","","","",""
"null","../img/tt/598tt.jpg","null","mooney2","image-keyboard-response","305","1095875","0.0-6.0-5.42","3012024","co38050","norming","","","","","","",""
"5282.219999999739","","","post_reveal_questions","survey-likert","306","1101161","0.0-6.0-6.42","3012024","co38050","norming","","","{""aha"":4}","[0]","../img/tt/598tt.jpg","",""
"null","<div style=""font-size:60px;""> </div>","null","fixation","html-keyboard-response","307","1101369","0.0-6.0-0.43","3012024","co38050","norming","","","","","","",""
"null","../img/tt/1211tt.jpg","null","mooney1","image-keyboard-response","308","1104377","0.0-6.0-1.43","3012024","co38050","norming","","","","","","",""
"15088.554999999935","","","post_mooney1_questions","survey-likert","309","1119466","0.0-6.0-2.43","3012024","co38050","norming","","","{""curiosity"":4,""confidence"":0}","[0,1]","../img/tt/1211tt.jpg","",""
"1086.130000000121","","","recognition","survey-text","310","1120554","0.0-6.0-3.43","3012024","co38050","norming","","","{""guess"":""""}","","../img/tt/1211tt.jpg","",""
"null","../img/gs/1211gs.jpg","null","reveal","image-keyboard-response","311","1122556","0.0-6.0-4.43","3012024","co38050","norming","","","","","","",""
"null","../img/tt/1211tt.jpg","null","mooney2","image-keyboard-response","312","1124561","0.0-6.0-5.43","3012024","co38050","norming","","","","","","",""
"6550.905000000028","","","post_reveal_questions","survey-likert","313","1131114","0.0-6.0-6.43","3012024","co38050","norming","","","{""aha"":5}","[0]","../img/tt/1211tt.jpg","",""
"null","<div style=""font-size:60px;""> </div>","null","fixation","html-keyboard-response","314","1131319","0.0-6.0-0.44","3012024","co38050","norming","","","","","","",""
"null","../img/tt/1006tt.jpg","null","mooney1","image-keyboard-response","315","1134327","0.0-6.0-1.44","3012024","co38050","norming","","","","","","",""
"4522.600000000326","","","post_mooney1_questions","survey-likert","316","1138850","0.0-6.0-2.44","3012024","co38050","norming","","","{""curiosity"":5,""confidence"":1}","[0,1]","../img/tt/1006tt.jpg","",""
"4173.945000000065","","","recognition","survey-text","317","1143026","0.0-6.0-3.44","3012024","co38050","norming","","","{""guess"":""sheep""}","","../img/tt/1006tt.jpg","",""
"null","../img/gs/1006gs.jpg","null","reveal","image-keyboard-response","318","1145032","0.0-6.0-4.44","3012024","co38050","norming","","","","","","",""
"null","../img/tt/1006tt.jpg","null","mooney2","image-keyboard-response","319","1147036","0.0-6.0-5.44","3012024","co38050","norming","","","","","","",""
"5867.495000000112","","","post_reveal_questions","survey-likert","320","1152906","0.0-6.0-6.44","3012024","co38050","norming","","","{""aha"":3}","[0]","../img/tt/1006tt.jpg","",""
"null","<div style=""font-size:60px;""> </div>","null","fixation","html-keyboard-response","321","1153107","0.0-6.0-0.45","3012024","co38050","norming","","","","","","",""
"null","../img/tt/1279tt.jpg","null","mooney1","image-keyboard-response","322","1156110","0.0-6.0-1.45","3012024","co38050","norming","","","","","","",""
"4049.135000000242","","","post_mooney1_questions","survey-likert","323","1160162","0.0-6.0-2.45","3012024","co38050","norming","","","{""curiosity"":4,""confidence"":0}","[0,1]","../img/tt/1279tt.jpg","",""
"782.0299999997951","","","recognition","survey-text","324","1160946","0.0-6.0-3.45","3012024","co38050","norming","","","{""guess"":""""}","","../img/tt/1279tt.jpg","",""
"null","../img/gs/1279gs.jpg","null","reveal","image-keyboard-response","325","1162957","0.0-6.0-4.45","3012024","co38050","norming","","","","","","",""
"null","../img/tt/1279tt.jpg","null","mooney2","image-keyboard-response","326","1164963","0.0-6.0-5.45","3012024","co38050","norming","","","","","","",""
"8412.635000000242","","","post_reveal_questions","survey-likert","327","1173378","0.0-6.0-6.45","3012024","co38050","norming","","","{""aha"":4}","[0]","../img/tt/1279tt.jpg","",""
"null","<div style=""font-size:60px;""> </div>","null","fixation","html-keyboard-response","328","1173579","0.0-6.0-0.46","3012024","co38050","norming","","","","","","",""
"null","../img/tt/056tt.jpg","null","mooney1","image-keyboard-response","329","1176581","0.0-6.0-1.46","3012024","co38050","norming","","","","","","",""
"12425.51000000001","","","post_mooney1_questions","survey-likert","330","1189010","0.0-6.0-2.46","3012024","co38050","norming","","","{""curiosity"":4,""confidence"":1}","[0,1]","../img/tt/056tt.jpg","",""
"5974.034999999683","","","recognition","survey-text","331","1194986","0.0-6.0-3.46","3012024","co38050","norming","","","{""guess"":""rock""}","","../img/tt/056tt.jpg","",""
"null","../img/gs/056gs.jpg","null","reveal","image-keyboard-response","332","1196994","0.0-6.0-4.46","3012024","co38050","norming","","","","","","",""
"null","../img/tt/056tt.jpg","null","mooney2","image-keyboard-response","333","1199002","0.0-6.0-5.46","3012024","co38050","norming","","","","","","",""
"10908.899999999907","","","post_reveal_questions","survey-likert","334","1209914","0.0-6.0-6.46","3012024","co38050","norming","","","{""aha"":4}","[0]","../img/tt/056tt.jpg","",""
"null","<div style=""font-size:60px;""> </div>","null","fixation","html-keyboard-response","335","1210118","0.0-6.0-0.47","3012024","co38050","norming","","","","","","",""
"null","../img/tt/416tt.jpg","null","mooney1","image-keyboard-response","336","1213120","0.0-6.0-1.47","3012024","co38050","norming","","","","","","",""
"5534.369999999879","","","post_mooney1_questions","survey-likert","337","1218658","0.0-6.0-2.47","3012024","co38050","norming","","","{""curiosity"":5,""confidence"":0}","[0,1]","../img/tt/416tt.jpg","",""
"613.3349999999627","","","recognition","survey-text","338","1219274","0.0-6.0-3.47","3012024","co38050","norming","","","{""guess"":""""}","","../img/tt/416tt.jpg","",""
"null","../img/gs/416gs.jpg","null","reveal","image-keyboard-response","339","1221284","0.0-6.0-4.47","3012024","co38050","norming","","","","","","",""
"null","../img/tt/416tt.jpg","null","mooney2","image-keyboard-response","340","1223286","0.0-6.0-5.47","3012024","co38050","norming","","","","","","",""
"6593.320000000065","","","post_reveal_questions","survey-likert","341","1229881","0.0-6.0-6.47","3012024","co38050","norming","","","{""aha"":2}","[0]","../img/tt/416tt.jpg","",""
"null","<div style=""font-size:60px;""> </div>","null","fixation","html-keyboard-response","342","1230082","0.0-6.0-0.48","3012024","co38050","norming","","","","","","",""
"null","../img/tt/049tt.jpg","null","mooney1","image-keyboard-response","343","1233088","0.0-6.0-1.48","3012024","co38050","norming","","","","","","",""
"6373.885000000009","","","post_mooney1_questions","survey-likert","344","1239465","0.0-6.0-2.48","3012024","co38050","norming","","","{""curiosity"":4,""confidence"":0}","[0,1]","../img/tt/049tt.jpg","",""
"781.9899999999907","","","recognition","survey-text","345","1240249","0.0-6.0-3.48","3012024","co38050","norming","","","{""guess"":""""}","","../img/tt/049tt.jpg","",""
"null","../img/gs/049gs.jpg","null","reveal","image-keyboard-response","346","1242253","0.0-6.0-4.48","3012024","co38050","norming","","","","","","",""
"null","../img/tt/049tt.jpg","null","mooney2","image-keyboard-response","347","1244261","0.0-6.0-5.48","3012024","co38050","norming","","","","","","",""
"2041.5450000001583","","","post_reveal_questions","survey-likert","348","1246304","0.0-6.0-6.48","3012024","co38050","norming","","","{""aha"":2}","[0]","../img/tt/049tt.jpg","",""
"null","<div style=""font-size:60px;""> </div>","null","fixation","html-keyboard-response","349","1246509","0.0-6.0-0.49","3012024","co38050","norming","","","","","","",""
"null","../img/tt/1186tt.jpg","null","mooney1","image-keyboard-response","350","1249516","0.0-6.0-1.49","3012024","co38050","norming","","","","","","",""
"7801.779999999795","","","post_mooney1_questions","survey-likert","351","1257321","0.0-6.0-2.49","3012024","co38050","norming","","","{""curiosity"":4,""confidence"":1}","[0,1]","../img/tt/1186tt.jpg","",""
"6038.1349999997765","","","recognition","survey-text","352","1263361","0.0-6.0-3.49","3012024","co38050","norming","","","{""guess"":""officer""}","","../img/tt/1186tt.jpg","",""
"null","../img/gs/1186gs.jpg","null","reveal","image-keyboard-response","353","1265370","0.0-6.0-4.49","3012024","co38050","norming","","","","","","",""
"null","../img/tt/1186tt.jpg","null","mooney2","image-keyboard-response","354","1267374","0.0-6.0-5.49","3012024","co38050","norming","","","","","","",""
"2800.369999999879","","","post_reveal_questions","survey-likert","355","1270177","0.0-6.0-6.49","3012024","co38050","norming","","","{""aha"":4}","[0]","../img/tt/1186tt.jpg","",""
"null","<div style=""font-size:60px;""> </div>","null","fixation","html-keyboard-response","356","1270378","0.0-6.0-0.50","3012024","co38050","norming","","","","","","",""
"null","../img/tt/1173tt.jpg","null","mooney1","image-keyboard-response","357","1273381","0.0-6.0-1.50","3012024","co38050","norming","","","","","","",""
"6104.850000000093","","","post_mooney1_questions","survey-likert","358","1279489","0.0-6.0-2.50","3012024","co38050","norming","","","{""curiosity"":3,""confidence"":6}","[0,1]","../img/tt/1173tt.jpg","",""
"5541.9900000002235","","","recognition","survey-text","359","1285033","0.0-6.0-3.50","3012024","co38050","norming","","","{""guess"":""hockey""}","","../img/tt/1173tt.jpg","",""
"null","../img/gs/1173gs.jpg","null","reveal","image-keyboard-response","360","1287043","0.0-6.0-4.50","3012024","co38050","norming","","","","","","",""
"null","../img/tt/1173tt.jpg","null","mooney2","image-keyboard-response","361","1289053","0.0-6.0-5.50","3012024","co38050","norming","","","","","","",""
"6866.389999999665","","","post_reveal_questions","survey-likert","362","1295922","0.0-6.0-6.50","3012024","co38050","norming","","","{""aha"":4}","[0]","../img/tt/1173tt.jpg","",""
"null","<div style=""font-size:60px;""> </div>","null","fixation","html-keyboard-response","363","1296123","0.0-6.0-0.51","3012024","co38050","norming","","","","","","",""
"null","../img/tt/353tt.jpg","null","mooney1","image-keyboard-response","364","1299125","0.0-6.0-1.51","3012024","co38050","norming","","","","","","",""
"5529.385000000242","","","post_mooney1_questions","survey-likert","365","1304658","0.0-6.0-2.51","3012024","co38050","norming","","","{""curiosity"":4,""confidence"":6}","[0,1]","../img/tt/353tt.jpg","",""
"4373.935000000056","","","recognition","survey-text","366","1309034","0.0-6.0-3.51","3012024","co38050","norming","","","{""guess"":""pinguin""}","","../img/tt/353tt.jpg","",""
"null","../img/gs/353gs.jpg","null","reveal","image-keyboard-response","367","1311041","0.0-6.0-4.51","3012024","co38050","norming","","","","","","",""
"null","../img/tt/353tt.jpg","null","mooney2","image-keyboard-response","368","1313048","0.0-6.0-5.51","3012024","co38050","norming","","","","","","",""
"4782.909999999916","","","post_reveal_questions","survey-likert","369","1317834","0.0-6.0-6.51","3012024","co38050","norming","","","{""aha"":0}","[0]","../img/tt/353tt.jpg","",""
"null","<div style=""font-size:60px;""> </div>","null","fixation","html-keyboard-response","370","1318038","0.0-6.0-0.52","3012024","co38050","norming","","","","","","",""
"null","../img/tt/096tt.jpg","null","mooney1","image-keyboard-response","371","1321047","0.0-6.0-1.52","3012024","co38050","norming","","","","","","",""
"13593.27500000014","","","post_mooney1_questions","survey-likert","372","1334642","0.0-6.0-2.52","3012024","co38050","norming","","","{""curiosity"":4,""confidence"":2}","[0,1]","../img/tt/096tt.jpg","",""
"4757.869999999879","","","recognition","survey-text","373","1339401","0.0-6.0-3.52","3012024","co38050","norming","","","{""guess"":""pizza""}","","../img/tt/096tt.jpg","",""
"null","../img/gs/096gs.jpg","null","reveal","image-keyboard-response","374","1341408","0.0-6.0-4.52","3012024","co38050","norming","","","","","","",""
"null","../img/tt/096tt.jpg","null","mooney2","image-keyboard-response","375","1343411","0.0-6.0-5.52","3012024","co38050","norming","","","","","","",""
"6156.04000000027","","","post_reveal_questions","survey-likert","376","1349565","0.0-6.0-6.52","3012024","co38050","norming","","","{""aha"":2}","[0]","../img/tt/096tt.jpg","",""
"null","<div style=""font-size:60px;""> </div>","null","fixation","html-keyboard-response","377","1349774","0.0-6.0-0.53","3012024","co38050","norming","","","","","","",""
"null","../img/tt/1159tt.jpg","null","mooney1","image-keyboard-response","378","1352778","0.0-6.0-1.53","3012024","co38050","norming","","","","","","",""
"5640.185000000056","","","post_mooney1_questions","survey-likert","379","1358422","0.0-6.0-2.53","3012024","co38050","norming","","","{""curiosity"":4,""confidence"":0}","[0,1]","../img/tt/1159tt.jpg","",""
"1310.2250000000931","","","recognition","survey-text","380","1359733","0.0-6.0-3.53","3012024","co38050","norming","","","{""guess"":""""}","","../img/tt/1159tt.jpg","",""
"null","../img/gs/1159gs.jpg","null","reveal","image-keyboard-response","381","1361741","0.0-6.0-4.53","3012024","co38050","norming","","","","","","",""
"null","../img/tt/1159tt.jpg","null","mooney2","image-keyboard-response","382","1363751","0.0-6.0-5.53","3012024","co38050","norming","","","","","","",""
"2819.3249999997206","","","post_reveal_questions","survey-likert","383","1366573","0.0-6.0-6.53","3012024","co38050","norming","","","{""aha"":4}","[0]","../img/tt/1159tt.jpg","",""
"null","<div style=""font-size:60px;""> </div>","null","fixation","html-keyboard-response","384","1366781","0.0-6.0-0.54","3012024","co38050","norming","","","","","","",""
"null","../img/tt/1205tt.jpg","null","mooney1","image-keyboard-response","385","1369788","0.0-6.0-1.54","3012024","co38050","norming","","","","","","",""
"6061.379999999655","","","post_mooney1_questions","survey-likert","386","1375853","0.0-6.0-2.54","3012024","co38050","norming","","","{""curiosity"":4,""confidence"":1}","[0,1]","../img/tt/1205tt.jpg","",""
"5238.23499999987","","","recognition","survey-text","387","1381093","0.0-6.0-3.54","3012024","co38050","norming","","","{""guess"":""audience""}","","../img/tt/1205tt.jpg","",""
"null","../img/gs/1205gs.jpg","null","reveal","image-keyboard-response","388","1383097","0.0-6.0-4.54","3012024","co38050","norming","","","","","","",""
"null","../img/tt/1205tt.jpg","null","mooney2","image-keyboard-response","389","1385107","0.0-6.0-5.54","3012024","co38050","norming","","","","","","",""
"6559.425000000279","","","post_reveal_questions","survey-likert","390","1391669","0.0-6.0-6.54","3012024","co38050","norming","","","{""aha"":4}","[0]","../img/tt/1205tt.jpg","",""
"null","<div style=""font-size:60px;""> </div>","null","fixation","html-keyboard-response","391","1391878","0.0-6.0-0.55","3012024","co38050","norming","","","","","","",""
"null","../img/tt/1261tt.jpg","null","mooney1","image-keyboard-response","392","1394886","0.0-6.0-1.55","3012024","co38050","norming","","","","","","",""
"9564.284999999916","","","post_mooney1_questions","survey-likert","393","1404453","0.0-6.0-2.55","3012024","co38050","norming","","","{""curiosity"":4,""confidence"":0}","[0,1]","../img/tt/1261tt.jpg","",""
"870.1750000000466","","","recognition","survey-text","394","1405325","0.0-6.0-3.55","3012024","co38050","norming","","","{""guess"":""""}","","../img/tt/1261tt.jpg","",""
"null","../img/gs/1261gs.jpg","null","reveal","image-keyboard-response","395","1407332","0.0-6.0-4.55","3012024","co38050","norming","","","","","","",""
"null","../img/tt/1261tt.jpg","null","mooney2","image-keyboard-response","396","1409336","0.0-6.0-5.55","3012024","co38050","norming","","","","","","",""
"4977.779999999795","","","post_reveal_questions","survey-likert","397","1414314","0.0-6.0-6.55","3012024","co38050","norming","","","{""aha"":5}","[0]","../img/tt/1261tt.jpg","",""
"null","<div style=""font-size:60px;""> </div>","null","fixation","html-keyboard-response","398","1414523","0.0-6.0-0.56","3012024","co38050","norming","","","","","","",""
"null","../img/tt/1268tt.jpg","null","mooney1","image-keyboard-response","399","1417526","0.0-6.0-1.56","3012024","co38050","norming","","","","","","",""
"6232.945000000298","","","post_mooney1_questions","survey-likert","400","1423762","0.0-6.0-2.56","3012024","co38050","norming","","","{""curiosity"":5,""confidence"":0}","[0,1]","../img/tt/1268tt.jpg","",""
"6621.789999999572","","","recognition","survey-text","401","1430386","0.0-6.0-3.56","3012024","co38050","norming","","","{""guess"":""""}","","../img/tt/1268tt.jpg","",""
"null","../img/gs/1268gs.jpg","null","reveal","image-keyboard-response","402","1432393","0.0-6.0-4.56","3012024","co38050","norming","","","","","","",""
"null","../img/tt/1268tt.jpg","null","mooney2","image-keyboard-response","403","1434400","0.0-6.0-5.56","3012024","co38050","norming","","","","","","",""
"7649.205000000307","","","post_reveal_questions","survey-likert","404","1442050","0.0-6.0-6.56","3012024","co38050","norming","","","{""aha"":2}","[0]","../img/tt/1268tt.jpg","",""
"null","<div style=""font-size:60px;""> </div>","null","fixation","html-keyboard-response","405","1442256","0.0-6.0-0.57","3012024","co38050","norming","","","","","","",""
"null","../img/tt/1004tt.jpg","null","mooney1","image-keyboard-response","406","1445265","0.0-6.0-1.57","3012024","co38050","norming","","","","","","",""
"4749.709999999963","","","post_mooney1_questions","survey-likert","407","1450018","0.0-6.0-2.57","3012024","co38050","norming","","","{""curiosity"":4,""confidence"":1}","[0,1]","../img/tt/1004tt.jpg","",""
"3718.0750000001863","","","recognition","survey-text","408","1453738","0.0-6.0-3.57","3012024","co38050","norming","","","{""guess"":""tiger""}","","../img/tt/1004tt.jpg","",""
"null","../img/gs/1004gs.jpg","null","reveal","image-keyboard-response","409","1455739","0.0-6.0-4.57","3012024","co38050","norming","","","","","","",""
"null","../img/tt/1004tt.jpg","null","mooney2","image-keyboard-response","410","1457744","0.0-6.0-5.57","3012024","co38050","norming","","","","","","",""
"3662.309999999823","","","post_reveal_questions","survey-likert","411","1461410","0.0-6.0-6.57","3012024","co38050","norming","","","{""aha"":4}","[0]","../img/tt/1004tt.jpg","",""
"null","<div style=""font-size:60px;""> </div>","null","fixation","html-keyboard-response","412","1461613","0.0-6.0-0.58","3012024","co38050","norming","","","","","","",""
"null","../img/tt/036tt.jpg","null","mooney1","image-keyboard-response","413","1464618","0.0-6.0-1.58","3012024","co38050","norming","","","","","","",""
"4886.619999999879","","","post_mooney1_questions","survey-likert","414","1469506","0.0-6.0-2.58","3012024","co38050","norming","","","{""curiosity"":5,""confidence"":0}","[0,1]","../img/tt/036tt.jpg","",""
"1726.0049999998882","","","recognition","survey-text","415","1471234","0.0-6.0-3.58","3012024","co38050","norming","","","{""guess"":""""}","","../img/tt/036tt.jpg","",""
"null","../img/gs/036gs.jpg","null","reveal","image-keyboard-response","416","1473248","0.0-6.0-4.58","3012024","co38050","norming","","","","","","",""
"null","../img/tt/036tt.jpg","null","mooney2","image-keyboard-response","417","1475257","0.0-6.0-5.58","3012024","co38050","norming","","","","","","",""
"8831.270000000251","","","post_reveal_questions","survey-likert","418","1484091","0.0-6.0-6.58","3012024","co38050","norming","","","{""aha"":6}","[0]","../img/tt/036tt.jpg","",""
"null","<div style=""font-size:60px;""> </div>","null","fixation","html-keyboard-response","419","1484294","0.0-6.0-0.59","3012024","co38050","norming","","","","","","",""
"null","../img/tt/060tt.jpg","null","mooney1","image-keyboard-response","420","1487296","0.0-6.0-1.59","3012024","co38050","norming","","","","","","",""
"3887.68499999959","","","post_mooney1_questions","survey-likert","421","1491187","0.0-6.0-2.59","3012024","co38050","norming","","","{""curiosity"":4,""confidence"":0}","[0,1]","../img/tt/060tt.jpg","",""
"709.7950000001583","","","recognition","survey-text","422","1491899","0.0-6.0-3.59","3012024","co38050","norming","","","{""guess"":""""}","","../img/tt/060tt.jpg","",""
"null","../img/gs/060gs.jpg","null","reveal","image-keyboard-response","423","1493902","0.0-6.0-4.59","3012024","co38050","norming","","","","","","",""
"null","../img/tt/060tt.jpg","null","mooney2","image-keyboard-response","424","1495914","0.0-6.0-5.59","3012024","co38050","norming","","","","","","",""
"10198.64000000013","","","post_reveal_questions","survey-likert","425","1506115","0.0-6.0-6.59","3012024","co38050","norming","","","{""aha"":3}","[0]","../img/tt/060tt.jpg","",""
"null","<div style=""font-size:60px;""> </div>","null","fixation","html-keyboard-response","426","1506317","0.0-6.0-0.60","3012024","co38050","norming","","","","","","",""
"null","../img/tt/007tt.jpg","null","mooney1","image-keyboard-response","427","1509324","0.0-6.0-1.60","3012024","co38050","norming","","","","","","",""
"5323.565000000177","","","post_mooney1_questions","survey-likert","428","1514651","0.0-6.0-2.60","3012024","co38050","norming","","","{""curiosity"":4,""confidence"":0}","[0,1]","../img/tt/007tt.jpg","",""
"1094.2350000001024","","","recognition","survey-text","429","1515747","0.0-6.0-3.60","3012024","co38050","norming","","","{""guess"":""""}","","../img/tt/007tt.jpg","",""
"null","../img/gs/007gs.jpg","null","reveal","image-keyboard-response","430","1517749","0.0-6.0-4.60","3012024","co38050","norming","","","","","","",""
"null","../img/tt/007tt.jpg","null","mooney2","image-keyboard-response","431","1519759","0.0-6.0-5.60","3012024","co38050","norming","","","","","","",""
"4329.335000000196","","","post_reveal_questions","survey-likert","432","1524091","0.0-6.0-6.60","3012024","co38050","norming","","","{""aha"":4}","[0]","../img/tt/007tt.jpg","",""
"null","<div style=""font-size:60px;""> </div>","null","fixation","html-keyboard-response","433","1524299","0.0-6.0-0.61","3012024","co38050","norming","","","","","","",""
"null","../img/tt/534tt.jpg","null","mooney1","image-keyboard-response","434","1527300","0.0-6.0-1.61","3012024","co38050","norming","","","","","","",""
"7227.960000000196","","","post_mooney1_questions","survey-likert","435","1534534","0.0-6.0-2.61","3012024","co38050","norming","","","{""curiosity"":4,""confidence"":4}","[0,1]","../img/tt/534tt.jpg","",""
"5150.035000000149","","","recognition","survey-text","436","1539685","0.0-6.0-3.61","3012024","co38050","norming","","","{""guess"":""cactus""}","","../img/tt/534tt.jpg","",""
"null","../img/gs/534gs.jpg","null","reveal","image-keyboard-response","437","1541687","0.0-6.0-4.61","3012024","co38050","norming","","","","","","",""
"null","../img/tt/534tt.jpg","null","mooney2","image-keyboard-response","438","1543692","0.0-6.0-5.61","3012024","co38050","norming","","","","","","",""
"4294.895000000019","","","post_reveal_questions","survey-likert","439","1547990","0.0-6.0-6.61","3012024","co38050","norming","","","{""aha"":2}","[0]","../img/tt/534tt.jpg","",""
"null","<div style=""font-size:60px;""> </div>","null","fixation","html-keyboard-response","440","1548191","0.0-6.0-0.62","3012024","co38050","norming","","","","","","",""
"null","../img/tt/442tt.jpg","null","mooney1","image-keyboard-response","441","1551194","0.0-6.0-1.62","3012024","co38050","norming","","","","","","",""
"8903.84499999974","","","post_mooney1_questions","survey-likert","442","1560102","0.0-6.0-2.62","3012024","co38050","norming","","","{""curiosity"":5,""confidence"":0}","[0,1]","../img/tt/442tt.jpg","",""
"766.0549999999348","","","recognition","survey-text","443","1560869","0.0-6.0-3.62","3012024","co38050","norming","","","{""guess"":""""}","","../img/tt/442tt.jpg","",""
"null","../img/gs/442gs.jpg","null","reveal","image-keyboard-response","444","1562877","0.0-6.0-4.62","3012024","co38050","norming","","","","","","",""
"null","../img/tt/442tt.jpg","null","mooney2","image-keyboard-response","445","1564879","0.0-6.0-5.62","3012024","co38050","norming","","","","","","",""
"6508.200000000186","","","post_reveal_questions","survey-likert","446","1571389","0.0-6.0-6.62","3012024","co38050","norming","","","{""aha"":4}","[0]","../img/tt/442tt.jpg","",""
"null","<div style=""font-size:60px;""> </div>","null","fixation","html-keyboard-response","447","1571594","0.0-6.0-0.63","3012024","co38050","norming","","","","","","",""
"null","../img/tt/1044tt.jpg","null","mooney1","image-keyboard-response","448","1574598","0.0-6.0-1.63","3012024","co38050","norming","","","","","","",""
"8323.889999999665","","","post_mooney1_questions","survey-likert","449","1582926","0.0-6.0-2.63","3012024","co38050","norming","","","{""curiosity"":4,""confidence"":0}","[0,1]","../img/tt/1044tt.jpg","",""
"638.0850000001956","","","recognition","survey-text","450","1583565","0.0-6.0-3.63","3012024","co38050","norming","","","{""guess"":""""}","","../img/tt/1044tt.jpg","",""
"null","../img/gs/1044gs.jpg","null","reveal","image-keyboard-response","451","1585570","0.0-6.0-4.63","3012024","co38050","norming","","","","","","",""
"null","../img/tt/1044tt.jpg","null","mooney2","image-keyboard-response","452","1587580","0.0-6.0-5.63","3012024","co38050","norming","","","","","","",""
"3126.279999999795","","","post_reveal_questions","survey-likert","453","1590710","0.0-6.0-6.63","3012024","co38050","norming","","","{""aha"":4}","[0]","../img/tt/1044tt.jpg","",""
"null","<div style=""font-size:60px;""> </div>","null","fixation","html-keyboard-response","454","1590915","0.0-6.0-0.64","3012024","co38050","norming","","","","","","",""
"null","../img/tt/112tt.jpg","null","mooney1","image-keyboard-response","455","1593929","0.0-6.0-1.64","3012024","co38050","norming","","","","","","",""
"8020.5099999997765","","","post_mooney1_questions","survey-likert","456","1601953","0.0-6.0-2.64","3012024","co38050","norming","","","{""curiosity"":4,""confidence"":1}","[0,1]","../img/tt/112tt.jpg","",""
"6013.909999999683","","","recognition","survey-text","457","1607969","0.0-6.0-3.64","3012024","co38050","norming","","","{""guess"":""scissors""}","","../img/tt/112tt.jpg","",""
"null","../img/gs/112gs.jpg","null","reveal","image-keyboard-response","458","1609977","0.0-6.0-4.64","3012024","co38050","norming","","","","","","",""
"null","../img/tt/112tt.jpg","null","mooney2","image-keyboard-response","459","1611988","0.0-6.0-5.64","3012024","co38050","norming","","","","","","",""
"5786.489999999991","","","post_reveal_questions","survey-likert","460","1617777","0.0-6.0-6.64","3012024","co38050","norming","","","{""aha"":5}","[0]","../img/tt/112tt.jpg","",""
"null","<div style=""font-size:60px;""> </div>","null","fixation","html-keyboard-response","461","1617985","0.0-6.0-0.65","3012024","co38050","norming","","","","","","",""
"null","../img/tt/1053tt.jpg","null","mooney1","image-keyboard-response","462","1620995","0.0-6.0-1.65","3012024","co38050","norming","","","","","","",""
"5546.884999999544","","","post_mooney1_questions","survey-likert","463","1626545","0.0-6.0-2.65","3012024","co38050","norming","","","{""curiosity"":4,""confidence"":1}","[0,1]","../img/tt/1053tt.jpg","",""
"3174.1649999998044","","","recognition","survey-text","464","1629721","0.0-6.0-3.65","3012024","co38050","norming","","","{""guess"":""lion""}","","../img/tt/1053tt.jpg","",""
"null","../img/gs/1053gs.jpg","null","reveal","image-keyboard-response","465","1631730","0.0-6.0-4.65","3012024","co38050","norming","","","","","","",""
"null","../img/tt/1053tt.jpg","null","mooney2","image-keyboard-response","466","1633741","0.0-6.0-5.65","3012024","co38050","norming","","","","","","",""
"4425.260000000009","","","post_reveal_questions","survey-likert","467","1638169","0.0-6.0-6.65","3012024","co38050","norming","","","{""aha"":4}","[0]","../img/tt/1053tt.jpg","",""
"null","<div style=""font-size:60px;""> </div>","null","fixation","html-keyboard-response","468","1638380","0.0-6.0-0.66","3012024","co38050","norming","","","","","","",""
"null","../img/tt/081tt.jpg","null","mooney1","image-keyboard-response","469","1641391","0.0-6.0-1.66","3012024","co38050","norming","","","","","","",""
"6407.199999999953","","","post_mooney1_questions","survey-likert","470","1647801","0.0-6.0-2.66","3012024","co38050","norming","","","{""curiosity"":4,""confidence"":1}","[0,1]","../img/tt/081tt.jpg","",""
"5093.954999999842","","","recognition","survey-text","471","1652897","0.0-6.0-3.66","3012024","co38050","norming","","","{""guess"":""butterfly""}","","../img/tt/081tt.jpg","",""
"null","../img/gs/081gs.jpg","null","reveal","image-keyboard-response","472","1654903","0.0-6.0-4.66","3012024","co38050","norming","","","","","","",""
"null","../img/tt/081tt.jpg","null","mooney2","image-keyboard-response","473","1656907","0.0-6.0-5.66","3012024","co38050","norming","","","","","","",""
"15125.88500000001","","","post_reveal_questions","survey-likert","474","1672036","0.0-6.0-6.66","3012024","co38050","norming","","","{""aha"":1}","[0]","../img/tt/081tt.jpg","",""
"null","<div style=""font-size:60px;""> </div>","null","fixation","html-keyboard-response","475","1672240","0.0-6.0-0.67","3012024","co38050","norming","","","","","","",""
"null","../img/tt/080tt.jpg","null","mooney1","image-keyboard-response","476","1675244","0.0-6.0-1.67","3012024","co38050","norming","","","","","","",""
"9525.465000000084","","","post_mooney1_questions","survey-likert","477","1684772","0.0-6.0-2.67","3012024","co38050","norming","","","{""curiosity"":5,""confidence"":1}","[0,1]","../img/tt/080tt.jpg","",""
"4301.500000000233","","","recognition","survey-text","478","1689076","0.0-6.0-3.67","3012024","co38050","norming","","","{""guess"":""egg""}","","../img/tt/080tt.jpg","",""
"null","../img/gs/080gs.jpg","null","reveal","image-keyboard-response","479","1691086","0.0-6.0-4.67","3012024","co38050","norming","","","","","","",""
"null","../img/tt/080tt.jpg","null","mooney2","image-keyboard-response","480","1693093","0.0-6.0-5.67","3012024","co38050","norming","","","","","","",""
"9828.84999999986","","","post_reveal_questions","survey-likert","481","1702924","0.0-6.0-6.67","3012024","co38050","norming","","","{""aha"":4}","[0]","../img/tt/080tt.jpg","",""
"null","<div style=""font-size:60px;""> </div>","null","fixation","html-keyboard-response","482","1703126","0.0-6.0-0.68","3012024","co38050","norming","","","","","","",""
"null","../img/tt/1086tt.jpg","null","mooney1","image-keyboard-response","483","1706130","0.0-6.0-1.68","3012024","co38050","norming","","","","","","",""
"6095.290000000037","","","post_mooney1_questions","survey-likert","484","1712228","0.0-6.0-2.68","3012024","co38050","norming","","","{""curiosity"":5,""confidence"":0}","[0,1]","../img/tt/1086tt.jpg","",""
"1014.0250000003725","","","recognition","survey-text","485","1713244","0.0-6.0-3.68","3012024","co38050","norming","","","{""guess"":""""}","","../img/tt/1086tt.jpg","",""
"null","../img/gs/1086gs.jpg","null","reveal","image-keyboard-response","486","1715250","0.0-6.0-4.68","3012024","co38050","norming","","","","","","",""
"null","../img/tt/1086tt.jpg","null","mooney2","image-keyboard-response","487","1717252","0.0-6.0-5.68","3012024","co38050","norming","","","","","","",""
"2400.140000000363","","","post_reveal_questions","survey-likert","488","1719655","0.0-6.0-6.68","3012024","co38050","norming","","","{""aha"":4}","[0]","../img/tt/1086tt.jpg","",""
"null","<div style=""font-size:60px;""> </div>","null","fixation","html-keyboard-response","489","1719866","0.0-6.0-0.69","3012024","co38050","norming","","","","","","",""
"null","../img/tt/1048tt.jpg","null","mooney1","image-keyboard-response","490","1722871","0.0-6.0-1.69","3012024","co38050","norming","","","","","","",""
"16133.169999999925","","","post_mooney1_questions","survey-likert","491","1739007","0.0-6.0-2.69","3012024","co38050","norming","","","{""curiosity"":4,""confidence"":0}","[0,1]","../img/tt/1048tt.jpg","",""
"1094.1100000001024","","","recognition","survey-text","492","1740103","0.0-6.0-3.69","3012024","co38050","norming","","","{""guess"":""""}","","../img/tt/1048tt.jpg","",""
"null","../img/gs/1048gs.jpg","null","reveal","image-keyboard-response","493","1742110","0.0-6.0-4.69","3012024","co38050","norming","","","","","","",""
"null","../img/tt/1048tt.jpg","null","mooney2","image-keyboard-response","494","1744120","0.0-6.0-5.69","3012024","co38050","norming","","","","","","",""
"10387.914999999804","","","post_reveal_questions","survey-likert","495","1754511","0.0-6.0-6.69","3012024","co38050","norming","","","{""aha"":4}","[0]","../img/tt/1048tt.jpg","",""
"null","<div style=""font-size:60px;""> </div>","null","fixation","html-keyboard-response","496","1754716","0.0-6.0-0.70","3012024","co38050","norming","","","","","","",""
"null","../img/tt/008tt.jpg","null","mooney1","image-keyboard-response","497","1757719","0.0-6.0-1.70","3012024","co38050","norming","","","","","","",""
"4172.875000000233","","","post_mooney1_questions","survey-likert","498","1761896","0.0-6.0-2.70","3012024","co38050","norming","","","{""curiosity"":4,""confidence"":1}","[0,1]","../img/tt/008tt.jpg","",""
"3341.7299999999814","","","recognition","survey-text","499","1765239","0.0-6.0-3.70","3012024","co38050","norming","","","{""guess"":""gun""}","","../img/tt/008tt.jpg","",""
"null","../img/gs/008gs.jpg","null","reveal","image-keyboard-response","500","1767248","0.0-6.0-4.70","3012024","co38050","norming","","","","","","",""
"null","../img/tt/008tt.jpg","null","mooney2","image-keyboard-response","501","1769251","0.0-6.0-5.70","3012024","co38050","norming","","","","","","",""
"7528.949999999721","","","post_reveal_questions","survey-likert","502","1776781","0.0-6.0-6.70","3012024","co38050","norming","","","{""aha"":5}","[0]","../img/tt/008tt.jpg","",""
"null","<div style=""font-size:60px;""> </div>","null","fixation","html-keyboard-response","503","1776986","0.0-6.0-0.71","3012024","co38050","norming","","","","","","",""
"null","../img/tt/307tt.jpg","null","mooney1","image-keyboard-response","504","1779999","0.0-6.0-1.71","3012024","co38050","norming","","","","","","",""
"8450.965000000084","","","post_mooney1_questions","survey-likert","505","1788453","0.0-6.0-2.71","3012024","co38050","norming","","","{""curiosity"":3,""confidence"":3}","[0,1]","../img/tt/307tt.jpg","",""
"5245.960000000196","","","recognition","survey-text","506","1793701","0.0-6.0-3.71","3012024","co38050","norming","","","{""guess"":""shoe""}","","../img/tt/307tt.jpg","",""
"null","../img/gs/307gs.jpg","null","reveal","image-keyboard-response","507","1795703","0.0-6.0-4.71","3012024","co38050","norming","","","","","","",""
"null","../img/tt/307tt.jpg","null","mooney2","image-keyboard-response","508","1797715","0.0-6.0-5.71","3012024","co38050","norming","","","","","","",""
"2303.464999999851","","","post_reveal_questions","survey-likert","509","1800021","0.0-6.0-6.71","3012024","co38050","norming","","","{""aha"":5}","[0]","../img/tt/307tt.jpg","",""
"null","<div style=""font-size:60px;""> </div>","null","fixation","html-keyboard-response","510","1800223","0.0-6.0-0.72","3012024","co38050","norming","","","","","","",""
"null","../img/tt/300tt.jpg","null","mooney1","image-keyboard-response","511","1803229","0.0-6.0-1.72","3012024","co38050","norming","","","","","","",""
"5028.789999999804","","","post_mooney1_questions","survey-likert","512","1808262","0.0-6.0-2.72","3012024","co38050","norming","","","{""curiosity"":4,""confidence"":0}","[0,1]","../img/tt/300tt.jpg","",""
"773.785000000149","","","recognition","survey-text","513","1809037","0.0-6.0-3.72","3012024","co38050","norming","","","{""guess"":""""}","","../img/tt/300tt.jpg","",""
"null","../img/gs/300gs.jpg","null","reveal","image-keyboard-response","514","1811044","0.0-6.0-4.72","3012024","co38050","norming","","","","","","",""
"null","../img/tt/300tt.jpg","null","mooney2","image-keyboard-response","515","1813046","0.0-6.0-5.72","3012024","co38050","norming","","","","","","",""
"8252.485000000102","","","post_reveal_questions","survey-likert","516","1821301","0.0-6.0-6.72","3012024","co38050","norming","","","{""aha"":4}","[0]","../img/tt/300tt.jpg","",""
"null","<div style=""font-size:60px;""> </div>","null","fixation","html-keyboard-response","517","1821505","0.0-6.0-0.73","3012024","co38050","norming","","","","","","",""
"null","../img/tt/1123tt.jpg","null","mooney1","image-keyboard-response","518","1824510","0.0-6.0-1.73","3012024","co38050","norming","","","","","","",""
"7220.705000000307","","","post_mooney1_questions","survey-likert","519","1831734","0.0-6.0-2.73","3012024","co38050","norming","","","{""curiosity"":4,""confidence"":5}","[0,1]","../img/tt/1123tt.jpg","",""
"5341.89000000013","","","recognition","survey-text","520","1837079","0.0-6.0-3.73","3012024","co38050","norming","","","{""guess"":""basketball""}","","../img/tt/1123tt.jpg","",""
"null","../img/gs/1123gs.jpg","null","reveal","image-keyboard-response","521","1839081","0.0-6.0-4.73","3012024","co38050","norming","","","","","","",""
"null","../img/tt/1123tt.jpg","null","mooney2","image-keyboard-response","522","1841084","0.0-6.0-5.73","3012024","co38050","norming","","","","","","",""
"2784.279999999795","","","post_reveal_questions","survey-likert","523","1843871","0.0-6.0-6.73","3012024","co38050","norming","","","{""aha"":4}","[0]","../img/tt/1123tt.jpg","",""
"null","<div style=""font-size:60px;""> </div>","null","fixation","html-keyboard-response","524","1844075","0.0-6.0-0.74","3012024","co38050","norming","","","","","","",""
"null","../img/tt/273tt.jpg","null","mooney1","image-keyboard-response","525","1847080","0.0-6.0-1.74","3012024","co38050","norming","","","","","","",""
"7084.195000000531","","","post_mooney1_questions","survey-likert","526","1854168","0.0-6.0-2.74","3012024","co38050","norming","","","{""curiosity"":3,""confidence"":6}","[0,1]","../img/tt/273tt.jpg","",""
"3869.875000000233","","","recognition","survey-text","527","1858039","0.0-6.0-3.74","3012024","co38050","norming","","","{""guess"":""braces""}","","../img/tt/273tt.jpg","",""
"null","../img/gs/273gs.jpg","null","reveal","image-keyboard-response","528","1860041","0.0-6.0-4.74","3012024","co38050","norming","","","","","","",""
"null","../img/tt/273tt.jpg","null","mooney2","image-keyboard-response","529","1862045","0.0-6.0-5.74","3012024","co38050","norming","","","","","","",""
"4383.119999999879","","","post_reveal_questions","survey-likert","530","1866431","0.0-6.0-6.74","3012024","co38050","norming","","","{""aha"":0}","[0]","../img/tt/273tt.jpg","",""
"null","<div style=""font-size:60px;""> </div>","null","fixation","html-keyboard-response","531","1866634","0.0-6.0-0.75","3012024","co38050","norming","","","","","","",""
"null","../img/tt/094tt.jpg","null","mooney1","image-keyboard-response","532","1869643","0.0-6.0-1.75","3012024","co38050","norming","","","","","","",""
"4785.230000000447","","","post_mooney1_questions","survey-likert","533","1874431","0.0-6.0-2.75","3012024","co38050","norming","","","{""curiosity"":4,""confidence"":1}","[0,1]","../img/tt/094tt.jpg","",""
"2878.0449999999255","","","recognition","survey-text","534","1877311","0.0-6.0-3.75","3012024","co38050","norming","","","{""guess"":""pig""}","","../img/tt/094tt.jpg","",""
"null","../img/gs/094gs.jpg","null","reveal","image-keyboard-response","535","1879318","0.0-6.0-4.75","3012024","co38050","norming","","","","","","",""
"null","../img/tt/094tt.jpg","null","mooney2","image-keyboard-response","536","1881328","0.0-6.0-5.75","3012024","co38050","norming","","","","","","",""
"3084.4900000002235","","","post_reveal_questions","survey-likert","537","1884415","0.0-6.0-6.75","3012024","co38050","norming","","","{""aha"":5}","[0]","../img/tt/094tt.jpg","",""
"null","<div style=""font-size:60px;""> </div>","null","fixation","html-keyboard-response","538","1884625","0.0-6.0-0.76","3012024","co38050","norming","","","","","","",""
"null","../img/tt/1102tt.jpg","null","mooney1","image-keyboard-response","539","1887628","0.0-6.0-1.76","3012024","co38050","norming","","","","","","",""
"4928.159999999916","","","post_mooney1_questions","survey-likert","540","1892559","0.0-6.0-2.76","3012024","co38050","norming","","","{""curiosity"":4,""confidence"":1}","[0,1]","../img/tt/1102tt.jpg","",""
"4533.97499999986","","","recognition","survey-text","541","1897089","0.0-6.0-3.76","3012024","co38050","norming","","","{""guess"":""palmtree""}","","../img/tt/1102tt.jpg","",""
"null","../img/gs/1102gs.jpg","null","reveal","image-keyboard-response","542","1899093","0.0-6.0-4.76","3012024","co38050","norming","","","","","","",""
"null","../img/tt/1102tt.jpg","null","mooney2","image-keyboard-response","543","1901095","0.0-6.0-5.76","3012024","co38050","norming","","","","","","",""
"3015.269999999786","","","post_reveal_questions","survey-likert","544","1904113","0.0-6.0-6.76","3012024","co38050","norming","","","{""aha"":5}","[0]","../img/tt/1102tt.jpg","",""
"null","<div style=""font-size:60px;""> </div>","null","fixation","html-keyboard-response","545","1904323","0.0-6.0-0.77","3012024","co38050","norming","","","","","","",""
"null","../img/tt/329tt.jpg","null","mooney1","image-keyboard-response","546","1907333","0.0-6.0-1.77","3012024","co38050","norming","","","","","","",""
"3760.4749999998603","","","post_mooney1_questions","survey-likert","547","1911097","0.0-6.0-2.77","3012024","co38050","norming","","","{""curiosity"":5,""confidence"":0}","[0,1]","../img/tt/329tt.jpg","",""
"1078.0700000000652","","","recognition","survey-text","548","1912177","0.0-6.0-3.77","3012024","co38050","norming","","","{""guess"":""""}","","../img/tt/329tt.jpg","",""
"null","../img/gs/329gs.jpg","null","reveal","image-keyboard-response","549","1914187","0.0-6.0-4.77","3012024","co38050","norming","","","","","","",""
"null","../img/tt/329tt.jpg","null","mooney2","image-keyboard-response","550","1916198","0.0-6.0-5.77","3012024","co38050","norming","","","","","","",""
"3184.394999999786","","","post_reveal_questions","survey-likert","551","1919385","0.0-6.0-6.77","3012024","co38050","norming","","","{""aha"":5}","[0]","../img/tt/329tt.jpg","",""
"null","<div style=""font-size:60px;""> </div>","null","fixation","html-keyboard-response","552","1919593","0.0-6.0-0.78","3012024","co38050","norming","","","","","","",""
"null","../img/tt/1069tt.jpg","null","mooney1","image-keyboard-response","553","1922598","0.0-6.0-1.78","3012024","co38050","norming","","","","","","",""
