"rt","stimulus","key_press","test_part","trial_type","trial_index","time_elapsed","internal_node_id","totalTime","subject","experiment_name","button_pressed","success","responses","question_order","currentStim","old","correct"
"20089.349999999286","Welcome to the experiment. This is an online experiment so please don't close the tab/window until we say goodbye.  Press any key to begin.","70","instructions","html-keyboard-response","0","20100","0.0-0.0","2759903","co38197","norming","","","","","","",""
"14633.724999999686","<div style='word-wrap: break-word; width: 900px'><h3>Please consider this information carefully before deciding whether to participate in this research</h3><ul style='text-align: left; font-size: .8em;'><li><b>Purpose of the research</b>: To examine how people process images.</li><li><b>What you will do in this research</b>:  Stimuli (images) will be presented on the computer and you will be asked different questions about them.</li><li><b>Time required</b>: Participation will take between 45 and 60 minutes to complete.</li><li><b>Risks</b>:  There are no anticipated risks associated with participating in this study. The effects of participating should be comparable to those you would experience from viewing a computer monitor for 30 minutes and using a mouse or keyboard.</li><li><b>Benefits</b>:  This study provides no benefits to you individually except for the credit. The study provides important information about the nature of perception and learning.</li><li><b>Confidentiality</b>:  Your participation in this study will remain confidential. No personally identifiable information will be associated with your data. Your de-identified data may be shared with other researchers and used in future projects.</li><li><b>Participation and withdrawal</b>:  Your participation in this study is completely voluntary and you may refuse to participate or you may choose to withdraw at any time without penalty.</li><li><b>How to contact the researchers</b>: If you have questions or concerns about your participation or payment, or want to request a summary of research findings, please contact Sander Van de Cruys (KU Leuven), at sander.vandecruys@kuleuven.be.</li></ul><p>The nature and purpose of this research have been sufficiently explained and I agree to participate in this study.  I understand that I am free to withdraw at any time without incurring any penalty.</p><p>Please consent by clicking the button below to continue. Otherwise, please exit the study at this time.</p></div>","","instructions","html-button-response","1","34736","0.0-1.0","2759903","co38197","norming","0","","","","","",""
"","","","instructions","fullscreen","2","40730","0.0-2.0","2759903","co38197","norming","","true","","","","",""
"28522.609999999993","","","sona","survey-html-form","3","69259","0.0-3.0","2759903","co38197","norming","","","[{""name"":""sonaid"",""value"":""38197""},{""name"":""debrief"",""value"":""yes""},{""name"":""datajoin"",""value"":""yes""}]","","","",""
"135700.41500000024","<div style='word-wrap: break-word; width: 900px'><h3>Instructions</h3><p>This experiment will have 3 parts. In the first part you will see a series of distorted images like the one below on the left. As you can see in the righthand image, the distorted images are derived from actual photographs. In what follows, you will <strong>briefly</strong> be presented with <strong>only</strong> the distorted image.</p> <div style='float: left; margin-right: 20px;'><img src='../img/018tt.jpg' height='250' width='250'></img></div><div style='float: right; margin-left: 20px;'><img src='../img/018gs.jpg' height='250' width='250'></img></div><p>Subsequently you will be asked a few questions about the image: One question on how <strong>curious</strong> you are about the solution and one on how <strong>confident</strong> you are that you know the solution.</p>Next, we ask you to make a guess on what is in the image. Note that it is OK to name just the <strong>basic level category</strong>. For example when you see a parrot in the image, 'parrot' will obviously be a correct answer but also correct is 'bird'. However, 'animal' will <strong>not</strong> be counted as a correct response. For the example above, 'rose' would be correct or 'flower', but not 'plant'. When soccer players are depicted, 'soccer', 'football', 'soccer players' will be correct, but not 'humans', 'outdoors', or 'sports'. You do not need to describe the image in full, just name the main object in it <strong>in one or two words</strong>. All images depict objects from one of the following broad level categories: animals, inanimate objects, plants, sports, vehicles, and food. Recognizing means knowing <strong>more</strong> than these broad labels for a given image. But we always encourage you to <strong>make a guess</strong> if you can. Note that you are allowed to use <strong>Dutch and English</strong> in your answers, whatever comes easiest for you.</p><p>Press any key to continue.</p></div>","32","instructions","html-keyboard-response","4","204967","0.0-4.0","2759903","co38197","norming","","","","","","",""
"24844.705000000453","<div style='word-wrap: break-word; width: 900px'><h3>Instructions</h3> <p>Next, the solution image will be revealed to you and you'll be asked to indicate how strong your <strong>aha-experience</strong> was after seeing the solution. This describes the positive feeling of the 'click' you sometimes experience, when the pieces of the 'puzzle' fall together and you suddenly have 'insight' in the image.</p><img src='aha.jpg' height='188' width='250'></img><p>Note that there are no right or wrong answers. We are interested in what <strong>you</strong> see in the image and how <strong>you</strong> feel about it.</p><p>Press any key to start the experiment.</p></div>","32","instructions","html-keyboard-response","5","229813","0.0-5.0","2759903","co38197","norming","","","","","","",""
"null","<div style=""font-size:60px;""> </div>","null","fixation","html-keyboard-response","6","230024","0.0-6.0-0.0","2759903","co38197","norming","","","","","","",""
"null","../img/tt/1200tt.jpg","null","mooney1","image-keyboard-response","7","233030","0.0-6.0-1.0","2759903","co38197","norming","","","","","","",""
"7331.6500000000815","","","post_mooney1_questions","survey-likert","8","240366","0.0-6.0-2.0","2759903","co38197","norming","","","{""curiosity"":6,""confidence"":0}","[0,1]","../img/tt/1200tt.jpg","",""
"3037.4899999996996","","","recognition","survey-text","9","243405","0.0-6.0-3.0","2759903","co38197","norming","","","{""guess"":""""}","","../img/tt/1200tt.jpg","",""
"null","../img/gs/1200gs.jpg","null","reveal","image-keyboard-response","10","245413","0.0-6.0-4.0","2759903","co38197","norming","","","","","","",""
"null","../img/tt/1200tt.jpg","null","mooney2","image-keyboard-response","11","247420","0.0-6.0-5.0","2759903","co38197","norming","","","","","","",""
"5942.87500000064","","","post_reveal_questions","survey-likert","12","253365","0.0-6.0-6.0","2759903","co38197","norming","","","{""aha"":4}","[0]","../img/tt/1200tt.jpg","",""
"null","<div style=""font-size:60px;""> </div>","null","fixation","html-keyboard-response","13","253574","0.0-6.0-0.1","2759903","co38197","norming","","","","","","",""
"null","../img/tt/318tt.jpg","null","mooney1","image-keyboard-response","14","256577","0.0-6.0-1.1","2759903","co38197","norming","","","","","","",""
"5283.774999999907","","","post_mooney1_questions","survey-likert","15","261861","0.0-6.0-2.1","2759903","co38197","norming","","","{""curiosity"":4,""confidence"":1}","[0,1]","../img/tt/318tt.jpg","",""
"2734.0100000001257","","","recognition","survey-text","16","264597","0.0-6.0-3.1","2759903","co38197","norming","","","{""guess"":""voetbal""}","","../img/tt/318tt.jpg","",""
"null","../img/gs/318gs.jpg","null","reveal","image-keyboard-response","17","266609","0.0-6.0-4.1","2759903","co38197","norming","","","","","","",""
"null","../img/tt/318tt.jpg","null","mooney2","image-keyboard-response","18","268610","0.0-6.0-5.1","2759903","co38197","norming","","","","","","",""
"4435.304999999993","","","post_reveal_questions","survey-likert","19","273048","0.0-6.0-6.1","2759903","co38197","norming","","","{""aha"":4}","[0]","../img/tt/318tt.jpg","",""
"null","<div style=""font-size:60px;""> </div>","null","fixation","html-keyboard-response","20","273257","0.0-6.0-0.2","2759903","co38197","norming","","","","","","",""
"null","../img/tt/091tt.jpg","null","mooney1","image-keyboard-response","21","276266","0.0-6.0-1.2","2759903","co38197","norming","","","","","","",""
"5019.234999999753","","","post_mooney1_questions","survey-likert","22","281288","0.0-6.0-2.2","2759903","co38197","norming","","","{""curiosity"":4,""confidence"":2}","[0,1]","../img/tt/091tt.jpg","",""
"3438.1550000007846","","","recognition","survey-text","23","284728","0.0-6.0-3.2","2759903","co38197","norming","","","{""guess"":""landschap""}","","../img/tt/091tt.jpg","",""
"null","../img/gs/091gs.jpg","null","reveal","image-keyboard-response","24","286733","0.0-6.0-4.2","2759903","co38197","norming","","","","","","",""
"null","../img/tt/091tt.jpg","null","mooney2","image-keyboard-response","25","288741","0.0-6.0-5.2","2759903","co38197","norming","","","","","","",""
"2656.5049999999464","","","post_reveal_questions","survey-likert","26","291400","0.0-6.0-6.2","2759903","co38197","norming","","","{""aha"":5}","[0]","../img/tt/091tt.jpg","",""
"null","<div style=""font-size:60px;""> </div>","null","fixation","html-keyboard-response","27","291610","0.0-6.0-0.3","2759903","co38197","norming","","","","","","",""
"null","../img/tt/1366tt.jpg","null","mooney1","image-keyboard-response","28","294615","0.0-6.0-1.3","2759903","co38197","norming","","","","","","",""
"5510.020000000659","","","post_mooney1_questions","survey-likert","29","300128","0.0-6.0-2.3","2759903","co38197","norming","","","{""curiosity"":4,""confidence"":1}","[0,1]","../img/tt/1366tt.jpg","",""
"1093.9650000000256","","","recognition","survey-text","30","301224","0.0-6.0-3.3","2759903","co38197","norming","","","{""guess"":""""}","","../img/tt/1366tt.jpg","",""
"null","../img/gs/1366gs.jpg","null","reveal","image-keyboard-response","31","303230","0.0-6.0-4.3","2759903","co38197","norming","","","","","","",""
"null","../img/tt/1366tt.jpg","null","mooney2","image-keyboard-response","32","305231","0.0-6.0-5.3","2759903","co38197","norming","","","","","","",""
"2231.9950000001118","","","post_reveal_questions","survey-likert","33","307464","0.0-6.0-6.3","2759903","co38197","norming","","","{""aha"":4}","[0]","../img/tt/1366tt.jpg","",""
"null","<div style=""font-size:60px;""> </div>","null","fixation","html-keyboard-response","34","307669","0.0-6.0-0.4","2759903","co38197","norming","","","","","","",""
"null","../img/tt/105tt.jpg","null","mooney1","image-keyboard-response","35","310672","0.0-6.0-1.4","2759903","co38197","norming","","","","","","",""
"6263.210000000079","","","post_mooney1_questions","survey-likert","36","316936","0.0-6.0-2.4","2759903","co38197","norming","","","{""curiosity"":4,""confidence"":2}","[0,1]","../img/tt/105tt.jpg","",""
"2574.0200000000186","","","recognition","survey-text","37","319512","0.0-6.0-3.4","2759903","co38197","norming","","","{""guess"":""vlinder""}","","../img/tt/105tt.jpg","",""
"null","../img/gs/105gs.jpg","null","reveal","image-keyboard-response","38","321513","0.0-6.0-4.4","2759903","co38197","norming","","","","","","",""
"null","../img/tt/105tt.jpg","null","mooney2","image-keyboard-response","39","323527","0.0-6.0-5.4","2759903","co38197","norming","","","","","","",""
"2959.3850000001257","","","post_reveal_questions","survey-likert","40","326488","0.0-6.0-6.4","2759903","co38197","norming","","","{""aha"":6}","[0]","../img/tt/105tt.jpg","",""
"null","<div style=""font-size:60px;""> </div>","null","fixation","html-keyboard-response","41","326695","0.0-6.0-0.5","2759903","co38197","norming","","","","","","",""
"null","../img/tt/279tt.jpg","null","mooney1","image-keyboard-response","42","329699","0.0-6.0-1.5","2759903","co38197","norming","","","","","","",""
"4965.564999999537","","","post_mooney1_questions","survey-likert","43","334666","0.0-6.0-2.5","2759903","co38197","norming","","","{""curiosity"":2,""confidence"":6}","[0,1]","../img/tt/279tt.jpg","",""
"2477.8499999993364","","","recognition","survey-text","44","337145","0.0-6.0-3.5","2759903","co38197","norming","","","{""guess"":""koala""}","","../img/tt/279tt.jpg","",""
"null","../img/gs/279gs.jpg","null","reveal","image-keyboard-response","45","339147","0.0-6.0-4.5","2759903","co38197","norming","","","","","","",""
"null","../img/tt/279tt.jpg","null","mooney2","image-keyboard-response","46","341152","0.0-6.0-5.5","2759903","co38197","norming","","","","","","",""
"3374.929999999935","","","post_reveal_questions","survey-likert","47","344529","0.0-6.0-6.5","2759903","co38197","norming","","","{""aha"":1}","[0]","../img/tt/279tt.jpg","",""
"null","<div style=""font-size:60px;""> </div>","null","fixation","html-keyboard-response","48","344739","0.0-6.0-0.6","2759903","co38197","norming","","","","","","",""
"null","../img/tt/515tt.jpg","null","mooney1","image-keyboard-response","49","347746","0.0-6.0-1.6","2759903","co38197","norming","","","","","","",""
"3316.33000000054","","","post_mooney1_questions","survey-likert","50","351065","0.0-6.0-2.6","2759903","co38197","norming","","","{""curiosity"":4,""confidence"":4}","[0,1]","../img/tt/515tt.jpg","",""
"2318.2800000004354","","","recognition","survey-text","51","353385","0.0-6.0-3.6","2759903","co38197","norming","","","{""guess"":""vogel""}","","../img/tt/515tt.jpg","",""
"null","../img/gs/515gs.jpg","null","reveal","image-keyboard-response","52","355389","0.0-6.0-4.6","2759903","co38197","norming","","","","","","",""
"null","../img/tt/515tt.jpg","null","mooney2","image-keyboard-response","53","357390","0.0-6.0-5.6","2759903","co38197","norming","","","","","","",""
"2889.704999999609","","","post_reveal_questions","survey-likert","54","360281","0.0-6.0-6.6","2759903","co38197","norming","","","{""aha"":2}","[0]","../img/tt/515tt.jpg","",""
"null","<div style=""font-size:60px;""> </div>","null","fixation","html-keyboard-response","55","360487","0.0-6.0-0.7","2759903","co38197","norming","","","","","","",""
"null","../img/tt/1143tt.jpg","null","mooney1","image-keyboard-response","56","363497","0.0-6.0-1.7","2759903","co38197","norming","","","","","","",""
"6669.710000000079","","","post_mooney1_questions","survey-likert","57","370169","0.0-6.0-2.7","2759903","co38197","norming","","","{""curiosity"":5,""confidence"":1}","[0,1]","../img/tt/1143tt.jpg","",""
"998.1649999999208","","","recognition","survey-text","58","371169","0.0-6.0-3.7","2759903","co38197","norming","","","{""guess"":""""}","","../img/tt/1143tt.jpg","",""
"null","../img/gs/1143gs.jpg","null","reveal","image-keyboard-response","59","373172","0.0-6.0-4.7","2759903","co38197","norming","","","","","","",""
"null","../img/tt/1143tt.jpg","null","mooney2","image-keyboard-response","60","375177","0.0-6.0-5.7","2759903","co38197","norming","","","","","","",""
"5638.214999999909","","","post_reveal_questions","survey-likert","61","380817","0.0-6.0-6.7","2759903","co38197","norming","","","{""aha"":4}","[0]","../img/tt/1143tt.jpg","",""
"null","<div style=""font-size:60px;""> </div>","null","fixation","html-keyboard-response","62","381025","0.0-6.0-0.8","2759903","co38197","norming","","","","","","",""
"null","../img/tt/412tt.jpg","null","mooney1","image-keyboard-response","63","384032","0.0-6.0-1.8","2759903","co38197","norming","","","","","","",""
"4622.515000000014","","","post_mooney1_questions","survey-likert","64","388653","0.0-6.0-2.8","2759903","co38197","norming","","","{""curiosity"":5,""confidence"":3}","[0,1]","../img/tt/412tt.jpg","",""
"1406.050000000454","","","recognition","survey-text","65","390061","0.0-6.0-3.8","2759903","co38197","norming","","","{""guess"":""""}","","../img/tt/412tt.jpg","",""
"null","../img/gs/412gs.jpg","null","reveal","image-keyboard-response","66","392064","0.0-6.0-4.8","2759903","co38197","norming","","","","","","",""
"null","../img/tt/412tt.jpg","null","mooney2","image-keyboard-response","67","394072","0.0-6.0-5.8","2759903","co38197","norming","","","","","","",""
"3803.294999999751","","","post_reveal_questions","survey-likert","68","397877","0.0-6.0-6.8","2759903","co38197","norming","","","{""aha"":5}","[0]","../img/tt/412tt.jpg","",""
"null","<div style=""font-size:60px;""> </div>","null","fixation","html-keyboard-response","69","398087","0.0-6.0-0.9","2759903","co38197","norming","","","","","","",""
"null","../img/tt/353tt.jpg","null","mooney1","image-keyboard-response","70","401093","0.0-6.0-1.9","2759903","co38197","norming","","","","","","",""
"4982.0149999996065","","","post_mooney1_questions","survey-likert","71","406077","0.0-6.0-2.9","2759903","co38197","norming","","","{""curiosity"":3,""confidence"":2}","[0,1]","../img/tt/353tt.jpg","",""
"1510.1749999994063","","","recognition","survey-text","72","407589","0.0-6.0-3.9","2759903","co38197","norming","","","{""guess"":""vos""}","","../img/tt/353tt.jpg","",""
"null","../img/gs/353gs.jpg","null","reveal","image-keyboard-response","73","409594","0.0-6.0-4.9","2759903","co38197","norming","","","","","","",""
"null","../img/tt/353tt.jpg","null","mooney2","image-keyboard-response","74","411603","0.0-6.0-5.9","2759903","co38197","norming","","","","","","",""
"3175.46000000037","","","post_reveal_questions","survey-likert","75","414781","0.0-6.0-6.9","2759903","co38197","norming","","","{""aha"":2}","[0]","../img/tt/353tt.jpg","",""
"null","<div style=""font-size:60px;""> </div>","null","fixation","html-keyboard-response","76","414987","0.0-6.0-0.10","2759903","co38197","norming","","","","","","",""
"null","../img/tt/301tt.jpg","null","mooney1","image-keyboard-response","77","417994","0.0-6.0-1.10","2759903","co38197","norming","","","","","","",""
"4560.965000000608","","","post_mooney1_questions","survey-likert","78","422557","0.0-6.0-2.10","2759903","co38197","norming","","","{""curiosity"":4,""confidence"":2}","[0,1]","../img/tt/301tt.jpg","",""
"3334.3549999999814","","","recognition","survey-text","79","425893","0.0-6.0-3.10","2759903","co38197","norming","","","{""guess"":""sleutel""}","","../img/tt/301tt.jpg","",""
"null","../img/gs/301gs.jpg","null","reveal","image-keyboard-response","80","427902","0.0-6.0-4.10","2759903","co38197","norming","","","","","","",""
"null","../img/tt/301tt.jpg","null","mooney2","image-keyboard-response","81","429912","0.0-6.0-5.10","2759903","co38197","norming","","","","","","",""
"2850.1900000001187","","","post_reveal_questions","survey-likert","82","432765","0.0-6.0-6.10","2759903","co38197","norming","","","{""aha"":6}","[0]","../img/tt/301tt.jpg","",""
"null","<div style=""font-size:60px;""> </div>","null","fixation","html-keyboard-response","83","432971","0.0-6.0-0.11","2759903","co38197","norming","","","","","","",""
"null","../img/tt/380tt.jpg","null","mooney1","image-keyboard-response","84","435981","0.0-6.0-1.11","2759903","co38197","norming","","","","","","",""
"5830.555000000459","","","post_mooney1_questions","survey-likert","85","441813","0.0-6.0-2.11","2759903","co38197","norming","","","{""curiosity"":4,""confidence"":0}","[0,1]","../img/tt/380tt.jpg","",""
"942.2750000003143","","","recognition","survey-text","86","442757","0.0-6.0-3.11","2759903","co38197","norming","","","{""guess"":""""}","","../img/tt/380tt.jpg","",""
"null","../img/gs/380gs.jpg","null","reveal","image-keyboard-response","87","444758","0.0-6.0-4.11","2759903","co38197","norming","","","","","","",""
"null","../img/tt/380tt.jpg","null","mooney2","image-keyboard-response","88","446764","0.0-6.0-5.11","2759903","co38197","norming","","","","","","",""
"2999.0499999994645","","","post_reveal_questions","survey-likert","89","449772","0.0-6.0-6.11","2759903","co38197","norming","","","{""aha"":5}","[0]","../img/tt/380tt.jpg","",""
"null","<div style=""font-size:60px;""> </div>","null","fixation","html-keyboard-response","90","449979","0.0-6.0-0.12","2759903","co38197","norming","","","","","","",""
"null","../img/tt/040tt.jpg","null","mooney1","image-keyboard-response","91","452987","0.0-6.0-1.12","2759903","co38197","norming","","","","","","",""
"5696.00999999966","","","post_mooney1_questions","survey-likert","92","458684","0.0-6.0-2.12","2759903","co38197","norming","","","{""curiosity"":3,""confidence"":1}","[0,1]","../img/tt/040tt.jpg","",""
"1310.0549999999348","","","recognition","survey-text","93","459996","0.0-6.0-3.12","2759903","co38197","norming","","","{""guess"":""dier""}","","../img/tt/040tt.jpg","",""
"null","../img/gs/040gs.jpg","null","reveal","image-keyboard-response","94","462004","0.0-6.0-4.12","2759903","co38197","norming","","","","","","",""
"null","../img/tt/040tt.jpg","null","mooney2","image-keyboard-response","95","464006","0.0-6.0-5.12","2759903","co38197","norming","","","","","","",""
"2708.920000000042","","","post_reveal_questions","survey-likert","96","466716","0.0-6.0-6.12","2759903","co38197","norming","","","{""aha"":4}","[0]","../img/tt/040tt.jpg","",""
"null","<div style=""font-size:60px;""> </div>","null","fixation","html-keyboard-response","97","466918","0.0-6.0-0.13","2759903","co38197","norming","","","","","","",""
"null","../img/tt/603tt.jpg","null","mooney1","image-keyboard-response","98","469928","0.0-6.0-1.13","2759903","co38197","norming","","","","","","",""
"13737.404999999853","","","post_mooney1_questions","survey-likert","99","483668","0.0-6.0-2.13","2759903","co38197","norming","","","{""curiosity"":4,""confidence"":0}","[0,1]","../img/tt/603tt.jpg","",""
"1158.2399999997579","","","recognition","survey-text","100","484828","0.0-6.0-3.13","2759903","co38197","norming","","","{""guess"":""""}","","../img/tt/603tt.jpg","",""
"null","../img/gs/603gs.jpg","null","reveal","image-keyboard-response","101","486833","0.0-6.0-4.13","2759903","co38197","norming","","","","","","",""
"null","../img/tt/603tt.jpg","null","mooney2","image-keyboard-response","102","488835","0.0-6.0-5.13","2759903","co38197","norming","","","","","","",""
"2799.00499999983","","","post_reveal_questions","survey-likert","103","491636","0.0-6.0-6.13","2759903","co38197","norming","","","{""aha"":5}","[0]","../img/tt/603tt.jpg","",""
"null","<div style=""font-size:60px;""> </div>","null","fixation","html-keyboard-response","104","491842","0.0-6.0-0.14","2759903","co38197","norming","","","","","","",""
"null","../img/tt/124tt.jpg","null","mooney1","image-keyboard-response","105","494848","0.0-6.0-1.14","2759903","co38197","norming","","","","","","",""
"3713.33500000037","","","post_mooney1_questions","survey-likert","106","498564","0.0-6.0-2.14","2759903","co38197","norming","","","{""curiosity"":5,""confidence"":5}","[0,1]","../img/tt/124tt.jpg","",""
"1494.1300000000629","","","recognition","survey-text","107","500060","0.0-6.0-3.14","2759903","co38197","norming","","","{""guess"":""beer""}","","../img/tt/124tt.jpg","",""
"null","../img/gs/124gs.jpg","null","reveal","image-keyboard-response","108","502063","0.0-6.0-4.14","2759903","co38197","norming","","","","","","",""
"null","../img/tt/124tt.jpg","null","mooney2","image-keyboard-response","109","504071","0.0-6.0-5.14","2759903","co38197","norming","","","","","","",""
"3427.209999999788","","","post_reveal_questions","survey-likert","110","507500","0.0-6.0-6.14","2759903","co38197","norming","","","{""aha"":3}","[0]","../img/tt/124tt.jpg","",""
"null","<div style=""font-size:60px;""> </div>","null","fixation","html-keyboard-response","111","507708","0.0-6.0-0.15","2759903","co38197","norming","","","","","","",""
"null","../img/tt/522tt.jpg","null","mooney1","image-keyboard-response","112","510716","0.0-6.0-1.15","2759903","co38197","norming","","","","","","",""
"6359.825000000477","","","post_mooney1_questions","survey-likert","113","517077","0.0-6.0-2.15","2759903","co38197","norming","","","{""curiosity"":4,""confidence"":2}","[0,1]","../img/tt/522tt.jpg","",""
"2005.570000000298","","","recognition","survey-text","114","519085","0.0-6.0-3.15","2759903","co38197","norming","","","{""guess"":""tijger""}","","../img/tt/522tt.jpg","",""
"null","../img/gs/522gs.jpg","null","reveal","image-keyboard-response","115","521089","0.0-6.0-4.15","2759903","co38197","norming","","","","","","",""
"null","../img/tt/522tt.jpg","null","mooney2","image-keyboard-response","116","523093","0.0-6.0-5.15","2759903","co38197","norming","","","","","","",""
"2005.5350000002072","","","post_reveal_questions","survey-likert","117","525101","0.0-6.0-6.15","2759903","co38197","norming","","","{""aha"":5}","[0]","../img/tt/522tt.jpg","",""
"null","<div style=""font-size:60px;""> </div>","null","fixation","html-keyboard-response","118","525302","0.0-6.0-0.16","2759903","co38197","norming","","","","","","",""
"null","../img/tt/1173tt.jpg","null","mooney1","image-keyboard-response","119","528305","0.0-6.0-1.16","2759903","co38197","norming","","","","","","",""
"5233.224999999977","","","post_mooney1_questions","survey-likert","120","533541","0.0-6.0-2.16","2759903","co38197","norming","","","{""curiosity"":3,""confidence"":5}","[0,1]","../img/tt/1173tt.jpg","",""
"3782.295000000042","","","recognition","survey-text","121","537325","0.0-6.0-3.16","2759903","co38197","norming","","","{""guess"":""foootball""}","","../img/tt/1173tt.jpg","",""
"null","../img/gs/1173gs.jpg","null","reveal","image-keyboard-response","122","539327","0.0-6.0-4.16","2759903","co38197","norming","","","","","","",""
"null","../img/tt/1173tt.jpg","null","mooney2","image-keyboard-response","123","541328","0.0-6.0-5.16","2759903","co38197","norming","","","","","","",""
"3188.4449999998324","","","post_reveal_questions","survey-likert","124","544517","0.0-6.0-6.16","2759903","co38197","norming","","","{""aha"":1}","[0]","../img/tt/1173tt.jpg","",""
"null","<div style=""font-size:60px;""> </div>","null","fixation","html-keyboard-response","125","544723","0.0-6.0-0.17","2759903","co38197","norming","","","","","","",""
"null","../img/tt/1006tt.jpg","null","mooney1","image-keyboard-response","126","547727","0.0-6.0-1.17","2759903","co38197","norming","","","","","","",""
"4171.629999999772","","","post_mooney1_questions","survey-likert","127","551901","0.0-6.0-2.17","2759903","co38197","norming","","","{""curiosity"":4,""confidence"":4}","[0,1]","../img/tt/1006tt.jpg","",""
"1198.244999999646","","","recognition","survey-text","128","553101","0.0-6.0-3.17","2759903","co38197","norming","","","{""guess"":""koe""}","","../img/tt/1006tt.jpg","",""
"null","../img/gs/1006gs.jpg","null","reveal","image-keyboard-response","129","555106","0.0-6.0-4.17","2759903","co38197","norming","","","","","","",""
"null","../img/tt/1006tt.jpg","null","mooney2","image-keyboard-response","130","557113","0.0-6.0-5.17","2759903","co38197","norming","","","","","","",""
"3449.374999999185","","","post_reveal_questions","survey-likert","131","560565","0.0-6.0-6.17","2759903","co38197","norming","","","{""aha"":3}","[0]","../img/tt/1006tt.jpg","",""
"null","<div style=""font-size:60px;""> </div>","null","fixation","html-keyboard-response","132","560770","0.0-6.0-0.18","2759903","co38197","norming","","","","","","",""
"null","../img/tt/1279tt.jpg","null","mooney1","image-keyboard-response","133","563777","0.0-6.0-1.18","2759903","co38197","norming","","","","","","",""
"3409.3950000006007","","","post_mooney1_questions","survey-likert","134","567189","0.0-6.0-2.18","2759903","co38197","norming","","","{""curiosity"":5,""confidence"":5}","[0,1]","../img/tt/1279tt.jpg","",""
"1382.0849999992643","","","recognition","survey-text","135","568573","0.0-6.0-3.18","2759903","co38197","norming","","","{""guess"":""koe""}","","../img/tt/1279tt.jpg","",""
"null","../img/gs/1279gs.jpg","null","reveal","image-keyboard-response","136","570584","0.0-6.0-4.18","2759903","co38197","norming","","","","","","",""
"null","../img/tt/1279tt.jpg","null","mooney2","image-keyboard-response","137","572587","0.0-6.0-5.18","2759903","co38197","norming","","","","","","",""
"3712.244999999646","","","post_reveal_questions","survey-likert","138","576301","0.0-6.0-6.18","2759903","co38197","norming","","","{""aha"":4}","[0]","../img/tt/1279tt.jpg","",""
"null","<div style=""font-size:60px;""> </div>","null","fixation","html-keyboard-response","139","576503","0.0-6.0-0.19","2759903","co38197","norming","","","","","","",""
"null","../img/tt/1122tt.jpg","null","mooney1","image-keyboard-response","140","579515","0.0-6.0-1.19","2759903","co38197","norming","","","","","","",""
"4247.504999999306","","","post_mooney1_questions","survey-likert","141","583766","0.0-6.0-2.19","2759903","co38197","norming","","","{""curiosity"":4,""confidence"":4}","[0,1]","../img/tt/1122tt.jpg","",""
"1654.1800000004005","","","recognition","survey-text","142","585421","0.0-6.0-3.19","2759903","co38197","norming","","","{""guess"":""boot""}","","../img/tt/1122tt.jpg","",""
"null","../img/gs/1122gs.jpg","null","reveal","image-keyboard-response","143","587427","0.0-6.0-4.19","2759903","co38197","norming","","","","","","",""
"null","../img/tt/1122tt.jpg","null","mooney2","image-keyboard-response","144","589429","0.0-6.0-5.19","2759903","co38197","norming","","","","","","",""
"3709.9350000007544","","","post_reveal_questions","survey-likert","145","593142","0.0-6.0-6.19","2759903","co38197","norming","","","{""aha"":2}","[0]","../img/tt/1122tt.jpg","",""
"null","<div style=""font-size:60px;""> </div>","null","fixation","html-keyboard-response","146","593343","0.0-6.0-0.20","2759903","co38197","norming","","","","","","",""
"null","../img/tt/1202tt.jpg","null","mooney1","image-keyboard-response","147","596351","0.0-6.0-1.20","2759903","co38197","norming","","","","","","",""
"5019.815000000526","","","post_mooney1_questions","survey-likert","148","601374","0.0-6.0-2.20","2759903","co38197","norming","","","{""curiosity"":5,""confidence"":1}","[0,1]","../img/tt/1202tt.jpg","",""
"1901.9400000006426","","","recognition","survey-text","149","603277","0.0-6.0-3.20","2759903","co38197","norming","","","{""guess"":""kerk""}","","../img/tt/1202tt.jpg","",""
"null","../img/gs/1202gs.jpg","null","reveal","image-keyboard-response","150","605278","0.0-6.0-4.20","2759903","co38197","norming","","","","","","",""
"null","../img/tt/1202tt.jpg","null","mooney2","image-keyboard-response","151","607287","0.0-6.0-5.20","2759903","co38197","norming","","","","","","",""
"3213.220000000554","","","post_reveal_questions","survey-likert","152","610502","0.0-6.0-6.20","2759903","co38197","norming","","","{""aha"":5}","[0]","../img/tt/1202tt.jpg","",""
"null","<div style=""font-size:60px;""> </div>","null","fixation","html-keyboard-response","153","610710","0.0-6.0-0.21","2759903","co38197","norming","","","","","","",""
"null","../img/tt/1283tt.jpg","null","mooney1","image-keyboard-response","154","613716","0.0-6.0-1.21","2759903","co38197","norming","","","","","","",""
"5590.210000000312","","","post_mooney1_questions","survey-likert","155","619309","0.0-6.0-2.21","2759903","co38197","norming","","","{""curiosity"":5,""confidence"":0}","[0,1]","../img/tt/1283tt.jpg","",""
"1446.369999999646","","","recognition","survey-text","156","620757","0.0-6.0-3.21","2759903","co38197","norming","","","{""guess"":""""}","","../img/tt/1283tt.jpg","",""
"null","../img/gs/1283gs.jpg","null","reveal","image-keyboard-response","157","622766","0.0-6.0-4.21","2759903","co38197","norming","","","","","","",""
"null","../img/tt/1283tt.jpg","null","mooney2","image-keyboard-response","158","624778","0.0-6.0-5.21","2759903","co38197","norming","","","","","","",""
"3449.370000000228","","","post_reveal_questions","survey-likert","159","628229","0.0-6.0-6.21","2759903","co38197","norming","","","{""aha"":5}","[0]","../img/tt/1283tt.jpg","",""
"null","<div style=""font-size:60px;""> </div>","null","fixation","html-keyboard-response","160","628432","0.0-6.0-0.22","2759903","co38197","norming","","","","","","",""
"null","../img/tt/1241tt.jpg","null","mooney1","image-keyboard-response","161","631442","0.0-6.0-1.22","2759903","co38197","norming","","","","","","",""
"5184.7550000002375","","","post_mooney1_questions","survey-likert","162","636627","0.0-6.0-2.22","2759903","co38197","norming","","","{""curiosity"":6,""confidence"":1}","[0,1]","../img/tt/1241tt.jpg","",""
"4117.8599999992875","","","recognition","survey-text","163","640746","0.0-6.0-3.22","2759903","co38197","norming","","","{""guess"":""zetel""}","","../img/tt/1241tt.jpg","",""
"null","../img/gs/1241gs.jpg","null","reveal","image-keyboard-response","164","642748","0.0-6.0-4.22","2759903","co38197","norming","","","","","","",""
"null","../img/tt/1241tt.jpg","null","mooney2","image-keyboard-response","165","644753","0.0-6.0-5.22","2759903","co38197","norming","","","","","","",""
"2774.7049999998417","","","post_reveal_questions","survey-likert","166","647530","0.0-6.0-6.22","2759903","co38197","norming","","","{""aha"":6}","[0]","../img/tt/1241tt.jpg","",""
"null","<div style=""font-size:60px;""> </div>","null","fixation","html-keyboard-response","167","647737","0.0-6.0-0.23","2759903","co38197","norming","","","","","","",""
"null","../img/tt/1027tt.jpg","null","mooney1","image-keyboard-response","168","650743","0.0-6.0-1.23","2759903","co38197","norming","","","","","","",""
"6983.839999999851","","","post_mooney1_questions","survey-likert","169","657730","0.0-6.0-2.23","2759903","co38197","norming","","","{""curiosity"":4,""confidence"":4}","[0,1]","../img/tt/1027tt.jpg","",""
"1542.015000000014","","","recognition","survey-text","170","659274","0.0-6.0-3.23","2759903","co38197","norming","","","{""guess"":""koe""}","","../img/tt/1027tt.jpg","",""
"null","../img/gs/1027gs.jpg","null","reveal","image-keyboard-response","171","661280","0.0-6.0-4.23","2759903","co38197","norming","","","","","","",""
"null","../img/tt/1027tt.jpg","null","mooney2","image-keyboard-response","172","663288","0.0-6.0-5.23","2759903","co38197","norming","","","","","","",""
"5065.055000000051","","","post_reveal_questions","survey-likert","173","668354","0.0-6.0-6.23","2759903","co38197","norming","","","{""aha"":1}","[0]","../img/tt/1027tt.jpg","",""
"null","<div style=""font-size:60px;""> </div>","null","fixation","html-keyboard-response","174","668557","0.0-6.0-0.24","2759903","co38197","norming","","","","","","",""
"null","../img/tt/1217tt.jpg","null","mooney1","image-keyboard-response","175","671566","0.0-6.0-1.24","2759903","co38197","norming","","","","","","",""
"5079.76999999932","","","post_mooney1_questions","survey-likert","176","676650","0.0-6.0-2.24","2759903","co38197","norming","","","{""curiosity"":3,""confidence"":4}","[0,1]","../img/tt/1217tt.jpg","",""
"1006.3799999997718","","","recognition","survey-text","177","677658","0.0-6.0-3.24","2759903","co38197","norming","","","{""guess"":""koe""}","","../img/tt/1217tt.jpg","",""
"null","../img/gs/1217gs.jpg","null","reveal","image-keyboard-response","178","679660","0.0-6.0-4.24","2759903","co38197","norming","","","","","","",""
"null","../img/tt/1217tt.jpg","null","mooney2","image-keyboard-response","179","681666","0.0-6.0-5.24","2759903","co38197","norming","","","","","","",""
"3342.1049999997485","","","post_reveal_questions","survey-likert","180","685010","0.0-6.0-6.24","2759903","co38197","norming","","","{""aha"":2}","[0]","../img/tt/1217tt.jpg","",""
"null","<div style=""font-size:60px;""> </div>","null","fixation","html-keyboard-response","181","685212","0.0-6.0-0.25","2759903","co38197","norming","","","","","","",""
"null","../img/tt/1247tt.jpg","null","mooney1","image-keyboard-response","182","688225","0.0-6.0-1.25","2759903","co38197","norming","","","","","","",""
"4150.880000000121","","","post_mooney1_questions","survey-likert","183","692378","0.0-6.0-2.25","2759903","co38197","norming","","","{""curiosity"":4,""confidence"":2}","[0,1]","../img/tt/1247tt.jpg","",""
"1710.1499999999069","","","recognition","survey-text","184","694090","0.0-6.0-3.25","2759903","co38197","norming","","","{""guess"":""tijger""}","","../img/tt/1247tt.jpg","",""
"null","../img/gs/1247gs.jpg","null","reveal","image-keyboard-response","185","696099","0.0-6.0-4.25","2759903","co38197","norming","","","","","","",""
"null","../img/tt/1247tt.jpg","null","mooney2","image-keyboard-response","186","698101","0.0-6.0-5.25","2759903","co38197","norming","","","","","","",""
"2639.1950000006473","","","post_reveal_questions","survey-likert","187","700742","0.0-6.0-6.25","2759903","co38197","norming","","","{""aha"":4}","[0]","../img/tt/1247tt.jpg","",""
"null","<div style=""font-size:60px;""> </div>","null","fixation","html-keyboard-response","188","700953","0.0-6.0-0.26","2759903","co38197","norming","","","","","","",""
"null","../img/tt/056tt.jpg","null","mooney1","image-keyboard-response","189","703960","0.0-6.0-1.26","2759903","co38197","norming","","","","","","",""
"3315.1999999999534","","","post_mooney1_questions","survey-likert","190","707279","0.0-6.0-2.26","2759903","co38197","norming","","","{""curiosity"":4,""confidence"":4}","[0,1]","../img/tt/056tt.jpg","",""
"1454.3599999997532","","","recognition","survey-text","191","708735","0.0-6.0-3.26","2759903","co38197","norming","","","{""guess"":""mens""}","","../img/tt/056tt.jpg","",""
"null","../img/gs/056gs.jpg","null","reveal","image-keyboard-response","192","710736","0.0-6.0-4.26","2759903","co38197","norming","","","","","","",""
"null","../img/tt/056tt.jpg","null","mooney2","image-keyboard-response","193","712743","0.0-6.0-5.26","2759903","co38197","norming","","","","","","",""
"2909.160000000149","","","post_reveal_questions","survey-likert","194","715654","0.0-6.0-6.26","2759903","co38197","norming","","","{""aha"":4}","[0]","../img/tt/056tt.jpg","",""
"null","<div style=""font-size:60px;""> </div>","null","fixation","html-keyboard-response","195","715860","0.0-6.0-0.27","2759903","co38197","norming","","","","","","",""
"null","../img/tt/1033tt.jpg","null","mooney1","image-keyboard-response","196","718866","0.0-6.0-1.27","2759903","co38197","norming","","","","","","",""
"4932.169999999111","","","post_mooney1_questions","survey-likert","197","723799","0.0-6.0-2.27","2759903","co38197","norming","","","{""curiosity"":4,""confidence"":4}","[0,1]","../img/tt/1033tt.jpg","",""
"1653.9149999999208","","","recognition","survey-text","198","725455","0.0-6.0-3.27","2759903","co38197","norming","","","{""guess"":""zwaard""}","","../img/tt/1033tt.jpg","",""
"null","../img/gs/1033gs.jpg","null","reveal","image-keyboard-response","199","727465","0.0-6.0-4.27","2759903","co38197","norming","","","","","","",""
"null","../img/tt/1033tt.jpg","null","mooney2","image-keyboard-response","200","729473","0.0-6.0-5.27","2759903","co38197","norming","","","","","","",""
"3804.5750000001863","","","post_reveal_questions","survey-likert","201","733278","0.0-6.0-6.27","2759903","co38197","norming","","","{""aha"":5}","[0]","../img/tt/1033tt.jpg","",""
"null","<div style=""font-size:60px;""> </div>","null","fixation","html-keyboard-response","202","733481","0.0-6.0-0.28","2759903","co38197","norming","","","","","","",""
"null","../img/tt/1175tt.jpg","null","mooney1","image-keyboard-response","203","736488","0.0-6.0-1.28","2759903","co38197","norming","","","","","","",""
"4716.170000000624","","","post_mooney1_questions","survey-likert","204","741207","0.0-6.0-2.28","2759903","co38197","norming","","","{""curiosity"":6,""confidence"":0}","[0,1]","../img/tt/1175tt.jpg","",""
"1326.1600000006147","","","recognition","survey-text","205","742534","0.0-6.0-3.28","2759903","co38197","norming","","","{""guess"":""""}","","../img/tt/1175tt.jpg","",""
"null","../img/gs/1175gs.jpg","null","reveal","image-keyboard-response","206","744540","0.0-6.0-4.28","2759903","co38197","norming","","","","","","",""
"null","../img/tt/1175tt.jpg","null","mooney2","image-keyboard-response","207","746543","0.0-6.0-5.28","2759903","co38197","norming","","","","","","",""
"3708.6449999996694","","","post_reveal_questions","survey-likert","208","750254","0.0-6.0-6.28","2759903","co38197","norming","","","{""aha"":6}","[0]","../img/tt/1175tt.jpg","",""
"null","<div style=""font-size:60px;""> </div>","null","fixation","html-keyboard-response","209","750464","0.0-6.0-0.29","2759903","co38197","norming","","","","","","",""
"null","../img/tt/357tt.jpg","null","mooney1","image-keyboard-response","210","753467","0.0-6.0-1.29","2759903","co38197","norming","","","","","","",""
"5944.344999999856","","","post_mooney1_questions","survey-likert","211","759414","0.0-6.0-2.29","2759903","co38197","norming","","","{""curiosity"":4,""confidence"":1}","[0,1]","../img/tt/357tt.jpg","",""
"3142.2050000000745","","","recognition","survey-text","212","762557","0.0-6.0-3.29","2759903","co38197","norming","","","{""guess"":""bladeren""}","","../img/tt/357tt.jpg","",""
"null","../img/gs/357gs.jpg","null","reveal","image-keyboard-response","213","764561","0.0-6.0-4.29","2759903","co38197","norming","","","","","","",""
"null","../img/tt/357tt.jpg","null","mooney2","image-keyboard-response","214","766571","0.0-6.0-5.29","2759903","co38197","norming","","","","","","",""
"3800.2099999993807","","","post_reveal_questions","survey-likert","215","770373","0.0-6.0-6.29","2759903","co38197","norming","","","{""aha"":6}","[0]","../img/tt/357tt.jpg","",""
"null","<div style=""font-size:60px;""> </div>","null","fixation","html-keyboard-response","216","770576","0.0-6.0-0.30","2759903","co38197","norming","","","","","","",""
"null","../img/tt/418tt.jpg","null","mooney1","image-keyboard-response","217","773584","0.0-6.0-1.30","2759903","co38197","norming","","","","","","",""
"3474.930000000284","","","post_mooney1_questions","survey-likert","218","777061","0.0-6.0-2.30","2759903","co38197","norming","","","{""curiosity"":4,""confidence"":3}","[0,1]","../img/tt/418tt.jpg","",""
"1782.6249999997672","","","recognition","survey-text","219","778846","0.0-6.0-3.30","2759903","co38197","norming","","","{""guess"":""groente""}","","../img/tt/418tt.jpg","",""
"null","../img/gs/418gs.jpg","null","reveal","image-keyboard-response","220","780847","0.0-6.0-4.30","2759903","co38197","norming","","","","","","",""
"null","../img/tt/418tt.jpg","null","mooney2","image-keyboard-response","221","782850","0.0-6.0-5.30","2759903","co38197","norming","","","","","","",""
"4265.354999999632","","","post_reveal_questions","survey-likert","222","787117","0.0-6.0-6.30","2759903","co38197","norming","","","{""aha"":5}","[0]","../img/tt/418tt.jpg","",""
"null","<div style=""font-size:60px;""> </div>","null","fixation","html-keyboard-response","223","787325","0.0-6.0-0.31","2759903","co38197","norming","","","","","","",""
"null","../img/tt/1080tt.jpg","null","mooney1","image-keyboard-response","224","790335","0.0-6.0-1.31","2759903","co38197","norming","","","","","","",""
"5219.100000000326","","","post_mooney1_questions","survey-likert","225","795558","0.0-6.0-2.31","2759903","co38197","norming","","","{""curiosity"":5,""confidence"":4}","[0,1]","../img/tt/1080tt.jpg","",""
"1622.1699999995762","","","recognition","survey-text","226","797181","0.0-6.0-3.31","2759903","co38197","norming","","","{""guess"":""vrouw""}","","../img/tt/1080tt.jpg","",""
"null","../img/gs/1080gs.jpg","null","reveal","image-keyboard-response","227","799187","0.0-6.0-4.31","2759903","co38197","norming","","","","","","",""
"null","../img/tt/1080tt.jpg","null","mooney2","image-keyboard-response","228","801192","0.0-6.0-5.31","2759903","co38197","norming","","","","","","",""
"13036.13000000047","","","post_reveal_questions","survey-likert","229","814229","0.0-6.0-6.31","2759903","co38197","norming","","","{""aha"":5}","[0]","../img/tt/1080tt.jpg","",""
"null","<div style=""font-size:60px;""> </div>","null","fixation","html-keyboard-response","230","814436","0.0-6.0-0.32","2759903","co38197","norming","","","","","","",""
"null","../img/tt/406tt.jpg","null","mooney1","image-keyboard-response","231","817446","0.0-6.0-1.32","2759903","co38197","norming","","","","","","",""
"5318.910000000033","","","post_mooney1_questions","survey-likert","232","822768","0.0-6.0-2.32","2759903","co38197","norming","","","{""curiosity"":4,""confidence"":0}","[0,1]","../img/tt/406tt.jpg","",""
"813.7699999996694","","","recognition","survey-text","233","823584","0.0-6.0-3.32","2759903","co38197","norming","","","{""guess"":""""}","","../img/tt/406tt.jpg","",""
"null","../img/gs/406gs.jpg","null","reveal","image-keyboard-response","234","825587","0.0-6.0-4.32","2759903","co38197","norming","","","","","","",""
"null","../img/tt/406tt.jpg","null","mooney2","image-keyboard-response","235","827593","0.0-6.0-5.32","2759903","co38197","norming","","","","","","",""
"2556.0399999995716","","","post_reveal_questions","survey-likert","236","830152","0.0-6.0-6.32","2759903","co38197","norming","","","{""aha"":6}","[0]","../img/tt/406tt.jpg","",""
"null","<div style=""font-size:60px;""> </div>","null","fixation","html-keyboard-response","237","830357","0.0-6.0-0.33","2759903","co38197","norming","","","","","","",""
"null","../img/tt/306tt.jpg","null","mooney1","image-keyboard-response","238","833366","0.0-6.0-1.33","2759903","co38197","norming","","","","","","",""
"4800.489999999641","","","post_mooney1_questions","survey-likert","239","838168","0.0-6.0-2.33","2759903","co38197","norming","","","{""curiosity"":3,""confidence"":0}","[0,1]","../img/tt/306tt.jpg","",""
"2646.0950000000885","","","recognition","survey-text","240","840816","0.0-6.0-3.33","2759903","co38197","norming","","","{""guess"":""boterham""}","","../img/tt/306tt.jpg","",""
"null","../img/gs/306gs.jpg","null","reveal","image-keyboard-response","241","842820","0.0-6.0-4.33","2759903","co38197","norming","","","","","","",""
"null","../img/tt/306tt.jpg","null","mooney2","image-keyboard-response","242","844826","0.0-6.0-5.33","2759903","co38197","norming","","","","","","",""
"2442.7249999999767","","","post_reveal_questions","survey-likert","243","847271","0.0-6.0-6.33","2759903","co38197","norming","","","{""aha"":4}","[0]","../img/tt/306tt.jpg","",""
"null","<div style=""font-size:60px;""> </div>","null","fixation","html-keyboard-response","244","847480","0.0-6.0-0.34","2759903","co38197","norming","","","","","","",""
"null","../img/tt/1181tt.jpg","null","mooney1","image-keyboard-response","245","850483","0.0-6.0-1.34","2759903","co38197","norming","","","","","","",""
"3777.450000000419","","","post_mooney1_questions","survey-likert","246","854264","0.0-6.0-2.34","2759903","co38197","norming","","","{""curiosity"":5,""confidence"":3}","[0,1]","../img/tt/1181tt.jpg","",""
"1029.894999999553","","","recognition","survey-text","247","855295","0.0-6.0-3.34","2759903","co38197","norming","","","{""guess"":""man""}","","../img/tt/1181tt.jpg","",""
"null","../img/gs/1181gs.jpg","null","reveal","image-keyboard-response","248","857305","0.0-6.0-4.34","2759903","co38197","norming","","","","","","",""
"null","../img/tt/1181tt.jpg","null","mooney2","image-keyboard-response","249","859316","0.0-6.0-5.34","2759903","co38197","norming","","","","","","",""
"3595.0349999994505","","","post_reveal_questions","survey-likert","250","862912","0.0-6.0-6.34","2759903","co38197","norming","","","{""aha"":5}","[0]","../img/tt/1181tt.jpg","",""
"null","<div style=""font-size:60px;""> </div>","null","fixation","html-keyboard-response","251","863116","0.0-6.0-0.35","2759903","co38197","norming","","","","","","",""
"null","../img/tt/1156tt.jpg","null","mooney1","image-keyboard-response","252","866122","0.0-6.0-1.35","2759903","co38197","norming","","","","","","",""
"4395.625000000116","","","post_mooney1_questions","survey-likert","253","870520","0.0-6.0-2.35","2759903","co38197","norming","","","{""curiosity"":3,""confidence"":5}","[0,1]","../img/tt/1156tt.jpg","",""
"2486.16500000027","","","recognition","survey-text","254","873008","0.0-6.0-3.35","2759903","co38197","norming","","","{""guess"":""bikini""}","","../img/tt/1156tt.jpg","",""
"null","../img/gs/1156gs.jpg","null","reveal","image-keyboard-response","255","875016","0.0-6.0-4.35","2759903","co38197","norming","","","","","","",""
"null","../img/tt/1156tt.jpg","null","mooney2","image-keyboard-response","256","877019","0.0-6.0-5.35","2759903","co38197","norming","","","","","","",""
"3042.449999999837","","","post_reveal_questions","survey-likert","257","880057","0.0-6.0-6.35","2759903","co38197","norming","","","{""aha"":1}","[0]","../img/tt/1156tt.jpg","",""
"null","<div style=""font-size:60px;""> </div>","null","fixation","html-keyboard-response","258","880258","0.0-6.0-0.36","2759903","co38197","norming","","","","","","",""
"null","../img/tt/1037tt.jpg","null","mooney1","image-keyboard-response","259","883266","0.0-6.0-1.36","2759903","co38197","norming","","","","","","",""
"4733.334999999846","","","post_mooney1_questions","survey-likert","260","888001","0.0-6.0-2.36","2759903","co38197","norming","","","{""curiosity"":5,""confidence"":2}","[0,1]","../img/tt/1037tt.jpg","",""
"1670.2550000000047","","","recognition","survey-text","261","889673","0.0-6.0-3.36","2759903","co38197","norming","","","{""guess"":""kikker""}","","../img/tt/1037tt.jpg","",""
"null","../img/gs/1037gs.jpg","null","reveal","image-keyboard-response","262","891674","0.0-6.0-4.36","2759903","co38197","norming","","","","","","",""
"null","../img/tt/1037tt.jpg","null","mooney2","image-keyboard-response","263","893676","0.0-6.0-5.36","2759903","co38197","norming","","","","","","",""
"2514.410000000731","","","post_reveal_questions","survey-likert","264","896193","0.0-6.0-6.36","2759903","co38197","norming","","","{""aha"":3}","[0]","../img/tt/1037tt.jpg","",""
"null","<div style=""font-size:60px;""> </div>","null","fixation","html-keyboard-response","265","896394","0.0-6.0-0.37","2759903","co38197","norming","","","","","","",""
"null","../img/tt/052tt.jpg","null","mooney1","image-keyboard-response","266","899404","0.0-6.0-1.37","2759903","co38197","norming","","","","","","",""
"5147.530000000261","","","post_mooney1_questions","survey-likert","267","904553","0.0-6.0-2.37","2759903","co38197","norming","","","{""curiosity"":3,""confidence"":0}","[0,1]","../img/tt/052tt.jpg","",""
"1901.7549999998882","","","recognition","survey-text","268","906456","0.0-6.0-3.37","2759903","co38197","norming","","","{""guess"":""reim""}","","../img/tt/052tt.jpg","",""
"null","../img/gs/052gs.jpg","null","reveal","image-keyboard-response","269","908458","0.0-6.0-4.37","2759903","co38197","norming","","","","","","",""
"null","../img/tt/052tt.jpg","null","mooney2","image-keyboard-response","270","910459","0.0-6.0-5.37","2759903","co38197","norming","","","","","","",""
"2716.660000000149","","","post_reveal_questions","survey-likert","271","913176","0.0-6.0-6.37","2759903","co38197","norming","","","{""aha"":5}","[0]","../img/tt/052tt.jpg","",""
"null","<div style=""font-size:60px;""> </div>","null","fixation","html-keyboard-response","272","913384","0.0-6.0-0.38","2759903","co38197","norming","","","","","","",""
"null","../img/tt/517tt.jpg","null","mooney1","image-keyboard-response","273","916386","0.0-6.0-1.38","2759903","co38197","norming","","","","","","",""
"3654.059999999823","","","post_mooney1_questions","survey-likert","274","920041","0.0-6.0-2.38","2759903","co38197","norming","","","{""curiosity"":4,""confidence"":4}","[0,1]","../img/tt/517tt.jpg","",""
"1165.9399999998277","","","recognition","survey-text","275","921208","0.0-6.0-3.38","2759903","co38197","norming","","","{""guess"":""bever""}","","../img/tt/517tt.jpg","",""
"null","../img/gs/517gs.jpg","null","reveal","image-keyboard-response","276","923211","0.0-6.0-4.38","2759903","co38197","norming","","","","","","",""
"null","../img/tt/517tt.jpg","null","mooney2","image-keyboard-response","277","925212","0.0-6.0-5.38","2759903","co38197","norming","","","","","","",""
"1731.8950000008335","","","post_reveal_questions","survey-likert","278","926944","0.0-6.0-6.38","2759903","co38197","norming","","","{""aha"":4}","[0]","../img/tt/517tt.jpg","",""
"null","<div style=""font-size:60px;""> </div>","null","fixation","html-keyboard-response","279","927147","0.0-6.0-0.39","2759903","co38197","norming","","","","","","",""
"null","../img/tt/184tt.jpg","null","mooney1","image-keyboard-response","280","930157","0.0-6.0-1.39","2759903","co38197","norming","","","","","","",""
"3976.735000000219","","","post_mooney1_questions","survey-likert","281","934137","0.0-6.0-2.39","2759903","co38197","norming","","","{""curiosity"":3,""confidence"":2}","[0,1]","../img/tt/184tt.jpg","",""
"3277.7150000002002","","","recognition","survey-text","282","937416","0.0-6.0-3.39","2759903","co38197","norming","","","{""guess"":""klauw""}","","../img/tt/184tt.jpg","",""
"null","../img/gs/184gs.jpg","null","reveal","image-keyboard-response","283","939425","0.0-6.0-4.39","2759903","co38197","norming","","","","","","",""
"null","../img/tt/184tt.jpg","null","mooney2","image-keyboard-response","284","941427","0.0-6.0-5.39","2759903","co38197","norming","","","","","","",""
"3483.9799999999814","","","post_reveal_questions","survey-likert","285","944912","0.0-6.0-6.39","2759903","co38197","norming","","","{""aha"":5}","[0]","../img/tt/184tt.jpg","",""
"null","<div style=""font-size:60px;""> </div>","null","fixation","html-keyboard-response","286","945114","0.0-6.0-0.40","2759903","co38197","norming","","","","","","",""
"null","../img/tt/1102tt.jpg","null","mooney1","image-keyboard-response","287","948116","0.0-6.0-1.40","2759903","co38197","norming","","","","","","",""
"2969.9650000002002","","","post_mooney1_questions","survey-likert","288","951089","0.0-6.0-2.40","2759903","co38197","norming","","","{""curiosity"":5,""confidence"":1}","[0,1]","../img/tt/1102tt.jpg","",""
"2030.104999999865","","","recognition","survey-text","289","953120","0.0-6.0-3.40","2759903","co38197","norming","","","{""guess"":""boom""}","","../img/tt/1102tt.jpg","",""
"null","../img/gs/1102gs.jpg","null","reveal","image-keyboard-response","290","955131","0.0-6.0-4.40","2759903","co38197","norming","","","","","","",""
"null","../img/tt/1102tt.jpg","null","mooney2","image-keyboard-response","291","957140","0.0-6.0-5.40","2759903","co38197","norming","","","","","","",""
"2346.169999999809","","","post_reveal_questions","survey-likert","292","959488","0.0-6.0-6.40","2759903","co38197","norming","","","{""aha"":4}","[0]","../img/tt/1102tt.jpg","",""
"null","<div style=""font-size:60px;""> </div>","null","fixation","html-keyboard-response","293","959697","0.0-6.0-0.41","2759903","co38197","norming","","","","","","",""
"null","../img/tt/1276tt.jpg","null","mooney1","image-keyboard-response","294","962703","0.0-6.0-1.41","2759903","co38197","norming","","","","","","",""
"4544.769999999553","","","post_mooney1_questions","survey-likert","295","967249","0.0-6.0-2.41","2759903","co38197","norming","","","{""curiosity"":4,""confidence"":0}","[0,1]","../img/tt/1276tt.jpg","",""
"478.1450000000186","","","recognition","survey-text","296","967728","0.0-6.0-3.41","2759903","co38197","norming","","","{""guess"":""""}","","../img/tt/1276tt.jpg","",""
"null","../img/gs/1276gs.jpg","null","reveal","image-keyboard-response","297","969734","0.0-6.0-4.41","2759903","co38197","norming","","","","","","",""
"null","../img/tt/1276tt.jpg","null","mooney2","image-keyboard-response","298","971742","0.0-6.0-5.41","2759903","co38197","norming","","","","","","",""
"2080.425000000163","","","post_reveal_questions","survey-likert","299","973824","0.0-6.0-6.41","2759903","co38197","norming","","","{""aha"":6}","[0]","../img/tt/1276tt.jpg","",""
"null","<div style=""font-size:60px;""> </div>","null","fixation","html-keyboard-response","300","974027","0.0-6.0-0.42","2759903","co38197","norming","","","","","","",""
"null","../img/tt/1234tt.jpg","null","mooney1","image-keyboard-response","301","977034","0.0-6.0-1.42","2759903","co38197","norming","","","","","","",""
"3091.534999999567","","","post_mooney1_questions","survey-likert","302","980129","0.0-6.0-2.42","2759903","co38197","norming","","","{""curiosity"":5,""confidence"":3}","[0,1]","../img/tt/1234tt.jpg","",""
"2013.944999999716","","","recognition","survey-text","303","982144","0.0-6.0-3.42","2759903","co38197","norming","","","{""guess"":""water""}","","../img/tt/1234tt.jpg","",""
"null","../img/gs/1234gs.jpg","null","reveal","image-keyboard-response","304","984146","0.0-6.0-4.42","2759903","co38197","norming","","","","","","",""
"null","../img/tt/1234tt.jpg","null","mooney2","image-keyboard-response","305","986153","0.0-6.0-5.42","2759903","co38197","norming","","","","","","",""
"2769.8650000002235","","","post_reveal_questions","survey-likert","306","988929","0.0-6.0-6.42","2759903","co38197","norming","","","{""aha"":4}","[0]","../img/tt/1234tt.jpg","",""
"null","<div style=""font-size:60px;""> </div>","null","fixation","html-keyboard-response","307","989133","0.0-6.0-0.43","2759903","co38197","norming","","","","","","",""
"null","../img/tt/1353tt.jpg","null","mooney1","image-keyboard-response","308","992144","0.0-6.0-1.43","2759903","co38197","norming","","","","","","",""
"4047.364999999525","","","post_mooney1_questions","survey-likert","309","996193","0.0-6.0-2.43","2759903","co38197","norming","","","{""curiosity"":4,""confidence"":4}","[0,1]","../img/tt/1353tt.jpg","",""
"5405.695000000414","","","recognition","survey-text","310","1001600","0.0-6.0-3.43","2759903","co38197","norming","","","{""guess"":""dinosaurus""}","","../img/tt/1353tt.jpg","",""
"null","../img/gs/1353gs.jpg","null","reveal","image-keyboard-response","311","1003602","0.0-6.0-4.43","2759903","co38197","norming","","","","","","",""
"null","../img/tt/1353tt.jpg","null","mooney2","image-keyboard-response","312","1005607","0.0-6.0-5.43","2759903","co38197","norming","","","","","","",""
"1464.6499999999069","","","post_reveal_questions","survey-likert","313","1007072","0.0-6.0-6.43","2759903","co38197","norming","","","{""aha"":5}","[0]","../img/tt/1353tt.jpg","",""
"null","<div style=""font-size:60px;""> </div>","null","fixation","html-keyboard-response","314","1007277","0.0-6.0-0.44","2759903","co38197","norming","","","","","","",""
"null","../img/tt/081tt.jpg","null","mooney1","image-keyboard-response","315","1010283","0.0-6.0-1.44","2759903","co38197","norming","","","","","","",""
"3858.9799999999814","","","post_mooney1_questions","survey-likert","316","1014144","0.0-6.0-2.44","2759903","co38197","norming","","","{""curiosity"":5,""confidence"":4}","[0,1]","../img/tt/081tt.jpg","",""
"2190.070000000531","","","recognition","survey-text","317","1016336","0.0-6.0-3.44","2759903","co38197","norming","","","{""guess"":""salamander""}","","../img/tt/081tt.jpg","",""
"null","../img/gs/081gs.jpg","null","reveal","image-keyboard-response","318","1018339","0.0-6.0-4.44","2759903","co38197","norming","","","","","","",""
"null","../img/tt/081tt.jpg","null","mooney2","image-keyboard-response","319","1020350","0.0-6.0-5.44","2759903","co38197","norming","","","","","","",""
"2593.390000000014","","","post_reveal_questions","survey-likert","320","1022944","0.0-6.0-6.44","2759903","co38197","norming","","","{""aha"":4}","[0]","../img/tt/081tt.jpg","",""
"null","<div style=""font-size:60px;""> </div>","null","fixation","html-keyboard-response","321","1023151","0.0-6.0-0.45","2759903","co38197","norming","","","","","","",""
"null","../img/tt/1270tt.jpg","null","mooney1","image-keyboard-response","322","1026154","0.0-6.0-1.45","2759903","co38197","norming","","","","","","",""
"4202.8650000002235","","","post_mooney1_questions","survey-likert","323","1030360","0.0-6.0-2.45","2759903","co38197","norming","","","{""curiosity"":4,""confidence"":5}","[0,1]","../img/tt/1270tt.jpg","",""
"2855.090000000084","","","recognition","survey-text","324","1033217","0.0-6.0-3.45","2759903","co38197","norming","","","{""guess"":""konij""}","","../img/tt/1270tt.jpg","",""
"null","../img/gs/1270gs.jpg","null","reveal","image-keyboard-response","325","1035221","0.0-6.0-4.45","2759903","co38197","norming","","","","","","",""
"null","../img/tt/1270tt.jpg","null","mooney2","image-keyboard-response","326","1037225","0.0-6.0-5.45","2759903","co38197","norming","","","","","","",""
"1460.5599999994738","","","post_reveal_questions","survey-likert","327","1038688","0.0-6.0-6.45","2759903","co38197","norming","","","{""aha"":4}","[0]","../img/tt/1270tt.jpg","",""
"null","<div style=""font-size:60px;""> </div>","null","fixation","html-keyboard-response","328","1038891","0.0-6.0-0.46","2759903","co38197","norming","","","","","","",""
"null","../img/tt/085tt.jpg","null","mooney1","image-keyboard-response","329","1041898","0.0-6.0-1.46","2759903","co38197","norming","","","","","","",""
"4571.450000000303","","","post_mooney1_questions","survey-likert","330","1046472","0.0-6.0-2.46","2759903","co38197","norming","","","{""curiosity"":4,""confidence"":3}","[0,1]","../img/tt/085tt.jpg","",""
"1894.1750000003958","","","recognition","survey-text","331","1048368","0.0-6.0-3.46","2759903","co38197","norming","","","{""guess"":""kikker""}","","../img/tt/085tt.jpg","",""
"null","../img/gs/085gs.jpg","null","reveal","image-keyboard-response","332","1050377","0.0-6.0-4.46","2759903","co38197","norming","","","","","","",""
"null","../img/tt/085tt.jpg","null","mooney2","image-keyboard-response","333","1052387","0.0-6.0-5.46","2759903","co38197","norming","","","","","","",""
"3498.5200000000186","","","post_reveal_questions","survey-likert","334","1055888","0.0-6.0-6.46","2759903","co38197","norming","","","{""aha"":4}","[0]","../img/tt/085tt.jpg","",""
"null","<div style=""font-size:60px;""> </div>","null","fixation","html-keyboard-response","335","1056091","0.0-6.0-0.47","2759903","co38197","norming","","","","","","",""
"null","../img/tt/1190tt.jpg","null","mooney1","image-keyboard-response","336","1059096","0.0-6.0-1.47","2759903","co38197","norming","","","","","","",""
"3732.195000000298","","","post_mooney1_questions","survey-likert","337","1062830","0.0-6.0-2.47","2759903","co38197","norming","","","{""curiosity"":5,""confidence"":4}","[0,1]","../img/tt/1190tt.jpg","",""
"2318.0950000006706","","","recognition","survey-text","338","1065150","0.0-6.0-3.47","2759903","co38197","norming","","","{""guess"":""spin""}","","../img/tt/1190tt.jpg","",""
"null","../img/gs/1190gs.jpg","null","reveal","image-keyboard-response","339","1067151","0.0-6.0-4.47","2759903","co38197","norming","","","","","","",""
"null","../img/tt/1190tt.jpg","null","mooney2","image-keyboard-response","340","1069158","0.0-6.0-5.47","2759903","co38197","norming","","","","","","",""
"1620.9149999995716","","","post_reveal_questions","survey-likert","341","1070782","0.0-6.0-6.47","2759903","co38197","norming","","","{""aha"":4}","[0]","../img/tt/1190tt.jpg","",""
"null","<div style=""font-size:60px;""> </div>","null","fixation","html-keyboard-response","342","1070986","0.0-6.0-0.48","2759903","co38197","norming","","","","","","",""
"null","../img/tt/436tt.jpg","null","mooney1","image-keyboard-response","343","1073998","0.0-6.0-1.48","2759903","co38197","norming","","","","","","",""
"5340.535000000149","","","post_mooney1_questions","survey-likert","344","1079342","0.0-6.0-2.48","2759903","co38197","norming","","","{""curiosity"":5,""confidence"":4}","[0,1]","../img/tt/436tt.jpg","",""
"1902.3299999998417","","","recognition","survey-text","345","1081246","0.0-6.0-3.48","2759903","co38197","norming","","","{""guess"":""reptiel""}","","../img/tt/436tt.jpg","",""
"null","../img/gs/436gs.jpg","null","reveal","image-keyboard-response","346","1083255","0.0-6.0-4.48","2759903","co38197","norming","","","","","","",""
"null","../img/tt/436tt.jpg","null","mooney2","image-keyboard-response","347","1085261","0.0-6.0-5.48","2759903","co38197","norming","","","","","","",""
"4087.6150000004563","","","post_reveal_questions","survey-likert","348","1089350","0.0-6.0-6.48","2759903","co38197","norming","","","{""aha"":5}","[0]","../img/tt/436tt.jpg","",""
"null","<div style=""font-size:60px;""> </div>","null","fixation","html-keyboard-response","349","1089559","0.0-6.0-0.49","2759903","co38197","norming","","","","","","",""
"null","../img/tt/507tt.jpg","null","mooney1","image-keyboard-response","350","1092567","0.0-6.0-1.49","2759903","co38197","norming","","","","","","",""
"2884.2549999998882","","","post_mooney1_questions","survey-likert","351","1095454","0.0-6.0-2.49","2759903","co38197","norming","","","{""curiosity"":4,""confidence"":4}","[0,1]","../img/tt/507tt.jpg","",""
"2190.29000000027","","","recognition","survey-text","352","1097646","0.0-6.0-3.49","2759903","co38197","norming","","","{""guess"":""danseres""}","","../img/tt/507tt.jpg","",""
"null","../img/gs/507gs.jpg","null","reveal","image-keyboard-response","353","1099647","0.0-6.0-4.49","2759903","co38197","norming","","","","","","",""
"null","../img/tt/507tt.jpg","null","mooney2","image-keyboard-response","354","1101655","0.0-6.0-5.49","2759903","co38197","norming","","","","","","",""
"3292.4950000005774","","","post_reveal_questions","survey-likert","355","1104950","0.0-6.0-6.49","2759903","co38197","norming","","","{""aha"":5}","[0]","../img/tt/507tt.jpg","",""
"null","<div style=""font-size:60px;""> </div>","null","fixation","html-keyboard-response","356","1105153","0.0-6.0-0.50","2759903","co38197","norming","","","","","","",""
"null","../img/tt/1087tt.jpg","null","mooney1","image-keyboard-response","357","1108163","0.0-6.0-1.50","2759903","co38197","norming","","","","","","",""
"4535.650000000605","","","post_mooney1_questions","survey-likert","358","1112702","0.0-6.0-2.50","2759903","co38197","norming","","","{""curiosity"":4,""confidence"":5}","[0,1]","../img/tt/1087tt.jpg","",""
"1405.6049999999814","","","recognition","survey-text","359","1114109","0.0-6.0-3.50","2759903","co38197","norming","","","{""guess"":""koe""}","","../img/tt/1087tt.jpg","",""
"null","../img/gs/1087gs.jpg","null","reveal","image-keyboard-response","360","1116113","0.0-6.0-4.50","2759903","co38197","norming","","","","","","",""
"null","../img/tt/1087tt.jpg","null","mooney2","image-keyboard-response","361","1118115","0.0-6.0-5.50","2759903","co38197","norming","","","","","","",""
"2577.234999999637","","","post_reveal_questions","survey-likert","362","1120696","0.0-6.0-6.50","2759903","co38197","norming","","","{""aha"":4}","[0]","../img/tt/1087tt.jpg","",""
"null","<div style=""font-size:60px;""> </div>","null","fixation","html-keyboard-response","363","1120906","0.0-6.0-0.51","2759903","co38197","norming","","","","","","",""
"null","../img/tt/358tt.jpg","null","mooney1","image-keyboard-response","364","1123911","0.0-6.0-1.51","2759903","co38197","norming","","","","","","",""
"3879.25","","","post_mooney1_questions","survey-likert","365","1127793","0.0-6.0-2.51","2759903","co38197","norming","","","{""curiosity"":4,""confidence"":4}","[0,1]","../img/tt/358tt.jpg","",""
"2366.285000000149","","","recognition","survey-text","366","1130161","0.0-6.0-3.51","2759903","co38197","norming","","","{""guess"":""handschoen""}","","../img/tt/358tt.jpg","",""
"null","../img/gs/358gs.jpg","null","reveal","image-keyboard-response","367","1132169","0.0-6.0-4.51","2759903","co38197","norming","","","","","","",""
"null","../img/tt/358tt.jpg","null","mooney2","image-keyboard-response","368","1134171","0.0-6.0-5.51","2759903","co38197","norming","","","","","","",""
"2531.6250000004657","","","post_reveal_questions","survey-likert","369","1136705","0.0-6.0-6.51","2759903","co38197","norming","","","{""aha"":5}","[0]","../img/tt/358tt.jpg","",""
"null","<div style=""font-size:60px;""> </div>","null","fixation","html-keyboard-response","370","1136910","0.0-6.0-0.52","2759903","co38197","norming","","","","","","",""
"null","../img/tt/046tt.jpg","null","mooney1","image-keyboard-response","371","1139921","0.0-6.0-1.52","2759903","co38197","norming","","","","","","",""
"4397.379999999423","","","post_mooney1_questions","survey-likert","372","1144321","0.0-6.0-2.52","2759903","co38197","norming","","","{""curiosity"":5,""confidence"":2}","[0,1]","../img/tt/046tt.jpg","",""
"1870.1350000002421","","","recognition","survey-text","373","1146193","0.0-6.0-3.52","2759903","co38197","norming","","","{""guess"":""grot""}","","../img/tt/046tt.jpg","",""
"null","../img/gs/046gs.jpg","null","reveal","image-keyboard-response","374","1148201","0.0-6.0-4.52","2759903","co38197","norming","","","","","","",""
"null","../img/tt/046tt.jpg","null","mooney2","image-keyboard-response","375","1150210","0.0-6.0-5.52","2759903","co38197","norming","","","","","","",""
"3180.459999999497","","","post_reveal_questions","survey-likert","376","1153393","0.0-6.0-6.52","2759903","co38197","norming","","","{""aha"":3}","[0]","../img/tt/046tt.jpg","",""
"null","<div style=""font-size:60px;""> </div>","null","fixation","html-keyboard-response","377","1153594","0.0-6.0-0.53","2759903","co38197","norming","","","","","","",""
"null","../img/tt/1043tt.jpg","null","mooney1","image-keyboard-response","378","1156606","0.0-6.0-1.53","2759903","co38197","norming","","","","","","",""
"5023.720000000205","","","post_mooney1_questions","survey-likert","379","1161633","0.0-6.0-2.53","2759903","co38197","norming","","","{""curiosity"":4,""confidence"":2}","[0,1]","../img/tt/1043tt.jpg","",""
"3934.0849999999627","","","recognition","survey-text","380","1165569","0.0-6.0-3.53","2759903","co38197","norming","","","{""guess"":""hamburger""}","","../img/tt/1043tt.jpg","",""
"null","../img/gs/1043gs.jpg","null","reveal","image-keyboard-response","381","1167574","0.0-6.0-4.53","2759903","co38197","norming","","","","","","",""
"null","../img/tt/1043tt.jpg","null","mooney2","image-keyboard-response","382","1169576","0.0-6.0-5.53","2759903","co38197","norming","","","","","","",""
"6197.8100000005215","","","post_reveal_questions","survey-likert","383","1175776","0.0-6.0-6.53","2759903","co38197","norming","","","{""aha"":4}","[0]","../img/tt/1043tt.jpg","",""
"null","<div style=""font-size:60px;""> </div>","null","fixation","html-keyboard-response","384","1175982","0.0-6.0-0.54","2759903","co38197","norming","","","","","","",""
"null","../img/tt/1262tt.jpg","null","mooney1","image-keyboard-response","385","1178986","0.0-6.0-1.54","2759903","co38197","norming","","","","","","",""
"3123.45999999973","","","post_mooney1_questions","survey-likert","386","1182113","0.0-6.0-2.54","2759903","co38197","norming","","","{""curiosity"":5,""confidence"":4}","[0,1]","../img/tt/1262tt.jpg","",""
"1326.1000000000931","","","recognition","survey-text","387","1183441","0.0-6.0-3.54","2759903","co38197","norming","","","{""guess"":""kooi""}","","../img/tt/1262tt.jpg","",""
"null","../img/gs/1262gs.jpg","null","reveal","image-keyboard-response","388","1185447","0.0-6.0-4.54","2759903","co38197","norming","","","","","","",""
"null","../img/tt/1262tt.jpg","null","mooney2","image-keyboard-response","389","1187456","0.0-6.0-5.54","2759903","co38197","norming","","","","","","",""
"4182.849999999162","","","post_reveal_questions","survey-likert","390","1191641","0.0-6.0-6.54","2759903","co38197","norming","","","{""aha"":4}","[0]","../img/tt/1262tt.jpg","",""
"null","<div style=""font-size:60px;""> </div>","null","fixation","html-keyboard-response","391","1191848","0.0-6.0-0.55","2759903","co38197","norming","","","","","","",""
"null","../img/tt/405tt.jpg","null","mooney1","image-keyboard-response","392","1194859","0.0-6.0-1.55","2759903","co38197","norming","","","","","","",""
"4924.895000000019","","","post_mooney1_questions","survey-likert","393","1199785","0.0-6.0-2.55","2759903","co38197","norming","","","{""curiosity"":4,""confidence"":4}","[0,1]","../img/tt/405tt.jpg","",""
"3301.8300000003073","","","recognition","survey-text","394","1203089","0.0-6.0-3.55","2759903","co38197","norming","","","{""guess"":""stokstaartaapje""}","","../img/tt/405tt.jpg","",""
"null","../img/gs/405gs.jpg","null","reveal","image-keyboard-response","395","1205090","0.0-6.0-4.55","2759903","co38197","norming","","","","","","",""
"null","../img/tt/405tt.jpg","null","mooney2","image-keyboard-response","396","1207100","0.0-6.0-5.55","2759903","co38197","norming","","","","","","",""
"1362.804999999702","","","post_reveal_questions","survey-likert","397","1208465","0.0-6.0-6.55","2759903","co38197","norming","","","{""aha"":4}","[0]","../img/tt/405tt.jpg","",""
"null","<div style=""font-size:60px;""> </div>","null","fixation","html-keyboard-response","398","1208674","0.0-6.0-0.56","2759903","co38197","norming","","","","","","",""
"null","../img/tt/1161tt.jpg","null","mooney1","image-keyboard-response","399","1211685","0.0-6.0-1.56","2759903","co38197","norming","","","","","","",""
"3856.984999999404","","","post_mooney1_questions","survey-likert","400","1215545","0.0-6.0-2.56","2759903","co38197","norming","","","{""curiosity"":4,""confidence"":4}","[0,1]","../img/tt/1161tt.jpg","",""
"1670.0749999999534","","","recognition","survey-text","401","1217217","0.0-6.0-3.56","2759903","co38197","norming","","","{""guess"":""beer""}","","../img/tt/1161tt.jpg","",""
"null","../img/gs/1161gs.jpg","null","reveal","image-keyboard-response","402","1219220","0.0-6.0-4.56","2759903","co38197","norming","","","","","","",""
"null","../img/tt/1161tt.jpg","null","mooney2","image-keyboard-response","403","1221222","0.0-6.0-5.56","2759903","co38197","norming","","","","","","",""
"2807.7450000001118","","","post_reveal_questions","survey-likert","404","1224032","0.0-6.0-6.56","2759903","co38197","norming","","","{""aha"":5}","[0]","../img/tt/1161tt.jpg","",""
"null","<div style=""font-size:60px;""> </div>","null","fixation","html-keyboard-response","405","1224240","0.0-6.0-0.57","2759903","co38197","norming","","","","","","",""
"null","../img/tt/112tt.jpg","null","mooney1","image-keyboard-response","406","1227243","0.0-6.0-1.57","2759903","co38197","norming","","","","","","",""
"3517.1049999997485","","","post_mooney1_questions","survey-likert","407","1230761","0.0-6.0-2.57","2759903","co38197","norming","","","{""curiosity"":5,""confidence"":5}","[0,1]","../img/tt/112tt.jpg","",""
"2549.965000000084","","","recognition","survey-text","408","1233313","0.0-6.0-3.57","2759903","co38197","norming","","","{""guess"":""wijn""}","","../img/tt/112tt.jpg","",""
"null","../img/gs/112gs.jpg","null","reveal","image-keyboard-response","409","1235315","0.0-6.0-4.57","2759903","co38197","norming","","","","","","",""
"null","../img/tt/112tt.jpg","null","mooney2","image-keyboard-response","410","1237323","0.0-6.0-5.57","2759903","co38197","norming","","","","","","",""
"3157.0750000001863","","","post_reveal_questions","survey-likert","411","1240481","0.0-6.0-6.57","2759903","co38197","norming","","","{""aha"":5}","[0]","../img/tt/112tt.jpg","",""
"null","<div style=""font-size:60px;""> </div>","null","fixation","html-keyboard-response","412","1240689","0.0-6.0-0.58","2759903","co38197","norming","","","","","","",""
"null","../img/tt/307tt.jpg","null","mooney1","image-keyboard-response","413","1243699","0.0-6.0-1.58","2759903","co38197","norming","","","","","","",""
"3804.3499999993946","","","post_mooney1_questions","survey-likert","414","1247507","0.0-6.0-2.58","2759903","co38197","norming","","","{""curiosity"":5,""confidence"":2}","[0,1]","../img/tt/307tt.jpg","",""
"2206.404999999795","","","recognition","survey-text","415","1249715","0.0-6.0-3.58","2759903","co38197","norming","","","{""guess"":""schoen""}","","../img/tt/307tt.jpg","",""
"null","../img/gs/307gs.jpg","null","reveal","image-keyboard-response","416","1251725","0.0-6.0-4.58","2759903","co38197","norming","","","","","","",""
"null","../img/tt/307tt.jpg","null","mooney2","image-keyboard-response","417","1253727","0.0-6.0-5.58","2759903","co38197","norming","","","","","","",""
"3329.010000000475","","","post_reveal_questions","survey-likert","418","1257058","0.0-6.0-6.58","2759903","co38197","norming","","","{""aha"":4}","[0]","../img/tt/307tt.jpg","",""
"null","<div style=""font-size:60px;""> </div>","null","fixation","html-keyboard-response","419","1257259","0.0-6.0-0.59","2759903","co38197","norming","","","","","","",""
"null","../img/tt/1096tt.jpg","null","mooney1","image-keyboard-response","420","1260264","0.0-6.0-1.59","2759903","co38197","norming","","","","","","",""
"3680.124999999767","","","post_mooney1_questions","survey-likert","421","1263947","0.0-6.0-2.59","2759903","co38197","norming","","","{""curiosity"":4,""confidence"":3}","[0,1]","../img/tt/1096tt.jpg","",""
"1413.6349999997765","","","recognition","survey-text","422","1265362","0.0-6.0-3.59","2759903","co38197","norming","","","{""guess"":""trap""}","","../img/tt/1096tt.jpg","",""
"null","../img/gs/1096gs.jpg","null","reveal","image-keyboard-response","423","1267363","0.0-6.0-4.59","2759903","co38197","norming","","","","","","",""
"null","../img/tt/1096tt.jpg","null","mooney2","image-keyboard-response","424","1269368","0.0-6.0-5.59","2759903","co38197","norming","","","","","","",""
"3521.3000000002794","","","post_reveal_questions","survey-likert","425","1272890","0.0-6.0-6.59","2759903","co38197","norming","","","{""aha"":4}","[0]","../img/tt/1096tt.jpg","",""
"null","<div style=""font-size:60px;""> </div>","null","fixation","html-keyboard-response","426","1273096","0.0-6.0-0.60","2759903","co38197","norming","","","","","","",""
"null","../img/tt/082tt.jpg","null","mooney1","image-keyboard-response","427","1276108","0.0-6.0-1.60","2759903","co38197","norming","","","","","","",""
"5315.1500000003725","","","post_mooney1_questions","survey-likert","428","1281426","0.0-6.0-2.60","2759903","co38197","norming","","","{""curiosity"":4,""confidence"":2}","[0,1]","../img/tt/082tt.jpg","",""
"1710.2900000000373","","","recognition","survey-text","429","1283138","0.0-6.0-3.60","2759903","co38197","norming","","","{""guess"":""dier""}","","../img/tt/082tt.jpg","",""
"null","../img/gs/082gs.jpg","null","reveal","image-keyboard-response","430","1285144","0.0-6.0-4.60","2759903","co38197","norming","","","","","","",""
"null","../img/tt/082tt.jpg","null","mooney2","image-keyboard-response","431","1287152","0.0-6.0-5.60","2759903","co38197","norming","","","","","","",""
"3407.285000000149","","","post_reveal_questions","survey-likert","432","1290562","0.0-6.0-6.60","2759903","co38197","norming","","","{""aha"":4}","[0]","../img/tt/082tt.jpg","",""
"null","<div style=""font-size:60px;""> </div>","null","fixation","html-keyboard-response","433","1290770","0.0-6.0-0.61","2759903","co38197","norming","","","","","","",""
"null","../img/tt/010tt.jpg","null","mooney1","image-keyboard-response","434","1293779","0.0-6.0-1.61","2759903","co38197","norming","","","","","","",""
"2939.910000000149","","","post_mooney1_questions","survey-likert","435","1296723","0.0-6.0-2.61","2759903","co38197","norming","","","{""curiosity"":4,""confidence"":4}","[0,1]","../img/tt/010tt.jpg","",""
"1310.0300000004936","","","recognition","survey-text","436","1298034","0.0-6.0-3.61","2759903","co38197","norming","","","{""guess"":""hnd""}","","../img/tt/010tt.jpg","",""
"null","../img/gs/010gs.jpg","null","reveal","image-keyboard-response","437","1300036","0.0-6.0-4.61","2759903","co38197","norming","","","","","","",""
"null","../img/tt/010tt.jpg","null","mooney2","image-keyboard-response","438","1302044","0.0-6.0-5.61","2759903","co38197","norming","","","","","","",""
"2252.2850000006147","","","post_reveal_questions","survey-likert","439","1304297","0.0-6.0-6.61","2759903","co38197","norming","","","{""aha"":4}","[0]","../img/tt/010tt.jpg","",""
"null","<div style=""font-size:60px;""> </div>","null","fixation","html-keyboard-response","440","1304501","0.0-6.0-0.62","2759903","co38197","norming","","","","","","",""
"null","../img/tt/108tt.jpg","null","mooney1","image-keyboard-response","441","1307508","0.0-6.0-1.62","2759903","co38197","norming","","","","","","",""
"4041.8750000006985","","","post_mooney1_questions","survey-likert","442","1311553","0.0-6.0-2.62","2759903","co38197","norming","","","{""curiosity"":4,""confidence"":5}","[0,1]","../img/tt/108tt.jpg","",""
"1725.6399999996647","","","recognition","survey-text","443","1313281","0.0-6.0-3.62","2759903","co38197","norming","","","{""guess"":""rots""}","","../img/tt/108tt.jpg","",""
"null","../img/gs/108gs.jpg","null","reveal","image-keyboard-response","444","1315283","0.0-6.0-4.62","2759903","co38197","norming","","","","","","",""
"null","../img/tt/108tt.jpg","null","mooney2","image-keyboard-response","445","1317286","0.0-6.0-5.62","2759903","co38197","norming","","","","","","",""
"2472.7599999995437","","","post_reveal_questions","survey-likert","446","1319761","0.0-6.0-6.62","2759903","co38197","norming","","","{""aha"":5}","[0]","../img/tt/108tt.jpg","",""
"null","<div style=""font-size:60px;""> </div>","null","fixation","html-keyboard-response","447","1319964","0.0-6.0-0.63","2759903","co38197","norming","","","","","","",""
"null","../img/tt/497tt.jpg","null","mooney1","image-keyboard-response","448","1322967","0.0-6.0-1.63","2759903","co38197","norming","","","","","","",""
"3398.6949999998324","","","post_mooney1_questions","survey-likert","449","1326369","0.0-6.0-2.63","2759903","co38197","norming","","","{""curiosity"":5,""confidence"":4}","[0,1]","../img/tt/497tt.jpg","",""
"1501.809999999823","","","recognition","survey-text","450","1327873","0.0-6.0-3.63","2759903","co38197","norming","","","{""guess"":""kaas""}","","../img/tt/497tt.jpg","",""
"null","../img/gs/497gs.jpg","null","reveal","image-keyboard-response","451","1329875","0.0-6.0-4.63","2759903","co38197","norming","","","","","","",""
"null","../img/tt/497tt.jpg","null","mooney2","image-keyboard-response","452","1331878","0.0-6.0-5.63","2759903","co38197","norming","","","","","","",""
"2584.179999999935","","","post_reveal_questions","survey-likert","453","1334465","0.0-6.0-6.63","2759903","co38197","norming","","","{""aha"":6}","[0]","../img/tt/497tt.jpg","",""
"null","<div style=""font-size:60px;""> </div>","null","fixation","html-keyboard-response","454","1334671","0.0-6.0-0.64","2759903","co38197","norming","","","","","","",""
"null","../img/tt/019tt.jpg","null","mooney1","image-keyboard-response","455","1337680","0.0-6.0-1.64","2759903","co38197","norming","","","","","","",""
"4989.844999999972","","","post_mooney1_questions","survey-likert","456","1342673","0.0-6.0-2.64","2759903","co38197","norming","","","{""curiosity"":4,""confidence"":4}","[0,1]","../img/tt/019tt.jpg","",""
"1517.9299999999348","","","recognition","survey-text","457","1344193","0.0-6.0-3.64","2759903","co38197","norming","","","{""guess"":""dorp""}","","../img/tt/019tt.jpg","",""
"null","../img/gs/019gs.jpg","null","reveal","image-keyboard-response","458","1346195","0.0-6.0-4.64","2759903","co38197","norming","","","","","","",""
"null","../img/tt/019tt.jpg","null","mooney2","image-keyboard-response","459","1348199","0.0-6.0-5.64","2759903","co38197","norming","","","","","","",""
"2726.2050000000745","","","post_reveal_questions","survey-likert","460","1350928","0.0-6.0-6.64","2759903","co38197","norming","","","{""aha"":4}","[0]","../img/tt/019tt.jpg","",""
"null","<div style=""font-size:60px;""> </div>","null","fixation","html-keyboard-response","461","1351139","0.0-6.0-0.65","2759903","co38197","norming","","","","","","",""
"null","../img/tt/064tt.jpg","null","mooney1","image-keyboard-response","462","1354152","0.0-6.0-1.65","2759903","co38197","norming","","","","","","",""
"3062.280000000028","","","post_mooney1_questions","survey-likert","463","1357217","0.0-6.0-2.65","2759903","co38197","norming","","","{""curiosity"":4,""confidence"":0}","[0,1]","../img/tt/064tt.jpg","",""
"1229.9250000005122","","","recognition","survey-text","464","1358449","0.0-6.0-3.65","2759903","co38197","norming","","","{""guess"":""""}","","../img/tt/064tt.jpg","",""
"null","../img/gs/064gs.jpg","null","reveal","image-keyboard-response","465","1360451","0.0-6.0-4.65","2759903","co38197","norming","","","","","","",""
"null","../img/tt/064tt.jpg","null","mooney2","image-keyboard-response","466","1362453","0.0-6.0-5.65","2759903","co38197","norming","","","","","","",""
"2409.975000000559","","","post_reveal_questions","survey-likert","467","1364869","0.0-6.0-6.65","2759903","co38197","norming","","","{""aha"":4}","[0]","../img/tt/064tt.jpg","",""
"null","<div style=""font-size:60px;""> </div>","null","fixation","html-keyboard-response","468","1365072","0.0-6.0-0.66","2759903","co38197","norming","","","","","","",""
"null","../img/tt/534tt.jpg","null","mooney1","image-keyboard-response","469","1368078","0.0-6.0-1.66","2759903","co38197","norming","","","","","","",""
"4308.165000000503","","","post_mooney1_questions","survey-likert","470","1372389","0.0-6.0-2.66","2759903","co38197","norming","","","{""curiosity"":4,""confidence"":4}","[0,1]","../img/tt/534tt.jpg","",""
"8990.095000000205","","","recognition","survey-text","471","1381381","0.0-6.0-3.66","2759903","co38197","norming","","","{""guess"":""vleeseter""}","","../img/tt/534tt.jpg","",""
"null","../img/gs/534gs.jpg","null","reveal","image-keyboard-response","472","1383383","0.0-6.0-4.66","2759903","co38197","norming","","","","","","",""
"null","../img/tt/534tt.jpg","null","mooney2","image-keyboard-response","473","1385388","0.0-6.0-5.66","2759903","co38197","norming","","","","","","",""
"2023.4600000004284","","","post_reveal_questions","survey-likert","474","1387413","0.0-6.0-6.66","2759903","co38197","norming","","","{""aha"":4}","[0]","../img/tt/534tt.jpg","",""
"null","<div style=""font-size:60px;""> </div>","null","fixation","html-keyboard-response","475","1387620","0.0-6.0-0.67","2759903","co38197","norming","","","","","","",""
"null","../img/tt/1171tt.jpg","null","mooney1","image-keyboard-response","476","1390628","0.0-6.0-1.67","2759903","co38197","norming","","","","","","",""
"4765.155000000028","","","post_mooney1_questions","survey-likert","477","1395397","0.0-6.0-2.67","2759903","co38197","norming","","","{""curiosity"":4,""confidence"":2}","[0,1]","../img/tt/1171tt.jpg","",""
"1486.4499999994878","","","recognition","survey-text","478","1396885","0.0-6.0-3.67","2759903","co38197","norming","","","{""guess"":""dier""}","","../img/tt/1171tt.jpg","",""
"null","../img/gs/1171gs.jpg","null","reveal","image-keyboard-response","479","1398886","0.0-6.0-4.67","2759903","co38197","norming","","","","","","",""
"null","../img/tt/1171tt.jpg","null","mooney2","image-keyboard-response","480","1400896","0.0-6.0-5.67","2759903","co38197","norming","","","","","","",""
"2962.575000000419","","","post_reveal_questions","survey-likert","481","1403861","0.0-6.0-6.67","2759903","co38197","norming","","","{""aha"":4}","[0]","../img/tt/1171tt.jpg","",""
"null","<div style=""font-size:60px;""> </div>","null","fixation","html-keyboard-response","482","1404070","0.0-6.0-0.68","2759903","co38197","norming","","","","","","",""
"null","../img/tt/1261tt.jpg","null","mooney1","image-keyboard-response","483","1407077","0.0-6.0-1.68","2759903","co38197","norming","","","","","","",""
"3084.579999999609","","","post_mooney1_questions","survey-likert","484","1410165","0.0-6.0-2.68","2759903","co38197","norming","","","{""curiosity"":4,""confidence"":3}","[0,1]","../img/tt/1261tt.jpg","",""
"2942.0950000004377","","","recognition","survey-text","485","1413109","0.0-6.0-3.68","2759903","co38197","norming","","","{""guess"":""hamster""}","","../img/tt/1261tt.jpg","",""
"null","../img/gs/1261gs.jpg","null","reveal","image-keyboard-response","486","1415120","0.0-6.0-4.68","2759903","co38197","norming","","","","","","",""
"null","../img/tt/1261tt.jpg","null","mooney2","image-keyboard-response","487","1417123","0.0-6.0-5.68","2759903","co38197","norming","","","","","","",""
"2238.975000000093","","","post_reveal_questions","survey-likert","488","1419365","0.0-6.0-6.68","2759903","co38197","norming","","","{""aha"":4}","[0]","../img/tt/1261tt.jpg","",""
"null","<div style=""font-size:60px;""> </div>","null","fixation","html-keyboard-response","489","1419568","0.0-6.0-0.69","2759903","co38197","norming","","","","","","",""
"null","../img/tt/1251tt.jpg","null","mooney1","image-keyboard-response","490","1422575","0.0-6.0-1.69","2759903","co38197","norming","","","","","","",""
"3075.3549999999814","","","post_mooney1_questions","survey-likert","491","1425648","0.0-6.0-2.69","2759903","co38197","norming","","","{""curiosity"":4,""confidence"":0}","[0,1]","../img/tt/1251tt.jpg","",""
"3613.6399999996647","","","recognition","survey-text","492","1429263","0.0-6.0-3.69","2759903","co38197","norming","","","{""guess"":""muur""}","","../img/tt/1251tt.jpg","",""
"null","../img/gs/1251gs.jpg","null","reveal","image-keyboard-response","493","1431271","0.0-6.0-4.69","2759903","co38197","norming","","","","","","",""
"null","../img/tt/1251tt.jpg","null","mooney2","image-keyboard-response","494","1433279","0.0-6.0-5.69","2759903","co38197","norming","","","","","","",""
"4021.075000000652","","","post_reveal_questions","survey-likert","495","1437303","0.0-6.0-6.69","2759903","co38197","norming","","","{""aha"":3}","[0]","../img/tt/1251tt.jpg","",""
"null","<div style=""font-size:60px;""> </div>","null","fixation","html-keyboard-response","496","1437504","0.0-6.0-0.70","2759903","co38197","norming","","","","","","",""
"null","../img/tt/1024tt.jpg","null","mooney1","image-keyboard-response","497","1440508","0.0-6.0-1.70","2759903","co38197","norming","","","","","","",""
"6831.905000000028","","","post_mooney1_questions","survey-likert","498","1447343","0.0-6.0-2.70","2759903","co38197","norming","","","{""curiosity"":4,""confidence"":1}","[0,1]","../img/tt/1024tt.jpg","",""
"2478","","","recognition","survey-text","499","1449823","0.0-6.0-3.70","2759903","co38197","norming","","","{""guess"":""natuur""}","","../img/tt/1024tt.jpg","",""
"null","../img/gs/1024gs.jpg","null","reveal","image-keyboard-response","500","1451825","0.0-6.0-4.70","2759903","co38197","norming","","","","","","",""
"null","../img/tt/1024tt.jpg","null","mooney2","image-keyboard-response","501","1453827","0.0-6.0-5.70","2759903","co38197","norming","","","","","","",""
"2265.7199999995064","","","post_reveal_questions","survey-likert","502","1456095","0.0-6.0-6.70","2759903","co38197","norming","","","{""aha"":4}","[0]","../img/tt/1024tt.jpg","",""
"null","<div style=""font-size:60px;""> </div>","null","fixation","html-keyboard-response","503","1456301","0.0-6.0-0.71","2759903","co38197","norming","","","","","","",""
"null","../img/tt/329tt.jpg","null","mooney1","image-keyboard-response","504","1459309","0.0-6.0-1.71","2759903","co38197","norming","","","","","","",""
"3857.100000000093","","","post_mooney1_questions","survey-likert","505","1463167","0.0-6.0-2.71","2759903","co38197","norming","","","{""curiosity"":4,""confidence"":3}","[0,1]","../img/tt/329tt.jpg","",""
"2141.7049999998417","","","recognition","survey-text","506","1465311","0.0-6.0-3.71","2759903","co38197","norming","","","{""guess"":""buggy""}","","../img/tt/329tt.jpg","",""
"null","../img/gs/329gs.jpg","null","reveal","image-keyboard-response","507","1467318","0.0-6.0-4.71","2759903","co38197","norming","","","","","","",""
"null","../img/tt/329tt.jpg","null","mooney2","image-keyboard-response","508","1469325","0.0-6.0-5.71","2759903","co38197","norming","","","","","","",""
"2400.744999999879","","","post_reveal_questions","survey-likert","509","1471727","0.0-6.0-6.71","2759903","co38197","norming","","","{""aha"":2}","[0]","../img/tt/329tt.jpg","",""
"null","<div style=""font-size:60px;""> </div>","null","fixation","html-keyboard-response","510","1471929","0.0-6.0-0.72","2759903","co38197","norming","","","","","","",""
"null","../img/tt/020tt.jpg","null","mooney1","image-keyboard-response","511","1474937","0.0-6.0-1.72","2759903","co38197","norming","","","","","","",""
"4067.1450000000186","","","post_mooney1_questions","survey-likert","512","1479007","0.0-6.0-2.72","2759903","co38197","norming","","","{""curiosity"":2,""confidence"":0}","[0,1]","../img/tt/020tt.jpg","",""
"254.0149999994319","","","recognition","survey-text","513","1479263","0.0-6.0-3.72","2759903","co38197","norming","","","{""guess"":""""}","","../img/tt/020tt.jpg","",""
"null","../img/gs/020gs.jpg","null","reveal","image-keyboard-response","514","1481271","0.0-6.0-4.72","2759903","co38197","norming","","","","","","",""
"null","../img/tt/020tt.jpg","null","mooney2","image-keyboard-response","515","1483273","0.0-6.0-5.72","2759903","co38197","norming","","","","","","",""
"3059.6300000005867","","","post_reveal_questions","survey-likert","516","1486344","0.0-6.0-6.72","2759903","co38197","norming","","","{""aha"":5}","[0]","../img/tt/020tt.jpg","",""
"null","<div style=""font-size:60px;""> </div>","null","fixation","html-keyboard-response","517","1486553","0.0-6.0-0.73","2759903","co38197","norming","","","","","","",""
"null","../img/tt/1128tt.jpg","null","mooney1","image-keyboard-response","518","1489559","0.0-6.0-1.73","2759903","co38197","norming","","","","","","",""
"3629.7400000002235","","","post_mooney1_questions","survey-likert","519","1493192","0.0-6.0-2.73","2759903","co38197","norming","","","{""curiosity"":4,""confidence"":1}","[0,1]","../img/tt/1128tt.jpg","",""
"1662.4799999999814","","","recognition","survey-text","520","1494856","0.0-6.0-3.73","2759903","co38197","norming","","","{""guess"":""beer""}","","../img/tt/1128tt.jpg","",""
"null","../img/gs/1128gs.jpg","null","reveal","image-keyboard-response","521","1496862","0.0-6.0-4.73","2759903","co38197","norming","","","","","","",""
"null","../img/tt/1128tt.jpg","null","mooney2","image-keyboard-response","522","1498866","0.0-6.0-5.73","2759903","co38197","norming","","","","","","",""
"3235.109999999637","","","post_reveal_questions","survey-likert","523","1502104","0.0-6.0-6.73","2759903","co38197","norming","","","{""aha"":3}","[0]","../img/tt/1128tt.jpg","",""
"null","<div style=""font-size:60px;""> </div>","null","fixation","html-keyboard-response","524","1502309","0.0-6.0-0.74","2759903","co38197","norming","","","","","","",""
"null","../img/tt/060tt.jpg","null","mooney1","image-keyboard-response","525","1505312","0.0-6.0-1.74","2759903","co38197","norming","","","","","","",""
"6710.874999999767","","","post_mooney1_questions","survey-likert","526","1512024","0.0-6.0-2.74","2759903","co38197","norming","","","{""curiosity"":4,""confidence"":4}","[0,1]","../img/tt/060tt.jpg","",""
"1470.0100000000093","","","recognition","survey-text","527","1513496","0.0-6.0-3.74","2759903","co38197","norming","","","{""guess"":""egel""}","","../img/tt/060tt.jpg","",""
"null","../img/gs/060gs.jpg","null","reveal","image-keyboard-response","528","1515503","0.0-6.0-4.74","2759903","co38197","norming","","","","","","",""
"null","../img/tt/060tt.jpg","null","mooney2","image-keyboard-response","529","1517513","0.0-6.0-5.74","2759903","co38197","norming","","","","","","",""
"2332.019999999786","","","post_reveal_questions","survey-likert","530","1519848","0.0-6.0-6.74","2759903","co38197","norming","","","{""aha"":4}","[0]","../img/tt/060tt.jpg","",""
"null","<div style=""font-size:60px;""> </div>","null","fixation","html-keyboard-response","531","1520052","0.0-6.0-0.75","2759903","co38197","norming","","","","","","",""
"null","../img/tt/477tt.jpg","null","mooney1","image-keyboard-response","532","1523060","0.0-6.0-1.75","2759903","co38197","norming","","","","","","",""
"3329.264999999432","","","post_mooney1_questions","survey-likert","533","1526392","0.0-6.0-2.75","2759903","co38197","norming","","","{""curiosity"":4,""confidence"":4}","[0,1]","../img/tt/477tt.jpg","",""
"1278.2649999998976","","","recognition","survey-text","534","1527672","0.0-6.0-3.75","2759903","co38197","norming","","","{""guess"":""kat""}","","../img/tt/477tt.jpg","",""
"null","../img/gs/477gs.jpg","null","reveal","image-keyboard-response","535","1529674","0.0-6.0-4.75","2759903","co38197","norming","","","","","","",""
"null","../img/tt/477tt.jpg","null","mooney2","image-keyboard-response","536","1531683","0.0-6.0-5.75","2759903","co38197","norming","","","","","","",""
"4865.970000000671","","","post_reveal_questions","survey-likert","537","1536552","0.0-6.0-6.75","2759903","co38197","norming","","","{""aha"":2}","[0]","../img/tt/477tt.jpg","",""
"null","<div style=""font-size:60px;""> </div>","null","fixation","html-keyboard-response","538","1536759","0.0-6.0-0.76","2759903","co38197","norming","","","","","","",""
"null","../img/tt/1116tt.jpg","null","mooney1","image-keyboard-response","539","1539762","0.0-6.0-1.76","2759903","co38197","norming","","","","","","",""
"9923.124999999534","","","post_mooney1_questions","survey-likert","540","1549682","0.0-6.0-2.76","2759903","co38197","norming","","","{""curiosity"":1,""confidence"":0}","[0,1]","../img/tt/1116tt.jpg","",""
"285.93499999982305","","","recognition","survey-text","541","1549970","0.0-6.0-3.76","2759903","co38197","norming","","","{""guess"":""""}","","../img/tt/1116tt.jpg","",""
"null","../img/gs/1116gs.jpg","null","reveal","image-keyboard-response","542","1551977","0.0-6.0-4.76","2759903","co38197","norming","","","","","","",""
"null","../img/tt/1116tt.jpg","null","mooney2","image-keyboard-response","543","1553980","0.0-6.0-5.76","2759903","co38197","norming","","","","","","",""
"3491.4850000003353","","","post_reveal_questions","survey-likert","544","1557474","0.0-6.0-6.76","2759903","co38197","norming","","","{""aha"":2}","[0]","../img/tt/1116tt.jpg","",""
"null","<div style=""font-size:60px;""> </div>","null","fixation","html-keyboard-response","545","1557685","0.0-6.0-0.77","2759903","co38197","norming","","","","","","",""
"null","../img/tt/1260tt.jpg","null","mooney1","image-keyboard-response","546","1560688","0.0-6.0-1.77","2759903","co38197","norming","","","","","","",""
"3998.5800000003073","","","post_mooney1_questions","survey-likert","547","1564690","0.0-6.0-2.77","2759903","co38197","norming","","","{""curiosity"":4,""confidence"":2}","[0,1]","../img/tt/1260tt.jpg","",""
"4621.8499999996275","","","recognition","survey-text","548","1569314","0.0-6.0-3.77","2759903","co38197","norming","","","{""guess"":""egel""}","","../img/tt/1260tt.jpg","",""
"null","../img/gs/1260gs.jpg","null","reveal","image-keyboard-response","549","1571316","0.0-6.0-4.77","2759903","co38197","norming","","","","","","",""
"null","../img/tt/1260tt.jpg","null","mooney2","image-keyboard-response","550","1573324","0.0-6.0-5.77","2759903","co38197","norming","","","","","","",""
"2453.3000000000466","","","post_reveal_questions","survey-likert","551","1575778","0.0-6.0-6.77","2759903","co38197","norming","","","{""aha"":4}","[0]","../img/tt/1260tt.jpg","",""
"null","<div style=""font-size:60px;""> </div>","null","fixation","html-keyboard-response","552","1575981","0.0-6.0-0.78","2759903","co38197","norming","","","","","","",""
