"rt","stimulus","key_press","test_part","trial_type","trial_index","time_elapsed","internal_node_id","totalTime","subject","experiment_name","button_pressed","success","responses","question_order","currentStim","old","correct"
"16284.080000001268","Welcome to the experiment. This is an online experiment so please don't close the tab/window until we say goodbye.  Press any key to begin.","32","instructions","html-keyboard-response","0","16326","0.0-0.0","2823936","co38071","norming","","","","","","",""
"9858.065000000352","<div style='word-wrap: break-word; width: 900px'><h3>Please consider this information carefully before deciding whether to participate in this research</h3><ul style='text-align: left; font-size: .8em;'><li><b>Purpose of the research</b>: To examine how people process images.</li><li><b>What you will do in this research</b>:  Stimuli (images) will be presented on the computer and you will be asked different questions about them.</li><li><b>Time required</b>: Participation will take between 45 and 60 minutes to complete.</li><li><b>Risks</b>:  There are no anticipated risks associated with participating in this study. The effects of participating should be comparable to those you would experience from viewing a computer monitor for 30 minutes and using a mouse or keyboard.</li><li><b>Benefits</b>:  This study provides no benefits to you individually except for the credit. The study provides important information about the nature of perception and learning.</li><li><b>Confidentiality</b>:  Your participation in this study will remain confidential. No personally identifiable information will be associated with your data. Your de-identified data may be shared with other researchers and used in future projects.</li><li><b>Participation and withdrawal</b>:  Your participation in this study is completely voluntary and you may refuse to participate or you may choose to withdraw at any time without penalty.</li><li><b>How to contact the researchers</b>: If you have questions or concerns about your participation or payment, or want to request a summary of research findings, please contact Sander Van de Cruys (KU Leuven), at sander.vandecruys@kuleuven.be.</li></ul><p>The nature and purpose of this research have been sufficiently explained and I agree to participate in this study.  I understand that I am free to withdraw at any time without incurring any penalty.</p><p>Please consent by clicking the button below to continue. Otherwise, please exit the study at this time.</p></div>","","instructions","html-button-response","1","26186","0.0-1.0","2823936","co38071","norming","0","","","","","",""
"","","","instructions","fullscreen","2","30639","0.0-2.0","2823936","co38071","norming","","true","","","","",""
"32376.365000000078","","","sona","survey-html-form","3","63023","0.0-3.0","2823936","co38071","norming","","","[{""name"":""sonaid"",""value"":""38071""},{""name"":""debrief"",""value"":""yes""},{""name"":""datajoin"",""value"":""yes""}]","","","",""
"16897.54499999981","<div style='word-wrap: break-word; width: 900px'><h3>Instructions</h3><p>This experiment will have 3 parts. In the first part you will see a series of distorted images like the one below on the left. As you can see in the righthand image, the distorted images are derived from actual photographs. In what follows, you will <strong>briefly</strong> be presented with <strong>only</strong> the distorted image.</p> <div style='float: left; margin-right: 20px;'><img src='../img/018tt.jpg' height='250' width='250'></img></div><div style='float: right; margin-left: 20px;'><img src='../img/018gs.jpg' height='250' width='250'></img></div><p>Subsequently you will be asked a few questions about the image: One question on how <strong>curious</strong> you are about the solution and one on how <strong>confident</strong> you are that you know the solution.</p>Next, we ask you to make a guess on what is in the image. Note that it is OK to name just the <strong>basic level category</strong>. For example when you see a parrot in the image, 'parrot' will obviously be a correct answer but also correct is 'bird'. However, 'animal' will <strong>not</strong> be counted as a correct response. For the example above, 'rose' would be correct or 'flower', but not 'plant'. When soccer players are depicted, 'soccer', 'football', 'soccer players' will be correct, but not 'humans', 'outdoors', or 'sports'. You do not need to describe the image in full, just name the main object in it <strong>in one or two words</strong>. All images depict objects from one of the following broad level categories: animals, inanimate objects, plants, sports, vehicles, and food. Recognizing means knowing <strong>more</strong> than these broad labels for a given image. But we always encourage you to <strong>make a guess</strong> if you can. Note that you are allowed to use <strong>Dutch and English</strong> in your answers, whatever comes easiest for you.</p><p>Press any key to continue.</p></div>","32","instructions","html-keyboard-response","4","79922","0.0-4.0","2823936","co38071","norming","","","","","","",""
"68737.93500000102","<div style='word-wrap: break-word; width: 900px'><h3>Instructions</h3> <p>Next, the solution image will be revealed to you and you'll be asked to indicate how strong your <strong>aha-experience</strong> was after seeing the solution. This describes the positive feeling of the 'click' you sometimes experience, when the pieces of the 'puzzle' fall together and you suddenly have 'insight' in the image.</p><img src='aha.jpg' height='188' width='250'></img><p>Note that there are no right or wrong answers. We are interested in what <strong>you</strong> see in the image and how <strong>you</strong> feel about it.</p><p>Press any key to start the experiment.</p></div>","32","instructions","html-keyboard-response","5","148660","0.0-5.0","2823936","co38071","norming","","","","","","",""
"null","<div style=""font-size:60px;""> </div>","null","fixation","html-keyboard-response","6","148871","0.0-6.0-0.0","2823936","co38071","norming","","","","","","",""
"null","../img/tt/060tt.jpg","null","mooney1","image-keyboard-response","7","151884","0.0-6.0-1.0","2823936","co38071","norming","","","","","","",""
"9242.050000000745","","","post_mooney1_questions","survey-likert","8","161130","0.0-6.0-2.0","2823936","co38071","norming","","","{""curiosity"":2,""confidence"":2}","[0,1]","../img/tt/060tt.jpg","",""
"12581.790000000183","","","recognition","survey-text","9","173714","0.0-6.0-3.0","2823936","co38071","norming","","","{""guess"":""sandwich""}","","../img/tt/060tt.jpg","",""
"null","../img/gs/060gs.jpg","null","reveal","image-keyboard-response","10","175725","0.0-6.0-4.0","2823936","co38071","norming","","","","","","",""
"null","../img/tt/060tt.jpg","null","mooney2","image-keyboard-response","11","177726","0.0-6.0-5.0","2823936","co38071","norming","","","","","","",""
"5937.600000001112","","","post_reveal_questions","survey-likert","12","183666","0.0-6.0-6.0","2823936","co38071","norming","","","{""aha"":1}","[0]","../img/tt/060tt.jpg","",""
"null","<div style=""font-size:60px;""> </div>","null","fixation","html-keyboard-response","13","183869","0.0-6.0-0.1","2823936","co38071","norming","","","","","","",""
"null","../img/tt/1046tt.jpg","null","mooney1","image-keyboard-response","14","186875","0.0-6.0-1.1","2823936","co38071","norming","","","","","","",""
"6500.985000002402","","","post_mooney1_questions","survey-likert","15","193378","0.0-6.0-2.1","2823936","co38071","norming","","","{""curiosity"":4,""confidence"":3}","[0,1]","../img/tt/1046tt.jpg","",""
"4014.005000000907","","","recognition","survey-text","16","197394","0.0-6.0-3.1","2823936","co38071","norming","","","{""guess"":""dog""}","","../img/tt/1046tt.jpg","",""
"null","../img/gs/1046gs.jpg","null","reveal","image-keyboard-response","17","199398","0.0-6.0-4.1","2823936","co38071","norming","","","","","","",""
"null","../img/tt/1046tt.jpg","null","mooney2","image-keyboard-response","18","201409","0.0-6.0-5.1","2823936","co38071","norming","","","","","","",""
"2727.119999999559","","","post_reveal_questions","survey-likert","19","204138","0.0-6.0-6.1","2823936","co38071","norming","","","{""aha"":2}","[0]","../img/tt/1046tt.jpg","",""
"null","<div style=""font-size:60px;""> </div>","null","fixation","html-keyboard-response","20","204346","0.0-6.0-0.2","2823936","co38071","norming","","","","","","",""
"null","../img/tt/599tt.jpg","null","mooney1","image-keyboard-response","21","207349","0.0-6.0-1.2","2823936","co38071","norming","","","","","","",""
"5178.364999999758","","","post_mooney1_questions","survey-likert","22","212526","0.0-6.0-2.2","2823936","co38071","norming","","","{""curiosity"":2,""confidence"":3}","[0,1]","../img/tt/599tt.jpg","",""
"5894.135000002279","","","recognition","survey-text","23","218421","0.0-6.0-3.2","2823936","co38071","norming","","","{""guess"":""butterfly""}","","../img/tt/599tt.jpg","",""
"null","../img/gs/599gs.jpg","null","reveal","image-keyboard-response","24","220431","0.0-6.0-4.2","2823936","co38071","norming","","","","","","",""
"null","../img/tt/599tt.jpg","null","mooney2","image-keyboard-response","25","222441","0.0-6.0-5.2","2823936","co38071","norming","","","","","","",""
"4034.574999997858","","","post_reveal_questions","survey-likert","26","226478","0.0-6.0-6.2","2823936","co38071","norming","","","{""aha"":5}","[0]","../img/tt/599tt.jpg","",""
"null","<div style=""font-size:60px;""> </div>","null","fixation","html-keyboard-response","27","226680","0.0-6.0-0.3","2823936","co38071","norming","","","","","","",""
"null","../img/tt/1084tt.jpg","null","mooney1","image-keyboard-response","28","229690","0.0-6.0-1.3","2823936","co38071","norming","","","","","","",""
"3795.1649999995425","","","post_mooney1_questions","survey-likert","29","233486","0.0-6.0-2.3","2823936","co38071","norming","","","{""curiosity"":4,""confidence"":2}","[0,1]","../img/tt/1084tt.jpg","",""
"6845.949999998993","","","recognition","survey-text","30","240334","0.0-6.0-3.3","2823936","co38071","norming","","","{""guess"":""dog""}","","../img/tt/1084tt.jpg","",""
"null","../img/gs/1084gs.jpg","null","reveal","image-keyboard-response","31","242338","0.0-6.0-4.3","2823936","co38071","norming","","","","","","",""
"null","../img/tt/1084tt.jpg","null","mooney2","image-keyboard-response","32","244349","0.0-6.0-5.3","2823936","co38071","norming","","","","","","",""
"2862.1099999982107","","","post_reveal_questions","survey-likert","33","247213","0.0-6.0-6.3","2823936","co38071","norming","","","{""aha"":1}","[0]","../img/tt/1084tt.jpg","",""
"null","<div style=""font-size:60px;""> </div>","null","fixation","html-keyboard-response","34","247418","0.0-6.0-0.4","2823936","co38071","norming","","","","","","",""
"null","../img/tt/1089tt.jpg","null","mooney1","image-keyboard-response","35","250427","0.0-6.0-1.4","2823936","co38071","norming","","","","","","",""
"11559.925000001414","","","post_mooney1_questions","survey-likert","36","261990","0.0-6.0-2.4","2823936","co38071","norming","","","{""curiosity"":2,""confidence"":5}","[0,1]","../img/tt/1089tt.jpg","",""
"10509.970000002766","","","recognition","survey-text","37","272498","0.0-6.0-3.4","2823936","co38071","norming","","","{""guess"":""elephant""}","","../img/tt/1089tt.jpg","",""
"null","../img/gs/1089gs.jpg","null","reveal","image-keyboard-response","38","274501","0.0-6.0-4.4","2823936","co38071","norming","","","","","","",""
"null","../img/tt/1089tt.jpg","null","mooney2","image-keyboard-response","39","276510","0.0-6.0-5.4","2823936","co38071","norming","","","","","","",""
"3466.1250000026776","","","post_reveal_questions","survey-likert","40","279978","0.0-6.0-6.4","2823936","co38071","norming","","","{""aha"":1}","[0]","../img/tt/1089tt.jpg","",""
"null","<div style=""font-size:60px;""> </div>","null","fixation","html-keyboard-response","41","280186","0.0-6.0-0.5","2823936","co38071","norming","","","","","","",""
"null","../img/tt/1235tt.jpg","null","mooney1","image-keyboard-response","42","283193","0.0-6.0-1.5","2823936","co38071","norming","","","","","","",""
"3952.049999999872","","","post_mooney1_questions","survey-likert","43","287146","0.0-6.0-2.5","2823936","co38071","norming","","","{""curiosity"":3,""confidence"":3}","[0,1]","../img/tt/1235tt.jpg","",""
"3934.3499999995693","","","recognition","survey-text","44","291082","0.0-6.0-3.5","2823936","co38071","norming","","","{""guess"":""bear""}","","../img/tt/1235tt.jpg","",""
"null","../img/gs/1235gs.jpg","null","reveal","image-keyboard-response","45","293089","0.0-6.0-4.5","2823936","co38071","norming","","","","","","",""
"null","../img/tt/1235tt.jpg","null","mooney2","image-keyboard-response","46","295092","0.0-6.0-5.5","2823936","co38071","norming","","","","","","",""
"1771.6899999977322","","","post_reveal_questions","survey-likert","47","296866","0.0-6.0-6.5","2823936","co38071","norming","","","{""aha"":2}","[0]","../img/tt/1235tt.jpg","",""
"null","<div style=""font-size:60px;""> </div>","null","fixation","html-keyboard-response","48","297073","0.0-6.0-0.6","2823936","co38071","norming","","","","","","",""
"null","../img/tt/001tt.jpg","null","mooney1","image-keyboard-response","49","300081","0.0-6.0-1.6","2823936","co38071","norming","","","","","","",""
"7014.0749999991385","","","post_mooney1_questions","survey-likert","50","307098","0.0-6.0-2.6","2823936","co38071","norming","","","{""curiosity"":5,""confidence"":1}","[0,1]","../img/tt/001tt.jpg","",""
"3294.149999997928","","","recognition","survey-text","51","310394","0.0-6.0-3.6","2823936","co38071","norming","","","{""guess"":""crow""}","","../img/tt/001tt.jpg","",""
"null","../img/gs/001gs.jpg","null","reveal","image-keyboard-response","52","312405","0.0-6.0-4.6","2823936","co38071","norming","","","","","","",""
"null","../img/tt/001tt.jpg","null","mooney2","image-keyboard-response","53","314416","0.0-6.0-5.6","2823936","co38071","norming","","","","","","",""
"2919.2999999977765","","","post_reveal_questions","survey-likert","54","317338","0.0-6.0-6.6","2823936","co38071","norming","","","{""aha"":3}","[0]","../img/tt/001tt.jpg","",""
"null","<div style=""font-size:60px;""> </div>","null","fixation","html-keyboard-response","55","317548","0.0-6.0-0.7","2823936","co38071","norming","","","","","","",""
"null","../img/tt/032tt.jpg","null","mooney1","image-keyboard-response","56","320561","0.0-6.0-1.7","2823936","co38071","norming","","","","","","",""
"6504.5200000022305","","","post_mooney1_questions","survey-likert","57","327066","0.0-6.0-2.7","2823936","co38071","norming","","","{""curiosity"":5,""confidence"":1}","[0,1]","../img/tt/032tt.jpg","",""
"2830.215000001772","","","recognition","survey-text","58","329901","0.0-6.0-3.7","2823936","co38071","norming","","","{""guess"":""pig""}","","../img/tt/032tt.jpg","",""
"null","../img/gs/032gs.jpg","null","reveal","image-keyboard-response","59","331904","0.0-6.0-4.7","2823936","co38071","norming","","","","","","",""
"null","../img/tt/032tt.jpg","null","mooney2","image-keyboard-response","60","333913","0.0-6.0-5.7","2823936","co38071","norming","","","","","","",""
"3505.9949999995297","","","post_reveal_questions","survey-likert","61","337421","0.0-6.0-6.7","2823936","co38071","norming","","","{""aha"":0}","[0]","../img/tt/032tt.jpg","",""
"null","<div style=""font-size:60px;""> </div>","null","fixation","html-keyboard-response","62","337623","0.0-6.0-0.8","2823936","co38071","norming","","","","","","",""
"null","../img/tt/1096tt.jpg","null","mooney1","image-keyboard-response","63","340629","0.0-6.0-1.8","2823936","co38071","norming","","","","","","",""
"5237.4500000005355","","","post_mooney1_questions","survey-likert","64","345869","0.0-6.0-2.8","2823936","co38071","norming","","","{""curiosity"":4,""confidence"":1}","[0,1]","../img/tt/1096tt.jpg","",""
"3998.4500000027474","","","recognition","survey-text","65","349869","0.0-6.0-3.8","2823936","co38071","norming","","","{""guess"":""stairs""}","","../img/tt/1096tt.jpg","",""
"null","../img/gs/1096gs.jpg","null","reveal","image-keyboard-response","66","351871","0.0-6.0-4.8","2823936","co38071","norming","","","","","","",""
"null","../img/tt/1096tt.jpg","null","mooney2","image-keyboard-response","67","353878","0.0-6.0-5.8","2823936","co38071","norming","","","","","","",""
"3060.5600000016857","","","post_reveal_questions","survey-likert","68","356941","0.0-6.0-6.8","2823936","co38071","norming","","","{""aha"":2}","[0]","../img/tt/1096tt.jpg","",""
"null","<div style=""font-size:60px;""> </div>","null","fixation","html-keyboard-response","69","357144","0.0-6.0-0.9","2823936","co38071","norming","","","","","","",""
"null","../img/tt/315tt.jpg","null","mooney1","image-keyboard-response","70","360153","0.0-6.0-1.9","2823936","co38071","norming","","","","","","",""
"6377.560000000754","","","post_mooney1_questions","survey-likert","71","366533","0.0-6.0-2.9","2823936","co38071","norming","","","{""curiosity"":4,""confidence"":2}","[0,1]","../img/tt/315tt.jpg","",""
"4838.064999999944","","","recognition","survey-text","72","371373","0.0-6.0-3.9","2823936","co38071","norming","","","{""guess"":""bird""}","","../img/tt/315tt.jpg","",""
"null","../img/gs/315gs.jpg","null","reveal","image-keyboard-response","73","373380","0.0-6.0-4.9","2823936","co38071","norming","","","","","","",""
"null","../img/tt/315tt.jpg","null","mooney2","image-keyboard-response","74","375381","0.0-6.0-5.9","2823936","co38071","norming","","","","","","",""
"4218.580000000657","","","post_reveal_questions","survey-likert","75","379605","0.0-6.0-6.9","2823936","co38071","norming","","","{""aha"":3}","[0]","../img/tt/315tt.jpg","",""
"null","<div style=""font-size:60px;""> </div>","null","fixation","html-keyboard-response","76","379810","0.0-6.0-0.10","2823936","co38071","norming","","","","","","",""
"null","../img/tt/036tt.jpg","null","mooney1","image-keyboard-response","77","382820","0.0-6.0-1.10","2823936","co38071","norming","","","","","","",""
"4662.849999997008","","","post_mooney1_questions","survey-likert","78","387485","0.0-6.0-2.10","2823936","co38071","norming","","","{""curiosity"":4,""confidence"":1}","[0,1]","../img/tt/036tt.jpg","",""
"2398.3599999992875","","","recognition","survey-text","79","389883","0.0-6.0-3.10","2823936","co38071","norming","","","{""guess"":""web""}","","../img/tt/036tt.jpg","",""
"null","../img/gs/036gs.jpg","null","reveal","image-keyboard-response","80","391888","0.0-6.0-4.10","2823936","co38071","norming","","","","","","",""
"null","../img/tt/036tt.jpg","null","mooney2","image-keyboard-response","81","393890","0.0-6.0-5.10","2823936","co38071","norming","","","","","","",""
"1846.4300000014482","","","post_reveal_questions","survey-likert","82","395739","0.0-6.0-6.10","2823936","co38071","norming","","","{""aha"":1}","[0]","../img/tt/036tt.jpg","",""
"null","<div style=""font-size:60px;""> </div>","null","fixation","html-keyboard-response","83","395945","0.0-6.0-0.11","2823936","co38071","norming","","","","","","",""
"null","../img/tt/1260tt.jpg","null","mooney1","image-keyboard-response","84","398953","0.0-6.0-1.11","2823936","co38071","norming","","","","","","",""
"9623.08999999729","","","post_mooney1_questions","survey-likert","85","408579","0.0-6.0-2.11","2823936","co38071","norming","","","{""curiosity"":5,""confidence"":1}","[0,1]","../img/tt/1260tt.jpg","",""
"4006.3300000001327","","","recognition","survey-text","86","412587","0.0-6.0-3.11","2823936","co38071","norming","","","{""guess"":""mountains""}","","../img/tt/1260tt.jpg","",""
"null","../img/gs/1260gs.jpg","null","reveal","image-keyboard-response","87","414590","0.0-6.0-4.11","2823936","co38071","norming","","","","","","",""
"null","../img/tt/1260tt.jpg","null","mooney2","image-keyboard-response","88","416597","0.0-6.0-5.11","2823936","co38071","norming","","","","","","",""
"2356.1899999986053","","","post_reveal_questions","survey-likert","89","418955","0.0-6.0-6.11","2823936","co38071","norming","","","{""aha"":5}","[0]","../img/tt/1260tt.jpg","",""
"null","<div style=""font-size:60px;""> </div>","null","fixation","html-keyboard-response","90","419159","0.0-6.0-0.12","2823936","co38071","norming","","","","","","",""
"null","../img/tt/1004tt.jpg","null","mooney1","image-keyboard-response","91","422163","0.0-6.0-1.12","2823936","co38071","norming","","","","","","",""
"6077.995000003313","","","post_mooney1_questions","survey-likert","92","428243","0.0-6.0-2.12","2823936","co38071","norming","","","{""curiosity"":4,""confidence"":1}","[0,1]","../img/tt/1004tt.jpg","",""
"2374.0450000004494","","","recognition","survey-text","93","430619","0.0-6.0-3.12","2823936","co38071","norming","","","{""guess"":""cow""}","","../img/tt/1004tt.jpg","",""
"null","../img/gs/1004gs.jpg","null","reveal","image-keyboard-response","94","432629","0.0-6.0-4.12","2823936","co38071","norming","","","","","","",""
"null","../img/tt/1004tt.jpg","null","mooney2","image-keyboard-response","95","434635","0.0-6.0-5.12","2823936","co38071","norming","","","","","","",""
"2605.100000000675","","","post_reveal_questions","survey-likert","96","437243","0.0-6.0-6.12","2823936","co38071","norming","","","{""aha"":3}","[0]","../img/tt/1004tt.jpg","",""
"null","<div style=""font-size:60px;""> </div>","null","fixation","html-keyboard-response","97","437447","0.0-6.0-0.13","2823936","co38071","norming","","","","","","",""
"null","../img/tt/1044tt.jpg","null","mooney1","image-keyboard-response","98","440453","0.0-6.0-1.13","2823936","co38071","norming","","","","","","",""
"4619.445000000298","","","post_mooney1_questions","survey-likert","99","445075","0.0-6.0-2.13","2823936","co38071","norming","","","{""curiosity"":4,""confidence"":1}","[0,1]","../img/tt/1044tt.jpg","",""
"4710.470000001835","","","recognition","survey-text","100","449793","0.0-6.0-3.13","2823936","co38071","norming","","","{""guess"":""wheel""}","","../img/tt/1044tt.jpg","",""
"null","../img/gs/1044gs.jpg","null","reveal","image-keyboard-response","101","451799","0.0-6.0-4.13","2823936","co38071","norming","","","","","","",""
"null","../img/tt/1044tt.jpg","null","mooney2","image-keyboard-response","102","453801","0.0-6.0-5.13","2823936","co38071","norming","","","","","","",""
"1709.2000000011176","","","post_reveal_questions","survey-likert","103","455512","0.0-6.0-6.13","2823936","co38071","norming","","","{""aha"":1}","[0]","../img/tt/1044tt.jpg","",""
"null","<div style=""font-size:60px;""> </div>","null","fixation","html-keyboard-response","104","455714","0.0-6.0-0.14","2823936","co38071","norming","","","","","","",""
"null","../img/tt/091tt.jpg","null","mooney1","image-keyboard-response","105","458718","0.0-6.0-1.14","2823936","co38071","norming","","","","","","",""
"7591.875000001921","","","post_mooney1_questions","survey-likert","106","466313","0.0-6.0-2.14","2823936","co38071","norming","","","{""curiosity"":5,""confidence"":2}","[0,1]","../img/tt/091tt.jpg","",""
"2102.1199999995297","","","recognition","survey-text","107","468417","0.0-6.0-3.14","2823936","co38071","norming","","","{""guess"":""dog""}","","../img/tt/091tt.jpg","",""
"null","../img/gs/091gs.jpg","null","reveal","image-keyboard-response","108","470424","0.0-6.0-4.14","2823936","co38071","norming","","","","","","",""
"null","../img/tt/091tt.jpg","null","mooney2","image-keyboard-response","109","472434","0.0-6.0-5.14","2823936","co38071","norming","","","","","","",""
"1908.7949999993434","","","post_reveal_questions","survey-likert","110","474345","0.0-6.0-6.14","2823936","co38071","norming","","","{""aha"":1}","[0]","../img/tt/091tt.jpg","",""
"null","<div style=""font-size:60px;""> </div>","null","fixation","html-keyboard-response","111","474554","0.0-6.0-0.15","2823936","co38071","norming","","","","","","",""
"null","../img/tt/084tt.jpg","null","mooney1","image-keyboard-response","112","477560","0.0-6.0-1.15","2823936","co38071","norming","","","","","","",""
"6918.7050000000745","","","post_mooney1_questions","survey-likert","113","484481","0.0-6.0-2.15","2823936","co38071","norming","","","{""curiosity"":3,""confidence"":3}","[0,1]","../img/tt/084tt.jpg","",""
"2958.005000000354","","","recognition","survey-text","114","487441","0.0-6.0-3.15","2823936","co38071","norming","","","{""guess"":""bird""}","","../img/tt/084tt.jpg","",""
"null","../img/gs/084gs.jpg","null","reveal","image-keyboard-response","115","489446","0.0-6.0-4.15","2823936","co38071","norming","","","","","","",""
"null","../img/tt/084tt.jpg","null","mooney2","image-keyboard-response","116","491447","0.0-6.0-5.15","2823936","co38071","norming","","","","","","",""
"2783.429999999469","","","post_reveal_questions","survey-likert","117","494233","0.0-6.0-6.15","2823936","co38071","norming","","","{""aha"":2}","[0]","../img/tt/084tt.jpg","",""
"null","<div style=""font-size:60px;""> </div>","null","fixation","html-keyboard-response","118","494440","0.0-6.0-0.16","2823936","co38071","norming","","","","","","",""
"null","../img/tt/031tt.jpg","null","mooney1","image-keyboard-response","119","497449","0.0-6.0-1.16","2823936","co38071","norming","","","","","","",""
"4957.7900000003865","","","post_mooney1_questions","survey-likert","120","502409","0.0-6.0-2.16","2823936","co38071","norming","","","{""curiosity"":5,""confidence"":3}","[0,1]","../img/tt/031tt.jpg","",""
"4998.179999998654","","","recognition","survey-text","121","507409","0.0-6.0-3.16","2823936","co38071","norming","","","{""guess"":""bear""}","","../img/tt/031tt.jpg","",""
"null","../img/gs/031gs.jpg","null","reveal","image-keyboard-response","122","509418","0.0-6.0-4.16","2823936","co38071","norming","","","","","","",""
"null","../img/tt/031tt.jpg","null","mooney2","image-keyboard-response","123","511423","0.0-6.0-5.16","2823936","co38071","norming","","","","","","",""
"1595.0000000011642","","","post_reveal_questions","survey-likert","124","513020","0.0-6.0-6.16","2823936","co38071","norming","","","{""aha"":0}","[0]","../img/tt/031tt.jpg","",""
"null","<div style=""font-size:60px;""> </div>","null","fixation","html-keyboard-response","125","513225","0.0-6.0-0.17","2823936","co38071","norming","","","","","","",""
"null","../img/tt/1102tt.jpg","null","mooney1","image-keyboard-response","126","516227","0.0-6.0-1.17","2823936","co38071","norming","","","","","","",""
"7439.759999997506","","","post_mooney1_questions","survey-likert","127","523668","0.0-6.0-2.17","2823936","co38071","norming","","","{""curiosity"":3,""confidence"":0}","[0,1]","../img/tt/1102tt.jpg","",""
"2414.25000000163","","","recognition","survey-text","128","526084","0.0-6.0-3.17","2823936","co38071","norming","","","{""guess"":""lake""}","","../img/tt/1102tt.jpg","",""
"null","../img/gs/1102gs.jpg","null","reveal","image-keyboard-response","129","528088","0.0-6.0-4.17","2823936","co38071","norming","","","","","","",""
"null","../img/tt/1102tt.jpg","null","mooney2","image-keyboard-response","130","530097","0.0-6.0-5.17","2823936","co38071","norming","","","","","","",""
"2160.759999998845","","","post_reveal_questions","survey-likert","131","532260","0.0-6.0-6.17","2823936","co38071","norming","","","{""aha"":1}","[0]","../img/tt/1102tt.jpg","",""
"null","<div style=""font-size:60px;""> </div>","null","fixation","html-keyboard-response","132","532461","0.0-6.0-0.18","2823936","co38071","norming","","","","","","",""
"null","../img/tt/163tt.jpg","null","mooney1","image-keyboard-response","133","535465","0.0-6.0-1.18","2823936","co38071","norming","","","","","","",""
"5178.670000001206","","","post_mooney1_questions","survey-likert","134","540644","0.0-6.0-2.18","2823936","co38071","norming","","","{""curiosity"":4,""confidence"":3}","[0,1]","../img/tt/163tt.jpg","",""
"2270.1400000004796","","","recognition","survey-text","135","542916","0.0-6.0-3.18","2823936","co38071","norming","","","{""guess"":""frog""}","","../img/tt/163tt.jpg","",""
"null","../img/gs/163gs.jpg","null","reveal","image-keyboard-response","136","544921","0.0-6.0-4.18","2823936","co38071","norming","","","","","","",""
"null","../img/tt/163tt.jpg","null","mooney2","image-keyboard-response","137","546924","0.0-6.0-5.18","2823936","co38071","norming","","","","","","",""
"1830.579999997979","","","post_reveal_questions","survey-likert","138","548756","0.0-6.0-6.18","2823936","co38071","norming","","","{""aha"":1}","[0]","../img/tt/163tt.jpg","",""
"null","<div style=""font-size:60px;""> </div>","null","fixation","html-keyboard-response","139","548960","0.0-6.0-0.19","2823936","co38071","norming","","","","","","",""
"null","../img/tt/081tt.jpg","null","mooney1","image-keyboard-response","140","551964","0.0-6.0-1.19","2823936","co38071","norming","","","","","","",""
"3007.1250000001164","","","post_mooney1_questions","survey-likert","141","554973","0.0-6.0-2.19","2823936","co38071","norming","","","{""curiosity"":4,""confidence"":3}","[0,1]","../img/tt/081tt.jpg","",""
"2261.7850000024773","","","recognition","survey-text","142","557236","0.0-6.0-3.19","2823936","co38071","norming","","","{""guess"":""frog""}","","../img/tt/081tt.jpg","",""
"null","../img/gs/081gs.jpg","null","reveal","image-keyboard-response","143","559241","0.0-6.0-4.19","2823936","co38071","norming","","","","","","",""
"null","../img/tt/081tt.jpg","null","mooney2","image-keyboard-response","144","561244","0.0-6.0-5.19","2823936","co38071","norming","","","","","","",""
"3383.9399999997113","","","post_reveal_questions","survey-likert","145","564628","0.0-6.0-6.19","2823936","co38071","norming","","","{""aha"":1}","[0]","../img/tt/081tt.jpg","",""
"null","<div style=""font-size:60px;""> </div>","null","fixation","html-keyboard-response","146","564834","0.0-6.0-0.20","2823936","co38071","norming","","","","","","",""
"null","../img/tt/135tt.jpg","null","mooney1","image-keyboard-response","147","567838","0.0-6.0-1.20","2823936","co38071","norming","","","","","","",""
"2748.0450000001583","","","post_mooney1_questions","survey-likert","148","570588","0.0-6.0-2.20","2823936","co38071","norming","","","{""curiosity"":3,""confidence"":4}","[0,1]","../img/tt/135tt.jpg","",""
"5814.399999999325","","","recognition","survey-text","149","576396","0.0-6.0-3.20","2823936","co38071","norming","","","{""guess"":""toilet""}","","../img/tt/135tt.jpg","",""
"null","../img/gs/135gs.jpg","null","reveal","image-keyboard-response","150","578398","0.0-6.0-4.20","2823936","co38071","norming","","","","","","",""
"null","../img/tt/135tt.jpg","null","mooney2","image-keyboard-response","151","580404","0.0-6.0-5.20","2823936","co38071","norming","","","","","","",""
"2277.6500000000233","","","post_reveal_questions","survey-likert","152","582684","0.0-6.0-6.20","2823936","co38071","norming","","","{""aha"":0}","[0]","../img/tt/135tt.jpg","",""
"null","<div style=""font-size:60px;""> </div>","null","fixation","html-keyboard-response","153","582893","0.0-6.0-0.21","2823936","co38071","norming","","","","","","",""
"null","../img/tt/040tt.jpg","null","mooney1","image-keyboard-response","154","585905","0.0-6.0-1.21","2823936","co38071","norming","","","","","","",""
"4784.885000000941","","","post_mooney1_questions","survey-likert","155","590693","0.0-6.0-2.21","2823936","co38071","norming","","","{""curiosity"":4,""confidence"":1}","[0,1]","../img/tt/040tt.jpg","",""
"2822.1500000000233","","","recognition","survey-text","156","593516","0.0-6.0-3.21","2823936","co38071","norming","","","{""guess"":""bunny""}","","../img/tt/040tt.jpg","",""
"null","../img/gs/040gs.jpg","null","reveal","image-keyboard-response","157","595522","0.0-6.0-4.21","2823936","co38071","norming","","","","","","",""
"null","../img/tt/040tt.jpg","null","mooney2","image-keyboard-response","158","597524","0.0-6.0-5.21","2823936","co38071","norming","","","","","","",""
"1301.8000000010943","","","post_reveal_questions","survey-likert","159","598828","0.0-6.0-6.21","2823936","co38071","norming","","","{""aha"":3}","[0]","../img/tt/040tt.jpg","",""
"null","<div style=""font-size:60px;""> </div>","null","fixation","html-keyboard-response","160","599030","0.0-6.0-0.22","2823936","co38071","norming","","","","","","",""
"null","../img/tt/1189tt.jpg","null","mooney1","image-keyboard-response","161","602034","0.0-6.0-1.22","2823936","co38071","norming","","","","","","",""
"5231.479999998584","","","post_mooney1_questions","survey-likert","162","607268","0.0-6.0-2.22","2823936","co38071","norming","","","{""curiosity"":4,""confidence"":1}","[0,1]","../img/tt/1189tt.jpg","",""
"2742.6200000009267","","","recognition","survey-text","163","610012","0.0-6.0-3.22","2823936","co38071","norming","","","{""guess"":""grass""}","","../img/tt/1189tt.jpg","",""
"null","../img/gs/1189gs.jpg","null","reveal","image-keyboard-response","164","612021","0.0-6.0-4.22","2823936","co38071","norming","","","","","","",""
"null","../img/tt/1189tt.jpg","null","mooney2","image-keyboard-response","165","614031","0.0-6.0-5.22","2823936","co38071","norming","","","","","","",""
"4980.319999998785","","","post_reveal_questions","survey-likert","166","619012","0.0-6.0-6.22","2823936","co38071","norming","","","{""aha"":1}","[0]","../img/tt/1189tt.jpg","",""
"null","<div style=""font-size:60px;""> </div>","null","fixation","html-keyboard-response","167","619222","0.0-6.0-0.23","2823936","co38071","norming","","","","","","",""
"null","../img/tt/580tt.jpg","null","mooney1","image-keyboard-response","168","622232","0.0-6.0-1.23","2823936","co38071","norming","","","","","","",""
"7041.4549999986775","","","post_mooney1_questions","survey-likert","169","629276","0.0-6.0-2.23","2823936","co38071","norming","","","{""curiosity"":5,""confidence"":1}","[0,1]","../img/tt/580tt.jpg","",""
"4766.569999999832","","","recognition","survey-text","170","634050","0.0-6.0-3.23","2823936","co38071","norming","","","{""guess"":""human""}","","../img/tt/580tt.jpg","",""
"null","../img/gs/580gs.jpg","null","reveal","image-keyboard-response","171","636051","0.0-6.0-4.23","2823936","co38071","norming","","","","","","",""
"null","../img/tt/580tt.jpg","null","mooney2","image-keyboard-response","172","638062","0.0-6.0-5.23","2823936","co38071","norming","","","","","","",""
"2353.390000000247","","","post_reveal_questions","survey-likert","173","640418","0.0-6.0-6.23","2823936","co38071","norming","","","{""aha"":1}","[0]","../img/tt/580tt.jpg","",""
"null","<div style=""font-size:60px;""> </div>","null","fixation","html-keyboard-response","174","640622","0.0-6.0-0.24","2823936","co38071","norming","","","","","","",""
"null","../img/tt/319tt.jpg","null","mooney1","image-keyboard-response","175","643627","0.0-6.0-1.24","2823936","co38071","norming","","","","","","",""
"6347.864999999641","","","post_mooney1_questions","survey-likert","176","649978","0.0-6.0-2.24","2823936","co38071","norming","","","{""curiosity"":4,""confidence"":1}","[0,1]","../img/tt/319tt.jpg","",""
"7253.809999998426","","","recognition","survey-text","177","657233","0.0-6.0-3.24","2823936","co38071","norming","","","{""guess"":""insect""}","","../img/tt/319tt.jpg","",""
"null","../img/gs/319gs.jpg","null","reveal","image-keyboard-response","178","659236","0.0-6.0-4.24","2823936","co38071","norming","","","","","","",""
"null","../img/tt/319tt.jpg","null","mooney2","image-keyboard-response","179","661241","0.0-6.0-5.24","2823936","co38071","norming","","","","","","",""
"3207.975000001141","","","post_reveal_questions","survey-likert","180","664450","0.0-6.0-6.24","2823936","co38071","norming","","","{""aha"":3}","[0]","../img/tt/319tt.jpg","",""
"null","<div style=""font-size:60px;""> </div>","null","fixation","html-keyboard-response","181","664660","0.0-6.0-0.25","2823936","co38071","norming","","","","","","",""
"null","../img/tt/1118tt.jpg","null","mooney1","image-keyboard-response","182","667664","0.0-6.0-1.25","2823936","co38071","norming","","","","","","",""
"3503.609999999753","","","post_mooney1_questions","survey-likert","183","671170","0.0-6.0-2.25","2823936","co38071","norming","","","{""curiosity"":4,""confidence"":2}","[0,1]","../img/tt/1118tt.jpg","",""
"6926.230000001029","","","recognition","survey-text","184","678098","0.0-6.0-3.25","2823936","co38071","norming","","","{""guess"":""elephant""}","","../img/tt/1118tt.jpg","",""
"null","../img/gs/1118gs.jpg","null","reveal","image-keyboard-response","185","680100","0.0-6.0-4.25","2823936","co38071","norming","","","","","","",""
"null","../img/tt/1118tt.jpg","null","mooney2","image-keyboard-response","186","682102","0.0-6.0-5.25","2823936","co38071","norming","","","","","","",""
"2049.7749999995576","","","post_reveal_questions","survey-likert","187","684154","0.0-6.0-6.25","2823936","co38071","norming","","","{""aha"":0}","[0]","../img/tt/1118tt.jpg","",""
"null","<div style=""font-size:60px;""> </div>","null","fixation","html-keyboard-response","188","684357","0.0-6.0-0.26","2823936","co38071","norming","","","","","","",""
"null","../img/tt/098tt.jpg","null","mooney1","image-keyboard-response","189","687366","0.0-6.0-1.26","2823936","co38071","norming","","","","","","",""
"6963.145000001416","","","post_mooney1_questions","survey-likert","190","694329","0.0-6.0-2.26","2823936","co38071","norming","","","{""curiosity"":4,""confidence"":1}","[0,1]","../img/tt/098tt.jpg","",""
"2405.7950000024866","","","recognition","survey-text","191","696737","0.0-6.0-3.26","2823936","co38071","norming","","","{""guess"":""fruit""}","","../img/tt/098tt.jpg","",""
"null","../img/gs/098gs.jpg","null","reveal","image-keyboard-response","192","698743","0.0-6.0-4.26","2823936","co38071","norming","","","","","","",""
"null","../img/tt/098tt.jpg","null","mooney2","image-keyboard-response","193","700745","0.0-6.0-5.26","2823936","co38071","norming","","","","","","",""
"3925.7399999988265","","","post_reveal_questions","survey-likert","194","704673","0.0-6.0-6.26","2823936","co38071","norming","","","{""aha"":3}","[0]","../img/tt/098tt.jpg","",""
"null","<div style=""font-size:60px;""> </div>","null","fixation","html-keyboard-response","195","704876","0.0-6.0-0.27","2823936","co38071","norming","","","","","","",""
"null","../img/tt/1205tt.jpg","null","mooney1","image-keyboard-response","196","707879","0.0-6.0-1.27","2823936","co38071","norming","","","","","","",""
"4759.125000000466","","","post_mooney1_questions","survey-likert","197","712641","0.0-6.0-2.27","2823936","co38071","norming","","","{""curiosity"":4,""confidence"":1}","[0,1]","../img/tt/1205tt.jpg","",""
"4094.055000001332","","","recognition","survey-text","198","716737","0.0-6.0-3.27","2823936","co38071","norming","","","{""guess"":""water""}","","../img/tt/1205tt.jpg","",""
"null","../img/gs/1205gs.jpg","null","reveal","image-keyboard-response","199","718739","0.0-6.0-4.27","2823936","co38071","norming","","","","","","",""
"null","../img/tt/1205tt.jpg","null","mooney2","image-keyboard-response","200","720749","0.0-6.0-5.27","2823936","co38071","norming","","","","","","",""
"3033.625","","","post_reveal_questions","survey-likert","201","723785","0.0-6.0-6.27","2823936","co38071","norming","","","{""aha"":4}","[0]","../img/tt/1205tt.jpg","",""
"null","<div style=""font-size:60px;""> </div>","null","fixation","html-keyboard-response","202","723987","0.0-6.0-0.28","2823936","co38071","norming","","","","","","",""
"null","../img/tt/1107tt.jpg","null","mooney1","image-keyboard-response","203","726991","0.0-6.0-1.28","2823936","co38071","norming","","","","","","",""
"5768.694999998785","","","post_mooney1_questions","survey-likert","204","732761","0.0-6.0-2.28","2823936","co38071","norming","","","{""curiosity"":5,""confidence"":0}","[0,1]","../img/tt/1107tt.jpg","",""
"2742.0400000009686","","","recognition","survey-text","205","735505","0.0-6.0-3.28","2823936","co38071","norming","","","{""guess"":""cow""}","","../img/tt/1107tt.jpg","",""
"null","../img/gs/1107gs.jpg","null","reveal","image-keyboard-response","206","737508","0.0-6.0-4.28","2823936","co38071","norming","","","","","","",""
"null","../img/tt/1107tt.jpg","null","mooney2","image-keyboard-response","207","739512","0.0-6.0-5.28","2823936","co38071","norming","","","","","","",""
"3998.8350000021746","","","post_reveal_questions","survey-likert","208","743513","0.0-6.0-6.28","2823936","co38071","norming","","","{""aha"":5}","[0]","../img/tt/1107tt.jpg","",""
"null","<div style=""font-size:60px;""> </div>","null","fixation","html-keyboard-response","209","743715","0.0-6.0-0.29","2823936","co38071","norming","","","","","","",""
"null","../img/tt/1307tt.jpg","null","mooney1","image-keyboard-response","210","746725","0.0-6.0-1.29","2823936","co38071","norming","","","","","","",""
"4720.995000003371","","","post_mooney1_questions","survey-likert","211","751449","0.0-6.0-2.29","2823936","co38071","norming","","","{""curiosity"":5,""confidence"":1}","[0,1]","../img/tt/1307tt.jpg","",""
"3078.1599999972386","","","recognition","survey-text","212","754525","0.0-6.0-3.29","2823936","co38071","norming","","","{""guess"":""wheel""}","","../img/tt/1307tt.jpg","",""
"null","../img/gs/1307gs.jpg","null","reveal","image-keyboard-response","213","756531","0.0-6.0-4.29","2823936","co38071","norming","","","","","","",""
"null","../img/tt/1307tt.jpg","null","mooney2","image-keyboard-response","214","758533","0.0-6.0-5.29","2823936","co38071","norming","","","","","","",""
"3886.589999998221","","","post_reveal_questions","survey-likert","215","762421","0.0-6.0-6.29","2823936","co38071","norming","","","{""aha"":0}","[0]","../img/tt/1307tt.jpg","",""
"null","<div style=""font-size:60px;""> </div>","null","fixation","html-keyboard-response","216","762624","0.0-6.0-0.30","2823936","co38071","norming","","","","","","",""
"null","../img/tt/406tt.jpg","null","mooney1","image-keyboard-response","217","765633","0.0-6.0-1.30","2823936","co38071","norming","","","","","","",""
"5425.37000000081","","","post_mooney1_questions","survey-likert","218","771062","0.0-6.0-2.30","2823936","co38071","norming","","","{""curiosity"":4,""confidence"":1}","[0,1]","../img/tt/406tt.jpg","",""
"2454.184999998659","","","recognition","survey-text","219","773518","0.0-6.0-3.30","2823936","co38071","norming","","","{""guess"":""shell""}","","../img/tt/406tt.jpg","",""
"null","../img/gs/406gs.jpg","null","reveal","image-keyboard-response","220","775519","0.0-6.0-4.30","2823936","co38071","norming","","","","","","",""
"null","../img/tt/406tt.jpg","null","mooney2","image-keyboard-response","221","777521","0.0-6.0-5.30","2823936","co38071","norming","","","","","","",""
"2290.020000000368","","","post_reveal_questions","survey-likert","222","779814","0.0-6.0-6.30","2823936","co38071","norming","","","{""aha"":0}","[0]","../img/tt/406tt.jpg","",""
"null","<div style=""font-size:60px;""> </div>","null","fixation","html-keyboard-response","223","780023","0.0-6.0-0.31","2823936","co38071","norming","","","","","","",""
"null","../img/tt/1151tt.jpg","null","mooney1","image-keyboard-response","224","783028","0.0-6.0-1.31","2823936","co38071","norming","","","","","","",""
"4622.934999999474","","","post_mooney1_questions","survey-likert","225","787654","0.0-6.0-2.31","2823936","co38071","norming","","","{""curiosity"":5,""confidence"":0}","[0,1]","../img/tt/1151tt.jpg","",""
"885.8549999968382","","","recognition","survey-text","226","788541","0.0-6.0-3.31","2823936","co38071","norming","","","{""guess"":""""}","","../img/tt/1151tt.jpg","",""
"null","../img/gs/1151gs.jpg","null","reveal","image-keyboard-response","227","790552","0.0-6.0-4.31","2823936","co38071","norming","","","","","","",""
"null","../img/tt/1151tt.jpg","null","mooney2","image-keyboard-response","228","792555","0.0-6.0-5.31","2823936","co38071","norming","","","","","","",""
"2720.0100000009406","","","post_reveal_questions","survey-likert","229","795277","0.0-6.0-6.31","2823936","co38071","norming","","","{""aha"":0}","[0]","../img/tt/1151tt.jpg","",""
"null","<div style=""font-size:60px;""> </div>","null","fixation","html-keyboard-response","230","795485","0.0-6.0-0.32","2823936","co38071","norming","","","","","","",""
"null","../img/tt/1366tt.jpg","null","mooney1","image-keyboard-response","231","798493","0.0-6.0-1.32","2823936","co38071","norming","","","","","","",""
"3293.310000000987","","","post_mooney1_questions","survey-likert","232","801789","0.0-6.0-2.32","2823936","co38071","norming","","","{""curiosity"":5,""confidence"":1}","[0,1]","../img/tt/1366tt.jpg","",""
"2622.400000000256","","","recognition","survey-text","233","804414","0.0-6.0-3.32","2823936","co38071","norming","","","{""guess"":""food""}","","../img/tt/1366tt.jpg","",""
"null","../img/gs/1366gs.jpg","null","reveal","image-keyboard-response","234","806415","0.0-6.0-4.32","2823936","co38071","norming","","","","","","",""
"null","../img/tt/1366tt.jpg","null","mooney2","image-keyboard-response","235","808419","0.0-6.0-5.32","2823936","co38071","norming","","","","","","",""
"1609.9199999989942","","","post_reveal_questions","survey-likert","236","810030","0.0-6.0-6.32","2823936","co38071","norming","","","{""aha"":0}","[0]","../img/tt/1366tt.jpg","",""
"null","<div style=""font-size:60px;""> </div>","null","fixation","html-keyboard-response","237","810234","0.0-6.0-0.33","2823936","co38071","norming","","","","","","",""
"null","../img/tt/1066tt.jpg","null","mooney1","image-keyboard-response","238","813243","0.0-6.0-1.33","2823936","co38071","norming","","","","","","",""
"3546.070000000298","","","post_mooney1_questions","survey-likert","239","816797","0.0-6.0-2.33","2823936","co38071","norming","","","{""curiosity"":5,""confidence"":1}","[0,1]","../img/tt/1066tt.jpg","",""
"1894.2099999985658","","","recognition","survey-text","240","818693","0.0-6.0-3.33","2823936","co38071","norming","","","{""guess"":""beds""}","","../img/tt/1066tt.jpg","",""
"null","../img/gs/1066gs.jpg","null","reveal","image-keyboard-response","241","820700","0.0-6.0-4.33","2823936","co38071","norming","","","","","","",""
"null","../img/tt/1066tt.jpg","null","mooney2","image-keyboard-response","242","822702","0.0-6.0-5.33","2823936","co38071","norming","","","","","","",""
"2115.830000002403","","","post_reveal_questions","survey-likert","243","824821","0.0-6.0-6.33","2823936","co38071","norming","","","{""aha"":4}","[0]","../img/tt/1066tt.jpg","",""
"null","<div style=""font-size:60px;""> </div>","null","fixation","html-keyboard-response","244","825023","0.0-6.0-0.34","2823936","co38071","norming","","","","","","",""
"null","../img/tt/121tt.jpg","null","mooney1","image-keyboard-response","245","828031","0.0-6.0-1.34","2823936","co38071","norming","","","","","","",""
"4907.0499999980675","","","post_mooney1_questions","survey-likert","246","832941","0.0-6.0-2.34","2823936","co38071","norming","","","{""curiosity"":4,""confidence"":2}","[0,1]","../img/tt/121tt.jpg","",""
"1894.0299999994459","","","recognition","survey-text","247","834836","0.0-6.0-3.34","2823936","co38071","norming","","","{""guess"":""lake""}","","../img/tt/121tt.jpg","",""
"null","../img/gs/121gs.jpg","null","reveal","image-keyboard-response","248","836839","0.0-6.0-4.34","2823936","co38071","norming","","","","","","",""
"null","../img/tt/121tt.jpg","null","mooney2","image-keyboard-response","249","838842","0.0-6.0-5.34","2823936","co38071","norming","","","","","","",""
"2912.0100000000093","","","post_reveal_questions","survey-likert","250","841757","0.0-6.0-6.34","2823936","co38071","norming","","","{""aha"":4}","[0]","../img/tt/121tt.jpg","",""
"null","<div style=""font-size:60px;""> </div>","null","fixation","html-keyboard-response","251","841966","0.0-6.0-0.35","2823936","co38071","norming","","","","","","",""
"null","../img/tt/1254tt.jpg","null","mooney1","image-keyboard-response","252","844975","0.0-6.0-1.35","2823936","co38071","norming","","","","","","",""
"3027.0800000034506","","","post_mooney1_questions","survey-likert","253","848005","0.0-6.0-2.35","2823936","co38071","norming","","","{""curiosity"":4,""confidence"":1}","[0,1]","../img/tt/1254tt.jpg","",""
"2142.19999999844","","","recognition","survey-text","254","850149","0.0-6.0-3.35","2823936","co38071","norming","","","{""guess"":""cat""}","","../img/tt/1254tt.jpg","",""
"null","../img/gs/1254gs.jpg","null","reveal","image-keyboard-response","255","852158","0.0-6.0-4.35","2823936","co38071","norming","","","","","","",""
"null","../img/tt/1254tt.jpg","null","mooney2","image-keyboard-response","256","854161","0.0-6.0-5.35","2823936","co38071","norming","","","","","","",""
"1473.415000000503","","","post_reveal_questions","survey-likert","257","855637","0.0-6.0-6.35","2823936","co38071","norming","","","{""aha"":5}","[0]","../img/tt/1254tt.jpg","",""
"null","<div style=""font-size:60px;""> </div>","null","fixation","html-keyboard-response","258","855838","0.0-6.0-0.36","2823936","co38071","norming","","","","","","",""
"null","../img/tt/270tt.jpg","null","mooney1","image-keyboard-response","259","858842","0.0-6.0-1.36","2823936","co38071","norming","","","","","","",""
"4591.705000002636","","","post_mooney1_questions","survey-likert","260","863437","0.0-6.0-2.36","2823936","co38071","norming","","","{""curiosity"":5,""confidence"":0}","[0,1]","../img/tt/270tt.jpg","",""
"2886.0050000002375","","","recognition","survey-text","261","866324","0.0-6.0-3.36","2823936","co38071","norming","","","{""guess"":""forest""}","","../img/tt/270tt.jpg","",""
"null","../img/gs/270gs.jpg","null","reveal","image-keyboard-response","262","868334","0.0-6.0-4.36","2823936","co38071","norming","","","","","","",""
"null","../img/tt/270tt.jpg","null","mooney2","image-keyboard-response","263","870341","0.0-6.0-5.36","2823936","co38071","norming","","","","","","",""
"2541.4099999980535","","","post_reveal_questions","survey-likert","264","872885","0.0-6.0-6.36","2823936","co38071","norming","","","{""aha"":1}","[0]","../img/tt/270tt.jpg","",""
"null","<div style=""font-size:60px;""> </div>","null","fixation","html-keyboard-response","265","873088","0.0-6.0-0.37","2823936","co38071","norming","","","","","","",""
"null","../img/tt/1199tt.jpg","null","mooney1","image-keyboard-response","266","876092","0.0-6.0-1.37","2823936","co38071","norming","","","","","","",""
"4935.119999998249","","","post_mooney1_questions","survey-likert","267","881030","0.0-6.0-2.37","2823936","co38071","norming","","","{""curiosity"":4,""confidence"":3}","[0,1]","../img/tt/1199tt.jpg","",""
"6830.074999997974","","","recognition","survey-text","268","887861","0.0-6.0-3.37","2823936","co38071","norming","","","{""guess"":""human watching""}","","../img/tt/1199tt.jpg","",""
"null","../img/gs/1199gs.jpg","null","reveal","image-keyboard-response","269","889869","0.0-6.0-4.37","2823936","co38071","norming","","","","","","",""
"null","../img/tt/1199tt.jpg","null","mooney2","image-keyboard-response","270","891873","0.0-6.0-5.37","2823936","co38071","norming","","","","","","",""
"2594.1100000018487","","","post_reveal_questions","survey-likert","271","894469","0.0-6.0-6.37","2823936","co38071","norming","","","{""aha"":4}","[0]","../img/tt/1199tt.jpg","",""
"null","<div style=""font-size:60px;""> </div>","null","fixation","html-keyboard-response","272","894678","0.0-6.0-0.38","2823936","co38071","norming","","","","","","",""
"null","../img/tt/1086tt.jpg","null","mooney1","image-keyboard-response","273","897685","0.0-6.0-1.38","2823936","co38071","norming","","","","","","",""
"4911.215000000084","","","post_mooney1_questions","survey-likert","274","902597","0.0-6.0-2.38","2823936","co38071","norming","","","{""curiosity"":5,""confidence"":3}","[0,1]","../img/tt/1086tt.jpg","",""
"2446.1200000005774","","","recognition","survey-text","275","905045","0.0-6.0-3.38","2823936","co38071","norming","","","{""guess"":""husky""}","","../img/tt/1086tt.jpg","",""
"null","../img/gs/1086gs.jpg","null","reveal","image-keyboard-response","276","907051","0.0-6.0-4.38","2823936","co38071","norming","","","","","","",""
"null","../img/tt/1086tt.jpg","null","mooney2","image-keyboard-response","277","909056","0.0-6.0-5.38","2823936","co38071","norming","","","","","","",""
"3035.775000000256","","","post_reveal_questions","survey-likert","278","912093","0.0-6.0-6.38","2823936","co38071","norming","","","{""aha"":1}","[0]","../img/tt/1086tt.jpg","",""
"null","<div style=""font-size:60px;""> </div>","null","fixation","html-keyboard-response","279","912296","0.0-6.0-0.39","2823936","co38071","norming","","","","","","",""
"null","../img/tt/1278tt.jpg","null","mooney1","image-keyboard-response","280","915297","0.0-6.0-1.39","2823936","co38071","norming","","","","","","",""
"4779.259999999311","","","post_mooney1_questions","survey-likert","281","920077","0.0-6.0-2.39","2823936","co38071","norming","","","{""curiosity"":4,""confidence"":3}","[0,1]","../img/tt/1278tt.jpg","",""
"1958.2850000006147","","","recognition","survey-text","282","922037","0.0-6.0-3.39","2823936","co38071","norming","","","{""guess"":""dog""}","","../img/tt/1278tt.jpg","",""
"null","../img/gs/1278gs.jpg","null","reveal","image-keyboard-response","283","924048","0.0-6.0-4.39","2823936","co38071","norming","","","","","","",""
"null","../img/tt/1278tt.jpg","null","mooney2","image-keyboard-response","284","926055","0.0-6.0-5.39","2823936","co38071","norming","","","","","","",""
"1908.9399999974994","","","post_reveal_questions","survey-likert","285","927965","0.0-6.0-6.39","2823936","co38071","norming","","","{""aha"":4}","[0]","../img/tt/1278tt.jpg","",""
"null","<div style=""font-size:60px;""> </div>","null","fixation","html-keyboard-response","286","928169","0.0-6.0-0.40","2823936","co38071","norming","","","","","","",""
"null","../img/tt/1269tt.jpg","null","mooney1","image-keyboard-response","287","931171","0.0-6.0-1.40","2823936","co38071","norming","","","","","","",""
"4241.3249999991385","","","post_mooney1_questions","survey-likert","288","935414","0.0-6.0-2.40","2823936","co38071","norming","","","{""curiosity"":5,""confidence"":3}","[0,1]","../img/tt/1269tt.jpg","",""
"5198.120000000927","","","recognition","survey-text","289","940609","0.0-6.0-3.40","2823936","co38071","norming","","","{""guess"":""squirl""}","","../img/tt/1269tt.jpg","",""
"null","../img/gs/1269gs.jpg","null","reveal","image-keyboard-response","290","942618","0.0-6.0-4.40","2823936","co38071","norming","","","","","","",""
"null","../img/tt/1269tt.jpg","null","mooney2","image-keyboard-response","291","944620","0.0-6.0-5.40","2823936","co38071","norming","","","","","","",""
"5193.599999998696","","","post_reveal_questions","survey-likert","292","949816","0.0-6.0-6.40","2823936","co38071","norming","","","{""aha"":0}","[0]","../img/tt/1269tt.jpg","",""
"null","<div style=""font-size:60px;""> </div>","null","fixation","html-keyboard-response","293","950023","0.0-6.0-0.41","2823936","co38071","norming","","","","","","",""
"null","../img/tt/1232tt.jpg","null","mooney1","image-keyboard-response","294","953032","0.0-6.0-1.41","2823936","co38071","norming","","","","","","",""
"6061.180000000633","","","post_mooney1_questions","survey-likert","295","959097","0.0-6.0-2.41","2823936","co38071","norming","","","{""curiosity"":5,""confidence"":1}","[0,1]","../img/tt/1232tt.jpg","",""
"2054.1750000010943","","","recognition","survey-text","296","961153","0.0-6.0-3.41","2823936","co38071","norming","","","{""guess"":""dog""}","","../img/tt/1232tt.jpg","",""
"null","../img/gs/1232gs.jpg","null","reveal","image-keyboard-response","297","963159","0.0-6.0-4.41","2823936","co38071","norming","","","","","","",""
"null","../img/tt/1232tt.jpg","null","mooney2","image-keyboard-response","298","965161","0.0-6.0-5.41","2823936","co38071","norming","","","","","","",""
"2269.39499999932","","","post_reveal_questions","survey-likert","299","967432","0.0-6.0-6.41","2823936","co38071","norming","","","{""aha"":4}","[0]","../img/tt/1232tt.jpg","",""
"null","<div style=""font-size:60px;""> </div>","null","fixation","html-keyboard-response","300","967643","0.0-6.0-0.42","2823936","co38071","norming","","","","","","",""
"null","../img/tt/1070tt.jpg","null","mooney1","image-keyboard-response","301","970652","0.0-6.0-1.42","2823936","co38071","norming","","","","","","",""
"3329.075000001467","","","post_mooney1_questions","survey-likert","302","973985","0.0-6.0-2.42","2823936","co38071","norming","","","{""curiosity"":4,""confidence"":3}","[0,1]","../img/tt/1070tt.jpg","",""
"2174.125000001397","","","recognition","survey-text","303","976160","0.0-6.0-3.42","2823936","co38071","norming","","","{""guess"":""cake""}","","../img/tt/1070tt.jpg","",""
"null","../img/gs/1070gs.jpg","null","reveal","image-keyboard-response","304","978171","0.0-6.0-4.42","2823936","co38071","norming","","","","","","",""
"null","../img/tt/1070tt.jpg","null","mooney2","image-keyboard-response","305","980173","0.0-6.0-5.42","2823936","co38071","norming","","","","","","",""
"1702.7400000005728","","","post_reveal_questions","survey-likert","306","981881","0.0-6.0-6.42","2823936","co38071","norming","","","{""aha"":0}","[0]","../img/tt/1070tt.jpg","",""
"null","<div style=""font-size:60px;""> </div>","null","fixation","html-keyboard-response","307","982082","0.0-6.0-0.43","2823936","co38071","norming","","","","","","",""
"null","../img/tt/1247tt.jpg","null","mooney1","image-keyboard-response","308","985087","0.0-6.0-1.43","2823936","co38071","norming","","","","","","",""
"6926.4450000009965","","","post_mooney1_questions","survey-likert","309","992017","0.0-6.0-2.43","2823936","co38071","norming","","","{""curiosity"":4,""confidence"":3}","[0,1]","../img/tt/1247tt.jpg","",""
"2046.1299999988405","","","recognition","survey-text","310","994065","0.0-6.0-3.43","2823936","co38071","norming","","","{""guess"":""tiger""}","","../img/tt/1247tt.jpg","",""
"null","../img/gs/1247gs.jpg","null","reveal","image-keyboard-response","311","996075","0.0-6.0-4.43","2823936","co38071","norming","","","","","","",""
"null","../img/tt/1247tt.jpg","null","mooney2","image-keyboard-response","312","998085","0.0-6.0-5.43","2823936","co38071","norming","","","","","","",""
"4253.659999998519","","","post_reveal_questions","survey-likert","313","1002342","0.0-6.0-6.43","2823936","co38071","norming","","","{""aha"":0}","[0]","../img/tt/1247tt.jpg","",""
"null","<div style=""font-size:60px;""> </div>","null","fixation","html-keyboard-response","314","1002543","0.0-6.0-0.44","2823936","co38071","norming","","","","","","",""
"null","../img/tt/507tt.jpg","null","mooney1","image-keyboard-response","315","1005546","0.0-6.0-1.44","2823936","co38071","norming","","","","","","",""
"3225.0499999972526","","","post_mooney1_questions","survey-likert","316","1008774","0.0-6.0-2.44","2823936","co38071","norming","","","{""curiosity"":3,""confidence"":4}","[0,1]","../img/tt/507tt.jpg","",""
"2222.0050000032643","","","recognition","survey-text","317","1010998","0.0-6.0-3.44","2823936","co38071","norming","","","{""guess"":""woman""}","","../img/tt/507tt.jpg","",""
"null","../img/gs/507gs.jpg","null","reveal","image-keyboard-response","318","1013003","0.0-6.0-4.44","2823936","co38071","norming","","","","","","",""
"null","../img/tt/507tt.jpg","null","mooney2","image-keyboard-response","319","1015006","0.0-6.0-5.44","2823936","co38071","norming","","","","","","",""
"5061.854999999981","","","post_reveal_questions","survey-likert","320","1020070","0.0-6.0-6.44","2823936","co38071","norming","","","{""aha"":0}","[0]","../img/tt/507tt.jpg","",""
"null","<div style=""font-size:60px;""> </div>","null","fixation","html-keyboard-response","321","1020280","0.0-6.0-0.45","2823936","co38071","norming","","","","","","",""
"null","../img/tt/189tt.jpg","null","mooney1","image-keyboard-response","322","1023290","0.0-6.0-1.45","2823936","co38071","norming","","","","","","",""
"4074.484999997425","","","post_mooney1_questions","survey-likert","323","1027366","0.0-6.0-2.45","2823936","co38071","norming","","","{""curiosity"":4,""confidence"":4}","[0,1]","../img/tt/189tt.jpg","",""
"4074.6749999998137","","","recognition","survey-text","324","1031446","0.0-6.0-3.45","2823936","co38071","norming","","","{""guess"":""sitting man""}","","../img/tt/189tt.jpg","",""
"null","../img/gs/189gs.jpg","null","reveal","image-keyboard-response","325","1033450","0.0-6.0-4.45","2823936","co38071","norming","","","","","","",""
"null","../img/tt/189tt.jpg","null","mooney2","image-keyboard-response","326","1035460","0.0-6.0-5.45","2823936","co38071","norming","","","","","","",""
"2102.900000001653","","","post_reveal_questions","survey-likert","327","1037566","0.0-6.0-6.45","2823936","co38071","norming","","","{""aha"":2}","[0]","../img/tt/189tt.jpg","",""
"null","<div style=""font-size:60px;""> </div>","null","fixation","html-keyboard-response","328","1037771","0.0-6.0-0.46","2823936","co38071","norming","","","","","","",""
"null","../img/tt/442tt.jpg","null","mooney1","image-keyboard-response","329","1040780","0.0-6.0-1.46","2823936","co38071","norming","","","","","","",""
"4782.49499999953","","","post_mooney1_questions","survey-likert","330","1045566","0.0-6.0-2.46","2823936","co38071","norming","","","{""curiosity"":4,""confidence"":1}","[0,1]","../img/tt/442tt.jpg","",""
"3701.95500000054","","","recognition","survey-text","331","1049270","0.0-6.0-3.46","2823936","co38071","norming","","","{""guess"":""flower""}","","../img/tt/442tt.jpg","",""
"null","../img/gs/442gs.jpg","null","reveal","image-keyboard-response","332","1051275","0.0-6.0-4.46","2823936","co38071","norming","","","","","","",""
"null","../img/tt/442tt.jpg","null","mooney2","image-keyboard-response","333","1053277","0.0-6.0-5.46","2823936","co38071","norming","","","","","","",""
"2584.5200000004843","","","post_reveal_questions","survey-likert","334","1055862","0.0-6.0-6.46","2823936","co38071","norming","","","{""aha"":1}","[0]","../img/tt/442tt.jpg","",""
"null","<div style=""font-size:60px;""> </div>","null","fixation","html-keyboard-response","335","1056063","0.0-6.0-0.47","2823936","co38071","norming","","","","","","",""
"null","../img/tt/111tt.jpg","null","mooney1","image-keyboard-response","336","1059066","0.0-6.0-1.47","2823936","co38071","norming","","","","","","",""
"6648.460000000196","","","post_mooney1_questions","survey-likert","337","1065718","0.0-6.0-2.47","2823936","co38071","norming","","","{""curiosity"":4,""confidence"":0}","[0,1]","../img/tt/111tt.jpg","",""
"1901.8900000008289","","","recognition","survey-text","338","1067622","0.0-6.0-3.47","2823936","co38071","norming","","","{""guess"":""sea""}","","../img/tt/111tt.jpg","",""
"null","../img/gs/111gs.jpg","null","reveal","image-keyboard-response","339","1069623","0.0-6.0-4.47","2823936","co38071","norming","","","","","","",""
"null","../img/tt/111tt.jpg","null","mooney2","image-keyboard-response","340","1071625","0.0-6.0-5.47","2823936","co38071","norming","","","","","","",""
"1930.2700000007171","","","post_reveal_questions","survey-likert","341","1073558","0.0-6.0-6.47","2823936","co38071","norming","","","{""aha"":3}","[0]","../img/tt/111tt.jpg","",""
"null","<div style=""font-size:60px;""> </div>","null","fixation","html-keyboard-response","342","1073764","0.0-6.0-0.48","2823936","co38071","norming","","","","","","",""
"null","../img/tt/124tt.jpg","null","mooney1","image-keyboard-response","343","1076774","0.0-6.0-1.48","2823936","co38071","norming","","","","","","",""
"4188.89499999932","","","post_mooney1_questions","survey-likert","344","1080966","0.0-6.0-2.48","2823936","co38071","norming","","","{""curiosity"":4,""confidence"":1}","[0,1]","../img/tt/124tt.jpg","",""
"3006.255000000354","","","recognition","survey-text","345","1083974","0.0-6.0-3.48","2823936","co38071","norming","","","{""guess"":""stairs""}","","../img/tt/124tt.jpg","",""
"null","../img/gs/124gs.jpg","null","reveal","image-keyboard-response","346","1085979","0.0-6.0-4.48","2823936","co38071","norming","","","","","","",""
"null","../img/tt/124tt.jpg","null","mooney2","image-keyboard-response","347","1087982","0.0-6.0-5.48","2823936","co38071","norming","","","","","","",""
"1605.8000000012107","","","post_reveal_questions","survey-likert","348","1089590","0.0-6.0-6.48","2823936","co38071","norming","","","{""aha"":5}","[0]","../img/tt/124tt.jpg","",""
"null","<div style=""font-size:60px;""> </div>","null","fixation","html-keyboard-response","349","1089797","0.0-6.0-0.49","2823936","co38071","norming","","","","","","",""
"null","../img/tt/1091tt.jpg","null","mooney1","image-keyboard-response","350","1092809","0.0-6.0-1.49","2823936","co38071","norming","","","","","","",""
"3649.470000000205","","","post_mooney1_questions","survey-likert","351","1096462","0.0-6.0-2.49","2823936","co38071","norming","","","{""curiosity"":5,""confidence"":2}","[0,1]","../img/tt/1091tt.jpg","",""
"3766.305000001099","","","recognition","survey-text","352","1100230","0.0-6.0-3.49","2823936","co38071","norming","","","{""guess"":""horse""}","","../img/tt/1091tt.jpg","",""
"null","../img/gs/1091gs.jpg","null","reveal","image-keyboard-response","353","1102238","0.0-6.0-4.49","2823936","co38071","norming","","","","","","",""
"null","../img/tt/1091tt.jpg","null","mooney2","image-keyboard-response","354","1104249","0.0-6.0-5.49","2823936","co38071","norming","","","","","","",""
"2627.9600000015926","","","post_reveal_questions","survey-likert","355","1106878","0.0-6.0-6.49","2823936","co38071","norming","","","{""aha"":0}","[0]","../img/tt/1091tt.jpg","",""
"null","<div style=""font-size:60px;""> </div>","null","fixation","html-keyboard-response","356","1107080","0.0-6.0-0.50","2823936","co38071","norming","","","","","","",""
"null","../img/tt/1080tt.jpg","null","mooney1","image-keyboard-response","357","1110090","0.0-6.0-1.50","2823936","co38071","norming","","","","","","",""
"4320.940000001574","","","post_mooney1_questions","survey-likert","358","1114414","0.0-6.0-2.50","2823936","co38071","norming","","","{""curiosity"":4,""confidence"":4}","[0,1]","../img/tt/1080tt.jpg","",""
"5030.165000000037","","","recognition","survey-text","359","1119446","0.0-6.0-3.50","2823936","co38071","norming","","","{""guess"":""goat""}","","../img/tt/1080tt.jpg","",""
"null","../img/gs/1080gs.jpg","null","reveal","image-keyboard-response","360","1121454","0.0-6.0-4.50","2823936","co38071","norming","","","","","","",""
"null","../img/tt/1080tt.jpg","null","mooney2","image-keyboard-response","361","1123457","0.0-6.0-5.50","2823936","co38071","norming","","","","","","",""
"3586.7250000010245","","","post_reveal_questions","survey-likert","362","1127046","0.0-6.0-6.50","2823936","co38071","norming","","","{""aha"":0}","[0]","../img/tt/1080tt.jpg","",""
"null","<div style=""font-size:60px;""> </div>","null","fixation","html-keyboard-response","363","1127252","0.0-6.0-0.51","2823936","co38071","norming","","","","","","",""
"null","../img/tt/517tt.jpg","null","mooney1","image-keyboard-response","364","1130256","0.0-6.0-1.51","2823936","co38071","norming","","","","","","",""
"6355.260000000475","","","post_mooney1_questions","survey-likert","365","1136614","0.0-6.0-2.51","2823936","co38071","norming","","","{""curiosity"":4,""confidence"":1}","[0,1]","../img/tt/517tt.jpg","",""
"2942.2650000015274","","","recognition","survey-text","366","1139558","0.0-6.0-3.51","2823936","co38071","norming","","","{""guess"":""hamster""}","","../img/tt/517tt.jpg","",""
"null","../img/gs/517gs.jpg","null","reveal","image-keyboard-response","367","1141560","0.0-6.0-4.51","2823936","co38071","norming","","","","","","",""
"null","../img/tt/517tt.jpg","null","mooney2","image-keyboard-response","368","1143565","0.0-6.0-5.51","2823936","co38071","norming","","","","","","",""
"2486.055000001332","","","post_reveal_questions","survey-likert","369","1146054","0.0-6.0-6.51","2823936","co38071","norming","","","{""aha"":3}","[0]","../img/tt/517tt.jpg","",""
"null","<div style=""font-size:60px;""> </div>","null","fixation","html-keyboard-response","370","1146264","0.0-6.0-0.52","2823936","co38071","norming","","","","","","",""
"null","../img/tt/1078tt.jpg","null","mooney1","image-keyboard-response","371","1149269","0.0-6.0-1.52","2823936","co38071","norming","","","","","","",""
"4080.6349999983795","","","post_mooney1_questions","survey-likert","372","1153351","0.0-6.0-2.52","2823936","co38071","norming","","","{""curiosity"":4,""confidence"":4}","[0,1]","../img/tt/1078tt.jpg","",""
"4381.894999998622","","","recognition","survey-text","373","1157734","0.0-6.0-3.52","2823936","co38071","norming","","","{""guess"":""sitting people""}","","../img/tt/1078tt.jpg","",""
"null","../img/gs/1078gs.jpg","null","reveal","image-keyboard-response","374","1159744","0.0-6.0-4.52","2823936","co38071","norming","","","","","","",""
"null","../img/tt/1078tt.jpg","null","mooney2","image-keyboard-response","375","1161746","0.0-6.0-5.52","2823936","co38071","norming","","","","","","",""
"2385.734999999637","","","post_reveal_questions","survey-likert","376","1164134","0.0-6.0-6.52","2823936","co38071","norming","","","{""aha"":2}","[0]","../img/tt/1078tt.jpg","",""
"null","<div style=""font-size:60px;""> </div>","null","fixation","html-keyboard-response","377","1164338","0.0-6.0-0.53","2823936","co38071","norming","","","","","","",""
"null","../img/tt/013tt.jpg","null","mooney1","image-keyboard-response","378","1167341","0.0-6.0-1.53","2823936","co38071","norming","","","","","","",""
"4775.6599999994505","","","post_mooney1_questions","survey-likert","379","1172118","0.0-6.0-2.53","2823936","co38071","norming","","","{""curiosity"":5,""confidence"":0}","[0,1]","../img/tt/013tt.jpg","",""
"2894.295000002021","","","recognition","survey-text","380","1175014","0.0-6.0-3.53","2823936","co38071","norming","","","{""guess"":""jacket""}","","../img/tt/013tt.jpg","",""
"null","../img/gs/013gs.jpg","null","reveal","image-keyboard-response","381","1177024","0.0-6.0-4.53","2823936","co38071","norming","","","","","","",""
"null","../img/tt/013tt.jpg","null","mooney2","image-keyboard-response","382","1179031","0.0-6.0-5.53","2823936","co38071","norming","","","","","","",""
"2156.340000001481","","","post_reveal_questions","survey-likert","383","1181189","0.0-6.0-6.53","2823936","co38071","norming","","","{""aha"":4}","[0]","../img/tt/013tt.jpg","",""
"null","<div style=""font-size:60px;""> </div>","null","fixation","html-keyboard-response","384","1181397","0.0-6.0-0.54","2823936","co38071","norming","","","","","","",""
"null","../img/tt/1228tt.jpg","null","mooney1","image-keyboard-response","385","1184403","0.0-6.0-1.54","2823936","co38071","norming","","","","","","",""
"4838.909999998519","","","post_mooney1_questions","survey-likert","386","1189245","0.0-6.0-2.54","2823936","co38071","norming","","","{""curiosity"":5,""confidence"":1}","[0,1]","../img/tt/1228tt.jpg","",""
"2421.9100000008475","","","recognition","survey-text","387","1191669","0.0-6.0-3.54","2823936","co38071","norming","","","{""guess"":""bird""}","","../img/tt/1228tt.jpg","",""
"null","../img/gs/1228gs.jpg","null","reveal","image-keyboard-response","388","1193674","0.0-6.0-4.54","2823936","co38071","norming","","","","","","",""
"null","../img/tt/1228tt.jpg","null","mooney2","image-keyboard-response","389","1195677","0.0-6.0-5.54","2823936","co38071","norming","","","","","","",""
"2613.7300000009127","","","post_reveal_questions","survey-likert","390","1198293","0.0-6.0-6.54","2823936","co38071","norming","","","{""aha"":4}","[0]","../img/tt/1228tt.jpg","",""
"null","<div style=""font-size:60px;""> </div>","null","fixation","html-keyboard-response","391","1198498","0.0-6.0-0.55","2823936","co38071","norming","","","","","","",""
"null","../img/tt/1027tt.jpg","null","mooney1","image-keyboard-response","392","1201511","0.0-6.0-1.55","2823936","co38071","norming","","","","","","",""
"5426.999999999767","","","post_mooney1_questions","survey-likert","393","1206941","0.0-6.0-2.55","2823936","co38071","norming","","","{""curiosity"":5,""confidence"":3}","[0,1]","../img/tt/1027tt.jpg","",""
"3126.1349999986123","","","recognition","survey-text","394","1210069","0.0-6.0-3.55","2823936","co38071","norming","","","{""guess"":""cow""}","","../img/tt/1027tt.jpg","",""
"null","../img/gs/1027gs.jpg","null","reveal","image-keyboard-response","395","1212078","0.0-6.0-4.55","2823936","co38071","norming","","","","","","",""
"null","../img/tt/1027tt.jpg","null","mooney2","image-keyboard-response","396","1214080","0.0-6.0-5.55","2823936","co38071","norming","","","","","","",""
"3499.064999999944","","","post_reveal_questions","survey-likert","397","1217581","0.0-6.0-6.55","2823936","co38071","norming","","","{""aha"":0}","[0]","../img/tt/1027tt.jpg","",""
"null","<div style=""font-size:60px;""> </div>","null","fixation","html-keyboard-response","398","1217784","0.0-6.0-0.56","2823936","co38071","norming","","","","","","",""
"null","../img/tt/076tt.jpg","null","mooney1","image-keyboard-response","399","1220788","0.0-6.0-1.56","2823936","co38071","norming","","","","","","",""
"4262.18499999959","","","post_mooney1_questions","survey-likert","400","1225054","0.0-6.0-2.56","2823936","co38071","norming","","","{""curiosity"":4,""confidence"":4}","[0,1]","../img/tt/076tt.jpg","",""
"6469.775000001304","","","recognition","survey-text","401","1231525","0.0-6.0-3.56","2823936","co38071","norming","","","{""guess"":""roller skates""}","","../img/tt/076tt.jpg","",""
"null","../img/gs/076gs.jpg","null","reveal","image-keyboard-response","402","1233526","0.0-6.0-4.56","2823936","co38071","norming","","","","","","",""
"null","../img/tt/076tt.jpg","null","mooney2","image-keyboard-response","403","1235529","0.0-6.0-5.56","2823936","co38071","norming","","","","","","",""
"1930.039999999106","","","post_reveal_questions","survey-likert","404","1237461","0.0-6.0-6.56","2823936","co38071","norming","","","{""aha"":0}","[0]","../img/tt/076tt.jpg","",""
"null","<div style=""font-size:60px;""> </div>","null","fixation","html-keyboard-response","405","1237670","0.0-6.0-0.57","2823936","co38071","norming","","","","","","",""
"null","../img/tt/1142tt.jpg","null","mooney1","image-keyboard-response","406","1240681","0.0-6.0-1.57","2823936","co38071","norming","","","","","","",""
"3385.6500000001397","","","post_mooney1_questions","survey-likert","407","1244070","0.0-6.0-2.57","2823936","co38071","norming","","","{""curiosity"":4,""confidence"":4}","[0,1]","../img/tt/1142tt.jpg","",""
"6350.379999999888","","","recognition","survey-text","408","1250422","0.0-6.0-3.57","2823936","co38071","norming","","","{""guess"":""jumping human""}","","../img/tt/1142tt.jpg","",""
"null","../img/gs/1142gs.jpg","null","reveal","image-keyboard-response","409","1252424","0.0-6.0-4.57","2823936","co38071","norming","","","","","","",""
"null","../img/tt/1142tt.jpg","null","mooney2","image-keyboard-response","410","1254427","0.0-6.0-5.57","2823936","co38071","norming","","","","","","",""
"5464.789999998175","","","post_reveal_questions","survey-likert","411","1259894","0.0-6.0-6.57","2823936","co38071","norming","","","{""aha"":0}","[0]","../img/tt/1142tt.jpg","",""
"null","<div style=""font-size:60px;""> </div>","null","fixation","html-keyboard-response","412","1260100","0.0-6.0-0.58","2823936","co38071","norming","","","","","","",""
"null","../img/tt/1200tt.jpg","null","mooney1","image-keyboard-response","413","1263110","0.0-6.0-1.58","2823936","co38071","norming","","","","","","",""
"3797.1399999987334","","","post_mooney1_questions","survey-likert","414","1266911","0.0-6.0-2.58","2823936","co38071","norming","","","{""curiosity"":4,""confidence"":1}","[0,1]","../img/tt/1200tt.jpg","",""
"2646.0349999978207","","","recognition","survey-text","415","1269558","0.0-6.0-3.58","2823936","co38071","norming","","","{""guess"":""boat""}","","../img/tt/1200tt.jpg","",""
"null","../img/gs/1200gs.jpg","null","reveal","image-keyboard-response","416","1271561","0.0-6.0-4.58","2823936","co38071","norming","","","","","","",""
"null","../img/tt/1200tt.jpg","null","mooney2","image-keyboard-response","417","1273564","0.0-6.0-5.58","2823936","co38071","norming","","","","","","",""
"2008.2049999982119","","","post_reveal_questions","survey-likert","418","1275574","0.0-6.0-6.58","2823936","co38071","norming","","","{""aha"":4}","[0]","../img/tt/1200tt.jpg","",""
"null","<div style=""font-size:60px;""> </div>","null","fixation","html-keyboard-response","419","1275776","0.0-6.0-0.59","2823936","co38071","norming","","","","","","",""
"null","../img/tt/063tt.jpg","null","mooney1","image-keyboard-response","420","1278782","0.0-6.0-1.59","2823936","co38071","norming","","","","","","",""
"4100.7949999985285","","","post_mooney1_questions","survey-likert","421","1282886","0.0-6.0-2.59","2823936","co38071","norming","","","{""curiosity"":4,""confidence"":4}","[0,1]","../img/tt/063tt.jpg","",""
"7326.170000000158","","","recognition","survey-text","422","1290214","0.0-6.0-3.59","2823936","co38071","norming","","","{""guess"":""harmonica""}","","../img/tt/063tt.jpg","",""
"null","../img/gs/063gs.jpg","null","reveal","image-keyboard-response","423","1292222","0.0-6.0-4.59","2823936","co38071","norming","","","","","","",""
"null","../img/tt/063tt.jpg","null","mooney2","image-keyboard-response","424","1294224","0.0-6.0-5.59","2823936","co38071","norming","","","","","","",""
"2771.0599999991246","","","post_reveal_questions","survey-likert","425","1296998","0.0-6.0-6.59","2823936","co38071","norming","","","{""aha"":0}","[0]","../img/tt/063tt.jpg","",""
"null","<div style=""font-size:60px;""> </div>","null","fixation","html-keyboard-response","426","1297204","0.0-6.0-0.60","2823936","co38071","norming","","","","","","",""
"null","../img/tt/1283tt.jpg","null","mooney1","image-keyboard-response","427","1300208","0.0-6.0-1.60","2823936","co38071","norming","","","","","","",""
"5163.039999999339","","","post_mooney1_questions","survey-likert","428","1305374","0.0-6.0-2.60","2823936","co38071","norming","","","{""curiosity"":4,""confidence"":1}","[0,1]","../img/tt/1283tt.jpg","",""
"2598.0000000018626","","","recognition","survey-text","429","1307974","0.0-6.0-3.60","2823936","co38071","norming","","","{""guess"":""forest""}","","../img/tt/1283tt.jpg","",""
"null","../img/gs/1283gs.jpg","null","reveal","image-keyboard-response","430","1309976","0.0-6.0-4.60","2823936","co38071","norming","","","","","","",""
"null","../img/tt/1283tt.jpg","null","mooney2","image-keyboard-response","431","1311979","0.0-6.0-5.60","2823936","co38071","norming","","","","","","",""
"3824.724999998696","","","post_reveal_questions","survey-likert","432","1315806","0.0-6.0-6.60","2823936","co38071","norming","","","{""aha"":3}","[0]","../img/tt/1283tt.jpg","",""
"null","<div style=""font-size:60px;""> </div>","null","fixation","html-keyboard-response","433","1316012","0.0-6.0-0.61","2823936","co38071","norming","","","","","","",""
"null","../img/tt/1043tt.jpg","null","mooney1","image-keyboard-response","434","1319018","0.0-6.0-1.61","2823936","co38071","norming","","","","","","",""
"4504.670000002021","","","post_mooney1_questions","survey-likert","435","1323526","0.0-6.0-2.61","2823936","co38071","norming","","","{""curiosity"":4,""confidence"":1}","[0,1]","../img/tt/1043tt.jpg","",""
"3550.2349999987055","","","recognition","survey-text","436","1327078","0.0-6.0-3.61","2823936","co38071","norming","","","{""guess"":""bridge""}","","../img/tt/1043tt.jpg","",""
"null","../img/gs/1043gs.jpg","null","reveal","image-keyboard-response","437","1329083","0.0-6.0-4.61","2823936","co38071","norming","","","","","","",""
"null","../img/tt/1043tt.jpg","null","mooney2","image-keyboard-response","438","1331087","0.0-6.0-5.61","2823936","co38071","norming","","","","","","",""
"2692.709999999497","","","post_reveal_questions","survey-likert","439","1333782","0.0-6.0-6.61","2823936","co38071","norming","","","{""aha"":4}","[0]","../img/tt/1043tt.jpg","",""
"null","<div style=""font-size:60px;""> </div>","null","fixation","html-keyboard-response","440","1333983","0.0-6.0-0.62","2823936","co38071","norming","","","","","","",""
"null","../img/tt/1268tt.jpg","null","mooney1","image-keyboard-response","441","1336989","0.0-6.0-1.62","2823936","co38071","norming","","","","","","",""
"3453.5600000016857","","","post_mooney1_questions","survey-likert","442","1340446","0.0-6.0-2.62","2823936","co38071","norming","","","{""curiosity"":4,""confidence"":0}","[0,1]","../img/tt/1268tt.jpg","",""
"6261.949999999953","","","recognition","survey-text","443","1346710","0.0-6.0-3.62","2823936","co38071","norming","","","{""guess"":""walking human""}","","../img/tt/1268tt.jpg","",""
"null","../img/gs/1268gs.jpg","null","reveal","image-keyboard-response","444","1348720","0.0-6.0-4.62","2823936","co38071","norming","","","","","","",""
"null","../img/tt/1268tt.jpg","null","mooney2","image-keyboard-response","445","1350731","0.0-6.0-5.62","2823936","co38071","norming","","","","","","",""
"4240.24500000081","","","post_reveal_questions","survey-likert","446","1354974","0.0-6.0-6.62","2823936","co38071","norming","","","{""aha"":3}","[0]","../img/tt/1268tt.jpg","",""
"null","<div style=""font-size:60px;""> </div>","null","fixation","html-keyboard-response","447","1355178","0.0-6.0-0.63","2823936","co38071","norming","","","","","","",""
"null","../img/tt/584tt.jpg","null","mooney1","image-keyboard-response","448","1358182","0.0-6.0-1.63","2823936","co38071","norming","","","","","","",""
"3645.244999999646","","","post_mooney1_questions","survey-likert","449","1361823","0.0-6.0-2.63","2823936","co38071","norming","","","{""curiosity"":4,""confidence"":0}","[0,1]","../img/tt/584tt.jpg","",""
"3773.914999997942","","","recognition","survey-text","450","1365599","0.0-6.0-3.63","2823936","co38071","norming","","","{""guess"":""flower""}","","../img/tt/584tt.jpg","",""
"null","../img/gs/584gs.jpg","null","reveal","image-keyboard-response","451","1367601","0.0-6.0-4.63","2823936","co38071","norming","","","","","","",""
"null","../img/tt/584tt.jpg","null","mooney2","image-keyboard-response","452","1369603","0.0-6.0-5.63","2823936","co38071","norming","","","","","","",""
"1505.535000000149","","","post_reveal_questions","survey-likert","453","1371111","0.0-6.0-6.63","2823936","co38071","norming","","","{""aha"":0}","[0]","../img/tt/584tt.jpg","",""
"null","<div style=""font-size:60px;""> </div>","null","fixation","html-keyboard-response","454","1371312","0.0-6.0-0.64","2823936","co38071","norming","","","","","","",""
"null","../img/tt/194tt.jpg","null","mooney1","image-keyboard-response","455","1374316","0.0-6.0-1.64","2823936","co38071","norming","","","","","","",""
"5054.615000000922","","","post_mooney1_questions","survey-likert","456","1379375","0.0-6.0-2.64","2823936","co38071","norming","","","{""curiosity"":5,""confidence"":4}","[0,1]","../img/tt/194tt.jpg","",""
"5374.199999998556","","","recognition","survey-text","457","1384751","0.0-6.0-3.64","2823936","co38071","norming","","","{""guess"":""sitting girl""}","","../img/tt/194tt.jpg","",""
"null","../img/gs/194gs.jpg","null","reveal","image-keyboard-response","458","1386759","0.0-6.0-4.64","2823936","co38071","norming","","","","","","",""
"null","../img/tt/194tt.jpg","null","mooney2","image-keyboard-response","459","1388768","0.0-6.0-5.64","2823936","co38071","norming","","","","","","",""
"2771.2949999985285","","","post_reveal_questions","survey-likert","460","1391543","0.0-6.0-6.64","2823936","co38071","norming","","","{""aha"":1}","[0]","../img/tt/194tt.jpg","",""
"null","<div style=""font-size:60px;""> </div>","null","fixation","html-keyboard-response","461","1391750","0.0-6.0-0.65","2823936","co38071","norming","","","","","","",""
"null","../img/tt/1033tt.jpg","null","mooney1","image-keyboard-response","462","1394756","0.0-6.0-1.65","2823936","co38071","norming","","","","","","",""
"2878.9949999991804","","","post_mooney1_questions","survey-likert","463","1397639","0.0-6.0-2.65","2823936","co38071","norming","","","{""curiosity"":5,""confidence"":3}","[0,1]","../img/tt/1033tt.jpg","",""
"7446.115000002552","","","recognition","survey-text","464","1405087","0.0-6.0-3.65","2823936","co38071","norming","","","{""guess"":""fighting humans""}","","../img/tt/1033tt.jpg","",""
"null","../img/gs/1033gs.jpg","null","reveal","image-keyboard-response","465","1407095","0.0-6.0-4.65","2823936","co38071","norming","","","","","","",""
"null","../img/tt/1033tt.jpg","null","mooney2","image-keyboard-response","466","1409097","0.0-6.0-5.65","2823936","co38071","norming","","","","","","",""
"2691.1999999973923","","","post_reveal_questions","survey-likert","467","1411791","0.0-6.0-6.65","2823936","co38071","norming","","","{""aha"":1}","[0]","../img/tt/1033tt.jpg","",""
"null","<div style=""font-size:60px;""> </div>","null","fixation","html-keyboard-response","468","1411993","0.0-6.0-0.66","2823936","co38071","norming","","","","","","",""
"null","../img/tt/567tt.jpg","null","mooney1","image-keyboard-response","469","1414997","0.0-6.0-1.66","2823936","co38071","norming","","","","","","",""
"2950.4149999993388","","","post_mooney1_questions","survey-likert","470","1417951","0.0-6.0-2.66","2823936","co38071","norming","","","{""curiosity"":5,""confidence"":5}","[0,1]","../img/tt/567tt.jpg","",""
"8734.410000000848","","","recognition","survey-text","471","1426690","0.0-6.0-3.66","2823936","co38071","norming","","","{""guess"":""bread toaster""}","","../img/tt/567tt.jpg","",""
"null","../img/gs/567gs.jpg","null","reveal","image-keyboard-response","472","1428700","0.0-6.0-4.66","2823936","co38071","norming","","","","","","",""
"null","../img/tt/567tt.jpg","null","mooney2","image-keyboard-response","473","1430702","0.0-6.0-5.66","2823936","co38071","norming","","","","","","",""
"1361.0050000024494","","","post_reveal_questions","survey-likert","474","1432066","0.0-6.0-6.66","2823936","co38071","norming","","","{""aha"":0}","[0]","../img/tt/567tt.jpg","",""
"null","<div style=""font-size:60px;""> </div>","null","fixation","html-keyboard-response","475","1432267","0.0-6.0-0.67","2823936","co38071","norming","","","","","","",""
"null","../img/tt/438tt.jpg","null","mooney1","image-keyboard-response","476","1435269","0.0-6.0-1.67","2823936","co38071","norming","","","","","","",""
"2705.514999997802","","","post_mooney1_questions","survey-likert","477","1437978","0.0-6.0-2.67","2823936","co38071","norming","","","{""curiosity"":5,""confidence"":4}","[0,1]","../img/tt/438tt.jpg","",""
"2742.335000002524","","","recognition","survey-text","478","1440722","0.0-6.0-3.67","2823936","co38071","norming","","","{""guess"":""snake""}","","../img/tt/438tt.jpg","",""
"null","../img/gs/438gs.jpg","null","reveal","image-keyboard-response","479","1442730","0.0-6.0-4.67","2823936","co38071","norming","","","","","","",""
"null","../img/tt/438tt.jpg","null","mooney2","image-keyboard-response","480","1444734","0.0-6.0-5.67","2823936","co38071","norming","","","","","","",""
"1696.8749999976717","","","post_reveal_questions","survey-likert","481","1446434","0.0-6.0-6.67","2823936","co38071","norming","","","{""aha"":0}","[0]","../img/tt/438tt.jpg","",""
"null","<div style=""font-size:60px;""> </div>","null","fixation","html-keyboard-response","482","1446641","0.0-6.0-0.68","2823936","co38071","norming","","","","","","",""
"null","../img/tt/300tt.jpg","null","mooney1","image-keyboard-response","483","1449647","0.0-6.0-1.68","2823936","co38071","norming","","","","","","",""
"5759.519999999553","","","post_mooney1_questions","survey-likert","484","1455410","0.0-6.0-2.68","2823936","co38071","norming","","","{""curiosity"":4,""confidence"":2}","[0,1]","../img/tt/300tt.jpg","",""
"3534.0399999986403","","","recognition","survey-text","485","1458946","0.0-6.0-3.68","2823936","co38071","norming","","","{""guess"":""rat""}","","../img/tt/300tt.jpg","",""
"null","../img/gs/300gs.jpg","null","reveal","image-keyboard-response","486","1460955","0.0-6.0-4.68","2823936","co38071","norming","","","","","","",""
"null","../img/tt/300tt.jpg","null","mooney2","image-keyboard-response","487","1462965","0.0-6.0-5.68","2823936","co38071","norming","","","","","","",""
"3252.244999999646","","","post_reveal_questions","survey-likert","488","1466218","0.0-6.0-6.68","2823936","co38071","norming","","","{""aha"":4}","[0]","../img/tt/300tt.jpg","",""
"null","<div style=""font-size:60px;""> </div>","null","fixation","html-keyboard-response","489","1466425","0.0-6.0-0.69","2823936","co38071","norming","","","","","","",""
"null","../img/tt/019tt.jpg","null","mooney1","image-keyboard-response","490","1469434","0.0-6.0-1.69","2823936","co38071","norming","","","","","","",""
"2710.4350000007544","","","post_mooney1_questions","survey-likert","491","1472146","0.0-6.0-2.69","2823936","co38071","norming","","","{""curiosity"":4,""confidence"":3}","[0,1]","../img/tt/019tt.jpg","",""
"1934.1849999981932","","","recognition","survey-text","492","1474082","0.0-6.0-3.69","2823936","co38071","norming","","","{""guess"":""pen""}","","../img/tt/019tt.jpg","",""
"null","../img/gs/019gs.jpg","null","reveal","image-keyboard-response","493","1476090","0.0-6.0-4.69","2823936","co38071","norming","","","","","","",""
"null","../img/tt/019tt.jpg","null","mooney2","image-keyboard-response","494","1478093","0.0-6.0-5.69","2823936","co38071","norming","","","","","","",""
"2202.150000000838","","","post_reveal_questions","survey-likert","495","1480298","0.0-6.0-6.69","2823936","co38071","norming","","","{""aha"":1}","[0]","../img/tt/019tt.jpg","",""
"null","<div style=""font-size:60px;""> </div>","null","fixation","html-keyboard-response","496","1480508","0.0-6.0-0.70","2823936","co38071","norming","","","","","","",""
"null","../img/tt/123tt.jpg","null","mooney1","image-keyboard-response","497","1483517","0.0-6.0-1.70","2823936","co38071","norming","","","","","","",""
"3294.505000001751","","","post_mooney1_questions","survey-likert","498","1486815","0.0-6.0-2.70","2823936","co38071","norming","","","{""curiosity"":5,""confidence"":2}","[0,1]","../img/tt/123tt.jpg","",""
"4790.045000001555","","","recognition","survey-text","499","1491607","0.0-6.0-3.70","2823936","co38071","norming","","","{""guess"":""flat iron""}","","../img/tt/123tt.jpg","",""
"null","../img/gs/123gs.jpg","null","reveal","image-keyboard-response","500","1493617","0.0-6.0-4.70","2823936","co38071","norming","","","","","","",""
"null","../img/tt/123tt.jpg","null","mooney2","image-keyboard-response","501","1495620","0.0-6.0-5.70","2823936","co38071","norming","","","","","","",""
"1136.8800000019837","","","post_reveal_questions","survey-likert","502","1496759","0.0-6.0-6.70","2823936","co38071","norming","","","{""aha"":0}","[0]","../img/tt/123tt.jpg","",""
"null","<div style=""font-size:60px;""> </div>","null","fixation","html-keyboard-response","503","1496963","0.0-6.0-0.71","2823936","co38071","norming","","","","","","",""
"null","../img/tt/524tt.jpg","null","mooney1","image-keyboard-response","504","1499972","0.0-6.0-1.71","2823936","co38071","norming","","","","","","",""
"3047.1650000000373","","","post_mooney1_questions","survey-likert","505","1503023","0.0-6.0-2.71","2823936","co38071","norming","","","{""curiosity"":5,""confidence"":2}","[0,1]","../img/tt/524tt.jpg","",""
"3973.9549999975134","","","recognition","survey-text","506","1506999","0.0-6.0-3.71","2823936","co38071","norming","","","{""guess"":""buffalo""}","","../img/tt/524tt.jpg","",""
"null","../img/gs/524gs.jpg","null","reveal","image-keyboard-response","507","1509005","0.0-6.0-4.71","2823936","co38071","norming","","","","","","",""
"null","../img/tt/524tt.jpg","null","mooney2","image-keyboard-response","508","1511007","0.0-6.0-5.71","2823936","co38071","norming","","","","","","",""
"1677.6500000015367","","","post_reveal_questions","survey-likert","509","1512687","0.0-6.0-6.71","2823936","co38071","norming","","","{""aha"":1}","[0]","../img/tt/524tt.jpg","",""
"null","<div style=""font-size:60px;""> </div>","null","fixation","html-keyboard-response","510","1512888","0.0-6.0-0.72","2823936","co38071","norming","","","","","","",""
"null","../img/tt/1006tt.jpg","null","mooney1","image-keyboard-response","511","1515890","0.0-6.0-1.72","2823936","co38071","norming","","","","","","",""
"3730.0450000001583","","","post_mooney1_questions","survey-likert","512","1519623","0.0-6.0-2.72","2823936","co38071","norming","","","{""curiosity"":5,""confidence"":2}","[0,1]","../img/tt/1006tt.jpg","",""
"2653.900000001071","","","recognition","survey-text","513","1522279","0.0-6.0-3.72","2823936","co38071","norming","","","{""guess"":""cow""}","","../img/tt/1006tt.jpg","",""
"null","../img/gs/1006gs.jpg","null","reveal","image-keyboard-response","514","1524286","0.0-6.0-4.72","2823936","co38071","norming","","","","","","",""
"null","../img/tt/1006tt.jpg","null","mooney2","image-keyboard-response","515","1526295","0.0-6.0-5.72","2823936","co38071","norming","","","","","","",""
"4477.5200000002515","","","post_reveal_questions","survey-likert","516","1530775","0.0-6.0-6.72","2823936","co38071","norming","","","{""aha"":3}","[0]","../img/tt/1006tt.jpg","",""
"null","<div style=""font-size:60px;""> </div>","null","fixation","html-keyboard-response","517","1530980","0.0-6.0-0.73","2823936","co38071","norming","","","","","","",""
"null","../img/tt/1175tt.jpg","null","mooney1","image-keyboard-response","518","1533989","0.0-6.0-1.73","2823936","co38071","norming","","","","","","",""
"4023.0499999998137","","","post_mooney1_questions","survey-likert","519","1538015","0.0-6.0-2.73","2823936","co38071","norming","","","{""curiosity"":5,""confidence"":3}","[0,1]","../img/tt/1175tt.jpg","",""
"5270.014999998268","","","recognition","survey-text","520","1543287","0.0-6.0-3.73","2823936","co38071","norming","","","{""guess"":""staring woman""}","","../img/tt/1175tt.jpg","",""
"null","../img/gs/1175gs.jpg","null","reveal","image-keyboard-response","521","1545295","0.0-6.0-4.73","2823936","co38071","norming","","","","","","",""
"null","../img/tt/1175tt.jpg","null","mooney2","image-keyboard-response","522","1547296","0.0-6.0-5.73","2823936","co38071","norming","","","","","","",""
"2541.85000000149","","","post_reveal_questions","survey-likert","523","1549839","0.0-6.0-6.73","2823936","co38071","norming","","","{""aha"":4}","[0]","../img/tt/1175tt.jpg","",""
"null","<div style=""font-size:60px;""> </div>","null","fixation","html-keyboard-response","524","1550046","0.0-6.0-0.74","2823936","co38071","norming","","","","","","",""
"null","../img/tt/1154tt.jpg","null","mooney1","image-keyboard-response","525","1553055","0.0-6.0-1.74","2823936","co38071","norming","","","","","","",""
"3316.6500000006054","","","post_mooney1_questions","survey-likert","526","1556376","0.0-6.0-2.74","2823936","co38071","norming","","","{""curiosity"":5,""confidence"":2}","[0,1]","../img/tt/1154tt.jpg","",""
"4734.115000002785","","","recognition","survey-text","527","1561111","0.0-6.0-3.74","2823936","co38071","norming","","","{""guess"":""walking animal""}","","../img/tt/1154tt.jpg","",""
"null","../img/gs/1154gs.jpg","null","reveal","image-keyboard-response","528","1563113","0.0-6.0-4.74","2823936","co38071","norming","","","","","","",""
"null","../img/tt/1154tt.jpg","null","mooney2","image-keyboard-response","529","1565117","0.0-6.0-5.74","2823936","co38071","norming","","","","","","",""
"1742.7600000009406","","","post_reveal_questions","survey-likert","530","1566863","0.0-6.0-6.74","2823936","co38071","norming","","","{""aha"":3}","[0]","../img/tt/1154tt.jpg","",""
"null","<div style=""font-size:60px;""> </div>","null","fixation","html-keyboard-response","531","1567067","0.0-6.0-0.75","2823936","co38071","norming","","","","","","",""
"null","../img/tt/1226tt.jpg","null","mooney1","image-keyboard-response","532","1570075","0.0-6.0-1.75","2823936","co38071","norming","","","","","","",""
"3240.5249999973457","","","post_mooney1_questions","survey-likert","533","1573319","0.0-6.0-2.75","2823936","co38071","norming","","","{""curiosity"":4,""confidence"":3}","[0,1]","../img/tt/1226tt.jpg","",""
"5694.260000000242","","","recognition","survey-text","534","1579015","0.0-6.0-3.75","2823936","co38071","norming","","","{""guess"":""human sitting""}","","../img/tt/1226tt.jpg","",""
"null","../img/gs/1226gs.jpg","null","reveal","image-keyboard-response","535","1581019","0.0-6.0-4.75","2823936","co38071","norming","","","","","","",""
"null","../img/tt/1226tt.jpg","null","mooney2","image-keyboard-response","536","1583022","0.0-6.0-5.75","2823936","co38071","norming","","","","","","",""
"1806.2299999983516","","","post_reveal_questions","survey-likert","537","1584831","0.0-6.0-6.75","2823936","co38071","norming","","","{""aha"":3}","[0]","../img/tt/1226tt.jpg","",""
"null","<div style=""font-size:60px;""> </div>","null","fixation","html-keyboard-response","538","1585033","0.0-6.0-0.76","2823936","co38071","norming","","","","","","",""
"null","../img/tt/1186tt.jpg","null","mooney1","image-keyboard-response","539","1588040","0.0-6.0-1.76","2823936","co38071","norming","","","","","","",""
"3828.19000000041","","","post_mooney1_questions","survey-likert","540","1591872","0.0-6.0-2.76","2823936","co38071","norming","","","{""curiosity"":5,""confidence"":2}","[0,1]","../img/tt/1186tt.jpg","",""
"4198.029999999329","","","recognition","survey-text","541","1596072","0.0-6.0-3.76","2823936","co38071","norming","","","{""guess"":""walking human""}","","../img/tt/1186tt.jpg","",""
"null","../img/gs/1186gs.jpg","null","reveal","image-keyboard-response","542","1598083","0.0-6.0-4.76","2823936","co38071","norming","","","","","","",""
"null","../img/tt/1186tt.jpg","null","mooney2","image-keyboard-response","543","1600088","0.0-6.0-5.76","2823936","co38071","norming","","","","","","",""
"3820.8549999981187","","","post_reveal_questions","survey-likert","544","1603911","0.0-6.0-6.76","2823936","co38071","norming","","","{""aha"":3}","[0]","../img/tt/1186tt.jpg","",""
"null","<div style=""font-size:60px;""> </div>","null","fixation","html-keyboard-response","545","1604120","0.0-6.0-0.77","2823936","co38071","norming","","","","","","",""
"null","../img/tt/436tt.jpg","null","mooney1","image-keyboard-response","546","1607128","0.0-6.0-1.77","2823936","co38071","norming","","","","","","",""
"4772.590000000317","","","post_mooney1_questions","survey-likert","547","1611904","0.0-6.0-2.77","2823936","co38071","norming","","","{""curiosity"":3,""confidence"":0}","[0,1]","../img/tt/436tt.jpg","",""
"790.3550000011455","","","recognition","survey-text","548","1612696","0.0-6.0-3.77","2823936","co38071","norming","","","{""guess"":""""}","","../img/tt/436tt.jpg","",""
"null","../img/gs/436gs.jpg","null","reveal","image-keyboard-response","549","1614702","0.0-6.0-4.77","2823936","co38071","norming","","","","","","",""
"null","../img/tt/436tt.jpg","null","mooney2","image-keyboard-response","550","1616704","0.0-6.0-5.77","2823936","co38071","norming","","","","","","",""
"2212.665000002831","","","post_reveal_questions","survey-likert","551","1618919","0.0-6.0-6.77","2823936","co38071","norming","","","{""aha"":0}","[0]","../img/tt/436tt.jpg","",""
