"rt","stimulus","key_press","test_part","trial_type","trial_index","time_elapsed","internal_node_id","totalTime","subject","experiment_name","button_pressed","success","responses","question_order","currentStim","old","correct"
"8052.649999999971","Welcome to the experiment. This is an online experiment so please don't close the tab/window until we say goodbye.  Press any key to begin.","32","instructions","html-keyboard-response","0","8067","0.0-0.0","3002234","co38656","norming","","","","","","",""
"138048.66000000003","<div style='word-wrap: break-word; width: 900px'><h3>Please consider this information carefully before deciding whether to participate in this research</h3><ul style='text-align: left; font-size: .8em;'><li><b>Purpose of the research</b>: To examine how people process images.</li><li><b>What you will do in this research</b>:  Stimuli (images) will be presented on the computer and you will be asked different questions about them.</li><li><b>Time required</b>: Participation will take between 45 and 60 minutes to complete.</li><li><b>Risks</b>:  There are no anticipated risks associated with participating in this study. The effects of participating should be comparable to those you would experience from viewing a computer monitor for 30 minutes and using a mouse or keyboard.</li><li><b>Benefits</b>:  This study provides no benefits to you individually except for the credit. The study provides important information about the nature of perception and learning.</li><li><b>Confidentiality</b>:  Your participation in this study will remain confidential. No personally identifiable information will be associated with your data. Your de-identified data may be shared with other researchers and used in future projects.</li><li><b>Participation and withdrawal</b>:  Your participation in this study is completely voluntary and you may refuse to participate or you may choose to withdraw at any time without penalty.</li><li><b>How to contact the researchers</b>: If you have questions or concerns about your participation or payment, or want to request a summary of research findings, please contact Sander Van de Cruys (KU Leuven), at sander.vandecruys@kuleuven.be.</li></ul><p>The nature and purpose of this research have been sufficiently explained and I agree to participate in this study.  I understand that I am free to withdraw at any time without incurring any penalty.</p><p>Please consent by clicking the button below to continue. Otherwise, please exit the study at this time.</p></div>","","instructions","html-button-response","1","146118","0.0-1.0","3002234","co38656","norming","0","","","","","",""
"","","","instructions","fullscreen","2","152378","0.0-2.0","3002234","co38656","norming","","true","","","","",""
"58416.294999999984","","","sona","survey-html-form","3","210803","0.0-3.0","3002234","co38656","norming","","","[{""name"":""sonaid"",""value"":""38656""},{""name"":""debrief"",""value"":""yes""},{""name"":""datajoin"",""value"":""yes""}]","","","",""
"82012.12499999997","<div style='word-wrap: break-word; width: 900px'><h3>Instructions</h3><p>This experiment will have 3 parts. In the first part you will see a series of distorted images like the one below on the left. As you can see in the righthand image, the distorted images are derived from actual photographs. In what follows, you will <strong>briefly</strong> be presented with <strong>only</strong> the distorted image.</p> <div style='float: left; margin-right: 20px;'><img src='../img/018tt.jpg' height='250' width='250'></img></div><div style='float: right; margin-left: 20px;'><img src='../img/018gs.jpg' height='250' width='250'></img></div><p>Subsequently you will be asked a few questions about the image: One question on how <strong>curious</strong> you are about the solution and one on how <strong>confident</strong> you are that you know the solution.</p>Next, we ask you to make a guess on what is in the image. Note that it is OK to name just the <strong>basic level category</strong>. For example when you see a parrot in the image, 'parrot' will obviously be a correct answer but also correct is 'bird'. However, 'animal' will <strong>not</strong> be counted as a correct response. For the example above, 'rose' would be correct or 'flower', but not 'plant'. When soccer players are depicted, 'soccer', 'football', 'soccer players' will be correct, but not 'humans', 'outdoors', or 'sports'. You do not need to describe the image in full, just name the main object in it <strong>in one or two words</strong>. All images depict objects from one of the following broad level categories: animals, inanimate objects, plants, sports, vehicles, and food. Recognizing means knowing <strong>more</strong> than these broad labels for a given image. But we always encourage you to <strong>make a guess</strong> if you can. Note that you are allowed to use <strong>Dutch and English</strong> in your answers, whatever comes easiest for you.</p><p>Press any key to continue.</p></div>","32","instructions","html-keyboard-response","4","292817","0.0-4.0","3002234","co38656","norming","","","","","","",""
"169565.62499999994","<div style='word-wrap: break-word; width: 900px'><h3>Instructions</h3> <p>Next, the solution image will be revealed to you and you'll be asked to indicate how strong your <strong>aha-experience</strong> was after seeing the solution. This describes the positive feeling of the 'click' you sometimes experience, when the pieces of the 'puzzle' fall together and you suddenly have 'insight' in the image.</p><img src='aha.jpg' height='188' width='250'></img><p>Note that there are no right or wrong answers. We are interested in what <strong>you</strong> see in the image and how <strong>you</strong> feel about it.</p><p>Press any key to start the experiment.</p></div>","32","instructions","html-keyboard-response","5","462392","0.0-5.0","3002234","co38656","norming","","","","","","",""
"null","<div style=""font-size:60px;""> </div>","null","fixation","html-keyboard-response","6","462603","0.0-6.0-0.0","3002234","co38656","norming","","","","","","",""
"null","../img/tt/497tt.jpg","null","mooney1","image-keyboard-response","7","465609","0.0-6.0-1.0","3002234","co38656","norming","","","","","","",""
"6618.944999999949","","","post_mooney1_questions","survey-likert","8","472232","0.0-6.0-2.0","3002234","co38656","norming","","","{""curiosity"":1,""confidence"":4}","[0,1]","../img/tt/497tt.jpg","",""
"5477.499999999942","","","recognition","survey-text","9","477711","0.0-6.0-3.0","3002234","co38656","norming","","","{""guess"":""wheel""}","","../img/tt/497tt.jpg","",""
"null","../img/gs/497gs.jpg","null","reveal","image-keyboard-response","10","479719","0.0-6.0-4.0","3002234","co38656","norming","","","","","","",""
"null","../img/tt/497tt.jpg","null","mooney2","image-keyboard-response","11","481723","0.0-6.0-5.0","3002234","co38656","norming","","","","","","",""
"5185.595000000147","","","post_reveal_questions","survey-likert","12","486911","0.0-6.0-6.0","3002234","co38656","norming","","","{""aha"":2}","[0]","../img/tt/497tt.jpg","",""
"null","<div style=""font-size:60px;""> </div>","null","fixation","html-keyboard-response","13","487113","0.0-6.0-0.1","3002234","co38656","norming","","","","","","",""
"null","../img/tt/477tt.jpg","null","mooney1","image-keyboard-response","14","490120","0.0-6.0-1.1","3002234","co38656","norming","","","","","","",""
"5237.244999999995","","","post_mooney1_questions","survey-likert","15","495359","0.0-6.0-2.1","3002234","co38656","norming","","","{""curiosity"":4,""confidence"":0}","[0,1]","../img/tt/477tt.jpg","",""
"6926.179999999935","","","recognition","survey-text","16","502287","0.0-6.0-3.1","3002234","co38656","norming","","","{""guess"":""pumpkin""}","","../img/tt/477tt.jpg","",""
"null","../img/gs/477gs.jpg","null","reveal","image-keyboard-response","17","504288","0.0-6.0-4.1","3002234","co38656","norming","","","","","","",""
"null","../img/tt/477tt.jpg","null","mooney2","image-keyboard-response","18","506291","0.0-6.0-5.1","3002234","co38656","norming","","","","","","",""
"2841.9599999999627","","","post_reveal_questions","survey-likert","19","509135","0.0-6.0-6.1","3002234","co38656","norming","","","{""aha"":3}","[0]","../img/tt/477tt.jpg","",""
"null","<div style=""font-size:60px;""> </div>","null","fixation","html-keyboard-response","20","509343","0.0-6.0-0.2","3002234","co38656","norming","","","","","","",""
"null","../img/tt/549tt.jpg","null","mooney1","image-keyboard-response","21","512350","0.0-6.0-1.2","3002234","co38656","norming","","","","","","",""
"6166.474999999977","","","post_mooney1_questions","survey-likert","22","518519","0.0-6.0-2.2","3002234","co38656","norming","","","{""curiosity"":3,""confidence"":0}","[0,1]","../img/tt/549tt.jpg","",""
"7261.97499999986","","","recognition","survey-text","23","525773","0.0-6.0-3.2","3002234","co38656","norming","","","{""guess"":""treebranch""}","","../img/tt/549tt.jpg","",""
"null","../img/gs/549gs.jpg","null","reveal","image-keyboard-response","24","527778","0.0-6.0-4.2","3002234","co38656","norming","","","","","","",""
"null","../img/tt/549tt.jpg","null","mooney2","image-keyboard-response","25","529786","0.0-6.0-5.2","3002234","co38656","norming","","","","","","",""
"2634.5699999998324","","","post_reveal_questions","survey-likert","26","532421","0.0-6.0-6.2","3002234","co38656","norming","","","{""aha"":2}","[0]","../img/tt/549tt.jpg","",""
"null","<div style=""font-size:60px;""> </div>","null","fixation","html-keyboard-response","27","532630","0.0-6.0-0.3","3002234","co38656","norming","","","","","","",""
"null","../img/tt/1247tt.jpg","null","mooney1","image-keyboard-response","28","535640","0.0-6.0-1.3","3002234","co38656","norming","","","","","","",""
"5564.5800000000745","","","post_mooney1_questions","survey-likert","29","541205","0.0-6.0-2.3","3002234","co38656","norming","","","{""curiosity"":3,""confidence"":0}","[0,1]","../img/tt/1247tt.jpg","",""
"9838.060000000056","","","recognition","survey-text","30","551045","0.0-6.0-3.3","3002234","co38656","norming","","","{""guess"":""couch""}","","../img/tt/1247tt.jpg","",""
"null","../img/gs/1247gs.jpg","null","reveal","image-keyboard-response","31","553049","0.0-6.0-4.3","3002234","co38656","norming","","","","","","",""
"null","../img/tt/1247tt.jpg","null","mooney2","image-keyboard-response","32","555056","0.0-6.0-5.3","3002234","co38656","norming","","","","","","",""
"1980.515000000014","","","post_reveal_questions","survey-likert","33","557037","0.0-6.0-6.3","3002234","co38656","norming","","","{""aha"":4}","[0]","../img/tt/1247tt.jpg","",""
"null","<div style=""font-size:60px;""> </div>","null","fixation","html-keyboard-response","34","557240","0.0-6.0-0.4","3002234","co38656","norming","","","","","","",""
"null","../img/tt/307tt.jpg","null","mooney1","image-keyboard-response","35","560249","0.0-6.0-1.4","3002234","co38656","norming","","","","","","",""
"4611.045000000158","","","post_mooney1_questions","survey-likert","36","564861","0.0-6.0-2.4","3002234","co38656","norming","","","{""curiosity"":2,""confidence"":0}","[0,1]","../img/tt/307tt.jpg","",""
"7021.960000000079","","","recognition","survey-text","37","571885","0.0-6.0-3.4","3002234","co38656","norming","","","{""guess"":""football boots""}","","../img/tt/307tt.jpg","",""
"null","../img/gs/307gs.jpg","null","reveal","image-keyboard-response","38","573895","0.0-6.0-4.4","3002234","co38656","norming","","","","","","",""
"null","../img/tt/307tt.jpg","null","mooney2","image-keyboard-response","39","575903","0.0-6.0-5.4","3002234","co38656","norming","","","","","","",""
"2701.3800000000047","","","post_reveal_questions","survey-likert","40","578605","0.0-6.0-6.4","3002234","co38656","norming","","","{""aha"":4}","[0]","../img/tt/307tt.jpg","",""
"null","<div style=""font-size:60px;""> </div>","null","fixation","html-keyboard-response","41","578813","0.0-6.0-0.5","3002234","co38656","norming","","","","","","",""
"null","../img/tt/184tt.jpg","null","mooney1","image-keyboard-response","42","581820","0.0-6.0-1.5","3002234","co38656","norming","","","","","","",""
"4688.175000000047","","","post_mooney1_questions","survey-likert","43","586516","0.0-6.0-2.5","3002234","co38656","norming","","","{""curiosity"":2,""confidence"":2}","[0,1]","../img/tt/184tt.jpg","",""
"4701.749999999884","","","recognition","survey-text","44","591220","0.0-6.0-3.5","3002234","co38656","norming","","","{""guess"":""eagle""}","","../img/tt/184tt.jpg","",""
"null","../img/gs/184gs.jpg","null","reveal","image-keyboard-response","45","593230","0.0-6.0-4.5","3002234","co38656","norming","","","","","","",""
"null","../img/tt/184tt.jpg","null","mooney2","image-keyboard-response","46","595238","0.0-6.0-5.5","3002234","co38656","norming","","","","","","",""
"2564.9449999998324","","","post_reveal_questions","survey-likert","47","597804","0.0-6.0-6.5","3002234","co38656","norming","","","{""aha"":4}","[0]","../img/tt/184tt.jpg","",""
"null","<div style=""font-size:60px;""> </div>","null","fixation","html-keyboard-response","48","598012","0.0-6.0-0.6","3002234","co38656","norming","","","","","","",""
"null","../img/tt/1004tt.jpg","null","mooney1","image-keyboard-response","49","601022","0.0-6.0-1.6","3002234","co38656","norming","","","","","","",""
"4564.584999999846","","","post_mooney1_questions","survey-likert","50","605588","0.0-6.0-2.6","3002234","co38656","norming","","","{""curiosity"":3,""confidence"":2}","[0,1]","../img/tt/1004tt.jpg","",""
"4109.864999999991","","","recognition","survey-text","51","609700","0.0-6.0-3.6","3002234","co38656","norming","","","{""guess"":""tiger by pond""}","","../img/tt/1004tt.jpg","",""
"null","../img/gs/1004gs.jpg","null","reveal","image-keyboard-response","52","611712","0.0-6.0-4.6","3002234","co38656","norming","","","","","","",""
"null","../img/tt/1004tt.jpg","null","mooney2","image-keyboard-response","53","613712","0.0-6.0-5.6","3002234","co38656","norming","","","","","","",""
"2610.9000000001397","","","post_reveal_questions","survey-likert","54","616324","0.0-6.0-6.6","3002234","co38656","norming","","","{""aha"":4}","[0]","../img/tt/1004tt.jpg","",""
"null","<div style=""font-size:60px;""> </div>","null","fixation","html-keyboard-response","55","616530","0.0-6.0-0.7","3002234","co38656","norming","","","","","","",""
"null","../img/tt/1200tt.jpg","null","mooney1","image-keyboard-response","56","619540","0.0-6.0-1.7","3002234","co38656","norming","","","","","","",""
"5422.585000000079","","","post_mooney1_questions","survey-likert","57","624964","0.0-6.0-2.7","3002234","co38656","norming","","","{""curiosity"":4,""confidence"":0}","[0,1]","../img/tt/1200tt.jpg","",""
"3006.0650000000605","","","recognition","survey-text","58","627972","0.0-6.0-3.7","3002234","co38656","norming","","","{""guess"":""pavement""}","","../img/tt/1200tt.jpg","",""
"null","../img/gs/1200gs.jpg","null","reveal","image-keyboard-response","59","629975","0.0-6.0-4.7","3002234","co38656","norming","","","","","","",""
"null","../img/tt/1200tt.jpg","null","mooney2","image-keyboard-response","60","631977","0.0-6.0-5.7","3002234","co38656","norming","","","","","","",""
"2218.4450000001816","","","post_reveal_questions","survey-likert","61","634196","0.0-6.0-6.7","3002234","co38656","norming","","","{""aha"":3}","[0]","../img/tt/1200tt.jpg","",""
"null","<div style=""font-size:60px;""> </div>","null","fixation","html-keyboard-response","62","634403","0.0-6.0-0.8","3002234","co38656","norming","","","","","","",""
"null","../img/tt/098tt.jpg","null","mooney1","image-keyboard-response","63","637414","0.0-6.0-1.8","3002234","co38656","norming","","","","","","",""
"3933.8699999997625","","","post_mooney1_questions","survey-likert","64","641348","0.0-6.0-2.8","3002234","co38656","norming","","","{""curiosity"":2,""confidence"":0}","[0,1]","../img/tt/098tt.jpg","",""
"7094.305000000051","","","recognition","survey-text","65","648438","0.0-6.0-3.8","3002234","co38656","norming","","","{""guess"":""""}","","../img/tt/098tt.jpg","",""
"null","../img/gs/098gs.jpg","null","reveal","image-keyboard-response","66","650444","0.0-6.0-4.8","3002234","co38656","norming","","","","","","",""
"null","../img/tt/098tt.jpg","null","mooney2","image-keyboard-response","67","652451","0.0-6.0-5.8","3002234","co38656","norming","","","","","","",""
"2240.5400000000373","","","post_reveal_questions","survey-likert","68","654694","0.0-6.0-6.8","3002234","co38656","norming","","","{""aha"":2}","[0]","../img/tt/098tt.jpg","",""
"null","<div style=""font-size:60px;""> </div>","null","fixation","html-keyboard-response","69","654903","0.0-6.0-0.9","3002234","co38656","norming","","","","","","",""
"null","../img/tt/1078tt.jpg","null","mooney1","image-keyboard-response","70","657910","0.0-6.0-1.9","3002234","co38656","norming","","","","","","",""
"3918.0050000000047","","","post_mooney1_questions","survey-likert","71","661831","0.0-6.0-2.9","3002234","co38656","norming","","","{""curiosity"":1,""confidence"":4}","[0,1]","../img/tt/1078tt.jpg","",""
"7973.639999999898","","","recognition","survey-text","72","669806","0.0-6.0-3.9","3002234","co38656","norming","","","{""guess"":""skateboarding""}","","../img/tt/1078tt.jpg","",""
"null","../img/gs/1078gs.jpg","null","reveal","image-keyboard-response","73","671808","0.0-6.0-4.9","3002234","co38656","norming","","","","","","",""
"null","../img/tt/1078tt.jpg","null","mooney2","image-keyboard-response","74","673809","0.0-6.0-5.9","3002234","co38656","norming","","","","","","",""
"2482.939999999944","","","post_reveal_questions","survey-likert","75","676294","0.0-6.0-6.9","3002234","co38656","norming","","","{""aha"":1}","[0]","../img/tt/1078tt.jpg","",""
"null","<div style=""font-size:60px;""> </div>","null","fixation","html-keyboard-response","76","676497","0.0-6.0-0.10","3002234","co38656","norming","","","","","","",""
"null","../img/tt/1063tt.jpg","null","mooney1","image-keyboard-response","77","679507","0.0-6.0-1.10","3002234","co38656","norming","","","","","","",""
"4985.310000000056","","","post_mooney1_questions","survey-likert","78","684495","0.0-6.0-2.10","3002234","co38656","norming","","","{""curiosity"":2,""confidence"":2}","[0,1]","../img/tt/1063tt.jpg","",""
"3070.1149999999907","","","recognition","survey-text","79","687566","0.0-6.0-3.10","3002234","co38656","norming","","","{""guess"":""horse""}","","../img/tt/1063tt.jpg","",""
"null","../img/gs/1063gs.jpg","null","reveal","image-keyboard-response","80","689573","0.0-6.0-4.10","3002234","co38656","norming","","","","","","",""
"null","../img/tt/1063tt.jpg","null","mooney2","image-keyboard-response","81","691584","0.0-6.0-5.10","3002234","co38656","norming","","","","","","",""
"4123.585000000079","","","post_reveal_questions","survey-likert","82","695710","0.0-6.0-6.10","3002234","co38656","norming","","","{""aha"":2}","[0]","../img/tt/1063tt.jpg","",""
"null","<div style=""font-size:60px;""> </div>","null","fixation","html-keyboard-response","83","695917","0.0-6.0-0.11","3002234","co38656","norming","","","","","","",""
"null","../img/tt/1154tt.jpg","null","mooney1","image-keyboard-response","84","698924","0.0-6.0-1.11","3002234","co38656","norming","","","","","","",""
"5343.835000000079","","","post_mooney1_questions","survey-likert","85","704270","0.0-6.0-2.11","3002234","co38656","norming","","","{""curiosity"":2,""confidence"":0}","[0,1]","../img/tt/1154tt.jpg","",""
"1886.1950000000652","","","recognition","survey-text","86","706158","0.0-6.0-3.11","3002234","co38656","norming","","","{""guess"":""hippo""}","","../img/tt/1154tt.jpg","",""
"null","../img/gs/1154gs.jpg","null","reveal","image-keyboard-response","87","708162","0.0-6.0-4.11","3002234","co38656","norming","","","","","","",""
"null","../img/tt/1154tt.jpg","null","mooney2","image-keyboard-response","88","710175","0.0-6.0-5.11","3002234","co38656","norming","","","","","","",""
"2869.375","","","post_reveal_questions","survey-likert","89","713046","0.0-6.0-6.11","3002234","co38656","norming","","","{""aha"":4}","[0]","../img/tt/1154tt.jpg","",""
"null","<div style=""font-size:60px;""> </div>","null","fixation","html-keyboard-response","90","713248","0.0-6.0-0.12","3002234","co38656","norming","","","","","","",""
"null","../img/tt/1089tt.jpg","null","mooney1","image-keyboard-response","91","716258","0.0-6.0-1.12","3002234","co38656","norming","","","","","","",""
"3530.039999999921","","","post_mooney1_questions","survey-likert","92","719791","0.0-6.0-2.12","3002234","co38656","norming","","","{""curiosity"":4,""confidence"":1}","[0,1]","../img/tt/1089tt.jpg","",""
"1574.490000000107","","","recognition","survey-text","93","721367","0.0-6.0-3.12","3002234","co38656","norming","","","{""guess"":""horse""}","","../img/tt/1089tt.jpg","",""
"null","../img/gs/1089gs.jpg","null","reveal","image-keyboard-response","94","723370","0.0-6.0-4.12","3002234","co38656","norming","","","","","","",""
"null","../img/tt/1089tt.jpg","null","mooney2","image-keyboard-response","95","725372","0.0-6.0-5.12","3002234","co38656","norming","","","","","","",""
"2200.7350000001024","","","post_reveal_questions","survey-likert","96","727575","0.0-6.0-6.12","3002234","co38656","norming","","","{""aha"":4}","[0]","../img/tt/1089tt.jpg","",""
"null","<div style=""font-size:60px;""> </div>","null","fixation","html-keyboard-response","97","727779","0.0-6.0-0.13","3002234","co38656","norming","","","","","","",""
"null","../img/tt/1272tt.jpg","null","mooney1","image-keyboard-response","98","730783","0.0-6.0-1.13","3002234","co38656","norming","","","","","","",""
"4517.225000000093","","","post_mooney1_questions","survey-likert","99","735303","0.0-6.0-2.13","3002234","co38656","norming","","","{""curiosity"":4,""confidence"":2}","[0,1]","../img/tt/1272tt.jpg","",""
"1614.2499999998836","","","recognition","survey-text","100","736919","0.0-6.0-3.13","3002234","co38656","norming","","","{""guess"":""pig""}","","../img/tt/1272tt.jpg","",""
"null","../img/gs/1272gs.jpg","null","reveal","image-keyboard-response","101","738921","0.0-6.0-4.13","3002234","co38656","norming","","","","","","",""
"null","../img/tt/1272tt.jpg","null","mooney2","image-keyboard-response","102","740922","0.0-6.0-5.13","3002234","co38656","norming","","","","","","",""
"3066.090000000084","","","post_reveal_questions","survey-likert","103","743991","0.0-6.0-6.13","3002234","co38656","norming","","","{""aha"":1}","[0]","../img/tt/1272tt.jpg","",""
"null","<div style=""font-size:60px;""> </div>","null","fixation","html-keyboard-response","104","744198","0.0-6.0-0.14","3002234","co38656","norming","","","","","","",""
"null","../img/tt/1309tt.jpg","null","mooney1","image-keyboard-response","105","747205","0.0-6.0-1.14","3002234","co38656","norming","","","","","","",""
"10503.21999999974","","","post_mooney1_questions","survey-likert","106","757711","0.0-6.0-2.14","3002234","co38656","norming","","","{""curiosity"":1,""confidence"":3}","[0,1]","../img/tt/1309tt.jpg","",""
"3414.185000000056","","","recognition","survey-text","107","761127","0.0-6.0-3.14","3002234","co38656","norming","","","{""guess"":""truck""}","","../img/tt/1309tt.jpg","",""
"null","../img/gs/1309gs.jpg","null","reveal","image-keyboard-response","108","763138","0.0-6.0-4.14","3002234","co38656","norming","","","","","","",""
"null","../img/tt/1309tt.jpg","null","mooney2","image-keyboard-response","109","765146","0.0-6.0-5.14","3002234","co38656","norming","","","","","","",""
"2090.5100000000093","","","post_reveal_questions","survey-likert","110","767239","0.0-6.0-6.14","3002234","co38656","norming","","","{""aha"":1}","[0]","../img/tt/1309tt.jpg","",""
"null","<div style=""font-size:60px;""> </div>","null","fixation","html-keyboard-response","111","767443","0.0-6.0-0.15","3002234","co38656","norming","","","","","","",""
"null","../img/tt/515tt.jpg","null","mooney1","image-keyboard-response","112","770450","0.0-6.0-1.15","3002234","co38656","norming","","","","","","",""
"3402.579999999958","","","post_mooney1_questions","survey-likert","113","773855","0.0-6.0-2.15","3002234","co38656","norming","","","{""curiosity"":1,""confidence"":3}","[0,1]","../img/tt/515tt.jpg","",""
"1717.9899999998743","","","recognition","survey-text","114","775574","0.0-6.0-3.15","3002234","co38656","norming","","","{""guess"":""bird""}","","../img/tt/515tt.jpg","",""
"null","../img/gs/515gs.jpg","null","reveal","image-keyboard-response","115","777586","0.0-6.0-4.15","3002234","co38656","norming","","","","","","",""
"null","../img/tt/515tt.jpg","null","mooney2","image-keyboard-response","116","779589","0.0-6.0-5.15","3002234","co38656","norming","","","","","","",""
"2566.619999999879","","","post_reveal_questions","survey-likert","117","782158","0.0-6.0-6.15","3002234","co38656","norming","","","{""aha"":0}","[0]","../img/tt/515tt.jpg","",""
"null","<div style=""font-size:60px;""> </div>","null","fixation","html-keyboard-response","118","782364","0.0-6.0-0.16","3002234","co38656","norming","","","","","","",""
"null","../img/tt/052tt.jpg","null","mooney1","image-keyboard-response","119","785372","0.0-6.0-1.16","3002234","co38656","norming","","","","","","",""
"3687.7449999999953","","","post_mooney1_questions","survey-likert","120","789063","0.0-6.0-2.16","3002234","co38656","norming","","","{""curiosity"":2,""confidence"":3}","[0,1]","../img/tt/052tt.jpg","",""
"3022.134999999893","","","recognition","survey-text","121","792086","0.0-6.0-3.16","3002234","co38656","norming","","","{""guess"":""trampoline""}","","../img/tt/052tt.jpg","",""
"null","../img/gs/052gs.jpg","null","reveal","image-keyboard-response","122","794089","0.0-6.0-4.16","3002234","co38656","norming","","","","","","",""
"null","../img/tt/052tt.jpg","null","mooney2","image-keyboard-response","123","796098","0.0-6.0-5.16","3002234","co38656","norming","","","","","","",""
"2657.625","","","post_reveal_questions","survey-likert","124","798758","0.0-6.0-6.16","3002234","co38656","norming","","","{""aha"":4}","[0]","../img/tt/052tt.jpg","",""
"null","<div style=""font-size:60px;""> </div>","null","fixation","html-keyboard-response","125","798963","0.0-6.0-0.17","3002234","co38656","norming","","","","","","",""
"null","../img/tt/357tt.jpg","null","mooney1","image-keyboard-response","126","801973","0.0-6.0-1.17","3002234","co38656","norming","","","","","","",""
"4230.775000000023","","","post_mooney1_questions","survey-likert","127","806207","0.0-6.0-2.17","3002234","co38656","norming","","","{""curiosity"":4,""confidence"":0}","[0,1]","../img/tt/357tt.jpg","",""
"2045.9499999999534","","","recognition","survey-text","128","808254","0.0-6.0-3.17","3002234","co38656","norming","","","{""guess"":""""}","","../img/tt/357tt.jpg","",""
"null","../img/gs/357gs.jpg","null","reveal","image-keyboard-response","129","810256","0.0-6.0-4.17","3002234","co38656","norming","","","","","","",""
"null","../img/tt/357tt.jpg","null","mooney2","image-keyboard-response","130","812258","0.0-6.0-5.17","3002234","co38656","norming","","","","","","",""
"3410.159999999916","","","post_reveal_questions","survey-likert","131","815671","0.0-6.0-6.17","3002234","co38656","norming","","","{""aha"":5}","[0]","../img/tt/357tt.jpg","",""
"null","<div style=""font-size:60px;""> </div>","null","fixation","html-keyboard-response","132","815873","0.0-6.0-0.18","3002234","co38656","norming","","","","","","",""
"null","../img/tt/1043tt.jpg","null","mooney1","image-keyboard-response","133","818882","0.0-6.0-1.18","3002234","co38656","norming","","","","","","",""
"4554.054999999818","","","post_mooney1_questions","survey-likert","134","823439","0.0-6.0-2.18","3002234","co38656","norming","","","{""curiosity"":4,""confidence"":0}","[0,1]","../img/tt/1043tt.jpg","",""
"990.1199999999953","","","recognition","survey-text","135","824430","0.0-6.0-3.18","3002234","co38656","norming","","","{""guess"":""""}","","../img/tt/1043tt.jpg","",""
"null","../img/gs/1043gs.jpg","null","reveal","image-keyboard-response","136","826438","0.0-6.0-4.18","3002234","co38656","norming","","","","","","",""
"null","../img/tt/1043tt.jpg","null","mooney2","image-keyboard-response","137","828443","0.0-6.0-5.18","3002234","co38656","norming","","","","","","",""
"2201.0100000000093","","","post_reveal_questions","survey-likert","138","830644","0.0-6.0-6.18","3002234","co38656","norming","","","{""aha"":4}","[0]","../img/tt/1043tt.jpg","",""
"null","<div style=""font-size:60px;""> </div>","null","fixation","html-keyboard-response","139","830850","0.0-6.0-0.19","3002234","co38656","norming","","","","","","",""
"null","../img/tt/079tt.jpg","null","mooney1","image-keyboard-response","140","833862","0.0-6.0-1.19","3002234","co38656","norming","","","","","","",""
"6219.244999999995","","","post_mooney1_questions","survey-likert","141","840084","0.0-6.0-2.19","3002234","co38656","norming","","","{""curiosity"":3,""confidence"":4}","[0,1]","../img/tt/079tt.jpg","",""
"1646.4249999999302","","","recognition","survey-text","142","841732","0.0-6.0-3.19","3002234","co38656","norming","","","{""guess"":""bear""}","","../img/tt/079tt.jpg","",""
"null","../img/gs/079gs.jpg","null","reveal","image-keyboard-response","143","843735","0.0-6.0-4.19","3002234","co38656","norming","","","","","","",""
"null","../img/tt/079tt.jpg","null","mooney2","image-keyboard-response","144","845746","0.0-6.0-5.19","3002234","co38656","norming","","","","","","",""
"3215.369999999879","","","post_reveal_questions","survey-likert","145","848964","0.0-6.0-6.19","3002234","co38656","norming","","","{""aha"":2}","[0]","../img/tt/079tt.jpg","",""
"null","<div style=""font-size:60px;""> </div>","null","fixation","html-keyboard-response","146","849169","0.0-6.0-0.20","3002234","co38656","norming","","","","","","",""
"null","../img/tt/435tt.jpg","null","mooney1","image-keyboard-response","147","852172","0.0-6.0-1.20","3002234","co38656","norming","","","","","","",""
"3868.8749999998836","","","post_mooney1_questions","survey-likert","148","856044","0.0-6.0-2.20","3002234","co38656","norming","","","{""curiosity"":2,""confidence"":4}","[0,1]","../img/tt/435tt.jpg","",""
"6933.864999999991","","","recognition","survey-text","149","862979","0.0-6.0-3.20","3002234","co38656","norming","","","{""guess"":""billiards""}","","../img/tt/435tt.jpg","",""
"null","../img/gs/435gs.jpg","null","reveal","image-keyboard-response","150","864987","0.0-6.0-4.20","3002234","co38656","norming","","","","","","",""
"null","../img/tt/435tt.jpg","null","mooney2","image-keyboard-response","151","866996","0.0-6.0-5.20","3002234","co38656","norming","","","","","","",""
"3070.2200000000885","","","post_reveal_questions","survey-likert","152","870068","0.0-6.0-6.20","3002234","co38656","norming","","","{""aha"":1}","[0]","../img/tt/435tt.jpg","",""
"null","<div style=""font-size:60px;""> </div>","null","fixation","html-keyboard-response","153","870270","0.0-6.0-0.21","3002234","co38656","norming","","","","","","",""
"null","../img/tt/135tt.jpg","null","mooney1","image-keyboard-response","154","873281","0.0-6.0-1.21","3002234","co38656","norming","","","","","","",""
"3506.410000000149","","","post_mooney1_questions","survey-likert","155","876788","0.0-6.0-2.21","3002234","co38656","norming","","","{""curiosity"":2,""confidence"":4}","[0,1]","../img/tt/135tt.jpg","",""
"2782.1650000001537","","","recognition","survey-text","156","879572","0.0-6.0-3.21","3002234","co38656","norming","","","{""guess"":""toilet""}","","../img/tt/135tt.jpg","",""
"null","../img/gs/135gs.jpg","null","reveal","image-keyboard-response","157","881573","0.0-6.0-4.21","3002234","co38656","norming","","","","","","",""
"null","../img/tt/135tt.jpg","null","mooney2","image-keyboard-response","158","883574","0.0-6.0-5.21","3002234","co38656","norming","","","","","","",""
"2075.4899999999907","","","post_reveal_questions","survey-likert","159","885652","0.0-6.0-6.21","3002234","co38656","norming","","","{""aha"":2}","[0]","../img/tt/135tt.jpg","",""
"null","<div style=""font-size:60px;""> </div>","null","fixation","html-keyboard-response","160","885853","0.0-6.0-0.22","3002234","co38656","norming","","","","","","",""
"null","../img/tt/353tt.jpg","null","mooney1","image-keyboard-response","161","888858","0.0-6.0-1.22","3002234","co38656","norming","","","","","","",""
"4647.375","","","post_mooney1_questions","survey-likert","162","893503","0.0-6.0-2.22","3002234","co38656","norming","","","{""curiosity"":4,""confidence"":0}","[0,1]","../img/tt/353tt.jpg","",""
"638.1550000001444","","","recognition","survey-text","163","894142","0.0-6.0-3.22","3002234","co38656","norming","","","{""guess"":""""}","","../img/tt/353tt.jpg","",""
"null","../img/gs/353gs.jpg","null","reveal","image-keyboard-response","164","896149","0.0-6.0-4.22","3002234","co38656","norming","","","","","","",""
"null","../img/tt/353tt.jpg","null","mooney2","image-keyboard-response","165","898157","0.0-6.0-5.22","3002234","co38656","norming","","","","","","",""
"2224.0999999999767","","","post_reveal_questions","survey-likert","166","900382","0.0-6.0-6.22","3002234","co38656","norming","","","{""aha"":5}","[0]","../img/tt/353tt.jpg","",""
"null","<div style=""font-size:60px;""> </div>","null","fixation","html-keyboard-response","167","900592","0.0-6.0-0.23","3002234","co38656","norming","","","","","","",""
"null","../img/tt/1211tt.jpg","null","mooney1","image-keyboard-response","168","903599","0.0-6.0-1.23","3002234","co38656","norming","","","","","","",""
"4813.109999999986","","","post_mooney1_questions","survey-likert","169","908415","0.0-6.0-2.23","3002234","co38656","norming","","","{""curiosity"":4,""confidence"":0}","[0,1]","../img/tt/1211tt.jpg","",""
"6446.420000000158","","","recognition","survey-text","170","914863","0.0-6.0-3.23","3002234","co38656","norming","","","{""guess"":""fish jumping out of water""}","","../img/tt/1211tt.jpg","",""
"null","../img/gs/1211gs.jpg","null","reveal","image-keyboard-response","171","916865","0.0-6.0-4.23","3002234","co38656","norming","","","","","","",""
"null","../img/tt/1211tt.jpg","null","mooney2","image-keyboard-response","172","918874","0.0-6.0-5.23","3002234","co38656","norming","","","","","","",""
"3570.594999999972","","","post_reveal_questions","survey-likert","173","922447","0.0-6.0-6.23","3002234","co38656","norming","","","{""aha"":4}","[0]","../img/tt/1211tt.jpg","",""
"null","<div style=""font-size:60px;""> </div>","null","fixation","html-keyboard-response","174","922652","0.0-6.0-0.24","3002234","co38656","norming","","","","","","",""
"null","../img/tt/306tt.jpg","null","mooney1","image-keyboard-response","175","925659","0.0-6.0-1.24","3002234","co38656","norming","","","","","","",""
"4529.484999999986","","","post_mooney1_questions","survey-likert","176","930191","0.0-6.0-2.24","3002234","co38656","norming","","","{""curiosity"":5,""confidence"":1}","[0,1]","../img/tt/306tt.jpg","",""
"2174.059999999823","","","recognition","survey-text","177","932367","0.0-6.0-3.24","3002234","co38656","norming","","","{""guess"":""frog""}","","../img/tt/306tt.jpg","",""
"null","../img/gs/306gs.jpg","null","reveal","image-keyboard-response","178","934375","0.0-6.0-4.24","3002234","co38656","norming","","","","","","",""
"null","../img/tt/306tt.jpg","null","mooney2","image-keyboard-response","179","936377","0.0-6.0-5.24","3002234","co38656","norming","","","","","","",""
"2186.6399999998976","","","post_reveal_questions","survey-likert","180","938566","0.0-6.0-6.24","3002234","co38656","norming","","","{""aha"":4}","[0]","../img/tt/306tt.jpg","",""
"null","<div style=""font-size:60px;""> </div>","null","fixation","html-keyboard-response","181","938772","0.0-6.0-0.25","3002234","co38656","norming","","","","","","",""
"null","../img/tt/096tt.jpg","null","mooney1","image-keyboard-response","182","941781","0.0-6.0-1.25","3002234","co38656","norming","","","","","","",""
"4767.229999999981","","","post_mooney1_questions","survey-likert","183","946551","0.0-6.0-2.25","3002234","co38656","norming","","","{""curiosity"":2,""confidence"":2}","[0,1]","../img/tt/096tt.jpg","",""
"1766.2150000000838","","","recognition","survey-text","184","948319","0.0-6.0-3.25","3002234","co38656","norming","","","{""guess"":""piano""}","","../img/tt/096tt.jpg","",""
"null","../img/gs/096gs.jpg","null","reveal","image-keyboard-response","185","950324","0.0-6.0-4.25","3002234","co38656","norming","","","","","","",""
"null","../img/tt/096tt.jpg","null","mooney2","image-keyboard-response","186","952334","0.0-6.0-5.25","3002234","co38656","norming","","","","","","",""
"3230.1999999999534","","","post_reveal_questions","survey-likert","187","955566","0.0-6.0-6.25","3002234","co38656","norming","","","{""aha"":3}","[0]","../img/tt/096tt.jpg","",""
"null","<div style=""font-size:60px;""> </div>","null","fixation","html-keyboard-response","188","955772","0.0-6.0-0.26","3002234","co38656","norming","","","","","","",""
"null","../img/tt/010tt.jpg","null","mooney1","image-keyboard-response","189","958782","0.0-6.0-1.26","3002234","co38656","norming","","","","","","",""
"5526.710000000079","","","post_mooney1_questions","survey-likert","190","964311","0.0-6.0-2.26","3002234","co38656","norming","","","{""curiosity"":4,""confidence"":1}","[0,1]","../img/tt/010tt.jpg","",""
"1966.1699999999255","","","recognition","survey-text","191","966278","0.0-6.0-3.26","3002234","co38656","norming","","","{""guess"":""trophy""}","","../img/tt/010tt.jpg","",""
"null","../img/gs/010gs.jpg","null","reveal","image-keyboard-response","192","968287","0.0-6.0-4.26","3002234","co38656","norming","","","","","","",""
"null","../img/tt/010tt.jpg","null","mooney2","image-keyboard-response","193","970294","0.0-6.0-5.26","3002234","co38656","norming","","","","","","",""
"1894.4949999999953","","","post_reveal_questions","survey-likert","194","972190","0.0-6.0-6.26","3002234","co38656","norming","","","{""aha"":4}","[0]","../img/tt/010tt.jpg","",""
"null","<div style=""font-size:60px;""> </div>","null","fixation","html-keyboard-response","195","972395","0.0-6.0-0.27","3002234","co38656","norming","","","","","","",""
"null","../img/tt/1027tt.jpg","null","mooney1","image-keyboard-response","196","975404","0.0-6.0-1.27","3002234","co38656","norming","","","","","","",""
"4695.994999999995","","","post_mooney1_questions","survey-likert","197","980103","0.0-6.0-2.27","3002234","co38656","norming","","","{""curiosity"":4,""confidence"":2}","[0,1]","../img/tt/1027tt.jpg","",""
"2350.1100000001024","","","recognition","survey-text","198","982454","0.0-6.0-3.27","3002234","co38656","norming","","","{""guess"":""cow""}","","../img/tt/1027tt.jpg","",""
"null","../img/gs/1027gs.jpg","null","reveal","image-keyboard-response","199","984455","0.0-6.0-4.27","3002234","co38656","norming","","","","","","",""
"null","../img/tt/1027tt.jpg","null","mooney2","image-keyboard-response","200","986466","0.0-6.0-5.27","3002234","co38656","norming","","","","","","",""
"2145.6049999999814","","","post_reveal_questions","survey-likert","201","988614","0.0-6.0-6.27","3002234","co38656","norming","","","{""aha"":4}","[0]","../img/tt/1027tt.jpg","",""
"null","<div style=""font-size:60px;""> </div>","null","fixation","html-keyboard-response","202","988824","0.0-6.0-0.28","3002234","co38656","norming","","","","","","",""
"null","../img/tt/1224tt.jpg","null","mooney1","image-keyboard-response","203","991827","0.0-6.0-1.28","3002234","co38656","norming","","","","","","",""
"3719.989999999758","","","post_mooney1_questions","survey-likert","204","995551","0.0-6.0-2.28","3002234","co38656","norming","","","{""curiosity"":4,""confidence"":2}","[0,1]","../img/tt/1224tt.jpg","",""
"1830.1599999999162","","","recognition","survey-text","205","997382","0.0-6.0-3.28","3002234","co38656","norming","","","{""guess"":""bus""}","","../img/tt/1224tt.jpg","",""
"null","../img/gs/1224gs.jpg","null","reveal","image-keyboard-response","206","999391","0.0-6.0-4.28","3002234","co38656","norming","","","","","","",""
"null","../img/tt/1224tt.jpg","null","mooney2","image-keyboard-response","207","1001401","0.0-6.0-5.28","3002234","co38656","norming","","","","","","",""
"2691.3499999998603","","","post_reveal_questions","survey-likert","208","1004095","0.0-6.0-6.28","3002234","co38656","norming","","","{""aha"":6}","[0]","../img/tt/1224tt.jpg","",""
"null","<div style=""font-size:60px;""> </div>","null","fixation","html-keyboard-response","209","1004302","0.0-6.0-0.29","3002234","co38656","norming","","","","","","",""
"null","../img/tt/1243tt.jpg","null","mooney1","image-keyboard-response","210","1007308","0.0-6.0-1.29","3002234","co38656","norming","","","","","","",""
"3183.810000000056","","","post_mooney1_questions","survey-likert","211","1010495","0.0-6.0-2.29","3002234","co38656","norming","","","{""curiosity"":3,""confidence"":2}","[0,1]","../img/tt/1243tt.jpg","",""
"1622.2099999999627","","","recognition","survey-text","212","1012118","0.0-6.0-3.29","3002234","co38656","norming","","","{""guess"":""chicken""}","","../img/tt/1243tt.jpg","",""
"null","../img/gs/1243gs.jpg","null","reveal","image-keyboard-response","213","1014120","0.0-6.0-4.29","3002234","co38656","norming","","","","","","",""
"null","../img/tt/1243tt.jpg","null","mooney2","image-keyboard-response","214","1016129","0.0-6.0-5.29","3002234","co38656","norming","","","","","","",""
"1972.470000000205","","","post_reveal_questions","survey-likert","215","1018102","0.0-6.0-6.29","3002234","co38656","norming","","","{""aha"":4}","[0]","../img/tt/1243tt.jpg","",""
"null","<div style=""font-size:60px;""> </div>","null","fixation","html-keyboard-response","216","1018304","0.0-6.0-0.30","3002234","co38656","norming","","","","","","",""
"null","../img/tt/1181tt.jpg","null","mooney1","image-keyboard-response","217","1021316","0.0-6.0-1.30","3002234","co38656","norming","","","","","","",""
"4519.955000000191","","","post_mooney1_questions","survey-likert","218","1025839","0.0-6.0-2.30","3002234","co38656","norming","","","{""curiosity"":4,""confidence"":1}","[0,1]","../img/tt/1181tt.jpg","",""
"2166.2099999998463","","","recognition","survey-text","219","1028007","0.0-6.0-3.30","3002234","co38656","norming","","","{""guess"":""baseball""}","","../img/tt/1181tt.jpg","",""
"null","../img/gs/1181gs.jpg","null","reveal","image-keyboard-response","220","1030012","0.0-6.0-4.30","3002234","co38656","norming","","","","","","",""
"null","../img/tt/1181tt.jpg","null","mooney2","image-keyboard-response","221","1032013","0.0-6.0-5.30","3002234","co38656","norming","","","","","","",""
"2079.005000000121","","","post_reveal_questions","survey-likert","222","1034095","0.0-6.0-6.30","3002234","co38656","norming","","","{""aha"":5}","[0]","../img/tt/1181tt.jpg","",""
"null","<div style=""font-size:60px;""> </div>","null","fixation","html-keyboard-response","223","1034297","0.0-6.0-0.31","3002234","co38656","norming","","","","","","",""
"null","../img/tt/1046tt.jpg","null","mooney1","image-keyboard-response","224","1037303","0.0-6.0-1.31","3002234","co38656","norming","","","","","","",""
"4884.489999999991","","","post_mooney1_questions","survey-likert","225","1042191","0.0-6.0-2.31","3002234","co38656","norming","","","{""curiosity"":5,""confidence"":0}","[0,1]","../img/tt/1046tt.jpg","",""
"877.9350000000559","","","recognition","survey-text","226","1043070","0.0-6.0-3.31","3002234","co38656","norming","","","{""guess"":""""}","","../img/tt/1046tt.jpg","",""
"null","../img/gs/1046gs.jpg","null","reveal","image-keyboard-response","227","1045073","0.0-6.0-4.31","3002234","co38656","norming","","","","","","",""
"null","../img/tt/1046tt.jpg","null","mooney2","image-keyboard-response","228","1047075","0.0-6.0-5.31","3002234","co38656","norming","","","","","","",""
"2617.1049999997485","","","post_reveal_questions","survey-likert","229","1049695","0.0-6.0-6.31","3002234","co38656","norming","","","{""aha"":4}","[0]","../img/tt/1046tt.jpg","",""
"null","<div style=""font-size:60px;""> </div>","null","fixation","html-keyboard-response","230","1049904","0.0-6.0-0.32","3002234","co38656","norming","","","","","","",""
"null","../img/tt/1151tt.jpg","null","mooney1","image-keyboard-response","231","1052909","0.0-6.0-1.32","3002234","co38656","norming","","","","","","",""
"4055.0900000003166","","","post_mooney1_questions","survey-likert","232","1056967","0.0-6.0-2.32","3002234","co38656","norming","","","{""curiosity"":5,""confidence"":0}","[0,1]","../img/tt/1151tt.jpg","",""
"1205.5400000000373","","","recognition","survey-text","233","1058174","0.0-6.0-3.32","3002234","co38656","norming","","","{""guess"":""""}","","../img/tt/1151tt.jpg","",""
"null","../img/gs/1151gs.jpg","null","reveal","image-keyboard-response","234","1060176","0.0-6.0-4.32","3002234","co38656","norming","","","","","","",""
"null","../img/tt/1151tt.jpg","null","mooney2","image-keyboard-response","235","1062179","0.0-6.0-5.32","3002234","co38656","norming","","","","","","",""
"1889.4099999996834","","","post_reveal_questions","survey-likert","236","1064071","0.0-6.0-6.32","3002234","co38656","norming","","","{""aha"":5}","[0]","../img/tt/1151tt.jpg","",""
"null","<div style=""font-size:60px;""> </div>","null","fixation","html-keyboard-response","237","1064275","0.0-6.0-0.33","3002234","co38656","norming","","","","","","",""
"null","../img/tt/534tt.jpg","null","mooney1","image-keyboard-response","238","1067282","0.0-6.0-1.33","3002234","co38656","norming","","","","","","",""
"5282.029999999795","","","post_mooney1_questions","survey-likert","239","1072567","0.0-6.0-2.33","3002234","co38656","norming","","","{""curiosity"":4,""confidence"":1}","[0,1]","../img/tt/534tt.jpg","",""
"2238.2350000003353","","","recognition","survey-text","240","1074805","0.0-6.0-3.33","3002234","co38656","norming","","","{""guess"":""forest""}","","../img/tt/534tt.jpg","",""
"null","../img/gs/534gs.jpg","null","reveal","image-keyboard-response","241","1076806","0.0-6.0-4.33","3002234","co38656","norming","","","","","","",""
"null","../img/tt/534tt.jpg","null","mooney2","image-keyboard-response","242","1078811","0.0-6.0-5.33","3002234","co38656","norming","","","","","","",""
"2135.5100000000093","","","post_reveal_questions","survey-likert","243","1080949","0.0-6.0-6.33","3002234","co38656","norming","","","{""aha"":4}","[0]","../img/tt/534tt.jpg","",""
"null","<div style=""font-size:60px;""> </div>","null","fixation","html-keyboard-response","244","1081156","0.0-6.0-0.34","3002234","co38656","norming","","","","","","",""
"null","../img/tt/194tt.jpg","null","mooney1","image-keyboard-response","245","1084161","0.0-6.0-1.34","3002234","co38656","norming","","","","","","",""
"4801.26500000013","","","post_mooney1_questions","survey-likert","246","1088965","0.0-6.0-2.34","3002234","co38656","norming","","","{""curiosity"":4,""confidence"":2}","[0,1]","../img/tt/194tt.jpg","",""
"30238.149999999907","","","recognition","survey-text","247","1119205","0.0-6.0-3.34","3002234","co38656","norming","","","{""guess"":""streetmusic (chello?)""}","","../img/tt/194tt.jpg","",""
"null","../img/gs/194gs.jpg","null","reveal","image-keyboard-response","248","1121215","0.0-6.0-4.34","3002234","co38656","norming","","","","","","",""
"null","../img/tt/194tt.jpg","null","mooney2","image-keyboard-response","249","1123217","0.0-6.0-5.34","3002234","co38656","norming","","","","","","",""
"1817.7100000001956","","","post_reveal_questions","survey-likert","250","1125037","0.0-6.0-6.34","3002234","co38656","norming","","","{""aha"":4}","[0]","../img/tt/194tt.jpg","",""
"null","<div style=""font-size:60px;""> </div>","null","fixation","html-keyboard-response","251","1125238","0.0-6.0-0.35","3002234","co38656","norming","","","","","","",""
"null","../img/tt/1196tt.jpg","null","mooney1","image-keyboard-response","252","1128249","0.0-6.0-1.35","3002234","co38656","norming","","","","","","",""
"4585.5200000002515","","","post_mooney1_questions","survey-likert","253","1132837","0.0-6.0-2.35","3002234","co38656","norming","","","{""curiosity"":4,""confidence"":1}","[0,1]","../img/tt/1196tt.jpg","",""
"3294.2750000001397","","","recognition","survey-text","254","1136134","0.0-6.0-3.35","3002234","co38656","norming","","","{""guess"":""basketball""}","","../img/tt/1196tt.jpg","",""
"null","../img/gs/1196gs.jpg","null","reveal","image-keyboard-response","255","1138143","0.0-6.0-4.35","3002234","co38656","norming","","","","","","",""
"null","../img/tt/1196tt.jpg","null","mooney2","image-keyboard-response","256","1140152","0.0-6.0-5.35","3002234","co38656","norming","","","","","","",""
"2459.579999999609","","","post_reveal_questions","survey-likert","257","1142614","0.0-6.0-6.35","3002234","co38656","norming","","","{""aha"":4}","[0]","../img/tt/1196tt.jpg","",""
"null","<div style=""font-size:60px;""> </div>","null","fixation","html-keyboard-response","258","1142822","0.0-6.0-0.36","3002234","co38656","norming","","","","","","",""
"null","../img/tt/318tt.jpg","null","mooney1","image-keyboard-response","259","1145825","0.0-6.0-1.36","3002234","co38656","norming","","","","","","",""
"3121.7999999998137","","","post_mooney1_questions","survey-likert","260","1148950","0.0-6.0-2.36","3002234","co38656","norming","","","{""curiosity"":4,""confidence"":0}","[0,1]","../img/tt/318tt.jpg","",""
"614.1350000002421","","","recognition","survey-text","261","1149566","0.0-6.0-3.36","3002234","co38656","norming","","","{""guess"":""""}","","../img/tt/318tt.jpg","",""
"null","../img/gs/318gs.jpg","null","reveal","image-keyboard-response","262","1151569","0.0-6.0-4.36","3002234","co38656","norming","","","","","","",""
"null","../img/tt/318tt.jpg","null","mooney2","image-keyboard-response","263","1153579","0.0-6.0-5.36","3002234","co38656","norming","","","","","","",""
"2328.0399999998044","","","post_reveal_questions","survey-likert","264","1155910","0.0-6.0-6.36","3002234","co38656","norming","","","{""aha"":4}","[0]","../img/tt/318tt.jpg","",""
"null","<div style=""font-size:60px;""> </div>","null","fixation","html-keyboard-response","265","1156112","0.0-6.0-0.37","3002234","co38656","norming","","","","","","",""
"null","../img/tt/418tt.jpg","null","mooney1","image-keyboard-response","266","1159119","0.0-6.0-1.37","3002234","co38656","norming","","","","","","",""
"5547.48499999987","","","post_mooney1_questions","survey-likert","267","1164670","0.0-6.0-2.37","3002234","co38656","norming","","","{""curiosity"":5,""confidence"":1}","[0,1]","../img/tt/418tt.jpg","",""
"2198.225000000093","","","recognition","survey-text","268","1166870","0.0-6.0-3.37","3002234","co38656","norming","","","{""guess"":""panda""}","","../img/tt/418tt.jpg","",""
"null","../img/gs/418gs.jpg","null","reveal","image-keyboard-response","269","1168876","0.0-6.0-4.37","3002234","co38656","norming","","","","","","",""
"null","../img/tt/418tt.jpg","null","mooney2","image-keyboard-response","270","1170886","0.0-6.0-5.37","3002234","co38656","norming","","","","","","",""
"3189.054999999935","","","post_reveal_questions","survey-likert","271","1174078","0.0-6.0-6.37","3002234","co38656","norming","","","{""aha"":5}","[0]","../img/tt/418tt.jpg","",""
"null","<div style=""font-size:60px;""> </div>","null","fixation","html-keyboard-response","272","1174279","0.0-6.0-0.38","3002234","co38656","norming","","","","","","",""
"null","../img/tt/140tt.jpg","null","mooney1","image-keyboard-response","273","1177286","0.0-6.0-1.38","3002234","co38656","norming","","","","","","",""
"4293.385000000009","","","post_mooney1_questions","survey-likert","274","1181582","0.0-6.0-2.38","3002234","co38656","norming","","","{""curiosity"":5,""confidence"":3}","[0,1]","../img/tt/140tt.jpg","",""
"2566.189999999944","","","recognition","survey-text","275","1184150","0.0-6.0-3.38","3002234","co38656","norming","","","{""guess"":""forks""}","","../img/tt/140tt.jpg","",""
"null","../img/gs/140gs.jpg","null","reveal","image-keyboard-response","276","1186155","0.0-6.0-4.38","3002234","co38656","norming","","","","","","",""
"null","../img/tt/140tt.jpg","null","mooney2","image-keyboard-response","277","1188166","0.0-6.0-5.38","3002234","co38656","norming","","","","","","",""
"2668.2100000004284","","","post_reveal_questions","survey-likert","278","1190838","0.0-6.0-6.38","3002234","co38656","norming","","","{""aha"":1}","[0]","../img/tt/140tt.jpg","",""
"null","<div style=""font-size:60px;""> </div>","null","fixation","html-keyboard-response","279","1191045","0.0-6.0-0.39","3002234","co38656","norming","","","","","","",""
"null","../img/tt/1228tt.jpg","null","mooney1","image-keyboard-response","280","1194052","0.0-6.0-1.39","3002234","co38656","norming","","","","","","",""
"4126.509999999544","","","post_mooney1_questions","survey-likert","281","1198185","0.0-6.0-2.39","3002234","co38656","norming","","","{""curiosity"":3,""confidence"":1}","[0,1]","../img/tt/1228tt.jpg","",""
"2158.1299999998882","","","recognition","survey-text","282","1200345","0.0-6.0-3.39","3002234","co38656","norming","","","{""guess"":""bird""}","","../img/tt/1228tt.jpg","",""
"null","../img/gs/1228gs.jpg","null","reveal","image-keyboard-response","283","1202348","0.0-6.0-4.39","3002234","co38656","norming","","","","","","",""
"null","../img/tt/1228tt.jpg","null","mooney2","image-keyboard-response","284","1204358","0.0-6.0-5.39","3002234","co38656","norming","","","","","","",""
"2808.3450000004377","","","post_reveal_questions","survey-likert","285","1207169","0.0-6.0-6.39","3002234","co38656","norming","","","{""aha"":6}","[0]","../img/tt/1228tt.jpg","",""
"null","<div style=""font-size:60px;""> </div>","null","fixation","html-keyboard-response","286","1207377","0.0-6.0-0.40","3002234","co38656","norming","","","","","","",""
"null","../img/tt/559tt.jpg","null","mooney1","image-keyboard-response","287","1210381","0.0-6.0-1.40","3002234","co38656","norming","","","","","","",""
"4600.729999999981","","","post_mooney1_questions","survey-likert","288","1214985","0.0-6.0-2.40","3002234","co38656","norming","","","{""curiosity"":1,""confidence"":4}","[0,1]","../img/tt/559tt.jpg","",""
"3566.100000000093","","","recognition","survey-text","289","1218553","0.0-6.0-3.40","3002234","co38656","norming","","","{""guess"":""sewing machine""}","","../img/tt/559tt.jpg","",""
"null","../img/gs/559gs.jpg","null","reveal","image-keyboard-response","290","1220559","0.0-6.0-4.40","3002234","co38656","norming","","","","","","",""
"null","../img/tt/559tt.jpg","null","mooney2","image-keyboard-response","291","1222561","0.0-6.0-5.40","3002234","co38656","norming","","","","","","",""
"2045.2700000000186","","","post_reveal_questions","survey-likert","292","1224609","0.0-6.0-6.40","3002234","co38656","norming","","","{""aha"":1}","[0]","../img/tt/559tt.jpg","",""
"null","<div style=""font-size:60px;""> </div>","null","fixation","html-keyboard-response","293","1224818","0.0-6.0-0.41","3002234","co38656","norming","","","","","","",""
"null","../img/tt/1270tt.jpg","null","mooney1","image-keyboard-response","294","1227821","0.0-6.0-1.41","3002234","co38656","norming","","","","","","",""
"3824.339999999618","","","post_mooney1_questions","survey-likert","295","1231649","0.0-6.0-2.41","3002234","co38656","norming","","","{""curiosity"":4,""confidence"":1}","[0,1]","../img/tt/1270tt.jpg","",""
"2630.484999999637","","","recognition","survey-text","296","1234281","0.0-6.0-3.41","3002234","co38656","norming","","","{""guess"":""rocking chair""}","","../img/tt/1270tt.jpg","",""
"null","../img/gs/1270gs.jpg","null","reveal","image-keyboard-response","297","1236289","0.0-6.0-4.41","3002234","co38656","norming","","","","","","",""
"null","../img/tt/1270tt.jpg","null","mooney2","image-keyboard-response","298","1238297","0.0-6.0-5.41","3002234","co38656","norming","","","","","","",""
"2324.7649999996647","","","post_reveal_questions","survey-likert","299","1240624","0.0-6.0-6.41","3002234","co38656","norming","","","{""aha"":5}","[0]","../img/tt/1270tt.jpg","",""
"null","<div style=""font-size:60px;""> </div>","null","fixation","html-keyboard-response","300","1240829","0.0-6.0-0.42","3002234","co38656","norming","","","","","","",""
"null","../img/tt/1189tt.jpg","null","mooney1","image-keyboard-response","301","1243831","0.0-6.0-1.42","3002234","co38656","norming","","","","","","",""
"4550.964999999851","","","post_mooney1_questions","survey-likert","302","1248385","0.0-6.0-2.42","3002234","co38656","norming","","","{""curiosity"":1,""confidence"":4}","[0,1]","../img/tt/1189tt.jpg","",""
"2966.1299999998882","","","recognition","survey-text","303","1251353","0.0-6.0-3.42","3002234","co38656","norming","","","{""guess"":""swimmer""}","","../img/tt/1189tt.jpg","",""
"null","../img/gs/1189gs.jpg","null","reveal","image-keyboard-response","304","1253354","0.0-6.0-4.42","3002234","co38656","norming","","","","","","",""
"null","../img/tt/1189tt.jpg","null","mooney2","image-keyboard-response","305","1255359","0.0-6.0-5.42","3002234","co38656","norming","","","","","","",""
"2028.4699999997392","","","post_reveal_questions","survey-likert","306","1257396","0.0-6.0-6.42","3002234","co38656","norming","","","{""aha"":1}","[0]","../img/tt/1189tt.jpg","",""
"null","<div style=""font-size:60px;""> </div>","null","fixation","html-keyboard-response","307","1257605","0.0-6.0-0.43","3002234","co38656","norming","","","","","","",""
"null","../img/tt/124tt.jpg","null","mooney1","image-keyboard-response","308","1260614","0.0-6.0-1.43","3002234","co38656","norming","","","","","","",""
"4098.814999999711","","","post_mooney1_questions","survey-likert","309","1264716","0.0-6.0-2.43","3002234","co38656","norming","","","{""curiosity"":1,""confidence"":4}","[0,1]","../img/tt/124tt.jpg","",""
"2062.054999999935","","","recognition","survey-text","310","1266780","0.0-6.0-3.43","3002234","co38656","norming","","","{""guess"":""ape""}","","../img/tt/124tt.jpg","",""
"null","../img/gs/124gs.jpg","null","reveal","image-keyboard-response","311","1268781","0.0-6.0-4.43","3002234","co38656","norming","","","","","","",""
"null","../img/tt/124tt.jpg","null","mooney2","image-keyboard-response","312","1270787","0.0-6.0-5.43","3002234","co38656","norming","","","","","","",""
"1919.530000000028","","","post_reveal_questions","survey-likert","313","1272708","0.0-6.0-6.43","3002234","co38656","norming","","","{""aha"":1}","[0]","../img/tt/124tt.jpg","",""
"null","<div style=""font-size:60px;""> </div>","null","fixation","html-keyboard-response","314","1272912","0.0-6.0-0.44","3002234","co38656","norming","","","","","","",""
"null","../img/tt/1086tt.jpg","null","mooney1","image-keyboard-response","315","1275919","0.0-6.0-1.44","3002234","co38656","norming","","","","","","",""
"7900.175000000047","","","post_mooney1_questions","survey-likert","316","1283820","0.0-6.0-2.44","3002234","co38656","norming","","","{""curiosity"":4,""confidence"":1}","[0,1]","../img/tt/1086tt.jpg","",""
"2478.034999999916","","","recognition","survey-text","317","1286300","0.0-6.0-3.44","3002234","co38656","norming","","","{""guess"":""meerkat""}","","../img/tt/1086tt.jpg","",""
"null","../img/gs/1086gs.jpg","null","reveal","image-keyboard-response","318","1288309","0.0-6.0-4.44","3002234","co38656","norming","","","","","","",""
"null","../img/tt/1086tt.jpg","null","mooney2","image-keyboard-response","319","1290315","0.0-6.0-5.44","3002234","co38656","norming","","","","","","",""
"1830.1950000000652","","","post_reveal_questions","survey-likert","320","1292148","0.0-6.0-6.44","3002234","co38656","norming","","","{""aha"":5}","[0]","../img/tt/1086tt.jpg","",""
"null","<div style=""font-size:60px;""> </div>","null","fixation","html-keyboard-response","321","1292353","0.0-6.0-0.45","3002234","co38656","norming","","","","","","",""
"null","../img/tt/1363tt.jpg","null","mooney1","image-keyboard-response","322","1295358","0.0-6.0-1.45","3002234","co38656","norming","","","","","","",""
"3851.090000000084","","","post_mooney1_questions","survey-likert","323","1299212","0.0-6.0-2.45","3002234","co38656","norming","","","{""curiosity"":5,""confidence"":0}","[0,1]","../img/tt/1363tt.jpg","",""
"638.0450000001583","","","recognition","survey-text","324","1299852","0.0-6.0-3.45","3002234","co38656","norming","","","{""guess"":""""}","","../img/tt/1363tt.jpg","",""
"null","../img/gs/1363gs.jpg","null","reveal","image-keyboard-response","325","1301860","0.0-6.0-4.45","3002234","co38656","norming","","","","","","",""
"null","../img/tt/1363tt.jpg","null","mooney2","image-keyboard-response","326","1303862","0.0-6.0-5.45","3002234","co38656","norming","","","","","","",""
"2620.215000000084","","","post_reveal_questions","survey-likert","327","1306484","0.0-6.0-6.45","3002234","co38656","norming","","","{""aha"":3}","[0]","../img/tt/1363tt.jpg","",""
"null","<div style=""font-size:60px;""> </div>","null","fixation","html-keyboard-response","328","1306691","0.0-6.0-0.46","3002234","co38656","norming","","","","","","",""
"null","../img/tt/1190tt.jpg","null","mooney1","image-keyboard-response","329","1309694","0.0-6.0-1.46","3002234","co38656","norming","","","","","","",""
"3562.715000000084","","","post_mooney1_questions","survey-likert","330","1313260","0.0-6.0-2.46","3002234","co38656","norming","","","{""curiosity"":1,""confidence"":4}","[0,1]","../img/tt/1190tt.jpg","",""
"4270.149999999907","","","recognition","survey-text","331","1317528","0.0-6.0-3.46","3002234","co38656","norming","","","{""guess"":""soldiers""}","","../img/tt/1190tt.jpg","",""
"null","../img/gs/1190gs.jpg","null","reveal","image-keyboard-response","332","1319535","0.0-6.0-4.46","3002234","co38656","norming","","","","","","",""
"null","../img/tt/1190tt.jpg","null","mooney2","image-keyboard-response","333","1321544","0.0-6.0-5.46","3002234","co38656","norming","","","","","","",""
"2085.524999999907","","","post_reveal_questions","survey-likert","334","1323632","0.0-6.0-6.46","3002234","co38656","norming","","","{""aha"":5}","[0]","../img/tt/1190tt.jpg","",""
"null","<div style=""font-size:60px;""> </div>","null","fixation","html-keyboard-response","335","1323837","0.0-6.0-0.47","3002234","co38656","norming","","","","","","",""
"null","../img/tt/036tt.jpg","null","mooney1","image-keyboard-response","336","1326848","0.0-6.0-1.47","3002234","co38656","norming","","","","","","",""
"4182.155000000028","","","post_mooney1_questions","survey-likert","337","1331033","0.0-6.0-2.47","3002234","co38656","norming","","","{""curiosity"":5,""confidence"":1}","[0,1]","../img/tt/036tt.jpg","",""
"1421.6700000003912","","","recognition","survey-text","338","1332457","0.0-6.0-3.47","3002234","co38656","norming","","","{""guess"":""cheese""}","","../img/tt/036tt.jpg","",""
"null","../img/gs/036gs.jpg","null","reveal","image-keyboard-response","339","1334466","0.0-6.0-4.47","3002234","co38656","norming","","","","","","",""
"null","../img/tt/036tt.jpg","null","mooney2","image-keyboard-response","340","1336475","0.0-6.0-5.47","3002234","co38656","norming","","","","","","",""
"3099.659999999916","","","post_reveal_questions","survey-likert","341","1339577","0.0-6.0-6.47","3002234","co38656","norming","","","{""aha"":5}","[0]","../img/tt/036tt.jpg","",""
"null","<div style=""font-size:60px;""> </div>","null","fixation","html-keyboard-response","342","1339779","0.0-6.0-0.48","3002234","co38656","norming","","","","","","",""
"null","../img/tt/013tt.jpg","null","mooney1","image-keyboard-response","343","1342792","0.0-6.0-1.48","3002234","co38656","norming","","","","","","",""
"5727.15000000014","","","post_mooney1_questions","survey-likert","344","1348521","0.0-6.0-2.48","3002234","co38656","norming","","","{""curiosity"":5,""confidence"":1}","[0,1]","../img/tt/013tt.jpg","",""
"2910.1750000000466","","","recognition","survey-text","345","1351433","0.0-6.0-3.48","3002234","co38656","norming","","","{""guess"":""waterfall""}","","../img/tt/013tt.jpg","",""
"null","../img/gs/013gs.jpg","null","reveal","image-keyboard-response","346","1353441","0.0-6.0-4.48","3002234","co38656","norming","","","","","","",""
"null","../img/tt/013tt.jpg","null","mooney2","image-keyboard-response","347","1355443","0.0-6.0-5.48","3002234","co38656","norming","","","","","","",""
"4010.739999999525","","","post_reveal_questions","survey-likert","348","1359456","0.0-6.0-6.48","3002234","co38656","norming","","","{""aha"":6}","[0]","../img/tt/013tt.jpg","",""
"null","<div style=""font-size:60px;""> </div>","null","fixation","html-keyboard-response","349","1359658","0.0-6.0-0.49","3002234","co38656","norming","","","","","","",""
"null","../img/tt/438tt.jpg","null","mooney1","image-keyboard-response","350","1362665","0.0-6.0-1.49","3002234","co38656","norming","","","","","","",""
"3734.565000000177","","","post_mooney1_questions","survey-likert","351","1366401","0.0-6.0-2.49","3002234","co38656","norming","","","{""curiosity"":4,""confidence"":1}","[0,1]","../img/tt/438tt.jpg","",""
"1462.1499999999069","","","recognition","survey-text","352","1367865","0.0-6.0-3.49","3002234","co38656","norming","","","{""guess"":""snake""}","","../img/tt/438tt.jpg","",""
"null","../img/gs/438gs.jpg","null","reveal","image-keyboard-response","353","1369867","0.0-6.0-4.49","3002234","co38656","norming","","","","","","",""
"null","../img/tt/438tt.jpg","null","mooney2","image-keyboard-response","354","1371878","0.0-6.0-5.49","3002234","co38656","norming","","","","","","",""
"3777.500000000233","","","post_reveal_questions","survey-likert","355","1375657","0.0-6.0-6.49","3002234","co38656","norming","","","{""aha"":2}","[0]","../img/tt/438tt.jpg","",""
"null","<div style=""font-size:60px;""> </div>","null","fixation","html-keyboard-response","356","1375864","0.0-6.0-0.50","3002234","co38656","norming","","","","","","",""
"null","../img/tt/522tt.jpg","null","mooney1","image-keyboard-response","357","1378875","0.0-6.0-1.50","3002234","co38656","norming","","","","","","",""
"4513.665000000037","","","post_mooney1_questions","survey-likert","358","1383391","0.0-6.0-2.50","3002234","co38656","norming","","","{""curiosity"":5,""confidence"":4}","[0,1]","../img/tt/522tt.jpg","",""
"2045.980000000447","","","recognition","survey-text","359","1385439","0.0-6.0-3.50","3002234","co38656","norming","","","{""guess"":""cat""}","","../img/tt/522tt.jpg","",""
"null","../img/gs/522gs.jpg","null","reveal","image-keyboard-response","360","1387450","0.0-6.0-4.50","3002234","co38656","norming","","","","","","",""
"null","../img/tt/522tt.jpg","null","mooney2","image-keyboard-response","361","1389456","0.0-6.0-5.50","3002234","co38656","norming","","","","","","",""
"2628.179999999702","","","post_reveal_questions","survey-likert","362","1392087","0.0-6.0-6.50","3002234","co38656","norming","","","{""aha"":1}","[0]","../img/tt/522tt.jpg","",""
"null","<div style=""font-size:60px;""> </div>","null","fixation","html-keyboard-response","363","1392296","0.0-6.0-0.51","3002234","co38656","norming","","","","","","",""
"null","../img/tt/378tt.jpg","null","mooney1","image-keyboard-response","364","1395302","0.0-6.0-1.51","3002234","co38656","norming","","","","","","",""
"4662.659999999916","","","post_mooney1_questions","survey-likert","365","1399967","0.0-6.0-2.51","3002234","co38656","norming","","","{""curiosity"":4,""confidence"":0}","[0,1]","../img/tt/378tt.jpg","",""
"1646.0849999999627","","","recognition","survey-text","366","1401615","0.0-6.0-3.51","3002234","co38656","norming","","","{""guess"":""panda""}","","../img/tt/378tt.jpg","",""
"null","../img/gs/378gs.jpg","null","reveal","image-keyboard-response","367","1403623","0.0-6.0-4.51","3002234","co38656","norming","","","","","","",""
"null","../img/tt/378tt.jpg","null","mooney2","image-keyboard-response","368","1405631","0.0-6.0-5.51","3002234","co38656","norming","","","","","","",""
"2285.725000000326","","","post_reveal_questions","survey-likert","369","1407919","0.0-6.0-6.51","3002234","co38656","norming","","","{""aha"":5}","[0]","../img/tt/378tt.jpg","",""
"null","<div style=""font-size:60px;""> </div>","null","fixation","html-keyboard-response","370","1408129","0.0-6.0-0.52","3002234","co38656","norming","","","","","","",""
"null","../img/tt/1122tt.jpg","null","mooney1","image-keyboard-response","371","1411134","0.0-6.0-1.52","3002234","co38656","norming","","","","","","",""
"4142.629999999888","","","post_mooney1_questions","survey-likert","372","1415279","0.0-6.0-2.52","3002234","co38656","norming","","","{""curiosity"":1,""confidence"":5}","[0,1]","../img/tt/1122tt.jpg","",""
"2510.41500000027","","","recognition","survey-text","373","1417792","0.0-6.0-3.52","3002234","co38656","norming","","","{""guess"":""boats""}","","../img/tt/1122tt.jpg","",""
"null","../img/gs/1122gs.jpg","null","reveal","image-keyboard-response","374","1419794","0.0-6.0-4.52","3002234","co38656","norming","","","","","","",""
"null","../img/tt/1122tt.jpg","null","mooney2","image-keyboard-response","375","1421796","0.0-6.0-5.52","3002234","co38656","norming","","","","","","",""
"2368.475000000326","","","post_reveal_questions","survey-likert","376","1424167","0.0-6.0-6.52","3002234","co38656","norming","","","{""aha"":1}","[0]","../img/tt/1122tt.jpg","",""
"null","<div style=""font-size:60px;""> </div>","null","fixation","html-keyboard-response","377","1424377","0.0-6.0-0.53","3002234","co38656","norming","","","","","","",""
"null","../img/tt/517tt.jpg","null","mooney1","image-keyboard-response","378","1427387","0.0-6.0-1.53","3002234","co38656","norming","","","","","","",""
"7137.209999999963","","","post_mooney1_questions","survey-likert","379","1434527","0.0-6.0-2.53","3002234","co38656","norming","","","{""curiosity"":6,""confidence"":1}","[0,1]","../img/tt/517tt.jpg","",""
"1613.95999999973","","","recognition","survey-text","380","1436143","0.0-6.0-3.53","3002234","co38656","norming","","","{""guess"":""panda""}","","../img/tt/517tt.jpg","",""
"null","../img/gs/517gs.jpg","null","reveal","image-keyboard-response","381","1438154","0.0-6.0-4.53","3002234","co38656","norming","","","","","","",""
"null","../img/tt/517tt.jpg","null","mooney2","image-keyboard-response","382","1440163","0.0-6.0-5.53","3002234","co38656","norming","","","","","","",""
"2489.6100000001024","","","post_reveal_questions","survey-likert","383","1442655","0.0-6.0-6.53","3002234","co38656","norming","","","{""aha"":5}","[0]","../img/tt/517tt.jpg","",""
"null","<div style=""font-size:60px;""> </div>","null","fixation","html-keyboard-response","384","1442860","0.0-6.0-0.54","3002234","co38656","norming","","","","","","",""
"null","../img/tt/1217tt.jpg","null","mooney1","image-keyboard-response","385","1445869","0.0-6.0-1.54","3002234","co38656","norming","","","","","","",""
"3822.5799999998417","","","post_mooney1_questions","survey-likert","386","1449695","0.0-6.0-2.54","3002234","co38656","norming","","","{""curiosity"":4,""confidence"":0}","[0,1]","../img/tt/1217tt.jpg","",""
"4126.0800000000745","","","recognition","survey-text","387","1453823","0.0-6.0-3.54","3002234","co38656","norming","","","{""guess"":""giraffes""}","","../img/tt/1217tt.jpg","",""
"null","../img/gs/1217gs.jpg","null","reveal","image-keyboard-response","388","1455829","0.0-6.0-4.54","3002234","co38656","norming","","","","","","",""
"null","../img/tt/1217tt.jpg","null","mooney2","image-keyboard-response","389","1457830","0.0-6.0-5.54","3002234","co38656","norming","","","","","","",""
"2853.70999999973","","","post_reveal_questions","survey-likert","390","1460687","0.0-6.0-6.54","3002234","co38656","norming","","","{""aha"":6}","[0]","../img/tt/1217tt.jpg","",""
"null","<div style=""font-size:60px;""> </div>","null","fixation","html-keyboard-response","391","1460895","0.0-6.0-0.55","3002234","co38656","norming","","","","","","",""
"null","../img/tt/599tt.jpg","null","mooney1","image-keyboard-response","392","1463906","0.0-6.0-1.55","3002234","co38656","norming","","","","","","",""
"4873.799999999814","","","post_mooney1_questions","survey-likert","393","1468783","0.0-6.0-2.55","3002234","co38656","norming","","","{""curiosity"":5,""confidence"":1}","[0,1]","../img/tt/599tt.jpg","",""
"1646.2050000000745","","","recognition","survey-text","394","1470431","0.0-6.0-3.55","3002234","co38656","norming","","","{""guess"":""snake""}","","../img/tt/599tt.jpg","",""
"null","../img/gs/599gs.jpg","null","reveal","image-keyboard-response","395","1472437","0.0-6.0-4.55","3002234","co38656","norming","","","","","","",""
"null","../img/tt/599tt.jpg","null","mooney2","image-keyboard-response","396","1474439","0.0-6.0-5.55","3002234","co38656","norming","","","","","","",""
"2101.6049999999814","","","post_reveal_questions","survey-likert","397","1476543","0.0-6.0-6.55","3002234","co38656","norming","","","{""aha"":5}","[0]","../img/tt/599tt.jpg","",""
"null","<div style=""font-size:60px;""> </div>","null","fixation","html-keyboard-response","398","1476750","0.0-6.0-0.56","3002234","co38656","norming","","","","","","",""
"null","../img/tt/1241tt.jpg","null","mooney1","image-keyboard-response","399","1479760","0.0-6.0-1.56","3002234","co38656","norming","","","","","","",""
"3556.410000000149","","","post_mooney1_questions","survey-likert","400","1483319","0.0-6.0-2.56","3002234","co38656","norming","","","{""curiosity"":4,""confidence"":2}","[0,1]","../img/tt/1241tt.jpg","",""
"7638.274999999907","","","recognition","survey-text","401","1490959","0.0-6.0-3.56","3002234","co38656","norming","","","{""guess"":""hyenna""}","","../img/tt/1241tt.jpg","",""
"null","../img/gs/1241gs.jpg","null","reveal","image-keyboard-response","402","1492963","0.0-6.0-4.56","3002234","co38656","norming","","","","","","",""
"null","../img/tt/1241tt.jpg","null","mooney2","image-keyboard-response","403","1494965","0.0-6.0-5.56","3002234","co38656","norming","","","","","","",""
"2638.9950000001118","","","post_reveal_questions","survey-likert","404","1497607","0.0-6.0-6.56","3002234","co38656","norming","","","{""aha"":1}","[0]","../img/tt/1241tt.jpg","",""
"null","<div style=""font-size:60px;""> </div>","null","fixation","html-keyboard-response","405","1497813","0.0-6.0-0.57","3002234","co38656","norming","","","","","","",""
"null","../img/tt/1116tt.jpg","null","mooney1","image-keyboard-response","406","1500820","0.0-6.0-1.57","3002234","co38656","norming","","","","","","",""
"4176.185000000056","","","post_mooney1_questions","survey-likert","407","1504999","0.0-6.0-2.57","3002234","co38656","norming","","","{""curiosity"":2,""confidence"":3}","[0,1]","../img/tt/1116tt.jpg","",""
"1286.1699999999255","","","recognition","survey-text","408","1506287","0.0-6.0-3.57","3002234","co38656","norming","","","{""guess"":""planes""}","","../img/tt/1116tt.jpg","",""
"null","../img/gs/1116gs.jpg","null","reveal","image-keyboard-response","409","1508295","0.0-6.0-4.57","3002234","co38656","norming","","","","","","",""
"null","../img/tt/1116tt.jpg","null","mooney2","image-keyboard-response","410","1510302","0.0-6.0-5.57","3002234","co38656","norming","","","","","","",""
"2230.8950000000186","","","post_reveal_questions","survey-likert","411","1512535","0.0-6.0-6.57","3002234","co38656","norming","","","{""aha"":1}","[0]","../img/tt/1116tt.jpg","",""
"null","<div style=""font-size:60px;""> </div>","null","fixation","html-keyboard-response","412","1512744","0.0-6.0-0.58","3002234","co38656","norming","","","","","","",""
"null","../img/tt/603tt.jpg","null","mooney1","image-keyboard-response","413","1515748","0.0-6.0-1.58","3002234","co38656","norming","","","","","","",""
"4848.270000000484","","","post_mooney1_questions","survey-likert","414","1520599","0.0-6.0-2.58","3002234","co38656","norming","","","{""curiosity"":5,""confidence"":0}","[0,1]","../img/tt/603tt.jpg","",""
"1654.1599999999162","","","recognition","survey-text","415","1522255","0.0-6.0-3.58","3002234","co38656","norming","","","{""guess"":""""}","","../img/tt/603tt.jpg","",""
"null","../img/gs/603gs.jpg","null","reveal","image-keyboard-response","416","1524258","0.0-6.0-4.58","3002234","co38656","norming","","","","","","",""
"null","../img/tt/603tt.jpg","null","mooney2","image-keyboard-response","417","1526262","0.0-6.0-5.58","3002234","co38656","norming","","","","","","",""
"2726.375000000233","","","post_reveal_questions","survey-likert","418","1528991","0.0-6.0-6.58","3002234","co38656","norming","","","{""aha"":5}","[0]","../img/tt/603tt.jpg","",""
"null","<div style=""font-size:60px;""> </div>","null","fixation","html-keyboard-response","419","1529200","0.0-6.0-0.59","3002234","co38656","norming","","","","","","",""
"null","../img/tt/019tt.jpg","null","mooney1","image-keyboard-response","420","1532210","0.0-6.0-1.59","3002234","co38656","norming","","","","","","",""
"3369.6399999998976","","","post_mooney1_questions","survey-likert","421","1535583","0.0-6.0-2.59","3002234","co38656","norming","","","{""curiosity"":5,""confidence"":2}","[0,1]","../img/tt/019tt.jpg","",""
"3133.624999999767","","","recognition","survey-text","422","1538719","0.0-6.0-3.59","3002234","co38656","norming","","","{""guess"":""pen on paper""}","","../img/tt/019tt.jpg","",""
"null","../img/gs/019gs.jpg","null","reveal","image-keyboard-response","423","1540725","0.0-6.0-4.59","3002234","co38656","norming","","","","","","",""
"null","../img/tt/019tt.jpg","null","mooney2","image-keyboard-response","424","1542736","0.0-6.0-5.59","3002234","co38656","norming","","","","","","",""
"2422.5749999999534","","","post_reveal_questions","survey-likert","425","1545159","0.0-6.0-6.59","3002234","co38656","norming","","","{""aha"":5}","[0]","../img/tt/019tt.jpg","",""
"null","<div style=""font-size:60px;""> </div>","null","fixation","html-keyboard-response","426","1545365","0.0-6.0-0.60","3002234","co38656","norming","","","","","","",""
"null","../img/tt/1236tt.jpg","null","mooney1","image-keyboard-response","427","1548376","0.0-6.0-1.60","3002234","co38656","norming","","","","","","",""
"4020.1750000002794","","","post_mooney1_questions","survey-likert","428","1552399","0.0-6.0-2.60","3002234","co38656","norming","","","{""curiosity"":4,""confidence"":1}","[0,1]","../img/tt/1236tt.jpg","",""
"5854.27500000014","","","recognition","survey-text","429","1558255","0.0-6.0-3.60","3002234","co38656","norming","","","{""guess"":""leaf patterns on ground""}","","../img/tt/1236tt.jpg","",""
"null","../img/gs/1236gs.jpg","null","reveal","image-keyboard-response","430","1560261","0.0-6.0-4.60","3002234","co38656","norming","","","","","","",""
"null","../img/tt/1236tt.jpg","null","mooney2","image-keyboard-response","431","1562272","0.0-6.0-5.60","3002234","co38656","norming","","","","","","",""
"2436.035000000382","","","post_reveal_questions","survey-likert","432","1564711","0.0-6.0-6.60","3002234","co38656","norming","","","{""aha"":6}","[0]","../img/tt/1236tt.jpg","",""
"null","<div style=""font-size:60px;""> </div>","null","fixation","html-keyboard-response","433","1564912","0.0-6.0-0.61","3002234","co38656","norming","","","","","","",""
"null","../img/tt/1232tt.jpg","null","mooney1","image-keyboard-response","434","1567920","0.0-6.0-1.61","3002234","co38656","norming","","","","","","",""
"3995.315000000177","","","post_mooney1_questions","survey-likert","435","1571919","0.0-6.0-2.61","3002234","co38656","norming","","","{""curiosity"":4,""confidence"":2}","[0,1]","../img/tt/1232tt.jpg","",""
"2814.3700000001118","","","recognition","survey-text","436","1574735","0.0-6.0-3.61","3002234","co38656","norming","","","{""guess"":""turtle""}","","../img/tt/1232tt.jpg","",""
"null","../img/gs/1232gs.jpg","null","reveal","image-keyboard-response","437","1576738","0.0-6.0-4.61","3002234","co38656","norming","","","","","","",""
"null","../img/tt/1232tt.jpg","null","mooney2","image-keyboard-response","438","1578738","0.0-6.0-5.61","3002234","co38656","norming","","","","","","",""
"2603.6999999999534","","","post_reveal_questions","survey-likert","439","1581343","0.0-6.0-6.61","3002234","co38656","norming","","","{""aha"":4}","[0]","../img/tt/1232tt.jpg","",""
"null","<div style=""font-size:60px;""> </div>","null","fixation","html-keyboard-response","440","1581544","0.0-6.0-0.62","3002234","co38656","norming","","","","","","",""
"null","../img/tt/032tt.jpg","null","mooney1","image-keyboard-response","441","1584550","0.0-6.0-1.62","3002234","co38656","norming","","","","","","",""
"3757.3549999997485","","","post_mooney1_questions","survey-likert","442","1588311","0.0-6.0-2.62","3002234","co38656","norming","","","{""curiosity"":4,""confidence"":1}","[0,1]","../img/tt/032tt.jpg","",""
"1446.1500000003725","","","recognition","survey-text","443","1589759","0.0-6.0-3.62","3002234","co38656","norming","","","{""guess"":""duck""}","","../img/tt/032tt.jpg","",""
"null","../img/gs/032gs.jpg","null","reveal","image-keyboard-response","444","1591768","0.0-6.0-4.62","3002234","co38656","norming","","","","","","",""
"null","../img/tt/032tt.jpg","null","mooney2","image-keyboard-response","445","1593778","0.0-6.0-5.62","3002234","co38656","norming","","","","","","",""
"2266.1349999997765","","","post_reveal_questions","survey-likert","446","1596047","0.0-6.0-6.62","3002234","co38656","norming","","","{""aha"":5}","[0]","../img/tt/032tt.jpg","",""
"null","<div style=""font-size:60px;""> </div>","null","fixation","html-keyboard-response","447","1596253","0.0-6.0-0.63","3002234","co38656","norming","","","","","","",""
"null","../img/tt/1037tt.jpg","null","mooney1","image-keyboard-response","448","1599263","0.0-6.0-1.63","3002234","co38656","norming","","","","","","",""
"6404.530000000028","","","post_mooney1_questions","survey-likert","449","1605671","0.0-6.0-2.63","3002234","co38656","norming","","","{""curiosity"":4,""confidence"":0}","[0,1]","../img/tt/1037tt.jpg","",""
"2709.965000000084","","","recognition","survey-text","450","1608383","0.0-6.0-3.63","3002234","co38656","norming","","","{""guess"":""""}","","../img/tt/1037tt.jpg","",""
"null","../img/gs/1037gs.jpg","null","reveal","image-keyboard-response","451","1610392","0.0-6.0-4.63","3002234","co38656","norming","","","","","","",""
"null","../img/tt/1037tt.jpg","null","mooney2","image-keyboard-response","452","1612393","0.0-6.0-5.63","3002234","co38656","norming","","","","","","",""
"2500.5400000000373","","","post_reveal_questions","survey-likert","453","1614895","0.0-6.0-6.63","3002234","co38656","norming","","","{""aha"":6}","[0]","../img/tt/1037tt.jpg","",""
"null","<div style=""font-size:60px;""> </div>","null","fixation","html-keyboard-response","454","1615101","0.0-6.0-0.64","3002234","co38656","norming","","","","","","",""
"null","../img/tt/1102tt.jpg","null","mooney1","image-keyboard-response","455","1618112","0.0-6.0-1.64","3002234","co38656","norming","","","","","","",""
"3747.54000000027","","","post_mooney1_questions","survey-likert","456","1621863","0.0-6.0-2.64","3002234","co38656","norming","","","{""curiosity"":4,""confidence"":0}","[0,1]","../img/tt/1102tt.jpg","",""
"1126.0449999999255","","","recognition","survey-text","457","1622988","0.0-6.0-3.64","3002234","co38656","norming","","","{""guess"":""car""}","","../img/tt/1102tt.jpg","",""
"null","../img/gs/1102gs.jpg","null","reveal","image-keyboard-response","458","1624999","0.0-6.0-4.64","3002234","co38656","norming","","","","","","",""
"null","../img/tt/1102tt.jpg","null","mooney2","image-keyboard-response","459","1627003","0.0-6.0-5.64","3002234","co38656","norming","","","","","","",""
"2830.0449999996927","","","post_reveal_questions","survey-likert","460","1629836","0.0-6.0-6.64","3002234","co38656","norming","","","{""aha"":4}","[0]","../img/tt/1102tt.jpg","",""
"null","<div style=""font-size:60px;""> </div>","null","fixation","html-keyboard-response","461","1630043","0.0-6.0-0.65","3002234","co38656","norming","","","","","","",""
"null","../img/tt/1118tt.jpg","null","mooney1","image-keyboard-response","462","1633055","0.0-6.0-1.65","3002234","co38656","norming","","","","","","",""
"5393.799999999814","","","post_mooney1_questions","survey-likert","463","1638452","0.0-6.0-2.65","3002234","co38656","norming","","","{""curiosity"":2,""confidence"":0}","[0,1]","../img/tt/1118tt.jpg","",""
"2053.8249999999534","","","recognition","survey-text","464","1640508","0.0-6.0-3.65","3002234","co38656","norming","","","{""guess"":""""}","","../img/tt/1118tt.jpg","",""
"null","../img/gs/1118gs.jpg","null","reveal","image-keyboard-response","465","1642510","0.0-6.0-4.65","3002234","co38656","norming","","","","","","",""
"null","../img/tt/1118tt.jpg","null","mooney2","image-keyboard-response","466","1644516","0.0-6.0-5.65","3002234","co38656","norming","","","","","","",""
"3149.2099999999627","","","post_reveal_questions","survey-likert","467","1647668","0.0-6.0-6.65","3002234","co38656","norming","","","{""aha"":5}","[0]","../img/tt/1118tt.jpg","",""
"null","<div style=""font-size:60px;""> </div>","null","fixation","html-keyboard-response","468","1647869","0.0-6.0-0.66","3002234","co38656","norming","","","","","","",""
"null","../img/tt/580tt.jpg","null","mooney1","image-keyboard-response","469","1650876","0.0-6.0-1.66","3002234","co38656","norming","","","","","","",""
"3940.6899999997113","","","post_mooney1_questions","survey-likert","470","1654820","0.0-6.0-2.66","3002234","co38656","norming","","","{""curiosity"":4,""confidence"":0}","[0,1]","../img/tt/580tt.jpg","",""
"701.8449999999721","","","recognition","survey-text","471","1655524","0.0-6.0-3.66","3002234","co38656","norming","","","{""guess"":""""}","","../img/tt/580tt.jpg","",""
"null","../img/gs/580gs.jpg","null","reveal","image-keyboard-response","472","1657532","0.0-6.0-4.66","3002234","co38656","norming","","","","","","",""
"null","../img/tt/580tt.jpg","null","mooney2","image-keyboard-response","473","1659537","0.0-6.0-5.66","3002234","co38656","norming","","","","","","",""
"3760.820000000065","","","post_reveal_questions","survey-likert","474","1663300","0.0-6.0-6.66","3002234","co38656","norming","","","{""aha"":6}","[0]","../img/tt/580tt.jpg","",""
"null","<div style=""font-size:60px;""> </div>","null","fixation","html-keyboard-response","475","1663506","0.0-6.0-0.67","3002234","co38656","norming","","","","","","",""
"null","../img/tt/1066tt.jpg","null","mooney1","image-keyboard-response","476","1666508","0.0-6.0-1.67","3002234","co38656","norming","","","","","","",""
"4029.9749999998603","","","post_mooney1_questions","survey-likert","477","1670540","0.0-6.0-2.67","3002234","co38656","norming","","","{""curiosity"":2,""confidence"":3}","[0,1]","../img/tt/1066tt.jpg","",""
"1677.9399999999441","","","recognition","survey-text","478","1672220","0.0-6.0-3.67","3002234","co38656","norming","","","{""guess"":""bus""}","","../img/tt/1066tt.jpg","",""
"null","../img/gs/1066gs.jpg","null","reveal","image-keyboard-response","479","1674226","0.0-6.0-4.67","3002234","co38656","norming","","","","","","",""
"null","../img/tt/1066tt.jpg","null","mooney2","image-keyboard-response","480","1676238","0.0-6.0-5.67","3002234","co38656","norming","","","","","","",""
"7723.225000000093","","","post_reveal_questions","survey-likert","481","1683963","0.0-6.0-6.67","3002234","co38656","norming","","","{""aha"":1}","[0]","../img/tt/1066tt.jpg","",""
"null","<div style=""font-size:60px;""> </div>","null","fixation","html-keyboard-response","482","1684169","0.0-6.0-0.68","3002234","co38656","norming","","","","","","",""
"null","../img/tt/085tt.jpg","null","mooney1","image-keyboard-response","483","1687177","0.0-6.0-1.68","3002234","co38656","norming","","","","","","",""
"3902.8149999997113","","","post_mooney1_questions","survey-likert","484","1691083","0.0-6.0-2.68","3002234","co38656","norming","","","{""curiosity"":4,""confidence"":1}","[0,1]","../img/tt/085tt.jpg","",""
"2670.125000000233","","","recognition","survey-text","485","1693755","0.0-6.0-3.68","3002234","co38656","norming","","","{""guess"":""owl""}","","../img/tt/085tt.jpg","",""
"null","../img/gs/085gs.jpg","null","reveal","image-keyboard-response","486","1695762","0.0-6.0-4.68","3002234","co38656","norming","","","","","","",""
"null","../img/tt/085tt.jpg","null","mooney2","image-keyboard-response","487","1697772","0.0-6.0-5.68","3002234","co38656","norming","","","","","","",""
"10036.090000000084","","","post_reveal_questions","survey-likert","488","1707811","0.0-6.0-6.68","3002234","co38656","norming","","","{""aha"":4}","[0]","../img/tt/085tt.jpg","",""
"null","<div style=""font-size:60px;""> </div>","null","fixation","html-keyboard-response","489","1708018","0.0-6.0-0.69","3002234","co38656","norming","","","","","","",""
"null","../img/tt/123tt.jpg","null","mooney1","image-keyboard-response","490","1711021","0.0-6.0-1.69","3002234","co38656","norming","","","","","","",""
"4242.969999999739","","","post_mooney1_questions","survey-likert","491","1715267","0.0-6.0-2.69","3002234","co38656","norming","","","{""curiosity"":1,""confidence"":3}","[0,1]","../img/tt/123tt.jpg","",""
"7286.095000000438","","","recognition","survey-text","492","1722555","0.0-6.0-3.69","3002234","co38656","norming","","","{""guess"":""handtas""}","","../img/tt/123tt.jpg","",""
"null","../img/gs/123gs.jpg","null","reveal","image-keyboard-response","493","1724565","0.0-6.0-4.69","3002234","co38656","norming","","","","","","",""
"null","../img/tt/123tt.jpg","null","mooney2","image-keyboard-response","494","1726575","0.0-6.0-5.69","3002234","co38656","norming","","","","","","",""
"2760.899999999674","","","post_reveal_questions","survey-likert","495","1729339","0.0-6.0-6.69","3002234","co38656","norming","","","{""aha"":1}","[0]","../img/tt/123tt.jpg","",""
"null","<div style=""font-size:60px;""> </div>","null","fixation","html-keyboard-response","496","1729547","0.0-6.0-0.70","3002234","co38656","norming","","","","","","",""
"null","../img/tt/1091tt.jpg","null","mooney1","image-keyboard-response","497","1732550","0.0-6.0-1.70","3002234","co38656","norming","","","","","","",""
"3418.0799999998417","","","post_mooney1_questions","survey-likert","498","1735971","0.0-6.0-2.70","3002234","co38656","norming","","","{""curiosity"":1,""confidence"":5}","[0,1]","../img/tt/1091tt.jpg","",""
"1685.9500000001863","","","recognition","survey-text","499","1737659","0.0-6.0-3.70","3002234","co38656","norming","","","{""guess"":""horse""}","","../img/tt/1091tt.jpg","",""
"null","../img/gs/1091gs.jpg","null","reveal","image-keyboard-response","500","1739660","0.0-6.0-4.70","3002234","co38656","norming","","","","","","",""
"null","../img/tt/1091tt.jpg","null","mooney2","image-keyboard-response","501","1741663","0.0-6.0-5.70","3002234","co38656","norming","","","","","","",""
"3761.464999999618","","","post_reveal_questions","survey-likert","502","1745431","0.0-6.0-6.70","3002234","co38656","norming","","","{""aha"":1}","[0]","../img/tt/1091tt.jpg","",""
"null","<div style=""font-size:60px;""> </div>","null","fixation","html-keyboard-response","503","1745640","0.0-6.0-0.71","3002234","co38656","norming","","","","","","",""
"null","../img/tt/296tt.jpg","null","mooney1","image-keyboard-response","504","1748646","0.0-6.0-1.71","3002234","co38656","norming","","","","","","",""
"4085.445000000065","","","post_mooney1_questions","survey-likert","505","1752735","0.0-6.0-2.71","3002234","co38656","norming","","","{""curiosity"":4,""confidence"":1}","[0,1]","../img/tt/296tt.jpg","",""
"2734.3000000000466","","","recognition","survey-text","506","1755471","0.0-6.0-3.71","3002234","co38656","norming","","","{""guess"":""couch""}","","../img/tt/296tt.jpg","",""
"null","../img/gs/296gs.jpg","null","reveal","image-keyboard-response","507","1757478","0.0-6.0-4.71","3002234","co38656","norming","","","","","","",""
"null","../img/tt/296tt.jpg","null","mooney2","image-keyboard-response","508","1759481","0.0-6.0-5.71","3002234","co38656","norming","","","","","","",""
"2915.9749999998603","","","post_reveal_questions","survey-likert","509","1762399","0.0-6.0-6.71","3002234","co38656","norming","","","{""aha"":4}","[0]","../img/tt/296tt.jpg","",""
"null","<div style=""font-size:60px;""> </div>","null","fixation","html-keyboard-response","510","1762605","0.0-6.0-0.72","3002234","co38656","norming","","","","","","",""
"null","../img/tt/046tt.jpg","null","mooney1","image-keyboard-response","511","1765613","0.0-6.0-1.72","3002234","co38656","norming","","","","","","",""
"6006.954999999842","","","post_mooney1_questions","survey-likert","512","1771623","0.0-6.0-2.72","3002234","co38656","norming","","","{""curiosity"":4,""confidence"":2}","[0,1]","../img/tt/046tt.jpg","",""
"10390.254999999888","","","recognition","survey-text","513","1782015","0.0-6.0-3.72","3002234","co38656","norming","","","{""guess"":""driver""}","","../img/tt/046tt.jpg","",""
"null","../img/gs/046gs.jpg","null","reveal","image-keyboard-response","514","1784024","0.0-6.0-4.72","3002234","co38656","norming","","","","","","",""
"null","../img/tt/046tt.jpg","null","mooney2","image-keyboard-response","515","1786025","0.0-6.0-5.72","3002234","co38656","norming","","","","","","",""
"2298.7299999999814","","","post_reveal_questions","survey-likert","516","1788327","0.0-6.0-6.72","3002234","co38656","norming","","","{""aha"":6}","[0]","../img/tt/046tt.jpg","",""
"null","<div style=""font-size:60px;""> </div>","null","fixation","html-keyboard-response","517","1788530","0.0-6.0-0.73","3002234","co38656","norming","","","","","","",""
"null","../img/tt/1366tt.jpg","null","mooney1","image-keyboard-response","518","1791537","0.0-6.0-1.73","3002234","co38656","norming","","","","","","",""
"3410.905000000028","","","post_mooney1_questions","survey-likert","519","1794952","0.0-6.0-2.73","3002234","co38656","norming","","","{""curiosity"":4,""confidence"":2}","[0,1]","../img/tt/1366tt.jpg","",""
"1365.8950000000186","","","recognition","survey-text","520","1796319","0.0-6.0-3.73","3002234","co38656","norming","","","{""guess"":""pita""}","","../img/tt/1366tt.jpg","",""
"null","../img/gs/1366gs.jpg","null","reveal","image-keyboard-response","521","1798330","0.0-6.0-4.73","3002234","co38656","norming","","","","","","",""
"null","../img/tt/1366tt.jpg","null","mooney2","image-keyboard-response","522","1800341","0.0-6.0-5.73","3002234","co38656","norming","","","","","","",""
"5848.010000000009","","","post_reveal_questions","survey-likert","523","1806184","0.0-6.0-6.73","3002234","co38656","norming","","","{""aha"":1}","[0]","../img/tt/1366tt.jpg","",""
"null","<div style=""font-size:60px;""> </div>","null","fixation","html-keyboard-response","524","1806391","0.0-6.0-0.74","3002234","co38656","norming","","","","","","",""
"null","../img/tt/055tt.jpg","null","mooney1","image-keyboard-response","525","1809399","0.0-6.0-1.74","3002234","co38656","norming","","","","","","",""
"3397.0099999997765","","","post_mooney1_questions","survey-likert","526","1812800","0.0-6.0-2.74","3002234","co38656","norming","","","{""curiosity"":4,""confidence"":2}","[0,1]","../img/tt/055tt.jpg","",""
"1638.524999999674","","","recognition","survey-text","527","1814440","0.0-6.0-3.74","3002234","co38656","norming","","","{""guess"":""saddle""}","","../img/tt/055tt.jpg","",""
"null","../img/gs/055gs.jpg","null","reveal","image-keyboard-response","528","1816451","0.0-6.0-4.74","3002234","co38656","norming","","","","","","",""
"null","../img/tt/055tt.jpg","null","mooney2","image-keyboard-response","529","1818460","0.0-6.0-5.74","3002234","co38656","norming","","","","","","",""
"2338.2400000002235","","","post_reveal_questions","survey-likert","530","1820800","0.0-6.0-6.74","3002234","co38656","norming","","","{""aha"":1}","[0]","../img/tt/055tt.jpg","",""
"null","<div style=""font-size:60px;""> </div>","null","fixation","html-keyboard-response","531","1821003","0.0-6.0-0.75","3002234","co38656","norming","","","","","","",""
"null","../img/tt/358tt.jpg","null","mooney1","image-keyboard-response","532","1824014","0.0-6.0-1.75","3002234","co38656","norming","","","","","","",""
"4574.714999999851","","","post_mooney1_questions","survey-likert","533","1828592","0.0-6.0-2.75","3002234","co38656","norming","","","{""curiosity"":4,""confidence"":2}","[0,1]","../img/tt/358tt.jpg","",""
"1590.1850000000559","","","recognition","survey-text","534","1830184","0.0-6.0-3.75","3002234","co38656","norming","","","{""guess"":""dog""}","","../img/tt/358tt.jpg","",""
"null","../img/gs/358gs.jpg","null","reveal","image-keyboard-response","535","1832190","0.0-6.0-4.75","3002234","co38656","norming","","","","","","",""
"null","../img/tt/358tt.jpg","null","mooney2","image-keyboard-response","536","1834192","0.0-6.0-5.75","3002234","co38656","norming","","","","","","",""
"2877.6100000001024","","","post_reveal_questions","survey-likert","537","1837072","0.0-6.0-6.75","3002234","co38656","norming","","","{""aha"":5}","[0]","../img/tt/358tt.jpg","",""
"null","<div style=""font-size:60px;""> </div>","null","fixation","html-keyboard-response","538","1837282","0.0-6.0-0.76","3002234","co38656","norming","","","","","","",""
"null","../img/tt/1191tt.jpg","null","mooney1","image-keyboard-response","539","1840286","0.0-6.0-1.76","3002234","co38656","norming","","","","","","",""
"4280.48499999987","","","post_mooney1_questions","survey-likert","540","1844568","0.0-6.0-2.76","3002234","co38656","norming","","","{""curiosity"":4,""confidence"":2}","[0,1]","../img/tt/1191tt.jpg","",""
"6398.1049999997485","","","recognition","survey-text","541","1850968","0.0-6.0-3.76","3002234","co38656","norming","","","{""guess"":""peacock""}","","../img/tt/1191tt.jpg","",""
"null","../img/gs/1191gs.jpg","null","reveal","image-keyboard-response","542","1852976","0.0-6.0-4.76","3002234","co38656","norming","","","","","","",""
"null","../img/tt/1191tt.jpg","null","mooney2","image-keyboard-response","543","1854978","0.0-6.0-5.76","3002234","co38656","norming","","","","","","",""
"2403.394999999786","","","post_reveal_questions","survey-likert","544","1857384","0.0-6.0-6.76","3002234","co38656","norming","","","{""aha"":6}","[0]","../img/tt/1191tt.jpg","",""
"null","<div style=""font-size:60px;""> </div>","null","fixation","html-keyboard-response","545","1857588","0.0-6.0-0.77","3002234","co38656","norming","","","","","","",""
"null","../img/tt/380tt.jpg","null","mooney1","image-keyboard-response","546","1860599","0.0-6.0-1.77","3002234","co38656","norming","","","","","","",""
"4005.2849999996834","","","post_mooney1_questions","survey-likert","547","1864609","0.0-6.0-2.77","3002234","co38656","norming","","","{""curiosity"":4,""confidence"":0}","[0,1]","../img/tt/380tt.jpg","",""
"742.0499999998137","","","recognition","survey-text","548","1865352","0.0-6.0-3.77","3002234","co38656","norming","","","{""guess"":""""}","","../img/tt/380tt.jpg","",""
"null","../img/gs/380gs.jpg","null","reveal","image-keyboard-response","549","1867370","0.0-6.0-4.77","3002234","co38656","norming","","","","","","",""
"null","../img/tt/380tt.jpg","null","mooney2","image-keyboard-response","550","1869374","0.0-6.0-5.77","3002234","co38656","norming","","","","","","",""
"2967.2249999998603","","","post_reveal_questions","survey-likert","551","1872343","0.0-6.0-6.77","3002234","co38656","norming","","","{""aha"":6}","[0]","../img/tt/380tt.jpg","",""
