"rt","stimulus","key_press","test_part","trial_type","trial_index","time_elapsed","internal_node_id","totalTime","subject","experiment_name","button_pressed","success","responses","question_order","currentStim","old","correct"
"9562.60999999904","Welcome to the experiment. This is an online experiment so please don't close the tab/window until we say goodbye.  Press any key to begin.","32","instructions","html-keyboard-response","0","9589","0.0-0.0","2936111","co38731","norming","","","","","","",""
"43243.52499999986","<div style='word-wrap: break-word; width: 900px'><h3>Please consider this information carefully before deciding whether to participate in this research</h3><ul style='text-align: left; font-size: .8em;'><li><b>Purpose of the research</b>: To examine how people process images.</li><li><b>What you will do in this research</b>:  Stimuli (images) will be presented on the computer and you will be asked different questions about them.</li><li><b>Time required</b>: Participation will take between 45 and 60 minutes to complete.</li><li><b>Risks</b>:  There are no anticipated risks associated with participating in this study. The effects of participating should be comparable to those you would experience from viewing a computer monitor for 30 minutes and using a mouse or keyboard.</li><li><b>Benefits</b>:  This study provides no benefits to you individually except for the credit. The study provides important information about the nature of perception and learning.</li><li><b>Confidentiality</b>:  Your participation in this study will remain confidential. No personally identifiable information will be associated with your data. Your de-identified data may be shared with other researchers and used in future projects.</li><li><b>Participation and withdrawal</b>:  Your participation in this study is completely voluntary and you may refuse to participate or you may choose to withdraw at any time without penalty.</li><li><b>How to contact the researchers</b>: If you have questions or concerns about your participation or payment, or want to request a summary of research findings, please contact Sander Van de Cruys (KU Leuven), at sander.vandecruys@kuleuven.be.</li></ul><p>The nature and purpose of this research have been sufficiently explained and I agree to participate in this study.  I understand that I am free to withdraw at any time without incurring any penalty.</p><p>Please consent by clicking the button below to continue. Otherwise, please exit the study at this time.</p></div>","","instructions","html-button-response","1","52835","0.0-1.0","2936111","co38731","norming","0","","","","","",""
"","","","instructions","fullscreen","2","58815","0.0-2.0","2936111","co38731","norming","","true","","","","",""
"72194.87000000117","","","sona","survey-html-form","3","131006","0.0-3.0","2936111","co38731","norming","","","[{""name"":""sonaid"",""value"":""38731""},{""name"":""debrief"",""value"":""no""},{""name"":""datajoin"",""value"":""yes""}]","","","",""
"102635.42000000051","<div style='word-wrap: break-word; width: 900px'><h3>Instructions</h3><p>This experiment will have 3 parts. In the first part you will see a series of distorted images like the one below on the left. As you can see in the righthand image, the distorted images are derived from actual photographs. In what follows, you will <strong>briefly</strong> be presented with <strong>only</strong> the distorted image.</p> <div style='float: left; margin-right: 20px;'><img src='../img/018tt.jpg' height='250' width='250'></img></div><div style='float: right; margin-left: 20px;'><img src='../img/018gs.jpg' height='250' width='250'></img></div><p>Subsequently you will be asked a few questions about the image: One question on how <strong>curious</strong> you are about the solution and one on how <strong>confident</strong> you are that you know the solution.</p>Next, we ask you to make a guess on what is in the image. Note that it is OK to name just the <strong>basic level category</strong>. For example when you see a parrot in the image, 'parrot' will obviously be a correct answer but also correct is 'bird'. However, 'animal' will <strong>not</strong> be counted as a correct response. For the example above, 'rose' would be correct or 'flower', but not 'plant'. When soccer players are depicted, 'soccer', 'football', 'soccer players' will be correct, but not 'humans', 'outdoors', or 'sports'. You do not need to describe the image in full, just name the main object in it <strong>in one or two words</strong>. All images depict objects from one of the following broad level categories: animals, inanimate objects, plants, sports, vehicles, and food. Recognizing means knowing <strong>more</strong> than these broad labels for a given image. But we always encourage you to <strong>make a guess</strong> if you can. Note that you are allowed to use <strong>Dutch and English</strong> in your answers, whatever comes easiest for you.</p><p>Press any key to continue.</p></div>","32","instructions","html-keyboard-response","4","233652","0.0-4.0","2936111","co38731","norming","","","","","","",""
"5357.930000000109","<div style='word-wrap: break-word; width: 900px'><h3>Instructions</h3> <p>Next, the solution image will be revealed to you and you'll be asked to indicate how strong your <strong>aha-experience</strong> was after seeing the solution. This describes the positive feeling of the 'click' you sometimes experience, when the pieces of the 'puzzle' fall together and you suddenly have 'insight' in the image.</p><img src='aha.jpg' height='188' width='250'></img><p>Note that there are no right or wrong answers. We are interested in what <strong>you</strong> see in the image and how <strong>you</strong> feel about it.</p><p>Press any key to start the experiment.</p></div>","32","instructions","html-keyboard-response","5","239011","0.0-5.0","2936111","co38731","norming","","","","","","",""
"null","<div style=""font-size:60px;""> </div>","null","fixation","html-keyboard-response","6","239223","0.0-6.0-0.0","2936111","co38731","norming","","","","","","",""
"null","../img/tt/522tt.jpg","null","mooney1","image-keyboard-response","7","242228","0.0-6.0-1.0","2936111","co38731","norming","","","","","","",""
"14211.264999999898","","","post_mooney1_questions","survey-likert","8","256443","0.0-6.0-2.0","2936111","co38731","norming","","","{""curiosity"":3,""confidence"":0}","[0,1]","../img/tt/522tt.jpg","",""
"6269.664999999804","","","recognition","survey-text","9","262715","0.0-6.0-3.0","2936111","co38731","norming","","","{""guess"":""""}","","../img/tt/522tt.jpg","",""
"null","../img/gs/522gs.jpg","null","reveal","image-keyboard-response","10","264722","0.0-6.0-4.0","2936111","co38731","norming","","","","","","",""
"null","../img/tt/522tt.jpg","null","mooney2","image-keyboard-response","11","266731","0.0-6.0-5.0","2936111","co38731","norming","","","","","","",""
"7109.359999998589","","","post_reveal_questions","survey-likert","12","273843","0.0-6.0-6.0","2936111","co38731","norming","","","{""aha"":4}","[0]","../img/tt/522tt.jpg","",""
"null","<div style=""font-size:60px;""> </div>","null","fixation","html-keyboard-response","13","274046","0.0-6.0-0.1","2936111","co38731","norming","","","","","","",""
"null","../img/tt/567tt.jpg","null","mooney1","image-keyboard-response","14","277055","0.0-6.0-1.1","2936111","co38731","norming","","","","","","",""
"5273.719999999215","","","post_mooney1_questions","survey-likert","15","282331","0.0-6.0-2.1","2936111","co38731","norming","","","{""curiosity"":4,""confidence"":1}","[0,1]","../img/tt/567tt.jpg","",""
"7734.015000000014","","","recognition","survey-text","16","290067","0.0-6.0-3.1","2936111","co38731","norming","","","{""guess"":""car""}","","../img/tt/567tt.jpg","",""
"null","../img/gs/567gs.jpg","null","reveal","image-keyboard-response","17","292076","0.0-6.0-4.1","2936111","co38731","norming","","","","","","",""
"null","../img/tt/567tt.jpg","null","mooney2","image-keyboard-response","18","294078","0.0-6.0-5.1","2936111","co38731","norming","","","","","","",""
"3173.424999999057","","","post_reveal_questions","survey-likert","19","297254","0.0-6.0-6.1","2936111","co38731","norming","","","{""aha"":1}","[0]","../img/tt/567tt.jpg","",""
"null","<div style=""font-size:60px;""> </div>","null","fixation","html-keyboard-response","20","297461","0.0-6.0-0.2","2936111","co38731","norming","","","","","","",""
"null","../img/tt/416tt.jpg","null","mooney1","image-keyboard-response","21","300464","0.0-6.0-1.2","2936111","co38731","norming","","","","","","",""
"4755.325000000128","","","post_mooney1_questions","survey-likert","22","305222","0.0-6.0-2.2","2936111","co38731","norming","","","{""curiosity"":1,""confidence"":1}","[0,1]","../img/tt/416tt.jpg","",""
"2726.1450000005425","","","recognition","survey-text","23","307950","0.0-6.0-3.2","2936111","co38731","norming","","","{""guess"":""""}","","../img/tt/416tt.jpg","",""
"null","../img/gs/416gs.jpg","null","reveal","image-keyboard-response","24","309959","0.0-6.0-4.2","2936111","co38731","norming","","","","","","",""
"null","../img/tt/416tt.jpg","null","mooney2","image-keyboard-response","25","311961","0.0-6.0-5.2","2936111","co38731","norming","","","","","","",""
"5755.0749999991385","","","post_reveal_questions","survey-likert","26","317718","0.0-6.0-6.2","2936111","co38731","norming","","","{""aha"":1}","[0]","../img/tt/416tt.jpg","",""
"null","<div style=""font-size:60px;""> </div>","null","fixation","html-keyboard-response","27","317920","0.0-6.0-0.3","2936111","co38731","norming","","","","","","",""
"null","../img/tt/1217tt.jpg","null","mooney1","image-keyboard-response","28","320930","0.0-6.0-1.3","2936111","co38731","norming","","","","","","",""
"5464.67999999912","","","post_mooney1_questions","survey-likert","29","326398","0.0-6.0-2.3","2936111","co38731","norming","","","{""curiosity"":2,""confidence"":0}","[0,1]","../img/tt/1217tt.jpg","",""
"974.234999999695","","","recognition","survey-text","30","327374","0.0-6.0-3.3","2936111","co38731","norming","","","{""guess"":""""}","","../img/tt/1217tt.jpg","",""
"null","../img/gs/1217gs.jpg","null","reveal","image-keyboard-response","31","329382","0.0-6.0-4.3","2936111","co38731","norming","","","","","","",""
"null","../img/tt/1217tt.jpg","null","mooney2","image-keyboard-response","32","331391","0.0-6.0-5.3","2936111","co38731","norming","","","","","","",""
"2572.9649999993853","","","post_reveal_questions","survey-likert","33","333966","0.0-6.0-6.3","2936111","co38731","norming","","","{""aha"":0}","[0]","../img/tt/1217tt.jpg","",""
"null","<div style=""font-size:60px;""> </div>","null","fixation","html-keyboard-response","34","334168","0.0-6.0-0.4","2936111","co38731","norming","","","","","","",""
"null","../img/tt/1069tt.jpg","null","mooney1","image-keyboard-response","35","337174","0.0-6.0-1.4","2936111","co38731","norming","","","","","","",""
"10404.959999999846","","","post_mooney1_questions","survey-likert","36","347582","0.0-6.0-2.4","2936111","co38731","norming","","","{""curiosity"":4,""confidence"":1}","[0,1]","../img/tt/1069tt.jpg","",""
"798.0999999999767","","","recognition","survey-text","37","348382","0.0-6.0-3.4","2936111","co38731","norming","","","{""guess"":""""}","","../img/tt/1069tt.jpg","",""
"null","../img/gs/1069gs.jpg","null","reveal","image-keyboard-response","38","350389","0.0-6.0-4.4","2936111","co38731","norming","","","","","","",""
"null","../img/tt/1069tt.jpg","null","mooney2","image-keyboard-response","39","352396","0.0-6.0-5.4","2936111","co38731","norming","","","","","","",""
"2920.795000000042","","","post_reveal_questions","survey-likert","40","355319","0.0-6.0-6.4","2936111","co38731","norming","","","{""aha"":0}","[0]","../img/tt/1069tt.jpg","",""
"null","<div style=""font-size:60px;""> </div>","null","fixation","html-keyboard-response","41","355525","0.0-6.0-0.5","2936111","co38731","norming","","","","","","",""
"null","../img/tt/1046tt.jpg","null","mooney1","image-keyboard-response","42","358528","0.0-6.0-1.5","2936111","co38731","norming","","","","","","",""
"7996.569999999367","","","post_mooney1_questions","survey-likert","43","366527","0.0-6.0-2.5","2936111","co38731","norming","","","{""curiosity"":2,""confidence"":1}","[0,1]","../img/tt/1046tt.jpg","",""
"4598.074999999895","","","recognition","survey-text","44","371127","0.0-6.0-3.5","2936111","co38731","norming","","","{""guess"":""food""}","","../img/tt/1046tt.jpg","",""
"null","../img/gs/1046gs.jpg","null","reveal","image-keyboard-response","45","373130","0.0-6.0-4.5","2936111","co38731","norming","","","","","","",""
"null","../img/tt/1046tt.jpg","null","mooney2","image-keyboard-response","46","375140","0.0-6.0-5.5","2936111","co38731","norming","","","","","","",""
"5711.950000000768","","","post_reveal_questions","survey-likert","47","380855","0.0-6.0-6.5","2936111","co38731","norming","","","{""aha"":2}","[0]","../img/tt/1046tt.jpg","",""
"null","<div style=""font-size:60px;""> </div>","null","fixation","html-keyboard-response","48","381060","0.0-6.0-0.6","2936111","co38731","norming","","","","","","",""
"null","../img/tt/1237tt.jpg","null","mooney1","image-keyboard-response","49","384066","0.0-6.0-1.6","2936111","co38731","norming","","","","","","",""
"9658.144999999437","","","post_mooney1_questions","survey-likert","50","393727","0.0-6.0-2.6","2936111","co38731","norming","","","{""curiosity"":1,""confidence"":2}","[0,1]","../img/tt/1237tt.jpg","",""
"7254.074999998906","","","recognition","survey-text","51","400983","0.0-6.0-3.6","2936111","co38731","norming","","","{""guess"":""water""}","","../img/tt/1237tt.jpg","",""
"null","../img/gs/1237gs.jpg","null","reveal","image-keyboard-response","52","402985","0.0-6.0-4.6","2936111","co38731","norming","","","","","","",""
"null","../img/tt/1237tt.jpg","null","mooney2","image-keyboard-response","53","404993","0.0-6.0-5.6","2936111","co38731","norming","","","","","","",""
"2227.7450000001118","","","post_reveal_questions","survey-likert","54","407223","0.0-6.0-6.6","2936111","co38731","norming","","","{""aha"":4}","[0]","../img/tt/1237tt.jpg","",""
"null","<div style=""font-size:60px;""> </div>","null","fixation","html-keyboard-response","55","407430","0.0-6.0-0.7","2936111","co38731","norming","","","","","","",""
"null","../img/tt/1363tt.jpg","null","mooney1","image-keyboard-response","56","410433","0.0-6.0-1.7","2936111","co38731","norming","","","","","","",""
"5563.3400000005495","","","post_mooney1_questions","survey-likert","57","415998","0.0-6.0-2.7","2936111","co38731","norming","","","{""curiosity"":4,""confidence"":4}","[0,1]","../img/tt/1363tt.jpg","",""
"2998.11500000034","","","recognition","survey-text","58","418998","0.0-6.0-3.7","2936111","co38731","norming","","","{""guess"":""bird""}","","../img/tt/1363tt.jpg","",""
"null","../img/gs/1363gs.jpg","null","reveal","image-keyboard-response","59","421003","0.0-6.0-4.7","2936111","co38731","norming","","","","","","",""
"null","../img/tt/1363tt.jpg","null","mooney2","image-keyboard-response","60","423011","0.0-6.0-5.7","2936111","co38731","norming","","","","","","",""
"5064.614999999292","","","post_reveal_questions","survey-likert","61","428078","0.0-6.0-6.7","2936111","co38731","norming","","","{""aha"":0}","[0]","../img/tt/1363tt.jpg","",""
"null","<div style=""font-size:60px;""> </div>","null","fixation","html-keyboard-response","62","428283","0.0-6.0-0.8","2936111","co38731","norming","","","","","","",""
"null","../img/tt/515tt.jpg","null","mooney1","image-keyboard-response","63","431287","0.0-6.0-1.8","2936111","co38731","norming","","","","","","",""
"4212.305000000924","","","post_mooney1_questions","survey-likert","64","435502","0.0-6.0-2.8","2936111","co38731","norming","","","{""curiosity"":2,""confidence"":3}","[0,1]","../img/tt/515tt.jpg","",""
"7318.079999999085","","","recognition","survey-text","65","442822","0.0-6.0-3.8","2936111","co38731","norming","","","{""guess"":""sporters""}","","../img/tt/515tt.jpg","",""
"null","../img/gs/515gs.jpg","null","reveal","image-keyboard-response","66","444826","0.0-6.0-4.8","2936111","co38731","norming","","","","","","",""
"null","../img/tt/515tt.jpg","null","mooney2","image-keyboard-response","67","446828","0.0-6.0-5.8","2936111","co38731","norming","","","","","","",""
"3159.3950000006007","","","post_reveal_questions","survey-likert","68","449990","0.0-6.0-6.8","2936111","co38731","norming","","","{""aha"":4}","[0]","../img/tt/515tt.jpg","",""
"null","<div style=""font-size:60px;""> </div>","null","fixation","html-keyboard-response","69","450200","0.0-6.0-0.9","2936111","co38731","norming","","","","","","",""
"null","../img/tt/1261tt.jpg","null","mooney1","image-keyboard-response","70","453209","0.0-6.0-1.9","2936111","co38731","norming","","","","","","",""
"5097.480000000331","","","post_mooney1_questions","survey-likert","71","458310","0.0-6.0-2.9","2936111","co38731","norming","","","{""curiosity"":3,""confidence"":1}","[0,1]","../img/tt/1261tt.jpg","",""
"5086.320000000356","","","recognition","survey-text","72","463398","0.0-6.0-3.9","2936111","co38731","norming","","","{""guess"":""zandbak""}","","../img/tt/1261tt.jpg","",""
"null","../img/gs/1261gs.jpg","null","reveal","image-keyboard-response","73","465406","0.0-6.0-4.9","2936111","co38731","norming","","","","","","",""
"null","../img/tt/1261tt.jpg","null","mooney2","image-keyboard-response","74","467415","0.0-6.0-5.9","2936111","co38731","norming","","","","","","",""
"3611.795000000682","","","post_reveal_questions","survey-likert","75","471030","0.0-6.0-6.9","2936111","co38731","norming","","","{""aha"":5}","[0]","../img/tt/1261tt.jpg","",""
"null","<div style=""font-size:60px;""> </div>","null","fixation","html-keyboard-response","76","471239","0.0-6.0-0.10","2936111","co38731","norming","","","","","","",""
"null","../img/tt/112tt.jpg","null","mooney1","image-keyboard-response","77","474249","0.0-6.0-1.10","2936111","co38731","norming","","","","","","",""
"7045.270000000484","","","post_mooney1_questions","survey-likert","78","481295","0.0-6.0-2.10","2936111","co38731","norming","","","{""curiosity"":4,""confidence"":5}","[0,1]","../img/tt/112tt.jpg","",""
"5582.309999999765","","","recognition","survey-text","79","486879","0.0-6.0-3.10","2936111","co38731","norming","","","{""guess"":""stofzuiger""}","","../img/tt/112tt.jpg","",""
"null","../img/gs/112gs.jpg","null","reveal","image-keyboard-response","80","488888","0.0-6.0-4.10","2936111","co38731","norming","","","","","","",""
"null","../img/tt/112tt.jpg","null","mooney2","image-keyboard-response","81","490897","0.0-6.0-5.10","2936111","co38731","norming","","","","","","",""
"3204.3900000007707","","","post_reveal_questions","survey-likert","82","494103","0.0-6.0-6.10","2936111","co38731","norming","","","{""aha"":2}","[0]","../img/tt/112tt.jpg","",""
"null","<div style=""font-size:60px;""> </div>","null","fixation","html-keyboard-response","83","494306","0.0-6.0-0.11","2936111","co38731","norming","","","","","","",""
"null","../img/tt/1228tt.jpg","null","mooney1","image-keyboard-response","84","497310","0.0-6.0-1.11","2936111","co38731","norming","","","","","","",""
"4814.87000000017","","","post_mooney1_questions","survey-likert","85","502127","0.0-6.0-2.11","2936111","co38731","norming","","","{""curiosity"":2,""confidence"":3}","[0,1]","../img/tt/1228tt.jpg","",""
"3014.259999999893","","","recognition","survey-text","86","505143","0.0-6.0-3.11","2936111","co38731","norming","","","{""guess"":""vogel""}","","../img/tt/1228tt.jpg","",""
"null","../img/gs/1228gs.jpg","null","reveal","image-keyboard-response","87","507145","0.0-6.0-4.11","2936111","co38731","norming","","","","","","",""
"null","../img/tt/1228tt.jpg","null","mooney2","image-keyboard-response","88","509152","0.0-6.0-5.11","2936111","co38731","norming","","","","","","",""
"2300.9899999996996","","","post_reveal_questions","survey-likert","89","511455","0.0-6.0-6.11","2936111","co38731","norming","","","{""aha"":2}","[0]","../img/tt/1228tt.jpg","",""
"null","<div style=""font-size:60px;""> </div>","null","fixation","html-keyboard-response","90","511664","0.0-6.0-0.12","2936111","co38731","norming","","","","","","",""
"null","../img/tt/435tt.jpg","null","mooney1","image-keyboard-response","91","514667","0.0-6.0-1.12","2936111","co38731","norming","","","","","","",""
"6169.4900000002235","","","post_mooney1_questions","survey-likert","92","520839","0.0-6.0-2.12","2936111","co38731","norming","","","{""curiosity"":3,""confidence"":1}","[0,1]","../img/tt/435tt.jpg","",""
"2542.105000000447","","","recognition","survey-text","93","523383","0.0-6.0-3.12","2936111","co38731","norming","","","{""guess"":""huis""}","","../img/tt/435tt.jpg","",""
"null","../img/gs/435gs.jpg","null","reveal","image-keyboard-response","94","525391","0.0-6.0-4.12","2936111","co38731","norming","","","","","","",""
"null","../img/tt/435tt.jpg","null","mooney2","image-keyboard-response","95","527392","0.0-6.0-5.12","2936111","co38731","norming","","","","","","",""
"2604.604999998701","","","post_reveal_questions","survey-likert","96","529999","0.0-6.0-6.12","2936111","co38731","norming","","","{""aha"":6}","[0]","../img/tt/435tt.jpg","",""
"null","<div style=""font-size:60px;""> </div>","null","fixation","html-keyboard-response","97","530208","0.0-6.0-0.13","2936111","co38731","norming","","","","","","",""
"null","../img/tt/440tt.jpg","null","mooney1","image-keyboard-response","98","533215","0.0-6.0-1.13","2936111","co38731","norming","","","","","","",""
"5910.2050000000745","","","post_mooney1_questions","survey-likert","99","539121","0.0-6.0-2.13","2936111","co38731","norming","","","{""curiosity"":5,""confidence"":4}","[0,1]","../img/tt/440tt.jpg","",""
"3101.6899999994785","","","recognition","survey-text","100","542225","0.0-6.0-3.13","2936111","co38731","norming","","","{""guess"":""kat""}","","../img/tt/440tt.jpg","",""
"null","../img/gs/440gs.jpg","null","reveal","image-keyboard-response","101","544226","0.0-6.0-4.13","2936111","co38731","norming","","","","","","",""
"null","../img/tt/440tt.jpg","null","mooney2","image-keyboard-response","102","546233","0.0-6.0-5.13","2936111","co38731","norming","","","","","","",""
"2390.960000000545","","","post_reveal_questions","survey-likert","103","548625","0.0-6.0-6.13","2936111","co38731","norming","","","{""aha"":1}","[0]","../img/tt/440tt.jpg","",""
"null","<div style=""font-size:60px;""> </div>","null","fixation","html-keyboard-response","104","548828","0.0-6.0-0.14","2936111","co38731","norming","","","","","","",""
"null","../img/tt/194tt.jpg","null","mooney1","image-keyboard-response","105","551833","0.0-6.0-1.14","2936111","co38731","norming","","","","","","",""
"5508.719999999739","","","post_mooney1_questions","survey-likert","106","557345","0.0-6.0-2.14","2936111","co38731","norming","","","{""curiosity"":6,""confidence"":6}","[0,1]","../img/tt/194tt.jpg","",""
"13022.02500000014","","","recognition","survey-text","107","570369","0.0-6.0-3.14","2936111","co38731","norming","","","{""guess"":""vrouw met harp""}","","../img/tt/194tt.jpg","",""
"null","../img/gs/194gs.jpg","null","reveal","image-keyboard-response","108","572371","0.0-6.0-4.14","2936111","co38731","norming","","","","","","",""
"null","../img/tt/194tt.jpg","null","mooney2","image-keyboard-response","109","574372","0.0-6.0-5.14","2936111","co38731","norming","","","","","","",""
"3922.134999998845","","","post_reveal_questions","survey-likert","110","578297","0.0-6.0-6.14","2936111","co38731","norming","","","{""aha"":6}","[0]","../img/tt/194tt.jpg","",""
"null","<div style=""font-size:60px;""> </div>","null","fixation","html-keyboard-response","111","578505","0.0-6.0-0.15","2936111","co38731","norming","","","","","","",""
"null","../img/tt/1142tt.jpg","null","mooney1","image-keyboard-response","112","581512","0.0-6.0-1.15","2936111","co38731","norming","","","","","","",""
"3622.434999999241","","","post_mooney1_questions","survey-likert","113","585137","0.0-6.0-2.15","2936111","co38731","norming","","","{""curiosity"":3,""confidence"":4}","[0,1]","../img/tt/1142tt.jpg","",""
"4750.09499999939","","","recognition","survey-text","114","589889","0.0-6.0-3.15","2936111","co38731","norming","","","{""guess"":""tennisser""}","","../img/tt/1142tt.jpg","",""
"null","../img/gs/1142gs.jpg","null","reveal","image-keyboard-response","115","591899","0.0-6.0-4.15","2936111","co38731","norming","","","","","","",""
"null","../img/tt/1142tt.jpg","null","mooney2","image-keyboard-response","116","593901","0.0-6.0-5.15","2936111","co38731","norming","","","","","","",""
"2328.8699999994133","","","post_reveal_questions","survey-likert","117","596235","0.0-6.0-6.15","2936111","co38731","norming","","","{""aha"":2}","[0]","../img/tt/1142tt.jpg","",""
"null","<div style=""font-size:60px;""> </div>","null","fixation","html-keyboard-response","118","596443","0.0-6.0-0.16","2936111","co38731","norming","","","","","","",""
"null","../img/tt/1122tt.jpg","null","mooney1","image-keyboard-response","119","599446","0.0-6.0-1.16","2936111","co38731","norming","","","","","","",""
"6506.999999999651","","","post_mooney1_questions","survey-likert","120","605955","0.0-6.0-2.16","2936111","co38731","norming","","","{""curiosity"":6,""confidence"":6}","[0,1]","../img/tt/1122tt.jpg","",""
"5613.559999999823","","","recognition","survey-text","121","611571","0.0-6.0-3.16","2936111","co38731","norming","","","{""guess"":""auto's""}","","../img/tt/1122tt.jpg","",""
"null","../img/gs/1122gs.jpg","null","reveal","image-keyboard-response","122","613582","0.0-6.0-4.16","2936111","co38731","norming","","","","","","",""
"null","../img/tt/1122tt.jpg","null","mooney2","image-keyboard-response","123","615583","0.0-6.0-5.16","2936111","co38731","norming","","","","","","",""
"2681.1500000003725","","","post_reveal_questions","survey-likert","124","618267","0.0-6.0-6.16","2936111","co38731","norming","","","{""aha"":6}","[0]","../img/tt/1122tt.jpg","",""
"null","<div style=""font-size:60px;""> </div>","null","fixation","html-keyboard-response","125","618473","0.0-6.0-0.17","2936111","co38731","norming","","","","","","",""
"null","../img/tt/1128tt.jpg","null","mooney1","image-keyboard-response","126","621477","0.0-6.0-1.17","2936111","co38731","norming","","","","","","",""
"3507.0999999988126","","","post_mooney1_questions","survey-likert","127","624987","0.0-6.0-2.17","2936111","co38731","norming","","","{""curiosity"":6,""confidence"":6}","[0,1]","../img/tt/1128tt.jpg","",""
"2838.214999999851","","","recognition","survey-text","128","627827","0.0-6.0-3.17","2936111","co38731","norming","","","{""guess"":""beren""}","","../img/tt/1128tt.jpg","",""
"null","../img/gs/1128gs.jpg","null","reveal","image-keyboard-response","129","629830","0.0-6.0-4.17","2936111","co38731","norming","","","","","","",""
"null","../img/tt/1128tt.jpg","null","mooney2","image-keyboard-response","130","631833","0.0-6.0-5.17","2936111","co38731","norming","","","","","","",""
"3319.6349999997765","","","post_reveal_questions","survey-likert","131","635155","0.0-6.0-6.17","2936111","co38731","norming","","","{""aha"":1}","[0]","../img/tt/1128tt.jpg","",""
"null","<div style=""font-size:60px;""> </div>","null","fixation","html-keyboard-response","132","635364","0.0-6.0-0.18","2936111","co38731","norming","","","","","","",""
"null","../img/tt/1283tt.jpg","null","mooney1","image-keyboard-response","133","638370","0.0-6.0-1.18","2936111","co38731","norming","","","","","","",""
"3606.444999999483","","","post_mooney1_questions","survey-likert","134","641979","0.0-6.0-2.18","2936111","co38731","norming","","","{""curiosity"":3,""confidence"":4}","[0,1]","../img/tt/1283tt.jpg","",""
"3878.1450000006007","","","recognition","survey-text","135","645859","0.0-6.0-3.18","2936111","co38731","norming","","","{""guess"":""vossen""}","","../img/tt/1283tt.jpg","",""
"null","../img/gs/1283gs.jpg","null","reveal","image-keyboard-response","136","647865","0.0-6.0-4.18","2936111","co38731","norming","","","","","","",""
"null","../img/tt/1283tt.jpg","null","mooney2","image-keyboard-response","137","649875","0.0-6.0-5.18","2936111","co38731","norming","","","","","","",""
"2189.164999999688","","","post_reveal_questions","survey-likert","138","652067","0.0-6.0-6.18","2936111","co38731","norming","","","{""aha"":4}","[0]","../img/tt/1283tt.jpg","",""
"null","<div style=""font-size:60px;""> </div>","null","fixation","html-keyboard-response","139","652271","0.0-6.0-0.19","2936111","co38731","norming","","","","","","",""
"null","../img/tt/091tt.jpg","null","mooney1","image-keyboard-response","140","655273","0.0-6.0-1.19","2936111","co38731","norming","","","","","","",""
"4215.500000000233","","","post_mooney1_questions","survey-likert","141","659493","0.0-6.0-2.19","2936111","co38731","norming","","","{""curiosity"":5,""confidence"":0}","[0,1]","../img/tt/091tt.jpg","",""
"1165.9749999998603","","","recognition","survey-text","142","660660","0.0-6.0-3.19","2936111","co38731","norming","","","{""guess"":""""}","","../img/tt/091tt.jpg","",""
"null","../img/gs/091gs.jpg","null","reveal","image-keyboard-response","143","662664","0.0-6.0-4.19","2936111","co38731","norming","","","","","","",""
"null","../img/tt/091tt.jpg","null","mooney2","image-keyboard-response","144","664676","0.0-6.0-5.19","2936111","co38731","norming","","","","","","",""
"4213.519999999437","","","post_reveal_questions","survey-likert","145","668892","0.0-6.0-6.19","2936111","co38731","norming","","","{""aha"":0}","[0]","../img/tt/091tt.jpg","",""
"null","<div style=""font-size:60px;""> </div>","null","fixation","html-keyboard-response","146","669099","0.0-6.0-0.20","2936111","co38731","norming","","","","","","",""
"null","../img/tt/477tt.jpg","null","mooney1","image-keyboard-response","147","672101","0.0-6.0-1.20","2936111","co38731","norming","","","","","","",""
"5204.574999999837","","","post_mooney1_questions","survey-likert","148","677309","0.0-6.0-2.20","2936111","co38731","norming","","","{""curiosity"":2,""confidence"":0}","[0,1]","../img/tt/477tt.jpg","",""
"2078.114999998361","","","recognition","survey-text","149","679388","0.0-6.0-3.20","2936111","co38731","norming","","","{""guess"":""""}","","../img/tt/477tt.jpg","",""
"null","../img/gs/477gs.jpg","null","reveal","image-keyboard-response","150","681393","0.0-6.0-4.20","2936111","co38731","norming","","","","","","",""
"null","../img/tt/477tt.jpg","null","mooney2","image-keyboard-response","151","683395","0.0-6.0-5.20","2936111","co38731","norming","","","","","","",""
"4511.20499999891","","","post_reveal_questions","survey-likert","152","687908","0.0-6.0-6.20","2936111","co38731","norming","","","{""aha"":1}","[0]","../img/tt/477tt.jpg","",""
"null","<div style=""font-size:60px;""> </div>","null","fixation","html-keyboard-response","153","688113","0.0-6.0-0.21","2936111","co38731","norming","","","","","","",""
"null","../img/tt/279tt.jpg","null","mooney1","image-keyboard-response","154","691119","0.0-6.0-1.21","2936111","co38731","norming","","","","","","",""
"5308.774999999441","","","post_mooney1_questions","survey-likert","155","696429","0.0-6.0-2.21","2936111","co38731","norming","","","{""curiosity"":5,""confidence"":6}","[0,1]","../img/tt/279tt.jpg","",""
"2438.2299999997485","","","recognition","survey-text","156","698868","0.0-6.0-3.21","2936111","co38731","norming","","","{""guess"":""koala""}","","../img/tt/279tt.jpg","",""
"null","../img/gs/279gs.jpg","null","reveal","image-keyboard-response","157","700879","0.0-6.0-4.21","2936111","co38731","norming","","","","","","",""
"null","../img/tt/279tt.jpg","null","mooney2","image-keyboard-response","158","702881","0.0-6.0-5.21","2936111","co38731","norming","","","","","","",""
"3369.4150000009686","","","post_reveal_questions","survey-likert","159","706252","0.0-6.0-6.21","2936111","co38731","norming","","","{""aha"":3}","[0]","../img/tt/279tt.jpg","",""
"null","<div style=""font-size:60px;""> </div>","null","fixation","html-keyboard-response","160","706454","0.0-6.0-0.22","2936111","co38731","norming","","","","","","",""
"null","../img/tt/121tt.jpg","null","mooney1","image-keyboard-response","161","709457","0.0-6.0-1.22","2936111","co38731","norming","","","","","","",""
"3225.2299999999814","","","post_mooney1_questions","survey-likert","162","712685","0.0-6.0-2.22","2936111","co38731","norming","","","{""curiosity"":3,""confidence"":4}","[0,1]","../img/tt/121tt.jpg","",""
"2342.1949999992503","","","recognition","survey-text","163","715028","0.0-6.0-3.22","2936111","co38731","norming","","","{""guess"":""loper""}","","../img/tt/121tt.jpg","",""
"null","../img/gs/121gs.jpg","null","reveal","image-keyboard-response","164","717037","0.0-6.0-4.22","2936111","co38731","norming","","","","","","",""
"null","../img/tt/121tt.jpg","null","mooney2","image-keyboard-response","165","719042","0.0-6.0-5.22","2936111","co38731","norming","","","","","","",""
"6091.300000000047","","","post_reveal_questions","survey-likert","166","725136","0.0-6.0-6.22","2936111","co38731","norming","","","{""aha"":1}","[0]","../img/tt/121tt.jpg","",""
"null","<div style=""font-size:60px;""> </div>","null","fixation","html-keyboard-response","167","725342","0.0-6.0-0.23","2936111","co38731","norming","","","","","","",""
"null","../img/tt/1171tt.jpg","null","mooney1","image-keyboard-response","168","728349","0.0-6.0-1.23","2936111","co38731","norming","","","","","","",""
"4759.130000000354","","","post_mooney1_questions","survey-likert","169","733112","0.0-6.0-2.23","2936111","co38731","norming","","","{""curiosity"":1,""confidence"":0}","[0,1]","../img/tt/1171tt.jpg","",""
"942.1700000002747","","","recognition","survey-text","170","734056","0.0-6.0-3.23","2936111","co38731","norming","","","{""guess"":""""}","","../img/tt/1171tt.jpg","",""
"null","../img/gs/1171gs.jpg","null","reveal","image-keyboard-response","171","736063","0.0-6.0-4.23","2936111","co38731","norming","","","","","","",""
"null","../img/tt/1171tt.jpg","null","mooney2","image-keyboard-response","172","738072","0.0-6.0-5.23","2936111","co38731","norming","","","","","","",""
"3525.1300000000047","","","post_reveal_questions","survey-likert","173","741600","0.0-6.0-6.23","2936111","co38731","norming","","","{""aha"":1}","[0]","../img/tt/1171tt.jpg","",""
"null","<div style=""font-size:60px;""> </div>","null","fixation","html-keyboard-response","174","741809","0.0-6.0-0.24","2936111","co38731","norming","","","","","","",""
"null","../img/tt/044tt.jpg","null","mooney1","image-keyboard-response","175","744821","0.0-6.0-1.24","2936111","co38731","norming","","","","","","",""
"6608.335000000894","","","post_mooney1_questions","survey-likert","176","751432","0.0-6.0-2.24","2936111","co38731","norming","","","{""curiosity"":4,""confidence"":1}","[0,1]","../img/tt/044tt.jpg","",""
"4270.075000000303","","","recognition","survey-text","177","755704","0.0-6.0-3.24","2936111","co38731","norming","","","{""guess"":""vissen""}","","../img/tt/044tt.jpg","",""
"null","../img/gs/044gs.jpg","null","reveal","image-keyboard-response","178","757706","0.0-6.0-4.24","2936111","co38731","norming","","","","","","",""
"null","../img/tt/044tt.jpg","null","mooney2","image-keyboard-response","179","759710","0.0-6.0-5.24","2936111","co38731","norming","","","","","","",""
"2295.344999998575","","","post_reveal_questions","survey-likert","180","762008","0.0-6.0-6.24","2936111","co38731","norming","","","{""aha"":6}","[0]","../img/tt/044tt.jpg","",""
"null","<div style=""font-size:60px;""> </div>","null","fixation","html-keyboard-response","181","762212","0.0-6.0-0.25","2936111","co38731","norming","","","","","","",""
"null","../img/tt/1226tt.jpg","null","mooney1","image-keyboard-response","182","765220","0.0-6.0-1.25","2936111","co38731","norming","","","","","","",""
"4344.91999999946","","","post_mooney1_questions","survey-likert","183","769568","0.0-6.0-2.25","2936111","co38731","norming","","","{""curiosity"":4,""confidence"":4}","[0,1]","../img/tt/1226tt.jpg","",""
"1958.205000000773","","","recognition","survey-text","184","771528","0.0-6.0-3.25","2936111","co38731","norming","","","{""guess"":""vuur""}","","../img/tt/1226tt.jpg","",""
"null","../img/gs/1226gs.jpg","null","reveal","image-keyboard-response","185","773538","0.0-6.0-4.25","2936111","co38731","norming","","","","","","",""
"null","../img/tt/1226tt.jpg","null","mooney2","image-keyboard-response","186","775540","0.0-6.0-5.25","2936111","co38731","norming","","","","","","",""
"3041.3750000006985","","","post_reveal_questions","survey-likert","187","778584","0.0-6.0-6.25","2936111","co38731","norming","","","{""aha"":1}","[0]","../img/tt/1226tt.jpg","",""
"null","<div style=""font-size:60px;""> </div>","null","fixation","html-keyboard-response","188","778793","0.0-6.0-0.26","2936111","co38731","norming","","","","","","",""
"null","../img/tt/436tt.jpg","null","mooney1","image-keyboard-response","189","781799","0.0-6.0-1.26","2936111","co38731","norming","","","","","","",""
"4421.745000001509","","","post_mooney1_questions","survey-likert","190","786224","0.0-6.0-2.26","2936111","co38731","norming","","","{""curiosity"":2,""confidence"":0}","[0,1]","../img/tt/436tt.jpg","",""
"1734.1249999990687","","","recognition","survey-text","191","787960","0.0-6.0-3.26","2936111","co38731","norming","","","{""guess"":""""}","","../img/tt/436tt.jpg","",""
"null","../img/gs/436gs.jpg","null","reveal","image-keyboard-response","192","789969","0.0-6.0-4.26","2936111","co38731","norming","","","","","","",""
"null","../img/tt/436tt.jpg","null","mooney2","image-keyboard-response","193","791972","0.0-6.0-5.26","2936111","co38731","norming","","","","","","",""
"3946.0299999990966","","","post_reveal_questions","survey-likert","194","795920","0.0-6.0-6.26","2936111","co38731","norming","","","{""aha"":4}","[0]","../img/tt/436tt.jpg","",""
"null","<div style=""font-size:60px;""> </div>","null","fixation","html-keyboard-response","195","796123","0.0-6.0-0.27","2936111","co38731","norming","","","","","","",""
"null","../img/tt/1066tt.jpg","null","mooney1","image-keyboard-response","196","799135","0.0-6.0-1.27","2936111","co38731","norming","","","","","","",""
"4197.5950000014855","","","post_mooney1_questions","survey-likert","197","803336","0.0-6.0-2.27","2936111","co38731","norming","","","{""curiosity"":4,""confidence"":6}","[0,1]","../img/tt/1066tt.jpg","",""
"1693.9149999998044","","","recognition","survey-text","198","805032","0.0-6.0-3.27","2936111","co38731","norming","","","{""guess"":""bus""}","","../img/tt/1066tt.jpg","",""
"null","../img/gs/1066gs.jpg","null","reveal","image-keyboard-response","199","807039","0.0-6.0-4.27","2936111","co38731","norming","","","","","","",""
"null","../img/tt/1066tt.jpg","null","mooney2","image-keyboard-response","200","809042","0.0-6.0-5.27","2936111","co38731","norming","","","","","","",""
"2107.8450000004377","","","post_reveal_questions","survey-likert","201","811152","0.0-6.0-6.27","2936111","co38731","norming","","","{""aha"":4}","[0]","../img/tt/1066tt.jpg","",""
"null","<div style=""font-size:60px;""> </div>","null","fixation","html-keyboard-response","202","811362","0.0-6.0-0.28","2936111","co38731","norming","","","","","","",""
"null","../img/tt/1126tt.jpg","null","mooney1","image-keyboard-response","203","814367","0.0-6.0-1.28","2936111","co38731","norming","","","","","","",""
"4902.545000000857","","","post_mooney1_questions","survey-likert","204","819272","0.0-6.0-2.28","2936111","co38731","norming","","","{""curiosity"":5,""confidence"":0}","[0,1]","../img/tt/1126tt.jpg","",""
"781.9899999994086","","","recognition","survey-text","205","820056","0.0-6.0-3.28","2936111","co38731","norming","","","{""guess"":""""}","","../img/tt/1126tt.jpg","",""
"null","../img/gs/1126gs.jpg","null","reveal","image-keyboard-response","206","822058","0.0-6.0-4.28","2936111","co38731","norming","","","","","","",""
"null","../img/tt/1126tt.jpg","null","mooney2","image-keyboard-response","207","824059","0.0-6.0-5.28","2936111","co38731","norming","","","","","","",""
"1882.3400000000838","","","post_reveal_questions","survey-likert","208","825944","0.0-6.0-6.28","2936111","co38731","norming","","","{""aha"":6}","[0]","../img/tt/1126tt.jpg","",""
"null","<div style=""font-size:60px;""> </div>","null","fixation","html-keyboard-response","209","826148","0.0-6.0-0.29","2936111","co38731","norming","","","","","","",""
"null","../img/tt/060tt.jpg","null","mooney1","image-keyboard-response","210","829156","0.0-6.0-1.29","2936111","co38731","norming","","","","","","",""
"4401.45499999926","","","post_mooney1_questions","survey-likert","211","833560","0.0-6.0-2.29","2936111","co38731","norming","","","{""curiosity"":3,""confidence"":0}","[0,1]","../img/tt/060tt.jpg","",""
"1054.0749999999534","","","recognition","survey-text","212","834616","0.0-6.0-3.29","2936111","co38731","norming","","","{""guess"":""""}","","../img/tt/060tt.jpg","",""
"null","../img/gs/060gs.jpg","null","reveal","image-keyboard-response","213","836618","0.0-6.0-4.29","2936111","co38731","norming","","","","","","",""
"null","../img/tt/060tt.jpg","null","mooney2","image-keyboard-response","214","838625","0.0-6.0-5.29","2936111","co38731","norming","","","","","","",""
"3084.0799999986775","","","post_reveal_questions","survey-likert","215","841712","0.0-6.0-6.29","2936111","co38731","norming","","","{""aha"":1}","[0]","../img/tt/060tt.jpg","",""
"null","<div style=""font-size:60px;""> </div>","null","fixation","html-keyboard-response","216","841914","0.0-6.0-0.30","2936111","co38731","norming","","","","","","",""
"null","../img/tt/358tt.jpg","null","mooney1","image-keyboard-response","217","844918","0.0-6.0-1.30","2936111","co38731","norming","","","","","","",""
"3791.1000000004424","","","post_mooney1_questions","survey-likert","218","848712","0.0-6.0-2.30","2936111","co38731","norming","","","{""curiosity"":5,""confidence"":3}","[0,1]","../img/tt/358tt.jpg","",""
"2238.034999998403","","","recognition","survey-text","219","850952","0.0-6.0-3.30","2936111","co38731","norming","","","{""guess"":""koe""}","","../img/tt/358tt.jpg","",""
"null","../img/gs/358gs.jpg","null","reveal","image-keyboard-response","220","852953","0.0-6.0-4.30","2936111","co38731","norming","","","","","","",""
"null","../img/tt/358tt.jpg","null","mooney2","image-keyboard-response","221","854955","0.0-6.0-5.30","2936111","co38731","norming","","","","","","",""
"1962.2699999999022","","","post_reveal_questions","survey-likert","222","856920","0.0-6.0-6.30","2936111","co38731","norming","","","{""aha"":1}","[0]","../img/tt/358tt.jpg","",""
"null","<div style=""font-size:60px;""> </div>","null","fixation","html-keyboard-response","223","857124","0.0-6.0-0.31","2936111","co38731","norming","","","","","","",""
"null","../img/tt/517tt.jpg","null","mooney1","image-keyboard-response","224","860134","0.0-6.0-1.31","2936111","co38731","norming","","","","","","",""
"4495.56000000122","","","post_mooney1_questions","survey-likert","225","864632","0.0-6.0-2.31","2936111","co38731","norming","","","{""curiosity"":4,""confidence"":2}","[0,1]","../img/tt/517tt.jpg","",""
"2525.990000000107","","","recognition","survey-text","226","867160","0.0-6.0-3.31","2936111","co38731","norming","","","{""guess"":""hond""}","","../img/tt/517tt.jpg","",""
"null","../img/gs/517gs.jpg","null","reveal","image-keyboard-response","227","869165","0.0-6.0-4.31","2936111","co38731","norming","","","","","","",""
"null","../img/tt/517tt.jpg","null","mooney2","image-keyboard-response","228","871168","0.0-6.0-5.31","2936111","co38731","norming","","","","","","",""
"3029.489999998943","","","post_reveal_questions","survey-likert","229","874200","0.0-6.0-6.31","2936111","co38731","norming","","","{""aha"":2}","[0]","../img/tt/517tt.jpg","",""
"null","<div style=""font-size:60px;""> </div>","null","fixation","html-keyboard-response","230","874408","0.0-6.0-0.32","2936111","co38731","norming","","","","","","",""
"null","../img/tt/1224tt.jpg","null","mooney1","image-keyboard-response","231","877412","0.0-6.0-1.32","2936111","co38731","norming","","","","","","",""
"4985.130000001052","","","post_mooney1_questions","survey-likert","232","882400","0.0-6.0-2.32","2936111","co38731","norming","","","{""curiosity"":2,""confidence"":2}","[0,1]","../img/tt/1224tt.jpg","",""
"2869.6899999994785","","","recognition","survey-text","233","885272","0.0-6.0-3.32","2936111","co38731","norming","","","{""guess"":""hond""}","","../img/tt/1224tt.jpg","",""
"null","../img/gs/1224gs.jpg","null","reveal","image-keyboard-response","234","887278","0.0-6.0-4.32","2936111","co38731","norming","","","","","","",""
"null","../img/tt/1224tt.jpg","null","mooney2","image-keyboard-response","235","889286","0.0-6.0-5.32","2936111","co38731","norming","","","","","","",""
"4599.70500000054","","","post_reveal_questions","survey-likert","236","893888","0.0-6.0-6.32","2936111","co38731","norming","","","{""aha"":1}","[0]","../img/tt/1224tt.jpg","",""
"null","<div style=""font-size:60px;""> </div>","null","fixation","html-keyboard-response","237","894093","0.0-6.0-0.33","2936111","co38731","norming","","","","","","",""
"null","../img/tt/1242tt.jpg","null","mooney1","image-keyboard-response","238","897100","0.0-6.0-1.33","2936111","co38731","norming","","","","","","",""
"4513.179999999935","","","post_mooney1_questions","survey-likert","239","901616","0.0-6.0-2.33","2936111","co38731","norming","","","{""curiosity"":1,""confidence"":1}","[0,1]","../img/tt/1242tt.jpg","",""
"3382.074999999604","","","recognition","survey-text","240","904992","0.0-6.0-3.33","2936111","co38731","norming","","","{""guess"":""trompet""}","","../img/tt/1242tt.jpg","",""
"null","../img/gs/1242gs.jpg","null","reveal","image-keyboard-response","241","906996","0.0-6.0-4.33","2936111","co38731","norming","","","","","","",""
"null","../img/tt/1242tt.jpg","null","mooney2","image-keyboard-response","242","909002","0.0-6.0-5.33","2936111","co38731","norming","","","","","","",""
"2131.869999999297","","","post_reveal_questions","survey-likert","243","911135","0.0-6.0-6.33","2936111","co38731","norming","","","{""aha"":1}","[0]","../img/tt/1242tt.jpg","",""
"null","<div style=""font-size:60px;""> </div>","null","fixation","html-keyboard-response","244","911341","0.0-6.0-0.34","2936111","co38731","norming","","","","","","",""
"null","../img/tt/036tt.jpg","null","mooney1","image-keyboard-response","245","914350","0.0-6.0-1.34","2936111","co38731","norming","","","","","","",""
"5407.8000000008615","","","post_mooney1_questions","survey-likert","246","919759","0.0-6.0-2.34","2936111","co38731","norming","","","{""curiosity"":0,""confidence"":0}","[0,1]","../img/tt/036tt.jpg","",""
"1005.6649999988731","","","recognition","survey-text","247","920767","0.0-6.0-3.34","2936111","co38731","norming","","","{""guess"":""""}","","../img/tt/036tt.jpg","",""
"null","../img/gs/036gs.jpg","null","reveal","image-keyboard-response","248","922776","0.0-6.0-4.34","2936111","co38731","norming","","","","","","",""
"null","../img/tt/036tt.jpg","null","mooney2","image-keyboard-response","249","924779","0.0-6.0-5.34","2936111","co38731","norming","","","","","","",""
"2667.3900000004796","","","post_reveal_questions","survey-likert","250","927447","0.0-6.0-6.34","2936111","co38731","norming","","","{""aha"":1}","[0]","../img/tt/036tt.jpg","",""
"null","<div style=""font-size:60px;""> </div>","null","fixation","html-keyboard-response","251","927651","0.0-6.0-0.35","2936111","co38731","norming","","","","","","",""
"null","../img/tt/084tt.jpg","null","mooney1","image-keyboard-response","252","930662","0.0-6.0-1.35","2936111","co38731","norming","","","","","","",""
"6720.649999999325","","","post_mooney1_questions","survey-likert","253","937384","0.0-6.0-2.35","2936111","co38731","norming","","","{""curiosity"":2,""confidence"":0}","[0,1]","../img/tt/084tt.jpg","",""
"773.6499999992084","","","recognition","survey-text","254","938159","0.0-6.0-3.35","2936111","co38731","norming","","","{""guess"":""""}","","../img/tt/084tt.jpg","",""
"null","../img/gs/084gs.jpg","null","reveal","image-keyboard-response","255","940170","0.0-6.0-4.35","2936111","co38731","norming","","","","","","",""
"null","../img/tt/084tt.jpg","null","mooney2","image-keyboard-response","256","942180","0.0-6.0-5.35","2936111","co38731","norming","","","","","","",""
"4130.1849999999395","","","post_reveal_questions","survey-likert","257","946311","0.0-6.0-6.35","2936111","co38731","norming","","","{""aha"":0}","[0]","../img/tt/084tt.jpg","",""
"null","<div style=""font-size:60px;""> </div>","null","fixation","html-keyboard-response","258","946520","0.0-6.0-0.36","2936111","co38731","norming","","","","","","",""
"null","../img/tt/1309tt.jpg","null","mooney1","image-keyboard-response","259","949525","0.0-6.0-1.36","2936111","co38731","norming","","","","","","",""
"4423.260000001406","","","post_mooney1_questions","survey-likert","260","953952","0.0-6.0-2.36","2936111","co38731","norming","","","{""curiosity"":3,""confidence"":6}","[0,1]","../img/tt/1309tt.jpg","",""
"2782.0699999992503","","","recognition","survey-text","261","956735","0.0-6.0-3.36","2936111","co38731","norming","","","{""guess"":""auto""}","","../img/tt/1309tt.jpg","",""
"null","../img/gs/1309gs.jpg","null","reveal","image-keyboard-response","262","958738","0.0-6.0-4.36","2936111","co38731","norming","","","","","","",""
"null","../img/tt/1309tt.jpg","null","mooney2","image-keyboard-response","263","960748","0.0-6.0-5.36","2936111","co38731","norming","","","","","","",""
"3169.275000000256","","","post_reveal_questions","survey-likert","264","963920","0.0-6.0-6.36","2936111","co38731","norming","","","{""aha"":2}","[0]","../img/tt/1309tt.jpg","",""
"null","<div style=""font-size:60px;""> </div>","null","fixation","html-keyboard-response","265","964122","0.0-6.0-0.37","2936111","co38731","norming","","","","","","",""
"null","../img/tt/1070tt.jpg","null","mooney1","image-keyboard-response","266","967127","0.0-6.0-1.37","2936111","co38731","norming","","","","","","",""
"3655.679999999935","","","post_mooney1_questions","survey-likert","267","970784","0.0-6.0-2.37","2936111","co38731","norming","","","{""curiosity"":3,""confidence"":4}","[0,1]","../img/tt/1070tt.jpg","",""
"3806.0850000001956","","","recognition","survey-text","268","974592","0.0-6.0-3.37","2936111","co38731","norming","","","{""guess"":""eten""}","","../img/tt/1070tt.jpg","",""
"null","../img/gs/1070gs.jpg","null","reveal","image-keyboard-response","269","976598","0.0-6.0-4.37","2936111","co38731","norming","","","","","","",""
"null","../img/tt/1070tt.jpg","null","mooney2","image-keyboard-response","270","978600","0.0-6.0-5.37","2936111","co38731","norming","","","","","","",""
"2413.9200000009732","","","post_reveal_questions","survey-likert","271","981016","0.0-6.0-6.37","2936111","co38731","norming","","","{""aha"":3}","[0]","../img/tt/1070tt.jpg","",""
"null","<div style=""font-size:60px;""> </div>","null","fixation","html-keyboard-response","272","981221","0.0-6.0-0.38","2936111","co38731","norming","","","","","","",""
"null","../img/tt/040tt.jpg","null","mooney1","image-keyboard-response","273","984227","0.0-6.0-1.38","2936111","co38731","norming","","","","","","",""
"3556.524999999907","","","post_mooney1_questions","survey-likert","274","987784","0.0-6.0-2.38","2936111","co38731","norming","","","{""curiosity"":4,""confidence"":4}","[0,1]","../img/tt/040tt.jpg","",""
"2165.9150000014342","","","recognition","survey-text","275","989952","0.0-6.0-3.38","2936111","co38731","norming","","","{""guess"":""baby""}","","../img/tt/040tt.jpg","",""
"null","../img/gs/040gs.jpg","null","reveal","image-keyboard-response","276","991953","0.0-6.0-4.38","2936111","co38731","norming","","","","","","",""
"null","../img/tt/040tt.jpg","null","mooney2","image-keyboard-response","277","993956","0.0-6.0-5.38","2936111","co38731","norming","","","","","","",""
"1785.765000000596","","","post_reveal_questions","survey-likert","278","995744","0.0-6.0-6.38","2936111","co38731","norming","","","{""aha"":0}","[0]","../img/tt/040tt.jpg","",""
"null","<div style=""font-size:60px;""> </div>","null","fixation","html-keyboard-response","279","995953","0.0-6.0-0.39","2936111","co38731","norming","","","","","","",""
"null","../img/tt/010tt.jpg","null","mooney1","image-keyboard-response","280","998961","0.0-6.0-1.39","2936111","co38731","norming","","","","","","",""
"4779.559999999125","","","post_mooney1_questions","survey-likert","281","1003744","0.0-6.0-2.39","2936111","co38731","norming","","","{""curiosity"":3,""confidence"":1}","[0,1]","../img/tt/010tt.jpg","",""
"1917.994999999879","","","recognition","survey-text","282","1005664","0.0-6.0-3.39","2936111","co38731","norming","","","{""guess"":""""}","","../img/tt/010tt.jpg","",""
"null","../img/gs/010gs.jpg","null","reveal","image-keyboard-response","283","1007672","0.0-6.0-4.39","2936111","co38731","norming","","","","","","",""
"null","../img/tt/010tt.jpg","null","mooney2","image-keyboard-response","284","1009673","0.0-6.0-5.39","2936111","co38731","norming","","","","","","",""
"2684.3700000008103","","","post_reveal_questions","survey-likert","285","1012360","0.0-6.0-6.39","2936111","co38731","norming","","","{""aha"":0}","[0]","../img/tt/010tt.jpg","",""
"null","<div style=""font-size:60px;""> </div>","null","fixation","html-keyboard-response","286","1012570","0.0-6.0-0.40","2936111","co38731","norming","","","","","","",""
"null","../img/tt/082tt.jpg","null","mooney1","image-keyboard-response","287","1015575","0.0-6.0-1.40","2936111","co38731","norming","","","","","","",""
"3525.4150000000373","","","post_mooney1_questions","survey-likert","288","1019104","0.0-6.0-2.40","2936111","co38731","norming","","","{""curiosity"":0,""confidence"":0}","[0,1]","../img/tt/082tt.jpg","",""
"838.0800000013551","","","recognition","survey-text","289","1019944","0.0-6.0-3.40","2936111","co38731","norming","","","{""guess"":""""}","","../img/tt/082tt.jpg","",""
"null","../img/gs/082gs.jpg","null","reveal","image-keyboard-response","290","1021953","0.0-6.0-4.40","2936111","co38731","norming","","","","","","",""
"null","../img/tt/082tt.jpg","null","mooney2","image-keyboard-response","291","1023971","0.0-6.0-5.40","2936111","co38731","norming","","","","","","",""
"2843.854999999283","","","post_reveal_questions","survey-likert","292","1026818","0.0-6.0-6.40","2936111","co38731","norming","","","{""aha"":0}","[0]","../img/tt/082tt.jpg","",""
"null","<div style=""font-size:60px;""> </div>","null","fixation","html-keyboard-response","293","1027027","0.0-6.0-0.41","2936111","co38731","norming","","","","","","",""
"null","../img/tt/1173tt.jpg","null","mooney1","image-keyboard-response","294","1030032","0.0-6.0-1.41","2936111","co38731","norming","","","","","","",""
"3830.224999999744","","","post_mooney1_questions","survey-likert","295","1033866","0.0-6.0-2.41","2936111","co38731","norming","","","{""curiosity"":4,""confidence"":4}","[0,1]","../img/tt/1173tt.jpg","",""
"6494.134999999078","","","recognition","survey-text","296","1040362","0.0-6.0-3.41","2936111","co38731","norming","","","{""guess"":""voetballers""}","","../img/tt/1173tt.jpg","",""
"null","../img/gs/1173gs.jpg","null","reveal","image-keyboard-response","297","1042372","0.0-6.0-4.41","2936111","co38731","norming","","","","","","",""
"null","../img/tt/1173tt.jpg","null","mooney2","image-keyboard-response","298","1044382","0.0-6.0-5.41","2936111","co38731","norming","","","","","","",""
"2953.025000000722","","","post_reveal_questions","survey-likert","299","1047338","0.0-6.0-6.41","2936111","co38731","norming","","","{""aha"":5}","[0]","../img/tt/1173tt.jpg","",""
"null","<div style=""font-size:60px;""> </div>","null","fixation","html-keyboard-response","300","1047547","0.0-6.0-0.42","2936111","co38731","norming","","","","","","",""
"null","../img/tt/1096tt.jpg","null","mooney1","image-keyboard-response","301","1050553","0.0-6.0-1.42","2936111","co38731","norming","","","","","","",""
"4780.999999999069","","","post_mooney1_questions","survey-likert","302","1055337","0.0-6.0-2.42","2936111","co38731","norming","","","{""curiosity"":3,""confidence"":3}","[0,1]","../img/tt/1096tt.jpg","",""
"5981.929999999935","","","recognition","survey-text","303","1061322","0.0-6.0-3.42","2936111","co38731","norming","","","{""guess"":""volwassenen""}","","../img/tt/1096tt.jpg","",""
"null","../img/gs/1096gs.jpg","null","reveal","image-keyboard-response","304","1063331","0.0-6.0-4.42","2936111","co38731","norming","","","","","","",""
"null","../img/tt/1096tt.jpg","null","mooney2","image-keyboard-response","305","1065342","0.0-6.0-5.42","2936111","co38731","norming","","","","","","",""
"3797.6899999994785","","","post_reveal_questions","survey-likert","306","1069146","0.0-6.0-6.42","2936111","co38731","norming","","","{""aha"":1}","[0]","../img/tt/1096tt.jpg","",""
"null","<div style=""font-size:60px;""> </div>","null","fixation","html-keyboard-response","307","1069352","0.0-6.0-0.43","2936111","co38731","norming","","","","","","",""
"null","../img/tt/108tt.jpg","null","mooney1","image-keyboard-response","308","1072362","0.0-6.0-1.43","2936111","co38731","norming","","","","","","",""
"3756.989999999758","","","post_mooney1_questions","survey-likert","309","1076122","0.0-6.0-2.43","2936111","co38731","norming","","","{""curiosity"":2,""confidence"":1}","[0,1]","../img/tt/108tt.jpg","",""
"3310.0649999997113","","","recognition","survey-text","310","1079434","0.0-6.0-3.43","2936111","co38731","norming","","","{""guess"":""giraf""}","","../img/tt/108tt.jpg","",""
"null","../img/gs/108gs.jpg","null","reveal","image-keyboard-response","311","1081435","0.0-6.0-4.43","2936111","co38731","norming","","","","","","",""
"null","../img/tt/108tt.jpg","null","mooney2","image-keyboard-response","312","1083438","0.0-6.0-5.43","2936111","co38731","norming","","","","","","",""
"2649.1549999990966","","","post_reveal_questions","survey-likert","313","1086088","0.0-6.0-6.43","2936111","co38731","norming","","","{""aha"":4}","[0]","../img/tt/108tt.jpg","",""
"null","<div style=""font-size:60px;""> </div>","null","fixation","html-keyboard-response","314","1086290","0.0-6.0-0.44","2936111","co38731","norming","","","","","","",""
"null","../img/tt/1235tt.jpg","null","mooney1","image-keyboard-response","315","1089298","0.0-6.0-1.44","2936111","co38731","norming","","","","","","",""
"5250.619999998948","","","post_mooney1_questions","survey-likert","316","1094552","0.0-6.0-2.44","2936111","co38731","norming","","","{""curiosity"":3,""confidence"":3}","[0,1]","../img/tt/1235tt.jpg","",""
"2890.7450000005774","","","recognition","survey-text","317","1097447","0.0-6.0-3.44","2936111","co38731","norming","","","{""guess"":""vogels""}","","../img/tt/1235tt.jpg","",""
"null","../img/gs/1235gs.jpg","null","reveal","image-keyboard-response","318","1099450","0.0-6.0-4.44","2936111","co38731","norming","","","","","","",""
"null","../img/tt/1235tt.jpg","null","mooney2","image-keyboard-response","319","1101458","0.0-6.0-5.44","2936111","co38731","norming","","","","","","",""
"1841.3999999992084","","","post_reveal_questions","survey-likert","320","1103303","0.0-6.0-6.44","2936111","co38731","norming","","","{""aha"":1}","[0]","../img/tt/1235tt.jpg","",""
"null","<div style=""font-size:60px;""> </div>","null","fixation","html-keyboard-response","321","1103507","0.0-6.0-0.45","2936111","co38731","norming","","","","","","",""
"null","../img/tt/306tt.jpg","null","mooney1","image-keyboard-response","322","1106520","0.0-6.0-1.45","2936111","co38731","norming","","","","","","",""
"3644.519999999786","","","post_mooney1_questions","survey-likert","323","1110168","0.0-6.0-2.45","2936111","co38731","norming","","","{""curiosity"":0,""confidence"":0}","[0,1]","../img/tt/306tt.jpg","",""
"1030.1899999994785","","","recognition","survey-text","324","1111199","0.0-6.0-3.45","2936111","co38731","norming","","","{""guess"":""""}","","../img/tt/306tt.jpg","",""
"null","../img/gs/306gs.jpg","null","reveal","image-keyboard-response","325","1113208","0.0-6.0-4.45","2936111","co38731","norming","","","","","","",""
"null","../img/tt/306tt.jpg","null","mooney2","image-keyboard-response","326","1115210","0.0-6.0-5.45","2936111","co38731","norming","","","","","","",""
"4026.534999998985","","","post_reveal_questions","survey-likert","327","1119239","0.0-6.0-6.45","2936111","co38731","norming","","","{""aha"":0}","[0]","../img/tt/306tt.jpg","",""
"null","<div style=""font-size:60px;""> </div>","null","fixation","html-keyboard-response","328","1119443","0.0-6.0-0.46","2936111","co38731","norming","","","","","","",""
"null","../img/tt/1353tt.jpg","null","mooney1","image-keyboard-response","329","1122449","0.0-6.0-1.46","2936111","co38731","norming","","","","","","",""
"3770.940000000177","","","post_mooney1_questions","survey-likert","330","1126223","0.0-6.0-2.46","2936111","co38731","norming","","","{""curiosity"":2,""confidence"":2}","[0,1]","../img/tt/1353tt.jpg","",""
"4102.179999999702","","","recognition","survey-text","331","1130327","0.0-6.0-3.46","2936111","co38731","norming","","","{""guess"":""dinosaurus""}","","../img/tt/1353tt.jpg","",""
"null","../img/gs/1353gs.jpg","null","reveal","image-keyboard-response","332","1132334","0.0-6.0-4.46","2936111","co38731","norming","","","","","","",""
"null","../img/tt/1353tt.jpg","null","mooney2","image-keyboard-response","333","1134335","0.0-6.0-5.46","2936111","co38731","norming","","","","","","",""
"2655.2200000004377","","","post_reveal_questions","survey-likert","334","1136992","0.0-6.0-6.46","2936111","co38731","norming","","","{""aha"":5}","[0]","../img/tt/1353tt.jpg","",""
"null","<div style=""font-size:60px;""> </div>","null","fixation","html-keyboard-response","335","1137200","0.0-6.0-0.47","2936111","co38731","norming","","","","","","",""
"null","../img/tt/329tt.jpg","null","mooney1","image-keyboard-response","336","1140205","0.0-6.0-1.47","2936111","co38731","norming","","","","","","",""
"4049.724999998929","","","post_mooney1_questions","survey-likert","337","1144256","0.0-6.0-2.47","2936111","co38731","norming","","","{""curiosity"":1,""confidence"":1}","[0,1]","../img/tt/329tt.jpg","",""
"3093.595000000205","","","recognition","survey-text","338","1147350","0.0-6.0-3.47","2936111","co38731","norming","","","{""guess"":""buggy""}","","../img/tt/329tt.jpg","",""
"null","../img/gs/329gs.jpg","null","reveal","image-keyboard-response","339","1149357","0.0-6.0-4.47","2936111","co38731","norming","","","","","","",""
"null","../img/tt/329tt.jpg","null","mooney2","image-keyboard-response","340","1151367","0.0-6.0-5.47","2936111","co38731","norming","","","","","","",""
"3012.1500000003725","","","post_reveal_questions","survey-likert","341","1154382","0.0-6.0-6.47","2936111","co38731","norming","","","{""aha"":1}","[0]","../img/tt/329tt.jpg","",""
"null","<div style=""font-size:60px;""> </div>","null","fixation","html-keyboard-response","342","1154589","0.0-6.0-0.48","2936111","co38731","norming","","","","","","",""
"null","../img/tt/296tt.jpg","null","mooney1","image-keyboard-response","343","1157600","0.0-6.0-1.48","2936111","co38731","norming","","","","","","",""
"3034.2249999993946","","","post_mooney1_questions","survey-likert","344","1160638","0.0-6.0-2.48","2936111","co38731","norming","","","{""curiosity"":2,""confidence"":4}","[0,1]","../img/tt/296tt.jpg","",""
"2774.190000000177","","","recognition","survey-text","345","1163414","0.0-6.0-3.48","2936111","co38731","norming","","","{""guess"":""piano""}","","../img/tt/296tt.jpg","",""
"null","../img/gs/296gs.jpg","null","reveal","image-keyboard-response","346","1165424","0.0-6.0-4.48","2936111","co38731","norming","","","","","","",""
"null","../img/tt/296tt.jpg","null","mooney2","image-keyboard-response","347","1167427","0.0-6.0-5.48","2936111","co38731","norming","","","","","","",""
"2448.264999999199","","","post_reveal_questions","survey-likert","348","1169878","0.0-6.0-6.48","2936111","co38731","norming","","","{""aha"":6}","[0]","../img/tt/296tt.jpg","",""
"null","<div style=""font-size:60px;""> </div>","null","fixation","html-keyboard-response","349","1170082","0.0-6.0-0.49","2936111","co38731","norming","","","","","","",""
"null","../img/tt/405tt.jpg","null","mooney1","image-keyboard-response","350","1173088","0.0-6.0-1.49","2936111","co38731","norming","","","","","","",""
"4291.055000001332","","","post_mooney1_questions","survey-likert","351","1177382","0.0-6.0-2.49","2936111","co38731","norming","","","{""curiosity"":0,""confidence"":0}","[0,1]","../img/tt/405tt.jpg","",""
"1942.015000000596","","","recognition","survey-text","352","1179326","0.0-6.0-3.49","2936111","co38731","norming","","","{""guess"":""""}","","../img/tt/405tt.jpg","",""
"null","../img/gs/405gs.jpg","null","reveal","image-keyboard-response","353","1181332","0.0-6.0-4.49","2936111","co38731","norming","","","","","","",""
"null","../img/tt/405tt.jpg","null","mooney2","image-keyboard-response","354","1183342","0.0-6.0-5.49","2936111","co38731","norming","","","","","","",""
"3028.964999999618","","","post_reveal_questions","survey-likert","355","1186374","0.0-6.0-6.49","2936111","co38731","norming","","","{""aha"":3}","[0]","../img/tt/405tt.jpg","",""
"null","<div style=""font-size:60px;""> </div>","null","fixation","html-keyboard-response","356","1186581","0.0-6.0-0.50","2936111","co38731","norming","","","","","","",""
"null","../img/tt/318tt.jpg","null","mooney1","image-keyboard-response","357","1189585","0.0-6.0-1.50","2936111","co38731","norming","","","","","","",""
"3239.6399999996647","","","post_mooney1_questions","survey-likert","358","1192830","0.0-6.0-2.50","2936111","co38731","norming","","","{""curiosity"":4,""confidence"":6}","[0,1]","../img/tt/318tt.jpg","",""
"2277.9699999992736","","","recognition","survey-text","359","1195110","0.0-6.0-3.50","2936111","co38731","norming","","","{""guess"":""auto""}","","../img/tt/318tt.jpg","",""
"null","../img/gs/318gs.jpg","null","reveal","image-keyboard-response","360","1197118","0.0-6.0-4.50","2936111","co38731","norming","","","","","","",""
"null","../img/tt/318tt.jpg","null","mooney2","image-keyboard-response","361","1199120","0.0-6.0-5.50","2936111","co38731","norming","","","","","","",""
"3019.070000000065","","","post_reveal_questions","survey-likert","362","1202142","0.0-6.0-6.50","2936111","co38731","norming","","","{""aha"":4}","[0]","../img/tt/318tt.jpg","",""
"null","<div style=""font-size:60px;""> </div>","null","fixation","html-keyboard-response","363","1202347","0.0-6.0-0.51","2936111","co38731","norming","","","","","","",""
"null","../img/tt/1130tt.jpg","null","mooney1","image-keyboard-response","364","1205352","0.0-6.0-1.51","2936111","co38731","norming","","","","","","",""
"3458.564999999013","","","post_mooney1_questions","survey-likert","365","1208821","0.0-6.0-2.51","2936111","co38731","norming","","","{""curiosity"":1,""confidence"":1}","[0,1]","../img/tt/1130tt.jpg","",""
"5381.625","","","recognition","survey-text","366","1214204","0.0-6.0-3.51","2936111","co38731","norming","","","{""guess"":""zetel""}","","../img/tt/1130tt.jpg","",""
"null","../img/gs/1130gs.jpg","null","reveal","image-keyboard-response","367","1216213","0.0-6.0-4.51","2936111","co38731","norming","","","","","","",""
"null","../img/tt/1130tt.jpg","null","mooney2","image-keyboard-response","368","1218219","0.0-6.0-5.51","2936111","co38731","norming","","","","","","",""
"3136.75000000163","","","post_reveal_questions","survey-likert","369","1221356","0.0-6.0-6.51","2936111","co38731","norming","","","{""aha"":1}","[0]","../img/tt/1130tt.jpg","",""
"null","<div style=""font-size:60px;""> </div>","null","fixation","html-keyboard-response","370","1221566","0.0-6.0-0.52","2936111","co38731","norming","","","","","","",""
"null","../img/tt/1053tt.jpg","null","mooney1","image-keyboard-response","371","1224578","0.0-6.0-1.52","2936111","co38731","norming","","","","","","",""
"4326.970000000205","","","post_mooney1_questions","survey-likert","372","1228909","0.0-6.0-2.52","2936111","co38731","norming","","","{""curiosity"":2,""confidence"":3}","[0,1]","../img/tt/1053tt.jpg","",""
"1757.960000000894","","","recognition","survey-text","373","1230668","0.0-6.0-3.52","2936111","co38731","norming","","","{""guess"":""koe""}","","../img/tt/1053tt.jpg","",""
"null","../img/gs/1053gs.jpg","null","reveal","image-keyboard-response","374","1232671","0.0-6.0-4.52","2936111","co38731","norming","","","","","","",""
"null","../img/tt/1053tt.jpg","null","mooney2","image-keyboard-response","375","1234673","0.0-6.0-5.52","2936111","co38731","norming","","","","","","",""
"3249.260000000475","","","post_reveal_questions","survey-likert","376","1237924","0.0-6.0-6.52","2936111","co38731","norming","","","{""aha"":5}","[0]","../img/tt/1053tt.jpg","",""
"null","<div style=""font-size:60px;""> </div>","null","fixation","html-keyboard-response","377","1238129","0.0-6.0-0.53","2936111","co38731","norming","","","","","","",""
"null","../img/tt/1002tt.jpg","null","mooney1","image-keyboard-response","378","1241137","0.0-6.0-1.53","2936111","co38731","norming","","","","","","",""
"3735.8650000004563","","","post_mooney1_questions","survey-likert","379","1244877","0.0-6.0-2.53","2936111","co38731","norming","","","{""curiosity"":1,""confidence"":3}","[0,1]","../img/tt/1002tt.jpg","",""
"2158.085000000894","","","recognition","survey-text","380","1247036","0.0-6.0-3.53","2936111","co38731","norming","","","{""guess"":""beer""}","","../img/tt/1002tt.jpg","",""
"null","../img/gs/1002gs.jpg","null","reveal","image-keyboard-response","381","1249038","0.0-6.0-4.53","2936111","co38731","norming","","","","","","",""
"null","../img/tt/1002tt.jpg","null","mooney2","image-keyboard-response","382","1251041","0.0-6.0-5.53","2936111","co38731","norming","","","","","","",""
"2264.7450000005774","","","post_reveal_questions","survey-likert","383","1253308","0.0-6.0-6.53","2936111","co38731","norming","","","{""aha"":4}","[0]","../img/tt/1002tt.jpg","",""
"null","<div style=""font-size:60px;""> </div>","null","fixation","html-keyboard-response","384","1253510","0.0-6.0-0.54","2936111","co38731","norming","","","","","","",""
"null","../img/tt/599tt.jpg","null","mooney1","image-keyboard-response","385","1256519","0.0-6.0-1.54","2936111","co38731","norming","","","","","","",""
"3946.280000000028","","","post_mooney1_questions","survey-likert","386","1260469","0.0-6.0-2.54","2936111","co38731","norming","","","{""curiosity"":2,""confidence"":4}","[0,1]","../img/tt/599tt.jpg","",""
"2022.1949999995995","","","recognition","survey-text","387","1262492","0.0-6.0-3.54","2936111","co38731","norming","","","{""guess"":""koala""}","","../img/tt/599tt.jpg","",""
"null","../img/gs/599gs.jpg","null","reveal","image-keyboard-response","388","1264499","0.0-6.0-4.54","2936111","co38731","norming","","","","","","",""
"null","../img/tt/599tt.jpg","null","mooney2","image-keyboard-response","389","1266505","0.0-6.0-5.54","2936111","co38731","norming","","","","","","",""
"2384.869999999879","","","post_reveal_questions","survey-likert","390","1268887","0.0-6.0-6.54","2936111","co38731","norming","","","{""aha"":3}","[0]","../img/tt/599tt.jpg","",""
"null","<div style=""font-size:60px;""> </div>","null","fixation","html-keyboard-response","391","1269097","0.0-6.0-0.55","2936111","co38731","norming","","","","","","",""
"null","../img/tt/524tt.jpg","null","mooney1","image-keyboard-response","392","1272099","0.0-6.0-1.55","2936111","co38731","norming","","","","","","",""
"3519.355000000447","","","post_mooney1_questions","survey-likert","393","1275623","0.0-6.0-2.55","2936111","co38731","norming","","","{""curiosity"":0,""confidence"":2}","[0,1]","../img/tt/524tt.jpg","",""
"2222.305000001099","","","recognition","survey-text","394","1277847","0.0-6.0-3.55","2936111","co38731","norming","","","{""guess"":""hond""}","","../img/tt/524tt.jpg","",""
"null","../img/gs/524gs.jpg","null","reveal","image-keyboard-response","395","1279856","0.0-6.0-4.55","2936111","co38731","norming","","","","","","",""
"null","../img/tt/524tt.jpg","null","mooney2","image-keyboard-response","396","1281858","0.0-6.0-5.55","2936111","co38731","norming","","","","","","",""
"4377.94000000041","","","post_reveal_questions","survey-likert","397","1286238","0.0-6.0-6.55","2936111","co38731","norming","","","{""aha"":2}","[0]","../img/tt/524tt.jpg","",""
"null","<div style=""font-size:60px;""> </div>","null","fixation","html-keyboard-response","398","1286449","0.0-6.0-0.56","2936111","co38731","norming","","","","","","",""
"null","../img/tt/357tt.jpg","null","mooney1","image-keyboard-response","399","1289453","0.0-6.0-1.56","2936111","co38731","norming","","","","","","",""
"4656.235000000335","","","post_mooney1_questions","survey-likert","400","1294111","0.0-6.0-2.56","2936111","co38731","norming","","","{""curiosity"":0,""confidence"":2}","[0,1]","../img/tt/357tt.jpg","",""
"1973.8849999995437","","","recognition","survey-text","401","1296087","0.0-6.0-3.56","2936111","co38731","norming","","","{""guess"":""uil""}","","../img/tt/357tt.jpg","",""
"null","../img/gs/357gs.jpg","null","reveal","image-keyboard-response","402","1298091","0.0-6.0-4.56","2936111","co38731","norming","","","","","","",""
"null","../img/tt/357tt.jpg","null","mooney2","image-keyboard-response","403","1300094","0.0-6.0-5.56","2936111","co38731","norming","","","","","","",""
"2229.735000000801","","","post_reveal_questions","survey-likert","404","1302327","0.0-6.0-6.56","2936111","co38731","norming","","","{""aha"":2}","[0]","../img/tt/357tt.jpg","",""
"null","<div style=""font-size:60px;""> </div>","null","fixation","html-keyboard-response","405","1302530","0.0-6.0-0.57","2936111","co38731","norming","","","","","","",""
"null","../img/tt/055tt.jpg","null","mooney1","image-keyboard-response","406","1305536","0.0-6.0-1.57","2936111","co38731","norming","","","","","","",""
"3235.2599999995437","","","post_mooney1_questions","survey-likert","407","1308775","0.0-6.0-2.57","2936111","co38731","norming","","","{""curiosity"":0,""confidence"":0}","[0,1]","../img/tt/055tt.jpg","",""
"974.0650000004098","","","recognition","survey-text","408","1309751","0.0-6.0-3.57","2936111","co38731","norming","","","{""guess"":""""}","","../img/tt/055tt.jpg","",""
"null","../img/gs/055gs.jpg","null","reveal","image-keyboard-response","409","1311754","0.0-6.0-4.57","2936111","co38731","norming","","","","","","",""
"null","../img/tt/055tt.jpg","null","mooney2","image-keyboard-response","410","1313762","0.0-6.0-5.57","2936111","co38731","norming","","","","","","",""
"5178.289999999804","","","post_reveal_questions","survey-likert","411","1318943","0.0-6.0-6.57","2936111","co38731","norming","","","{""aha"":1}","[0]","../img/tt/055tt.jpg","",""
"null","<div style=""font-size:60px;""> </div>","null","fixation","html-keyboard-response","412","1319147","0.0-6.0-0.58","2936111","co38731","norming","","","","","","",""
"null","../img/tt/301tt.jpg","null","mooney1","image-keyboard-response","413","1322153","0.0-6.0-1.58","2936111","co38731","norming","","","","","","",""
"3491.1900000006426","","","post_mooney1_questions","survey-likert","414","1325647","0.0-6.0-2.58","2936111","co38731","norming","","","{""curiosity"":2,""confidence"":2}","[0,1]","../img/tt/301tt.jpg","",""
"4374.01999999932","","","recognition","survey-text","415","1330028","0.0-6.0-3.58","2936111","co38731","norming","","","{""guess"":""cinemazaal""}","","../img/tt/301tt.jpg","",""
"null","../img/gs/301gs.jpg","null","reveal","image-keyboard-response","416","1332039","0.0-6.0-4.58","2936111","co38731","norming","","","","","","",""
"null","../img/tt/301tt.jpg","null","mooney2","image-keyboard-response","417","1334046","0.0-6.0-5.58","2936111","co38731","norming","","","","","","",""
"2356.6749999991152","","","post_reveal_questions","survey-likert","418","1336404","0.0-6.0-6.58","2936111","co38731","norming","","","{""aha"":0}","[0]","../img/tt/301tt.jpg","",""
"null","<div style=""font-size:60px;""> </div>","null","fixation","html-keyboard-response","419","1336610","0.0-6.0-0.59","2936111","co38731","norming","","","","","","",""
"null","../img/tt/1211tt.jpg","null","mooney1","image-keyboard-response","420","1339618","0.0-6.0-1.59","2936111","co38731","norming","","","","","","",""
"3280.8000000005122","","","post_mooney1_questions","survey-likert","421","1342900","0.0-6.0-2.59","2936111","co38731","norming","","","{""curiosity"":1,""confidence"":1}","[0,1]","../img/tt/1211tt.jpg","",""
"2421.8149999997113","","","recognition","survey-text","422","1345324","0.0-6.0-3.59","2936111","co38731","norming","","","{""guess"":""kreeft""}","","../img/tt/1211tt.jpg","",""
"null","../img/gs/1211gs.jpg","null","reveal","image-keyboard-response","423","1347325","0.0-6.0-4.59","2936111","co38731","norming","","","","","","",""
"null","../img/tt/1211tt.jpg","null","mooney2","image-keyboard-response","424","1349327","0.0-6.0-5.59","2936111","co38731","norming","","","","","","",""
"3499.14000000176","","","post_reveal_questions","survey-likert","425","1352828","0.0-6.0-6.59","2936111","co38731","norming","","","{""aha"":1}","[0]","../img/tt/1211tt.jpg","",""
"null","<div style=""font-size:60px;""> </div>","null","fixation","html-keyboard-response","426","1353036","0.0-6.0-0.60","2936111","co38731","norming","","","","","","",""
"null","../img/tt/1200tt.jpg","null","mooney1","image-keyboard-response","427","1356042","0.0-6.0-1.60","2936111","co38731","norming","","","","","","",""
"3831.140000000363","","","post_mooney1_questions","survey-likert","428","1359876","0.0-6.0-2.60","2936111","co38731","norming","","","{""curiosity"":1,""confidence"":1}","[0,1]","../img/tt/1200tt.jpg","",""
"2773.9849999998696","","","recognition","survey-text","429","1362652","0.0-6.0-3.60","2936111","co38731","norming","","","{""guess"":""piano""}","","../img/tt/1200tt.jpg","",""
"null","../img/gs/1200gs.jpg","null","reveal","image-keyboard-response","430","1364659","0.0-6.0-4.60","2936111","co38731","norming","","","","","","",""
"null","../img/tt/1200tt.jpg","null","mooney2","image-keyboard-response","431","1366665","0.0-6.0-5.60","2936111","co38731","norming","","","","","","",""
"2152.0049999998882","","","post_reveal_questions","survey-likert","432","1368820","0.0-6.0-6.60","2936111","co38731","norming","","","{""aha"":1}","[0]","../img/tt/1200tt.jpg","",""
"null","<div style=""font-size:60px;""> </div>","null","fixation","html-keyboard-response","433","1369028","0.0-6.0-0.61","2936111","co38731","norming","","","","","","",""
"null","../img/tt/406tt.jpg","null","mooney1","image-keyboard-response","434","1372040","0.0-6.0-1.61","2936111","co38731","norming","","","","","","",""
"7368.800000000279","","","post_mooney1_questions","survey-likert","435","1379412","0.0-6.0-2.61","2936111","co38731","norming","","","{""curiosity"":2,""confidence"":0}","[0,1]","../img/tt/406tt.jpg","",""
"629.8650000006892","","","recognition","survey-text","436","1380044","0.0-6.0-3.61","2936111","co38731","norming","","","{""guess"":""""}","","../img/tt/406tt.jpg","",""
"null","../img/gs/406gs.jpg","null","reveal","image-keyboard-response","437","1382047","0.0-6.0-4.61","2936111","co38731","norming","","","","","","",""
"null","../img/tt/406tt.jpg","null","mooney2","image-keyboard-response","438","1384057","0.0-6.0-5.61","2936111","co38731","norming","","","","","","",""
"2296.5549999990035","","","post_reveal_questions","survey-likert","439","1386356","0.0-6.0-6.61","2936111","co38731","norming","","","{""aha"":3}","[0]","../img/tt/406tt.jpg","",""
"null","<div style=""font-size:60px;""> </div>","null","fixation","html-keyboard-response","440","1386563","0.0-6.0-0.62","2936111","co38731","norming","","","","","","",""
"null","../img/tt/078tt.jpg","null","mooney1","image-keyboard-response","441","1389569","0.0-6.0-1.62","2936111","co38731","norming","","","","","","",""
"3664.91999999946","","","post_mooney1_questions","survey-likert","442","1393237","0.0-6.0-2.62","2936111","co38731","norming","","","{""curiosity"":2,""confidence"":0}","[0,1]","../img/tt/078tt.jpg","",""
"950.1049999999814","","","recognition","survey-text","443","1394189","0.0-6.0-3.62","2936111","co38731","norming","","","{""guess"":""""}","","../img/tt/078tt.jpg","",""
"null","../img/gs/078gs.jpg","null","reveal","image-keyboard-response","444","1396194","0.0-6.0-4.62","2936111","co38731","norming","","","","","","",""
"null","../img/tt/078tt.jpg","null","mooney2","image-keyboard-response","445","1398203","0.0-6.0-5.62","2936111","co38731","norming","","","","","","",""
"2328.5749999994878","","","post_reveal_questions","survey-likert","446","1400533","0.0-6.0-6.62","2936111","co38731","norming","","","{""aha"":1}","[0]","../img/tt/078tt.jpg","",""
"null","<div style=""font-size:60px;""> </div>","null","fixation","html-keyboard-response","447","1400741","0.0-6.0-0.63","2936111","co38731","norming","","","","","","",""
"null","../img/tt/1279tt.jpg","null","mooney1","image-keyboard-response","448","1403749","0.0-6.0-1.63","2936111","co38731","norming","","","","","","",""
"7637.350000000792","","","post_mooney1_questions","survey-likert","449","1411389","0.0-6.0-2.63","2936111","co38731","norming","","","{""curiosity"":3,""confidence"":0}","[0,1]","../img/tt/1279tt.jpg","",""
"2405.9300000006333","","","recognition","survey-text","450","1413797","0.0-6.0-3.63","2936111","co38731","norming","","","{""guess"":""""}","","../img/tt/1279tt.jpg","",""
"null","../img/gs/1279gs.jpg","null","reveal","image-keyboard-response","451","1415807","0.0-6.0-4.63","2936111","co38731","norming","","","","","","",""
"null","../img/tt/1279tt.jpg","null","mooney2","image-keyboard-response","452","1417815","0.0-6.0-5.63","2936111","co38731","norming","","","","","","",""
"2779.6049999995157","","","post_reveal_questions","survey-likert","453","1420597","0.0-6.0-6.63","2936111","co38731","norming","","","{""aha"":1}","[0]","../img/tt/1279tt.jpg","",""
"null","<div style=""font-size:60px;""> </div>","null","fixation","html-keyboard-response","454","1420804","0.0-6.0-0.64","2936111","co38731","norming","","","","","","",""
"null","../img/tt/507tt.jpg","null","mooney1","image-keyboard-response","455","1423807","0.0-6.0-1.64","2936111","co38731","norming","","","","","","",""
"3410.8450000004377","","","post_mooney1_questions","survey-likert","456","1427221","0.0-6.0-2.64","2936111","co38731","norming","","","{""curiosity"":1,""confidence"":1}","[0,1]","../img/tt/507tt.jpg","",""
"15174.129999999423","","","recognition","survey-text","457","1442397","0.0-6.0-3.64","2936111","co38731","norming","","","{""guess"":""volwassenen dansen""}","","../img/tt/507tt.jpg","",""
"null","../img/gs/507gs.jpg","null","reveal","image-keyboard-response","458","1444399","0.0-6.0-4.64","2936111","co38731","norming","","","","","","",""
"null","../img/tt/507tt.jpg","null","mooney2","image-keyboard-response","459","1446410","0.0-6.0-5.64","2936111","co38731","norming","","","","","","",""
"2144.5849999999627","","","post_reveal_questions","survey-likert","460","1448557","0.0-6.0-6.64","2936111","co38731","norming","","","{""aha"":2}","[0]","../img/tt/507tt.jpg","",""
"null","<div style=""font-size:60px;""> </div>","null","fixation","html-keyboard-response","461","1448765","0.0-6.0-0.65","2936111","co38731","norming","","","","","","",""
"null","../img/tt/315tt.jpg","null","mooney1","image-keyboard-response","462","1451768","0.0-6.0-1.65","2936111","co38731","norming","","","","","","",""
"2738.4499999987893","","","post_mooney1_questions","survey-likert","463","1454510","0.0-6.0-2.65","2936111","co38731","norming","","","{""curiosity"":1,""confidence"":1}","[0,1]","../img/tt/315tt.jpg","",""
"3006.144999999553","","","recognition","survey-text","464","1457518","0.0-6.0-3.65","2936111","co38731","norming","","","{""guess"":""vogel""}","","../img/tt/315tt.jpg","",""
"null","../img/gs/315gs.jpg","null","reveal","image-keyboard-response","465","1459520","0.0-6.0-4.65","2936111","co38731","norming","","","","","","",""
"null","../img/tt/315tt.jpg","null","mooney2","image-keyboard-response","466","1461530","0.0-6.0-5.65","2936111","co38731","norming","","","","","","",""
"2072.6249999990687","","","post_reveal_questions","survey-likert","467","1463606","0.0-6.0-6.65","2936111","co38731","norming","","","{""aha"":1}","[0]","../img/tt/315tt.jpg","",""
"null","<div style=""font-size:60px;""> </div>","null","fixation","html-keyboard-response","468","1463814","0.0-6.0-0.66","2936111","co38731","norming","","","","","","",""
"null","../img/tt/559tt.jpg","null","mooney1","image-keyboard-response","469","1466818","0.0-6.0-1.66","2936111","co38731","norming","","","","","","",""
"6392.644999999786","","","post_mooney1_questions","survey-likert","470","1473214","0.0-6.0-2.66","2936111","co38731","norming","","","{""curiosity"":1,""confidence"":0}","[0,1]","../img/tt/559tt.jpg","",""
"645.9350000005215","","","recognition","survey-text","471","1473862","0.0-6.0-3.66","2936111","co38731","norming","","","{""guess"":""""}","","../img/tt/559tt.jpg","",""
"null","../img/gs/559gs.jpg","null","reveal","image-keyboard-response","472","1475863","0.0-6.0-4.66","2936111","co38731","norming","","","","","","",""
"null","../img/tt/559tt.jpg","null","mooney2","image-keyboard-response","473","1477865","0.0-6.0-5.66","2936111","co38731","norming","","","","","","",""
"2178.9850000003353","","","post_reveal_questions","survey-likert","474","1480045","0.0-6.0-6.66","2936111","co38731","norming","","","{""aha"":1}","[0]","../img/tt/559tt.jpg","",""
"null","<div style=""font-size:60px;""> </div>","null","fixation","html-keyboard-response","475","1480247","0.0-6.0-0.67","2936111","co38731","norming","","","","","","",""
"null","../img/tt/1175tt.jpg","null","mooney1","image-keyboard-response","476","1483252","0.0-6.0-1.67","2936111","co38731","norming","","","","","","",""
"5494.319999999832","","","post_mooney1_questions","survey-likert","477","1488750","0.0-6.0-2.67","2936111","co38731","norming","","","{""curiosity"":2,""confidence"":1}","[0,1]","../img/tt/1175tt.jpg","",""
"2109.8700000001118","","","recognition","survey-text","478","1490862","0.0-6.0-3.67","2936111","co38731","norming","","","{""guess"":""rund""}","","../img/tt/1175tt.jpg","",""
"null","../img/gs/1175gs.jpg","null","reveal","image-keyboard-response","479","1492869","0.0-6.0-4.67","2936111","co38731","norming","","","","","","",""
"null","../img/tt/1175tt.jpg","null","mooney2","image-keyboard-response","480","1494874","0.0-6.0-5.67","2936111","co38731","norming","","","","","","",""
"4001.4449999998324","","","post_reveal_questions","survey-likert","481","1498878","0.0-6.0-6.67","2936111","co38731","norming","","","{""aha"":2}","[0]","../img/tt/1175tt.jpg","",""
"null","<div style=""font-size:60px;""> </div>","null","fixation","html-keyboard-response","482","1499083","0.0-6.0-0.68","2936111","co38731","norming","","","","","","",""
"null","../img/tt/307tt.jpg","null","mooney1","image-keyboard-response","483","1502086","0.0-6.0-1.68","2936111","co38731","norming","","","","","","",""
"6076.47499999986","","","post_mooney1_questions","survey-likert","484","1508166","0.0-6.0-2.68","2936111","co38731","norming","","","{""curiosity"":0,""confidence"":0}","[0,1]","../img/tt/307tt.jpg","",""
"1094.0449999996927","","","recognition","survey-text","485","1509261","0.0-6.0-3.68","2936111","co38731","norming","","","{""guess"":""""}","","../img/tt/307tt.jpg","",""
"null","../img/gs/307gs.jpg","null","reveal","image-keyboard-response","486","1511266","0.0-6.0-4.68","2936111","co38731","norming","","","","","","",""
"null","../img/tt/307tt.jpg","null","mooney2","image-keyboard-response","487","1513270","0.0-6.0-5.68","2936111","co38731","norming","","","","","","",""
"2564.6849999993574","","","post_reveal_questions","survey-likert","488","1515838","0.0-6.0-6.68","2936111","co38731","norming","","","{""aha"":1}","[0]","../img/tt/307tt.jpg","",""
"null","<div style=""font-size:60px;""> </div>","null","fixation","html-keyboard-response","489","1516039","0.0-6.0-0.69","2936111","co38731","norming","","","","","","",""
"null","../img/tt/056tt.jpg","null","mooney1","image-keyboard-response","490","1519049","0.0-6.0-1.69","2936111","co38731","norming","","","","","","",""
"3641.3699999994133","","","post_mooney1_questions","survey-likert","491","1522694","0.0-6.0-2.69","2936111","co38731","norming","","","{""curiosity"":1,""confidence"":1}","[0,1]","../img/tt/056tt.jpg","",""
"12902.149999999907","","","recognition","survey-text","492","1535598","0.0-6.0-3.69","2936111","co38731","norming","","","{""guess"":""speelt muziek op fluit""}","","../img/tt/056tt.jpg","",""
"null","../img/gs/056gs.jpg","null","reveal","image-keyboard-response","493","1537599","0.0-6.0-4.69","2936111","co38731","norming","","","","","","",""
"null","../img/tt/056tt.jpg","null","mooney2","image-keyboard-response","494","1539602","0.0-6.0-5.69","2936111","co38731","norming","","","","","","",""
"1833.6449999988545","","","post_reveal_questions","survey-likert","495","1541438","0.0-6.0-6.69","2936111","co38731","norming","","","{""aha"":3}","[0]","../img/tt/056tt.jpg","",""
"null","<div style=""font-size:60px;""> </div>","null","fixation","html-keyboard-response","496","1541642","0.0-6.0-0.70","2936111","co38731","norming","","","","","","",""
"null","../img/tt/1107tt.jpg","null","mooney1","image-keyboard-response","497","1544645","0.0-6.0-1.70","2936111","co38731","norming","","","","","","",""
"3829.7050000000745","","","post_mooney1_questions","survey-likert","498","1548478","0.0-6.0-2.70","2936111","co38731","norming","","","{""curiosity"":1,""confidence"":2}","[0,1]","../img/tt/1107tt.jpg","",""
"2541.995000001276","","","recognition","survey-text","499","1551022","0.0-6.0-3.70","2936111","co38731","norming","","","{""guess"":""leeuw""}","","../img/tt/1107tt.jpg","",""
"null","../img/gs/1107gs.jpg","null","reveal","image-keyboard-response","500","1553032","0.0-6.0-4.70","2936111","co38731","norming","","","","","","",""
"null","../img/tt/1107tt.jpg","null","mooney2","image-keyboard-response","501","1555039","0.0-6.0-5.70","2936111","co38731","norming","","","","","","",""
"2389.4949999994133","","","post_reveal_questions","survey-likert","502","1557430","0.0-6.0-6.70","2936111","co38731","norming","","","{""aha"":1}","[0]","../img/tt/1107tt.jpg","",""
"null","<div style=""font-size:60px;""> </div>","null","fixation","html-keyboard-response","503","1557640","0.0-6.0-0.71","2936111","co38731","norming","","","","","","",""
"null","../img/tt/1307tt.jpg","null","mooney1","image-keyboard-response","504","1560646","0.0-6.0-1.71","2936111","co38731","norming","","","","","","",""
"4540.520000000484","","","post_mooney1_questions","survey-likert","505","1565190","0.0-6.0-2.71","2936111","co38731","norming","","","{""curiosity"":2,""confidence"":1}","[0,1]","../img/tt/1307tt.jpg","",""
"3494.114999999525","","","recognition","survey-text","506","1568686","0.0-6.0-3.71","2936111","co38731","norming","","","{""guess"":""mandje""}","","../img/tt/1307tt.jpg","",""
"null","../img/gs/1307gs.jpg","null","reveal","image-keyboard-response","507","1570690","0.0-6.0-4.71","2936111","co38731","norming","","","","","","",""
"null","../img/tt/1307tt.jpg","null","mooney2","image-keyboard-response","508","1572692","0.0-6.0-5.71","2936111","co38731","norming","","","","","","",""
"1590.9750000007916","","","post_reveal_questions","survey-likert","509","1574279","0.0-6.0-6.71","2936111","co38731","norming","","","{""aha"":0}","[0]","../img/tt/1307tt.jpg","",""
"null","<div style=""font-size:60px;""> </div>","null","fixation","html-keyboard-response","510","1574484","0.0-6.0-0.72","2936111","co38731","norming","","","","","","",""
"null","../img/tt/1362tt.jpg","null","mooney1","image-keyboard-response","511","1577495","0.0-6.0-1.72","2936111","co38731","norming","","","","","","",""
"4421.010000000009","","","post_mooney1_questions","survey-likert","512","1581919","0.0-6.0-2.72","2936111","co38731","norming","","","{""curiosity"":0,""confidence"":1}","[0,1]","../img/tt/1362tt.jpg","",""
"4982.149999999907","","","recognition","survey-text","513","1586903","0.0-6.0-3.72","2936111","co38731","norming","","","{""guess"":""muziekspeler""}","","../img/tt/1362tt.jpg","",""
"null","../img/gs/1362gs.jpg","null","reveal","image-keyboard-response","514","1588906","0.0-6.0-4.72","2936111","co38731","norming","","","","","","",""
"null","../img/tt/1362tt.jpg","null","mooney2","image-keyboard-response","515","1590916","0.0-6.0-5.72","2936111","co38731","norming","","","","","","",""
"2454.7500000006985","","","post_reveal_questions","survey-likert","516","1593375","0.0-6.0-6.72","2936111","co38731","norming","","","{""aha"":1}","[0]","../img/tt/1362tt.jpg","",""
"null","<div style=""font-size:60px;""> </div>","null","fixation","html-keyboard-response","517","1593585","0.0-6.0-0.73","2936111","co38731","norming","","","","","","",""
"null","../img/tt/1012tt.jpg","null","mooney1","image-keyboard-response","518","1596589","0.0-6.0-1.73","2936111","co38731","norming","","","","","","",""
"3198.8199999995995","","","post_mooney1_questions","survey-likert","519","1599791","0.0-6.0-2.73","2936111","co38731","norming","","","{""curiosity"":1,""confidence"":2}","[0,1]","../img/tt/1012tt.jpg","",""
"2229.9999999995343","","","recognition","survey-text","520","1602023","0.0-6.0-3.73","2936111","co38731","norming","","","{""guess"":""zebra""}","","../img/tt/1012tt.jpg","",""
"null","../img/gs/1012gs.jpg","null","reveal","image-keyboard-response","521","1604030","0.0-6.0-4.73","2936111","co38731","norming","","","","","","",""
"null","../img/tt/1012tt.jpg","null","mooney2","image-keyboard-response","522","1606032","0.0-6.0-5.73","2936111","co38731","norming","","","","","","",""
"2170.570000000065","","","post_reveal_questions","survey-likert","523","1608207","0.0-6.0-6.73","2936111","co38731","norming","","","{""aha"":1}","[0]","../img/tt/1012tt.jpg","",""
"null","<div style=""font-size:60px;""> </div>","null","fixation","html-keyboard-response","524","1608417","0.0-6.0-0.74","2936111","co38731","norming","","","","","","",""
"null","../img/tt/222tt.jpg","null","mooney1","image-keyboard-response","525","1611423","0.0-6.0-1.74","2936111","co38731","norming","","","","","","",""
"3710.1100000001024","","","post_mooney1_questions","survey-likert","526","1615137","0.0-6.0-2.74","2936111","co38731","norming","","","{""curiosity"":1,""confidence"":1}","[0,1]","../img/tt/222tt.jpg","",""
"1796.5399999993388","","","recognition","survey-text","527","1616935","0.0-6.0-3.74","2936111","co38731","norming","","","{""guess"":""bad""}","","../img/tt/222tt.jpg","",""
"null","../img/gs/222gs.jpg","null","reveal","image-keyboard-response","528","1618937","0.0-6.0-4.74","2936111","co38731","norming","","","","","","",""
"null","../img/tt/222tt.jpg","null","mooney2","image-keyboard-response","529","1620939","0.0-6.0-5.74","2936111","co38731","norming","","","","","","",""
"3400.884999999078","","","post_reveal_questions","survey-likert","530","1624343","0.0-6.0-6.74","2936111","co38731","norming","","","{""aha"":5}","[0]","../img/tt/222tt.jpg","",""
"null","<div style=""font-size:60px;""> </div>","null","fixation","html-keyboard-response","531","1624550","0.0-6.0-0.75","2936111","co38731","norming","","","","","","",""
"null","../img/tt/418tt.jpg","null","mooney1","image-keyboard-response","532","1627554","0.0-6.0-1.75","2936111","co38731","norming","","","","","","",""
"3745.030000000028","","","post_mooney1_questions","survey-likert","533","1631303","0.0-6.0-2.75","2936111","co38731","norming","","","{""curiosity"":1,""confidence"":1}","[0,1]","../img/tt/418tt.jpg","",""
"8749.890000001062","","","recognition","survey-text","534","1640061","0.0-6.0-3.75","2936111","co38731","norming","","","{""guess"":""vrouw in winkel""}","","../img/tt/418tt.jpg","",""
"null","../img/gs/418gs.jpg","null","reveal","image-keyboard-response","535","1642064","0.0-6.0-4.75","2936111","co38731","norming","","","","","","",""
"null","../img/tt/418tt.jpg","null","mooney2","image-keyboard-response","536","1644066","0.0-6.0-5.75","2936111","co38731","norming","","","","","","",""
"2544.570000000065","","","post_reveal_questions","survey-likert","537","1646613","0.0-6.0-6.75","2936111","co38731","norming","","","{""aha"":0}","[0]","../img/tt/418tt.jpg","",""
"null","<div style=""font-size:60px;""> </div>","null","fixation","html-keyboard-response","538","1646819","0.0-6.0-0.76","2936111","co38731","norming","","","","","","",""
"null","../img/tt/412tt.jpg","null","mooney1","image-keyboard-response","539","1649823","0.0-6.0-1.76","2936111","co38731","norming","","","","","","",""
"4026.9399999997113","","","post_mooney1_questions","survey-likert","540","1653854","0.0-6.0-2.76","2936111","co38731","norming","","","{""curiosity"":1,""confidence"":1}","[0,1]","../img/tt/412tt.jpg","",""
"2429.7749999987427","","","recognition","survey-text","541","1656285","0.0-6.0-3.76","2936111","co38731","norming","","","{""guess"":""flesje""}","","../img/tt/412tt.jpg","",""
"null","../img/gs/412gs.jpg","null","reveal","image-keyboard-response","542","1658288","0.0-6.0-4.76","2936111","co38731","norming","","","","","","",""
"null","../img/tt/412tt.jpg","null","mooney2","image-keyboard-response","543","1660290","0.0-6.0-5.76","2936111","co38731","norming","","","","","","",""
"2866.1649999995716","","","post_reveal_questions","survey-likert","544","1663157","0.0-6.0-6.76","2936111","co38731","norming","","","{""aha"":1}","[0]","../img/tt/412tt.jpg","",""
"null","<div style=""font-size:60px;""> </div>","null","fixation","html-keyboard-response","545","1663361","0.0-6.0-0.77","2936111","co38731","norming","","","","","","",""
"null","../img/tt/1072tt.jpg","null","mooney1","image-keyboard-response","546","1666367","0.0-6.0-1.77","2936111","co38731","norming","","","","","","",""
"6620.895000000019","","","post_mooney1_questions","survey-likert","547","1672990","0.0-6.0-2.77","2936111","co38731","norming","","","{""curiosity"":0,""confidence"":1}","[0,1]","../img/tt/1072tt.jpg","",""
"2782.080000001006","","","recognition","survey-text","548","1675773","0.0-6.0-3.77","2936111","co38731","norming","","","{""guess"":""keuken""}","","../img/tt/1072tt.jpg","",""
"null","../img/gs/1072gs.jpg","null","reveal","image-keyboard-response","549","1677774","0.0-6.0-4.77","2936111","co38731","norming","","","","","","",""
"null","../img/tt/1072tt.jpg","null","mooney2","image-keyboard-response","550","1679778","0.0-6.0-5.77","2936111","co38731","norming","","","","","","",""
"8176.38000000082","","","post_reveal_questions","survey-likert","551","1687957","0.0-6.0-6.77","2936111","co38731","norming","","","{""aha"":1}","[0]","../img/tt/1072tt.jpg","",""
"null","<div style=""font-size:60px;""> </div>","null","fixation","html-keyboard-response","552","1688160","0.0-6.0-0.78","2936111","co38731","norming","","","","","","",""
