"rt","stimulus","key_press","test_part","trial_type","trial_index","time_elapsed","internal_node_id","totalTime","subject","experiment_name","button_pressed","success","responses","question_order","currentStim","old","correct"
"4450.800000000016","Welcome to the experiment. This is an online experiment so please don't close the tab/window until we say goodbye.  Press any key to begin.","32","instructions","html-keyboard-response","0","4464","0.0-0.0","2699722","co38095","norming","","","","","","",""
"7854.555000000006","<div style='word-wrap: break-word; width: 900px'><h3>Please consider this information carefully before deciding whether to participate in this research</h3><ul style='text-align: left; font-size: .8em;'><li><b>Purpose of the research</b>: To examine how people process images.</li><li><b>What you will do in this research</b>:  Stimuli (images) will be presented on the computer and you will be asked different questions about them.</li><li><b>Time required</b>: Participation will take between 45 and 60 minutes to complete.</li><li><b>Risks</b>:  There are no anticipated risks associated with participating in this study. The effects of participating should be comparable to those you would experience from viewing a computer monitor for 30 minutes and using a mouse or keyboard.</li><li><b>Benefits</b>:  This study provides no benefits to you individually except for the credit. The study provides important information about the nature of perception and learning.</li><li><b>Confidentiality</b>:  Your participation in this study will remain confidential. No personally identifiable information will be associated with your data. Your de-identified data may be shared with other researchers and used in future projects.</li><li><b>Participation and withdrawal</b>:  Your participation in this study is completely voluntary and you may refuse to participate or you may choose to withdraw at any time without penalty.</li><li><b>How to contact the researchers</b>: If you have questions or concerns about your participation or payment, or want to request a summary of research findings, please contact Sander Van de Cruys (KU Leuven), at sander.vandecruys@kuleuven.be.</li></ul><p>The nature and purpose of this research have been sufficiently explained and I agree to participate in this study.  I understand that I am free to withdraw at any time without incurring any penalty.</p><p>Please consent by clicking the button below to continue. Otherwise, please exit the study at this time.</p></div>","","instructions","html-button-response","1","12320","0.0-1.0","2699722","co38095","norming","0","","","","","",""
"","","","instructions","fullscreen","2","19221","0.0-2.0","2699722","co38095","norming","","true","","","","",""
"28250.254999999983","","","sona","survey-html-form","3","47473","0.0-3.0","2699722","co38095","norming","","","[{""name"":""sonaid"",""value"":""38095""},{""name"":""debrief"",""value"":""yes""},{""name"":""datajoin"",""value"":""yes""}]","","","",""
"58362.44000000002","<div style='word-wrap: break-word; width: 900px'><h3>Instructions</h3><p>This experiment will have 3 parts. In the first part you will see a series of distorted images like the one below on the left. As you can see in the righthand image, the distorted images are derived from actual photographs. In what follows, you will <strong>briefly</strong> be presented with <strong>only</strong> the distorted image.</p> <div style='float: left; margin-right: 20px;'><img src='../img/018tt.jpg' height='250' width='250'></img></div><div style='float: right; margin-left: 20px;'><img src='../img/018gs.jpg' height='250' width='250'></img></div><p>Subsequently you will be asked a few questions about the image: One question on how <strong>curious</strong> you are about the solution and one on how <strong>confident</strong> you are that you know the solution.</p>Next, we ask you to make a guess on what is in the image. Note that it is OK to name just the <strong>basic level category</strong>. For example when you see a parrot in the image, 'parrot' will obviously be a correct answer but also correct is 'bird'. However, 'animal' will <strong>not</strong> be counted as a correct response. For the example above, 'rose' would be correct or 'flower', but not 'plant'. When soccer players are depicted, 'soccer', 'football', 'soccer players' will be correct, but not 'humans', 'outdoors', or 'sports'. You do not need to describe the image in full, just name the main object in it <strong>in one or two words</strong>. All images depict objects from one of the following broad level categories: animals, inanimate objects, plants, sports, vehicles, and food. Recognizing means knowing <strong>more</strong> than these broad labels for a given image. But we always encourage you to <strong>make a guess</strong> if you can. Note that you are allowed to use <strong>Dutch and English</strong> in your answers, whatever comes easiest for you.</p><p>Press any key to continue.</p></div>","32","instructions","html-keyboard-response","4","105838","0.0-4.0","2699722","co38095","norming","","","","","","",""
"58447.364999999976","<div style='word-wrap: break-word; width: 900px'><h3>Instructions</h3> <p>Next, the solution image will be revealed to you and you'll be asked to indicate how strong your <strong>aha-experience</strong> was after seeing the solution. This describes the positive feeling of the 'click' you sometimes experience, when the pieces of the 'puzzle' fall together and you suddenly have 'insight' in the image.</p><img src='aha.jpg' height='188' width='250'></img><p>Note that there are no right or wrong answers. We are interested in what <strong>you</strong> see in the image and how <strong>you</strong> feel about it.</p><p>Press any key to start the experiment.</p></div>","32","instructions","html-keyboard-response","5","164286","0.0-5.0","2699722","co38095","norming","","","","","","",""
"null","<div style=""font-size:60px;""> </div>","null","fixation","html-keyboard-response","6","164487","0.0-6.0-0.0","2699722","co38095","norming","","","","","","",""
"null","../img/tt/1241tt.jpg","null","mooney1","image-keyboard-response","7","167498","0.0-6.0-1.0","2699722","co38095","norming","","","","","","",""
"8101.085000000021","","","post_mooney1_questions","survey-likert","8","175601","0.0-6.0-2.0","2699722","co38095","norming","","","{""curiosity"":5,""confidence"":0}","[0,1]","../img/tt/1241tt.jpg","",""
"5613.645000000019","","","recognition","survey-text","9","181217","0.0-6.0-3.0","2699722","co38095","norming","","","{""guess"":""""}","","../img/tt/1241tt.jpg","",""
"null","../img/gs/1241gs.jpg","null","reveal","image-keyboard-response","10","183219","0.0-6.0-4.0","2699722","co38095","norming","","","","","","",""
"null","../img/tt/1241tt.jpg","null","mooney2","image-keyboard-response","11","185222","0.0-6.0-5.0","2699722","co38095","norming","","","","","","",""
"4153.135000000038","","","post_reveal_questions","survey-likert","12","189376","0.0-6.0-6.0","2699722","co38095","norming","","","{""aha"":5}","[0]","../img/tt/1241tt.jpg","",""
"null","<div style=""font-size:60px;""> </div>","null","fixation","html-keyboard-response","13","189579","0.0-6.0-0.1","2699722","co38095","norming","","","","","","",""
"null","../img/tt/279tt.jpg","null","mooney1","image-keyboard-response","14","192585","0.0-6.0-1.1","2699722","co38095","norming","","","","","","",""
"6334.6050000000105","","","post_mooney1_questions","survey-likert","15","198921","0.0-6.0-2.1","2699722","co38095","norming","","","{""curiosity"":3,""confidence"":5}","[0,1]","../img/tt/279tt.jpg","",""
"4006.125","","","recognition","survey-text","16","202928","0.0-6.0-3.1","2699722","co38095","norming","","","{""guess"":""koala""}","","../img/tt/279tt.jpg","",""
"null","../img/gs/279gs.jpg","null","reveal","image-keyboard-response","17","204939","0.0-6.0-4.1","2699722","co38095","norming","","","","","","",""
"null","../img/tt/279tt.jpg","null","mooney2","image-keyboard-response","18","206947","0.0-6.0-5.1","2699722","co38095","norming","","","","","","",""
"4764.915000000037","","","post_reveal_questions","survey-likert","19","211712","0.0-6.0-6.1","2699722","co38095","norming","","","{""aha"":1}","[0]","../img/tt/279tt.jpg","",""
"null","<div style=""font-size:60px;""> </div>","null","fixation","html-keyboard-response","20","211921","0.0-6.0-0.2","2699722","co38095","norming","","","","","","",""
"null","../img/tt/060tt.jpg","null","mooney1","image-keyboard-response","21","214929","0.0-6.0-1.2","2699722","co38095","norming","","","","","","",""
"8191.025000000023","","","post_mooney1_questions","survey-likert","22","223121","0.0-6.0-2.2","2699722","co38095","norming","","","{""curiosity"":4,""confidence"":0}","[0,1]","../img/tt/060tt.jpg","",""
"1213.8399999999965","","","recognition","survey-text","23","224336","0.0-6.0-3.2","2699722","co38095","norming","","","{""guess"":""""}","","../img/tt/060tt.jpg","",""
"null","../img/gs/060gs.jpg","null","reveal","image-keyboard-response","24","226338","0.0-6.0-4.2","2699722","co38095","norming","","","","","","",""
"null","../img/tt/060tt.jpg","null","mooney2","image-keyboard-response","25","228345","0.0-6.0-5.2","2699722","co38095","norming","","","","","","",""
"4482.579999999987","","","post_reveal_questions","survey-likert","26","232828","0.0-6.0-6.2","2699722","co38095","norming","","","{""aha"":6}","[0]","../img/tt/060tt.jpg","",""
"null","<div style=""font-size:60px;""> </div>","null","fixation","html-keyboard-response","27","233038","0.0-6.0-0.3","2699722","co38095","norming","","","","","","",""
"null","../img/tt/1154tt.jpg","null","mooney1","image-keyboard-response","28","236048","0.0-6.0-1.3","2699722","co38095","norming","","","","","","",""
"4707.170000000013","","","post_mooney1_questions","survey-likert","29","240757","0.0-6.0-2.3","2699722","co38095","norming","","","{""curiosity"":3,""confidence"":1}","[0,1]","../img/tt/1154tt.jpg","",""
"3182.110000000015","","","recognition","survey-text","30","243941","0.0-6.0-3.3","2699722","co38095","norming","","","{""guess"":""straat""}","","../img/tt/1154tt.jpg","",""
"null","../img/gs/1154gs.jpg","null","reveal","image-keyboard-response","31","245945","0.0-6.0-4.3","2699722","co38095","norming","","","","","","",""
"null","../img/tt/1154tt.jpg","null","mooney2","image-keyboard-response","32","247946","0.0-6.0-5.3","2699722","co38095","norming","","","","","","",""
"2824.664999999979","","","post_reveal_questions","survey-likert","33","250773","0.0-6.0-6.3","2699722","co38095","norming","","","{""aha"":6}","[0]","../img/tt/1154tt.jpg","",""
"null","<div style=""font-size:60px;""> </div>","null","fixation","html-keyboard-response","34","250975","0.0-6.0-0.4","2699722","co38095","norming","","","","","","",""
"null","../img/tt/358tt.jpg","null","mooney1","image-keyboard-response","35","253977","0.0-6.0-1.4","2699722","co38095","norming","","","","","","",""
"4273.149999999994","","","post_mooney1_questions","survey-likert","36","258253","0.0-6.0-2.4","2699722","co38095","norming","","","{""curiosity"":5,""confidence"":1}","[0,1]","../img/tt/358tt.jpg","",""
"2973.8250000000407","","","recognition","survey-text","37","261229","0.0-6.0-3.4","2699722","co38095","norming","","","{""guess"":""hond""}","","../img/tt/358tt.jpg","",""
"null","../img/gs/358gs.jpg","null","reveal","image-keyboard-response","38","263231","0.0-6.0-4.4","2699722","co38095","norming","","","","","","",""
"null","../img/tt/358tt.jpg","null","mooney2","image-keyboard-response","39","265243","0.0-6.0-5.4","2699722","co38095","norming","","","","","","",""
"3687.765000000014","","","post_reveal_questions","survey-likert","40","268933","0.0-6.0-6.4","2699722","co38095","norming","","","{""aha"":4}","[0]","../img/tt/358tt.jpg","",""
"null","<div style=""font-size:60px;""> </div>","null","fixation","html-keyboard-response","41","269134","0.0-6.0-0.5","2699722","co38095","norming","","","","","","",""
"null","../img/tt/1087tt.jpg","null","mooney1","image-keyboard-response","42","272143","0.0-6.0-1.5","2699722","co38095","norming","","","","","","",""
"4412.979999999923","","","post_mooney1_questions","survey-likert","43","276557","0.0-6.0-2.5","2699722","co38095","norming","","","{""curiosity"":3,""confidence"":3}","[0,1]","../img/tt/1087tt.jpg","",""
"3245.9249999999884","","","recognition","survey-text","44","279805","0.0-6.0-3.5","2699722","co38095","norming","","","{""guess"":""schapen""}","","../img/tt/1087tt.jpg","",""
"null","../img/gs/1087gs.jpg","null","reveal","image-keyboard-response","45","281812","0.0-6.0-4.5","2699722","co38095","norming","","","","","","",""
"null","../img/tt/1087tt.jpg","null","mooney2","image-keyboard-response","46","283820","0.0-6.0-5.5","2699722","co38095","norming","","","","","","",""
"2374.524999999965","","","post_reveal_questions","survey-likert","47","286197","0.0-6.0-6.5","2699722","co38095","norming","","","{""aha"":2}","[0]","../img/tt/1087tt.jpg","",""
"null","<div style=""font-size:60px;""> </div>","null","fixation","html-keyboard-response","48","286398","0.0-6.0-0.6","2699722","co38095","norming","","","","","","",""
"null","../img/tt/124tt.jpg","null","mooney1","image-keyboard-response","49","289375","0.0-6.0-1.6","2699722","co38095","norming","","","","","","",""
"5249.554999999993","","","post_mooney1_questions","survey-likert","50","294627","0.0-6.0-2.6","2699722","co38095","norming","","","{""curiosity"":5,""confidence"":2}","[0,1]","../img/tt/124tt.jpg","",""
"2438.134999999951","","","recognition","survey-text","51","297066","0.0-6.0-3.6","2699722","co38095","norming","","","{""guess"":""beer""}","","../img/tt/124tt.jpg","",""
"null","../img/gs/124gs.jpg","null","reveal","image-keyboard-response","52","299069","0.0-6.0-4.6","2699722","co38095","norming","","","","","","",""
"null","../img/tt/124tt.jpg","null","mooney2","image-keyboard-response","53","301072","0.0-6.0-5.6","2699722","co38095","norming","","","","","","",""
"3280.8950000000186","","","post_reveal_questions","survey-likert","54","304354","0.0-6.0-6.6","2699722","co38095","norming","","","{""aha"":5}","[0]","../img/tt/124tt.jpg","",""
"null","<div style=""font-size:60px;""> </div>","null","fixation","html-keyboard-response","55","304557","0.0-6.0-0.7","2699722","co38095","norming","","","","","","",""
"null","../img/tt/056tt.jpg","null","mooney1","image-keyboard-response","56","307569","0.0-6.0-1.7","2699722","co38095","norming","","","","","","",""
"6383.645000000019","","","post_mooney1_questions","survey-likert","57","313955","0.0-6.0-2.7","2699722","co38095","norming","","","{""curiosity"":4,""confidence"":2}","[0,1]","../img/tt/056tt.jpg","",""
"2886.17499999993","","","recognition","survey-text","58","316842","0.0-6.0-3.7","2699722","co38095","norming","","","{""guess"":""wolf""}","","../img/tt/056tt.jpg","",""
"null","../img/gs/056gs.jpg","null","reveal","image-keyboard-response","59","318847","0.0-6.0-4.7","2699722","co38095","norming","","","","","","",""
"null","../img/tt/056tt.jpg","null","mooney2","image-keyboard-response","60","320858","0.0-6.0-5.7","2699722","co38095","norming","","","","","","",""
"5830.594999999972","","","post_reveal_questions","survey-likert","61","326691","0.0-6.0-6.7","2699722","co38095","norming","","","{""aha"":4}","[0]","../img/tt/056tt.jpg","",""
"null","<div style=""font-size:60px;""> </div>","null","fixation","html-keyboard-response","62","326894","0.0-6.0-0.8","2699722","co38095","norming","","","","","","",""
"null","../img/tt/1148tt.jpg","null","mooney1","image-keyboard-response","63","329898","0.0-6.0-1.8","2699722","co38095","norming","","","","","","",""
"3997.9150000000373","","","post_mooney1_questions","survey-likert","64","333899","0.0-6.0-2.8","2699722","co38095","norming","","","{""curiosity"":5,""confidence"":2}","[0,1]","../img/tt/1148tt.jpg","",""
"3118.1250000001164","","","recognition","survey-text","65","337018","0.0-6.0-3.8","2699722","co38095","norming","","","{""guess"":""danseres""}","","../img/tt/1148tt.jpg","",""
"null","../img/gs/1148gs.jpg","null","reveal","image-keyboard-response","66","339023","0.0-6.0-4.8","2699722","co38095","norming","","","","","","",""
"null","../img/tt/1148tt.jpg","null","mooney2","image-keyboard-response","67","341024","0.0-6.0-5.8","2699722","co38095","norming","","","","","","",""
"4881.489999999991","","","post_reveal_questions","survey-likert","68","345907","0.0-6.0-6.8","2699722","co38095","norming","","","{""aha"":6}","[0]","../img/tt/1148tt.jpg","",""
"null","<div style=""font-size:60px;""> </div>","null","fixation","html-keyboard-response","69","346113","0.0-6.0-0.9","2699722","co38095","norming","","","","","","",""
"null","../img/tt/1072tt.jpg","null","mooney1","image-keyboard-response","70","349116","0.0-6.0-1.9","2699722","co38095","norming","","","","","","",""
"5838.025000000023","","","post_mooney1_questions","survey-likert","71","354919","0.0-6.0-2.9","2699722","co38095","norming","","","{""curiosity"":4,""confidence"":0}","[0,1]","../img/tt/1072tt.jpg","",""
"1061.990000000049","","","recognition","survey-text","72","355983","0.0-6.0-3.9","2699722","co38095","norming","","","{""guess"":""""}","","../img/tt/1072tt.jpg","",""
"null","../img/gs/1072gs.jpg","null","reveal","image-keyboard-response","73","357984","0.0-6.0-4.9","2699722","co38095","norming","","","","","","",""
"null","../img/tt/1072tt.jpg","null","mooney2","image-keyboard-response","74","359987","0.0-6.0-5.9","2699722","co38095","norming","","","","","","",""
"2690.405000000028","","","post_reveal_questions","survey-likert","75","362679","0.0-6.0-6.9","2699722","co38095","norming","","","{""aha"":5}","[0]","../img/tt/1072tt.jpg","",""
"null","<div style=""font-size:60px;""> </div>","null","fixation","html-keyboard-response","76","362885","0.0-6.0-0.10","2699722","co38095","norming","","","","","","",""
"null","../img/tt/1217tt.jpg","null","mooney1","image-keyboard-response","77","365894","0.0-6.0-1.10","2699722","co38095","norming","","","","","","",""
"5382.979999999981","","","post_mooney1_questions","survey-likert","78","371279","0.0-6.0-2.10","2699722","co38095","norming","","","{""curiosity"":5,""confidence"":1}","[0,1]","../img/tt/1217tt.jpg","",""
"4670.034999999974","","","recognition","survey-text","79","375951","0.0-6.0-3.10","2699722","co38095","norming","","","{""guess"":""kind met schaap""}","","../img/tt/1217tt.jpg","",""
"null","../img/gs/1217gs.jpg","null","reveal","image-keyboard-response","80","377961","0.0-6.0-4.10","2699722","co38095","norming","","","","","","",""
"null","../img/tt/1217tt.jpg","null","mooney2","image-keyboard-response","81","379969","0.0-6.0-5.10","2699722","co38095","norming","","","","","","",""
"2403.6249999998836","","","post_reveal_questions","survey-likert","82","382375","0.0-6.0-6.10","2699722","co38095","norming","","","{""aha"":6}","[0]","../img/tt/1217tt.jpg","",""
"null","<div style=""font-size:60px;""> </div>","null","fixation","html-keyboard-response","83","382583","0.0-6.0-0.11","2699722","co38095","norming","","","","","","",""
"null","../img/tt/1097tt.jpg","null","mooney1","image-keyboard-response","84","385589","0.0-6.0-1.11","2699722","co38095","norming","","","","","","",""
"7600.994999999995","","","post_mooney1_questions","survey-likert","85","393191","0.0-6.0-2.11","2699722","co38095","norming","","","{""curiosity"":3,""confidence"":4}","[0,1]","../img/tt/1097tt.jpg","",""
"2902.055000000051","","","recognition","survey-text","86","396095","0.0-6.0-3.11","2699722","co38095","norming","","","{""guess"":""surfer""}","","../img/tt/1097tt.jpg","",""
"null","../img/gs/1097gs.jpg","null","reveal","image-keyboard-response","87","398105","0.0-6.0-4.11","2699722","co38095","norming","","","","","","",""
"null","../img/tt/1097tt.jpg","null","mooney2","image-keyboard-response","88","400107","0.0-6.0-5.11","2699722","co38095","norming","","","","","","",""
"2617.999999999942","","","post_reveal_questions","survey-likert","89","402727","0.0-6.0-6.11","2699722","co38095","norming","","","{""aha"":2}","[0]","../img/tt/1097tt.jpg","",""
"null","<div style=""font-size:60px;""> </div>","null","fixation","html-keyboard-response","90","402934","0.0-6.0-0.12","2699722","co38095","norming","","","","","","",""
"null","../img/tt/1181tt.jpg","null","mooney1","image-keyboard-response","91","405936","0.0-6.0-1.12","2699722","co38095","norming","","","","","","",""
"3707.999999999942","","","post_mooney1_questions","survey-likert","92","409647","0.0-6.0-2.12","2699722","co38095","norming","","","{""curiosity"":5,""confidence"":1}","[0,1]","../img/tt/1181tt.jpg","",""
"3486.694999999949","","","recognition","survey-text","93","413101","0.0-6.0-3.12","2699722","co38095","norming","","","{""guess"":""soldaten""}","","../img/tt/1181tt.jpg","",""
"null","../img/gs/1181gs.jpg","null","reveal","image-keyboard-response","94","415109","0.0-6.0-4.12","2699722","co38095","norming","","","","","","",""
"null","../img/tt/1181tt.jpg","null","mooney2","image-keyboard-response","95","417111","0.0-6.0-5.12","2699722","co38095","norming","","","","","","",""
"3268.1699999999255","","","post_reveal_questions","survey-likert","96","420381","0.0-6.0-6.12","2699722","co38095","norming","","","{""aha"":5}","[0]","../img/tt/1181tt.jpg","",""
"null","<div style=""font-size:60px;""> </div>","null","fixation","html-keyboard-response","97","420582","0.0-6.0-0.13","2699722","co38095","norming","","","","","","",""
"null","../img/tt/1118tt.jpg","null","mooney1","image-keyboard-response","98","423585","0.0-6.0-1.13","2699722","co38095","norming","","","","","","",""
"5675.075000000012","","","post_mooney1_questions","survey-likert","99","429261","0.0-6.0-2.13","2699722","co38095","norming","","","{""curiosity"":5,""confidence"":1}","[0,1]","../img/tt/1118tt.jpg","",""
"3213.980000000098","","","recognition","survey-text","100","432477","0.0-6.0-3.13","2699722","co38095","norming","","","{""guess"":""olifant""}","","../img/tt/1118tt.jpg","",""
"null","../img/gs/1118gs.jpg","null","reveal","image-keyboard-response","101","434479","0.0-6.0-4.13","2699722","co38095","norming","","","","","","",""
"null","../img/tt/1118tt.jpg","null","mooney2","image-keyboard-response","102","436487","0.0-6.0-5.13","2699722","co38095","norming","","","","","","",""
"3371.8099999999977","","","post_reveal_questions","survey-likert","103","439861","0.0-6.0-6.13","2699722","co38095","norming","","","{""aha"":3}","[0]","../img/tt/1118tt.jpg","",""
"null","<div style=""font-size:60px;""> </div>","null","fixation","html-keyboard-response","104","440069","0.0-6.0-0.14","2699722","co38095","norming","","","","","","",""
"null","../img/tt/1270tt.jpg","null","mooney1","image-keyboard-response","105","443081","0.0-6.0-1.14","2699722","co38095","norming","","","","","","",""
"3585.569999999949","","","post_mooney1_questions","survey-likert","106","446669","0.0-6.0-2.14","2699722","co38095","norming","","","{""curiosity"":6,""confidence"":0}","[0,1]","../img/tt/1270tt.jpg","",""
"885.6350000000093","","","recognition","survey-text","107","447556","0.0-6.0-3.14","2699722","co38095","norming","","","{""guess"":""""}","","../img/tt/1270tt.jpg","",""
"null","../img/gs/1270gs.jpg","null","reveal","image-keyboard-response","108","449563","0.0-6.0-4.14","2699722","co38095","norming","","","","","","",""
"null","../img/tt/1270tt.jpg","null","mooney2","image-keyboard-response","109","451569","0.0-6.0-5.14","2699722","co38095","norming","","","","","","",""
"3338.6849999999395","","","post_reveal_questions","survey-likert","110","454909","0.0-6.0-6.14","2699722","co38095","norming","","","{""aha"":5}","[0]","../img/tt/1270tt.jpg","",""
"null","<div style=""font-size:60px;""> </div>","null","fixation","html-keyboard-response","111","455110","0.0-6.0-0.15","2699722","co38095","norming","","","","","","",""
"null","../img/tt/096tt.jpg","null","mooney1","image-keyboard-response","112","458122","0.0-6.0-1.15","2699722","co38095","norming","","","","","","",""
"4056.17499999993","","","post_mooney1_questions","survey-likert","113","462181","0.0-6.0-2.15","2699722","co38095","norming","","","{""curiosity"":5,""confidence"":1}","[0,1]","../img/tt/096tt.jpg","",""
"5389.744999999937","","","recognition","survey-text","114","467572","0.0-6.0-3.15","2699722","co38095","norming","","","{""guess"":""naaimachine""}","","../img/tt/096tt.jpg","",""
"null","../img/gs/096gs.jpg","null","reveal","image-keyboard-response","115","469574","0.0-6.0-4.15","2699722","co38095","norming","","","","","","",""
"null","../img/tt/096tt.jpg","null","mooney2","image-keyboard-response","116","471575","0.0-6.0-5.15","2699722","co38095","norming","","","","","","",""
"3484.6750000000466","","","post_reveal_questions","survey-likert","117","475020","0.0-6.0-6.15","2699722","co38095","norming","","","{""aha"":4}","[0]","../img/tt/096tt.jpg","",""
"null","<div style=""font-size:60px;""> </div>","null","fixation","html-keyboard-response","118","475229","0.0-6.0-0.16","2699722","co38095","norming","","","","","","",""
"null","../img/tt/020tt.jpg","null","mooney1","image-keyboard-response","119","478232","0.0-6.0-1.16","2699722","co38095","norming","","","","","","",""
"3018.0999999999767","","","post_mooney1_questions","survey-likert","120","481253","0.0-6.0-2.16","2699722","co38095","norming","","","{""curiosity"":6,""confidence"":0}","[0,1]","../img/tt/020tt.jpg","",""
"637.4050000000279","","","recognition","survey-text","121","481892","0.0-6.0-3.16","2699722","co38095","norming","","","{""guess"":""""}","","../img/tt/020tt.jpg","",""
"null","../img/gs/020gs.jpg","null","reveal","image-keyboard-response","122","483900","0.0-6.0-4.16","2699722","co38095","norming","","","","","","",""
"null","../img/tt/020tt.jpg","null","mooney2","image-keyboard-response","123","485905","0.0-6.0-5.16","2699722","co38095","norming","","","","","","",""
"2145.179999999993","","","post_reveal_questions","survey-likert","124","488052","0.0-6.0-6.16","2699722","co38095","norming","","","{""aha"":6}","[0]","../img/tt/020tt.jpg","",""
"null","<div style=""font-size:60px;""> </div>","null","fixation","html-keyboard-response","125","488259","0.0-6.0-0.17","2699722","co38095","norming","","","","","","",""
"null","../img/tt/1046tt.jpg","null","mooney1","image-keyboard-response","126","491264","0.0-6.0-1.17","2699722","co38095","norming","","","","","","",""
"4337.705000000016","","","post_mooney1_questions","survey-likert","127","495604","0.0-6.0-2.17","2699722","co38095","norming","","","{""curiosity"":4,""confidence"":1}","[0,1]","../img/tt/1046tt.jpg","",""
"3310.270000000077","","","recognition","survey-text","128","498916","0.0-6.0-3.17","2699722","co38095","norming","","","{""guess"":""puppies""}","","../img/tt/1046tt.jpg","",""
"null","../img/gs/1046gs.jpg","null","reveal","image-keyboard-response","129","500917","0.0-6.0-4.17","2699722","co38095","norming","","","","","","",""
"null","../img/tt/1046tt.jpg","null","mooney2","image-keyboard-response","130","502928","0.0-6.0-5.17","2699722","co38095","norming","","","","","","",""
"2721.9099999999744","","","post_reveal_questions","survey-likert","131","505652","0.0-6.0-6.17","2699722","co38095","norming","","","{""aha"":6}","[0]","../img/tt/1046tt.jpg","",""
"null","<div style=""font-size:60px;""> </div>","null","fixation","html-keyboard-response","132","505860","0.0-6.0-0.18","2699722","co38095","norming","","","","","","",""
"null","../img/tt/1053tt.jpg","null","mooney1","image-keyboard-response","133","508870","0.0-6.0-1.18","2699722","co38095","norming","","","","","","",""
"5076.09500000003","","","post_mooney1_questions","survey-likert","134","513949","0.0-6.0-2.18","2699722","co38095","norming","","","{""curiosity"":6,""confidence"":1}","[0,1]","../img/tt/1053tt.jpg","",""
"6749.9899999999325","","","recognition","survey-text","135","520700","0.0-6.0-3.18","2699722","co38095","norming","","","{""guess"":""nijlpaarden""}","","../img/tt/1053tt.jpg","",""
"null","../img/gs/1053gs.jpg","null","reveal","image-keyboard-response","136","522705","0.0-6.0-4.18","2699722","co38095","norming","","","","","","",""
"null","../img/tt/1053tt.jpg","null","mooney2","image-keyboard-response","137","524716","0.0-6.0-5.18","2699722","co38095","norming","","","","","","",""
"4206.5599999999395","","","post_reveal_questions","survey-likert","138","528924","0.0-6.0-6.18","2699722","co38095","norming","","","{""aha"":6}","[0]","../img/tt/1053tt.jpg","",""
"null","<div style=""font-size:60px;""> </div>","null","fixation","html-keyboard-response","139","529132","0.0-6.0-0.19","2699722","co38095","norming","","","","","","",""
"null","../img/tt/1196tt.jpg","null","mooney1","image-keyboard-response","140","532137","0.0-6.0-1.19","2699722","co38095","norming","","","","","","",""
"4056.7449999999953","","","post_mooney1_questions","survey-likert","141","536172","0.0-6.0-2.19","2699722","co38095","norming","","","{""curiosity"":6,""confidence"":0}","[0,1]","../img/tt/1196tt.jpg","",""
"654.0450000000419","","","recognition","survey-text","142","536828","0.0-6.0-3.19","2699722","co38095","norming","","","{""guess"":""""}","","../img/tt/1196tt.jpg","",""
"null","../img/gs/1196gs.jpg","null","reveal","image-keyboard-response","143","538833","0.0-6.0-4.19","2699722","co38095","norming","","","","","","",""
"null","../img/tt/1196tt.jpg","null","mooney2","image-keyboard-response","144","540844","0.0-6.0-5.19","2699722","co38095","norming","","","","","","",""
"5238.054999999935","","","post_reveal_questions","survey-likert","145","546084","0.0-6.0-6.19","2699722","co38095","norming","","","{""aha"":5}","[0]","../img/tt/1196tt.jpg","",""
"null","<div style=""font-size:60px;""> </div>","null","fixation","html-keyboard-response","146","546291","0.0-6.0-0.20","2699722","co38095","norming","","","","","","",""
"null","../img/tt/098tt.jpg","null","mooney1","image-keyboard-response","147","549294","0.0-6.0-1.20","2699722","co38095","norming","","","","","","",""
"9043.805000000051","","","post_mooney1_questions","survey-likert","148","558340","0.0-6.0-2.20","2699722","co38095","norming","","","{""curiosity"":4,""confidence"":0}","[0,1]","../img/tt/098tt.jpg","",""
"613.609999999986","","","recognition","survey-text","149","558956","0.0-6.0-3.20","2699722","co38095","norming","","","{""guess"":""""}","","../img/tt/098tt.jpg","",""
"null","../img/gs/098gs.jpg","null","reveal","image-keyboard-response","150","560962","0.0-6.0-4.20","2699722","co38095","norming","","","","","","",""
"null","../img/tt/098tt.jpg","null","mooney2","image-keyboard-response","151","562974","0.0-6.0-5.20","2699722","co38095","norming","","","","","","",""
"5315.744999999995","","","post_reveal_questions","survey-likert","152","568292","0.0-6.0-6.20","2699722","co38095","norming","","","{""aha"":6}","[0]","../img/tt/098tt.jpg","",""
"null","<div style=""font-size:60px;""> </div>","null","fixation","html-keyboard-response","153","568496","0.0-6.0-0.21","2699722","co38095","norming","","","","","","",""
"null","../img/tt/1255tt.jpg","null","mooney1","image-keyboard-response","154","571504","0.0-6.0-1.21","2699722","co38095","norming","","","","","","",""
"4594.965000000084","","","post_mooney1_questions","survey-likert","155","576100","0.0-6.0-2.21","2699722","co38095","norming","","","{""curiosity"":5,""confidence"":0}","[0,1]","../img/tt/1255tt.jpg","",""
"670.0100000001257","","","recognition","survey-text","156","576772","0.0-6.0-3.21","2699722","co38095","norming","","","{""guess"":""""}","","../img/tt/1255tt.jpg","",""
"null","../img/gs/1255gs.jpg","null","reveal","image-keyboard-response","157","578775","0.0-6.0-4.21","2699722","co38095","norming","","","","","","",""
"null","../img/tt/1255tt.jpg","null","mooney2","image-keyboard-response","158","580779","0.0-6.0-5.21","2699722","co38095","norming","","","","","","",""
"2670.42499999993","","","post_reveal_questions","survey-likert","159","583452","0.0-6.0-6.21","2699722","co38095","norming","","","{""aha"":5}","[0]","../img/tt/1255tt.jpg","",""
"null","<div style=""font-size:60px;""> </div>","null","fixation","html-keyboard-response","160","583660","0.0-6.0-0.22","2699722","co38095","norming","","","","","","",""
"null","../img/tt/1236tt.jpg","null","mooney1","image-keyboard-response","161","586660","0.0-6.0-1.22","2699722","co38095","norming","","","","","","",""
"6732.745000000112","","","post_mooney1_questions","survey-likert","162","593396","0.0-6.0-2.22","2699722","co38095","norming","","","{""curiosity"":4,""confidence"":3}","[0,1]","../img/tt/1236tt.jpg","",""
"3862.3000000000466","","","recognition","survey-text","163","597263","0.0-6.0-3.22","2699722","co38095","norming","","","{""guess"":""stokstaart""}","","../img/tt/1236tt.jpg","",""
"null","../img/gs/1236gs.jpg","null","reveal","image-keyboard-response","164","599264","0.0-6.0-4.22","2699722","co38095","norming","","","","","","",""
"null","../img/tt/1236tt.jpg","null","mooney2","image-keyboard-response","165","601269","0.0-6.0-5.22","2699722","co38095","norming","","","","","","",""
"3847.4799999999814","","","post_reveal_questions","survey-likert","166","605119","0.0-6.0-6.22","2699722","co38095","norming","","","{""aha"":5}","[0]","../img/tt/1236tt.jpg","",""
"null","<div style=""font-size:60px;""> </div>","null","fixation","html-keyboard-response","167","605328","0.0-6.0-0.23","2699722","co38095","norming","","","","","","",""
"null","../img/tt/091tt.jpg","null","mooney1","image-keyboard-response","168","608337","0.0-6.0-1.23","2699722","co38095","norming","","","","","","",""
"4371.789999999921","","","post_mooney1_questions","survey-likert","169","612711","0.0-6.0-2.23","2699722","co38095","norming","","","{""curiosity"":3,""confidence"":0}","[0,1]","../img/tt/091tt.jpg","",""
"870.109999999986","","","recognition","survey-text","170","613583","0.0-6.0-3.23","2699722","co38095","norming","","","{""guess"":""""}","","../img/tt/091tt.jpg","",""
"null","../img/gs/091gs.jpg","null","reveal","image-keyboard-response","171","615585","0.0-6.0-4.23","2699722","co38095","norming","","","","","","",""
"null","../img/tt/091tt.jpg","null","mooney2","image-keyboard-response","172","617589","0.0-6.0-5.23","2699722","co38095","norming","","","","","","",""
"2113.1750000000466","","","post_reveal_questions","survey-likert","173","619703","0.0-6.0-6.23","2699722","co38095","norming","","","{""aha"":4}","[0]","../img/tt/091tt.jpg","",""
"null","<div style=""font-size:60px;""> </div>","null","fixation","html-keyboard-response","174","619906","0.0-6.0-0.24","2699722","co38095","norming","","","","","","",""
"null","../img/tt/1040tt.jpg","null","mooney1","image-keyboard-response","175","622912","0.0-6.0-1.24","2699722","co38095","norming","","","","","","",""
"5604.015000000014","","","post_mooney1_questions","survey-likert","176","628519","0.0-6.0-2.24","2699722","co38095","norming","","","{""curiosity"":4,""confidence"":1}","[0,1]","../img/tt/1040tt.jpg","",""
"5725.994999999995","","","recognition","survey-text","177","634247","0.0-6.0-3.24","2699722","co38095","norming","","","{""guess"":""goochelaar""}","","../img/tt/1040tt.jpg","",""
"null","../img/gs/1040gs.jpg","null","reveal","image-keyboard-response","178","636248","0.0-6.0-4.24","2699722","co38095","norming","","","","","","",""
"null","../img/tt/1040tt.jpg","null","mooney2","image-keyboard-response","179","638249","0.0-6.0-5.24","2699722","co38095","norming","","","","","","",""
"1683.1849999999395","","","post_reveal_questions","survey-likert","180","639935","0.0-6.0-6.24","2699722","co38095","norming","","","{""aha"":6}","[0]","../img/tt/1040tt.jpg","",""
"null","<div style=""font-size:60px;""> </div>","null","fixation","html-keyboard-response","181","640136","0.0-6.0-0.25","2699722","co38095","norming","","","","","","",""
"null","../img/tt/108tt.jpg","null","mooney1","image-keyboard-response","182","643145","0.0-6.0-1.25","2699722","co38095","norming","","","","","","",""
"4923.2050000000745","","","post_mooney1_questions","survey-likert","183","648071","0.0-6.0-2.25","2699722","co38095","norming","","","{""curiosity"":4,""confidence"":0}","[0,1]","../img/tt/108tt.jpg","",""
"614.015000000014","","","recognition","survey-text","184","648686","0.0-6.0-3.25","2699722","co38095","norming","","","{""guess"":""""}","","../img/tt/108tt.jpg","",""
"null","../img/gs/108gs.jpg","null","reveal","image-keyboard-response","185","650689","0.0-6.0-4.25","2699722","co38095","norming","","","","","","",""
"null","../img/tt/108tt.jpg","null","mooney2","image-keyboard-response","186","652691","0.0-6.0-5.25","2699722","co38095","norming","","","","","","",""
"3058.2549999998882","","","post_reveal_questions","survey-likert","187","655744","0.0-6.0-6.25","2699722","co38095","norming","","","{""aha"":6}","[0]","../img/tt/108tt.jpg","",""
"null","<div style=""font-size:60px;""> </div>","null","fixation","html-keyboard-response","188","655954","0.0-6.0-0.26","2699722","co38095","norming","","","","","","",""
"null","../img/tt/1227tt.jpg","null","mooney1","image-keyboard-response","189","658960","0.0-6.0-1.26","2699722","co38095","norming","","","","","","",""
"3917.660000000149","","","post_mooney1_questions","survey-likert","190","662880","0.0-6.0-2.26","2699722","co38095","norming","","","{""curiosity"":6,""confidence"":0}","[0,1]","../img/tt/1227tt.jpg","",""
"1494.3099999999395","","","recognition","survey-text","191","664376","0.0-6.0-3.26","2699722","co38095","norming","","","{""guess"":""""}","","../img/tt/1227tt.jpg","",""
"null","../img/gs/1227gs.jpg","null","reveal","image-keyboard-response","192","666378","0.0-6.0-4.26","2699722","co38095","norming","","","","","","",""
"null","../img/tt/1227tt.jpg","null","mooney2","image-keyboard-response","193","668380","0.0-6.0-5.26","2699722","co38095","norming","","","","","","",""
"2121.319999999949","","","post_reveal_questions","survey-likert","194","670504","0.0-6.0-6.26","2699722","co38095","norming","","","{""aha"":5}","[0]","../img/tt/1227tt.jpg","",""
"null","<div style=""font-size:60px;""> </div>","null","fixation","html-keyboard-response","195","670708","0.0-6.0-0.27","2699722","co38095","norming","","","","","","",""
"null","../img/tt/603tt.jpg","null","mooney1","image-keyboard-response","196","673714","0.0-6.0-1.27","2699722","co38095","norming","","","","","","",""
"4890.949999999953","","","post_mooney1_questions","survey-likert","197","678608","0.0-6.0-2.27","2699722","co38095","norming","","","{""curiosity"":5,""confidence"":0}","[0,1]","../img/tt/603tt.jpg","",""
"1734.0350000000326","","","recognition","survey-text","198","680344","0.0-6.0-3.27","2699722","co38095","norming","","","{""guess"":""""}","","../img/tt/603tt.jpg","",""
"null","../img/gs/603gs.jpg","null","reveal","image-keyboard-response","199","682346","0.0-6.0-4.27","2699722","co38095","norming","","","","","","",""
"null","../img/tt/603tt.jpg","null","mooney2","image-keyboard-response","200","684358","0.0-6.0-5.27","2699722","co38095","norming","","","","","","",""
"1624.2649999998976","","","post_reveal_questions","survey-likert","201","685984","0.0-6.0-6.27","2699722","co38095","norming","","","{""aha"":5}","[0]","../img/tt/603tt.jpg","",""
"null","<div style=""font-size:60px;""> </div>","null","fixation","html-keyboard-response","202","686190","0.0-6.0-0.28","2699722","co38095","norming","","","","","","",""
"null","../img/tt/084tt.jpg","null","mooney1","image-keyboard-response","203","689193","0.0-6.0-1.28","2699722","co38095","norming","","","","","","",""
"3884.640000000014","","","post_mooney1_questions","survey-likert","204","693080","0.0-6.0-2.28","2699722","co38095","norming","","","{""curiosity"":4,""confidence"":2}","[0,1]","../img/tt/084tt.jpg","",""
"2670.125","","","recognition","survey-text","205","695752","0.0-6.0-3.28","2699722","co38095","norming","","","{""guess"":""eend""}","","../img/tt/084tt.jpg","",""
"null","../img/gs/084gs.jpg","null","reveal","image-keyboard-response","206","697760","0.0-6.0-4.28","2699722","co38095","norming","","","","","","",""
"null","../img/tt/084tt.jpg","null","mooney2","image-keyboard-response","207","699771","0.0-6.0-5.28","2699722","co38095","norming","","","","","","",""
"2922.429999999935","","","post_reveal_questions","survey-likert","208","702696","0.0-6.0-6.28","2699722","co38095","norming","","","{""aha"":4}","[0]","../img/tt/084tt.jpg","",""
"null","<div style=""font-size:60px;""> </div>","null","fixation","html-keyboard-response","209","702903","0.0-6.0-0.29","2699722","co38095","norming","","","","","","",""
"null","../img/tt/094tt.jpg","null","mooney1","image-keyboard-response","210","705911","0.0-6.0-1.29","2699722","co38095","norming","","","","","","",""
"3374.3649999998743","","","post_mooney1_questions","survey-likert","211","709288","0.0-6.0-2.29","2699722","co38095","norming","","","{""curiosity"":5,""confidence"":2}","[0,1]","../img/tt/094tt.jpg","",""
"2413.9000000000233","","","recognition","survey-text","212","711704","0.0-6.0-3.29","2699722","co38095","norming","","","{""guess"":""beer""}","","../img/tt/094tt.jpg","",""
"null","../img/gs/094gs.jpg","null","reveal","image-keyboard-response","213","713705","0.0-6.0-4.29","2699722","co38095","norming","","","","","","",""
"null","../img/tt/094tt.jpg","null","mooney2","image-keyboard-response","214","715716","0.0-6.0-5.29","2699722","co38095","norming","","","","","","",""
"3690.304999999935","","","post_reveal_questions","survey-likert","215","719408","0.0-6.0-6.29","2699722","co38095","norming","","","{""aha"":5}","[0]","../img/tt/094tt.jpg","",""
"null","<div style=""font-size:60px;""> </div>","null","fixation","html-keyboard-response","216","719615","0.0-6.0-0.30","2699722","co38095","norming","","","","","","",""
"null","../img/tt/1254tt.jpg","null","mooney1","image-keyboard-response","217","722617","0.0-6.0-1.30","2699722","co38095","norming","","","","","","",""
"3837.3000000000466","","","post_mooney1_questions","survey-likert","218","726457","0.0-6.0-2.30","2699722","co38095","norming","","","{""curiosity"":5,""confidence"":1}","[0,1]","../img/tt/1254tt.jpg","",""
"3270.0749999999534","","","recognition","survey-text","219","729728","0.0-6.0-3.30","2699722","co38095","norming","","","{""guess"":""konijn""}","","../img/tt/1254tt.jpg","",""
"null","../img/gs/1254gs.jpg","null","reveal","image-keyboard-response","220","731730","0.0-6.0-4.30","2699722","co38095","norming","","","","","","",""
"null","../img/tt/1254tt.jpg","null","mooney2","image-keyboard-response","221","733734","0.0-6.0-5.30","2699722","co38095","norming","","","","","","",""
"2808.4000000000233","","","post_reveal_questions","survey-likert","222","736544","0.0-6.0-6.30","2699722","co38095","norming","","","{""aha"":3}","[0]","../img/tt/1254tt.jpg","",""
"null","<div style=""font-size:60px;""> </div>","null","fixation","html-keyboard-response","223","736748","0.0-6.0-0.31","2699722","co38095","norming","","","","","","",""
"null","../img/tt/1084tt.jpg","null","mooney1","image-keyboard-response","224","739756","0.0-6.0-1.31","2699722","co38095","norming","","","","","","",""
"4337.594999999972","","","post_mooney1_questions","survey-likert","225","744097","0.0-6.0-2.31","2699722","co38095","norming","","","{""curiosity"":4,""confidence"":3}","[0,1]","../img/tt/1084tt.jpg","",""
"2574.0149999998976","","","recognition","survey-text","226","746672","0.0-6.0-3.31","2699722","co38095","norming","","","{""guess"":""hond""}","","../img/tt/1084tt.jpg","",""
"null","../img/gs/1084gs.jpg","null","reveal","image-keyboard-response","227","748674","0.0-6.0-4.31","2699722","co38095","norming","","","","","","",""
"null","../img/tt/1084tt.jpg","null","mooney2","image-keyboard-response","228","750677","0.0-6.0-5.31","2699722","co38095","norming","","","","","","",""
"2472.7399999999907","","","post_reveal_questions","survey-likert","229","753152","0.0-6.0-6.31","2699722","co38095","norming","","","{""aha"":6}","[0]","../img/tt/1084tt.jpg","",""
"null","<div style=""font-size:60px;""> </div>","null","fixation","html-keyboard-response","230","753361","0.0-6.0-0.32","2699722","co38095","norming","","","","","","",""
"null","../img/tt/1272tt.jpg","null","mooney1","image-keyboard-response","231","756369","0.0-6.0-1.32","2699722","co38095","norming","","","","","","",""
"5476.719999999972","","","post_mooney1_questions","survey-likert","232","761849","0.0-6.0-2.32","2699722","co38095","norming","","","{""curiosity"":5,""confidence"":1}","[0,1]","../img/tt/1272tt.jpg","",""
"7237.650000000023","","","recognition","survey-text","233","769088","0.0-6.0-3.32","2699722","co38095","norming","","","{""guess"":""kat achter draad""}","","../img/tt/1272tt.jpg","",""
"null","../img/gs/1272gs.jpg","null","reveal","image-keyboard-response","234","771095","0.0-6.0-4.32","2699722","co38095","norming","","","","","","",""
"null","../img/tt/1272tt.jpg","null","mooney2","image-keyboard-response","235","773097","0.0-6.0-5.32","2699722","co38095","norming","","","","","","",""
"2469.0950000000885","","","post_reveal_questions","survey-likert","236","775568","0.0-6.0-6.32","2699722","co38095","norming","","","{""aha"":4}","[0]","../img/tt/1272tt.jpg","",""
"null","<div style=""font-size:60px;""> </div>","null","fixation","html-keyboard-response","237","775776","0.0-6.0-0.33","2699722","co38095","norming","","","","","","",""
"null","../img/tt/1049tt.jpg","null","mooney1","image-keyboard-response","238","778788","0.0-6.0-1.33","2699722","co38095","norming","","","","","","",""
"3017.215000000084","","","post_mooney1_questions","survey-likert","239","781808","0.0-6.0-2.33","2699722","co38095","norming","","","{""curiosity"":4,""confidence"":1}","[0,1]","../img/tt/1049tt.jpg","",""
"5006.224999999977","","","recognition","survey-text","240","786816","0.0-6.0-3.33","2699722","co38095","norming","","","{""guess"":""supporters""}","","../img/tt/1049tt.jpg","",""
"null","../img/gs/1049gs.jpg","null","reveal","image-keyboard-response","241","788823","0.0-6.0-4.33","2699722","co38095","norming","","","","","","",""
"null","../img/tt/1049tt.jpg","null","mooney2","image-keyboard-response","242","790827","0.0-6.0-5.33","2699722","co38095","norming","","","","","","",""
"2170.855000000098","","","post_reveal_questions","survey-likert","243","793000","0.0-6.0-6.33","2699722","co38095","norming","","","{""aha"":5}","[0]","../img/tt/1049tt.jpg","",""
"null","<div style=""font-size:60px;""> </div>","null","fixation","html-keyboard-response","244","793203","0.0-6.0-0.34","2699722","co38095","norming","","","","","","",""
"null","../img/tt/559tt.jpg","null","mooney1","image-keyboard-response","245","796206","0.0-6.0-1.34","2699722","co38095","norming","","","","","","",""
"4759.859999999986","","","post_mooney1_questions","survey-likert","246","800968","0.0-6.0-2.34","2699722","co38095","norming","","","{""curiosity"":5,""confidence"":2}","[0,1]","../img/tt/559tt.jpg","",""
"7462.025000000023","","","recognition","survey-text","247","808432","0.0-6.0-3.34","2699722","co38095","norming","","","{""guess"":""naaimachine""}","","../img/tt/559tt.jpg","",""
"null","../img/gs/559gs.jpg","null","reveal","image-keyboard-response","248","810433","0.0-6.0-4.34","2699722","co38095","norming","","","","","","",""
"null","../img/tt/559tt.jpg","null","mooney2","image-keyboard-response","249","812434","0.0-6.0-5.34","2699722","co38095","norming","","","","","","",""
"3403.295000000042","","","post_reveal_questions","survey-likert","250","815840","0.0-6.0-6.34","2699722","co38095","norming","","","{""aha"":2}","[0]","../img/tt/559tt.jpg","",""
"null","<div style=""font-size:60px;""> </div>","null","fixation","html-keyboard-response","251","816043","0.0-6.0-0.35","2699722","co38095","norming","","","","","","",""
"null","../img/tt/111tt.jpg","null","mooney1","image-keyboard-response","252","819054","0.0-6.0-1.35","2699722","co38095","norming","","","","","","",""
"4039.2700000000186","","","post_mooney1_questions","survey-likert","253","823097","0.0-6.0-2.35","2699722","co38095","norming","","","{""curiosity"":3,""confidence"":4}","[0,1]","../img/tt/111tt.jpg","",""
"3574.0200000000186","","","recognition","survey-text","254","826672","0.0-6.0-3.35","2699722","co38095","norming","","","{""guess"":""telefoon""}","","../img/tt/111tt.jpg","",""
"null","../img/gs/111gs.jpg","null","reveal","image-keyboard-response","255","828675","0.0-6.0-4.35","2699722","co38095","norming","","","","","","",""
"null","../img/tt/111tt.jpg","null","mooney2","image-keyboard-response","256","830677","0.0-6.0-5.35","2699722","co38095","norming","","","","","","",""
"3616.5050000000047","","","post_reveal_questions","survey-likert","257","834296","0.0-6.0-6.35","2699722","co38095","norming","","","{""aha"":5}","[0]","../img/tt/111tt.jpg","",""
"null","<div style=""font-size:60px;""> </div>","null","fixation","html-keyboard-response","258","834501","0.0-6.0-0.36","2699722","co38095","norming","","","","","","",""
"null","../img/tt/1004tt.jpg","null","mooney1","image-keyboard-response","259","837510","0.0-6.0-1.36","2699722","co38095","norming","","","","","","",""
"4321.4400000000605","","","post_mooney1_questions","survey-likert","260","841833","0.0-6.0-2.36","2699722","co38095","norming","","","{""curiosity"":5,""confidence"":1}","[0,1]","../img/tt/1004tt.jpg","",""
"2422.1350000000093","","","recognition","survey-text","261","844256","0.0-6.0-3.36","2699722","co38095","norming","","","{""guess"":""beer""}","","../img/tt/1004tt.jpg","",""
"null","../img/gs/1004gs.jpg","null","reveal","image-keyboard-response","262","846259","0.0-6.0-4.36","2699722","co38095","norming","","","","","","",""
"null","../img/tt/1004tt.jpg","null","mooney2","image-keyboard-response","263","848261","0.0-6.0-5.36","2699722","co38095","norming","","","","","","",""
"2058.365000000107","","","post_reveal_questions","survey-likert","264","850321","0.0-6.0-6.36","2699722","co38095","norming","","","{""aha"":6}","[0]","../img/tt/1004tt.jpg","",""
"null","<div style=""font-size:60px;""> </div>","null","fixation","html-keyboard-response","265","850522","0.0-6.0-0.37","2699722","co38095","norming","","","","","","",""
"null","../img/tt/567tt.jpg","null","mooney1","image-keyboard-response","266","853529","0.0-6.0-1.37","2699722","co38095","norming","","","","","","",""
"3478.6750000000466","","","post_mooney1_questions","survey-likert","267","857009","0.0-6.0-2.37","2699722","co38095","norming","","","{""curiosity"":6,""confidence"":0}","[0,1]","../img/tt/567tt.jpg","",""
"1150.125","","","recognition","survey-text","268","858160","0.0-6.0-3.37","2699722","co38095","norming","","","{""guess"":""""}","","../img/tt/567tt.jpg","",""
"null","../img/gs/567gs.jpg","null","reveal","image-keyboard-response","269","860162","0.0-6.0-4.37","2699722","co38095","norming","","","","","","",""
"null","../img/tt/567tt.jpg","null","mooney2","image-keyboard-response","270","862171","0.0-6.0-5.37","2699722","co38095","norming","","","","","","",""
"3346.8850000001257","","","post_reveal_questions","survey-likert","271","865520","0.0-6.0-6.37","2699722","co38095","norming","","","{""aha"":6}","[0]","../img/tt/567tt.jpg","",""
"null","<div style=""font-size:60px;""> </div>","null","fixation","html-keyboard-response","272","865725","0.0-6.0-0.38","2699722","co38095","norming","","","","","","",""
"null","../img/tt/008tt.jpg","null","mooney1","image-keyboard-response","273","868731","0.0-6.0-1.38","2699722","co38095","norming","","","","","","",""
"5931.209999999963","","","post_mooney1_questions","survey-likert","274","874665","0.0-6.0-2.38","2699722","co38095","norming","","","{""curiosity"":6,""confidence"":2}","[0,1]","../img/tt/008tt.jpg","",""
"2757.899999999907","","","recognition","survey-text","275","877424","0.0-6.0-3.38","2699722","co38095","norming","","","{""guess"":""geweer""}","","../img/tt/008tt.jpg","",""
"null","../img/gs/008gs.jpg","null","reveal","image-keyboard-response","276","879432","0.0-6.0-4.38","2699722","co38095","norming","","","","","","",""
"null","../img/tt/008tt.jpg","null","mooney2","image-keyboard-response","277","881434","0.0-6.0-5.38","2699722","co38095","norming","","","","","","",""
"3428.92499999993","","","post_reveal_questions","survey-likert","278","884865","0.0-6.0-6.38","2699722","co38095","norming","","","{""aha"":4}","[0]","../img/tt/008tt.jpg","",""
"null","<div style=""font-size:60px;""> </div>","null","fixation","html-keyboard-response","279","885075","0.0-6.0-0.39","2699722","co38095","norming","","","","","","",""
"null","../img/tt/1069tt.jpg","null","mooney1","image-keyboard-response","280","888086","0.0-6.0-1.39","2699722","co38095","norming","","","","","","",""
"5296.295000000042","","","post_mooney1_questions","survey-likert","281","893385","0.0-6.0-2.39","2699722","co38095","norming","","","{""curiosity"":5,""confidence"":4}","[0,1]","../img/tt/1069tt.jpg","",""
"3381.960000000079","","","recognition","survey-text","282","896768","0.0-6.0-3.39","2699722","co38095","norming","","","{""guess"":""bok""}","","../img/tt/1069tt.jpg","",""
"null","../img/gs/1069gs.jpg","null","reveal","image-keyboard-response","283","898777","0.0-6.0-4.39","2699722","co38095","norming","","","","","","",""
"null","../img/tt/1069tt.jpg","null","mooney2","image-keyboard-response","284","900787","0.0-6.0-5.39","2699722","co38095","norming","","","","","","",""
"4450.475000000093","","","post_reveal_questions","survey-likert","285","905240","0.0-6.0-6.39","2699722","co38095","norming","","","{""aha"":4}","[0]","../img/tt/1069tt.jpg","",""
"null","<div style=""font-size:60px;""> </div>","null","fixation","html-keyboard-response","286","905446","0.0-6.0-0.40","2699722","co38095","norming","","","","","","",""
"null","../img/tt/1078tt.jpg","null","mooney1","image-keyboard-response","287","908449","0.0-6.0-1.40","2699722","co38095","norming","","","","","","",""
"4603.584999999963","","","post_mooney1_questions","survey-likert","288","913056","0.0-6.0-2.40","2699722","co38095","norming","","","{""curiosity"":5,""confidence"":1}","[0,1]","../img/tt/1078tt.jpg","",""
"10286.125","","","recognition","survey-text","289","923344","0.0-6.0-3.40","2699722","co38095","norming","","","{""guess"":""zittende man""}","","../img/tt/1078tt.jpg","",""
"null","../img/gs/1078gs.jpg","null","reveal","image-keyboard-response","290","925352","0.0-6.0-4.40","2699722","co38095","norming","","","","","","",""
"null","../img/tt/1078tt.jpg","null","mooney2","image-keyboard-response","291","927360","0.0-6.0-5.40","2699722","co38095","norming","","","","","","",""
"2207.280000000028","","","post_reveal_questions","survey-likert","292","929568","0.0-6.0-6.40","2699722","co38095","norming","","","{""aha"":5}","[0]","../img/tt/1078tt.jpg","",""
"null","<div style=""font-size:60px;""> </div>","null","fixation","html-keyboard-response","293","929770","0.0-6.0-0.41","2699722","co38095","norming","","","","","","",""
"null","../img/tt/036tt.jpg","null","mooney1","image-keyboard-response","294","932780","0.0-6.0-1.41","2699722","co38095","norming","","","","","","",""
"3371.1199999999953","","","post_mooney1_questions","survey-likert","295","936152","0.0-6.0-2.41","2699722","co38095","norming","","","{""curiosity"":6,""confidence"":0}","[0,1]","../img/tt/036tt.jpg","",""
"957.1699999999255","","","recognition","survey-text","296","937112","0.0-6.0-3.41","2699722","co38095","norming","","","{""guess"":""""}","","../img/tt/036tt.jpg","",""
"null","../img/gs/036gs.jpg","null","reveal","image-keyboard-response","297","939117","0.0-6.0-4.41","2699722","co38095","norming","","","","","","",""
"null","../img/tt/036tt.jpg","null","mooney2","image-keyboard-response","298","941124","0.0-6.0-5.41","2699722","co38095","norming","","","","","","",""
"3699.4950000001118","","","post_reveal_questions","survey-likert","299","944824","0.0-6.0-6.41","2699722","co38095","norming","","","{""aha"":5}","[0]","../img/tt/036tt.jpg","",""
"null","<div style=""font-size:60px;""> </div>","null","fixation","html-keyboard-response","300","945028","0.0-6.0-0.42","2699722","co38095","norming","","","","","","",""
"null","../img/tt/1048tt.jpg","null","mooney1","image-keyboard-response","301","948031","0.0-6.0-1.42","2699722","co38095","norming","","","","","","",""
"3848.414999999921","","","post_mooney1_questions","survey-likert","302","951880","0.0-6.0-2.42","2699722","co38095","norming","","","{""curiosity"":6,""confidence"":0}","[0,1]","../img/tt/1048tt.jpg","",""
"645.6900000000605","","","recognition","survey-text","303","952528","0.0-6.0-3.42","2699722","co38095","norming","","","{""guess"":""""}","","../img/tt/1048tt.jpg","",""
"null","../img/gs/1048gs.jpg","null","reveal","image-keyboard-response","304","954530","0.0-6.0-4.42","2699722","co38095","norming","","","","","","",""
"null","../img/tt/1048tt.jpg","null","mooney2","image-keyboard-response","305","956532","0.0-6.0-5.42","2699722","co38095","norming","","","","","","",""
"1673.8499999999767","","","post_reveal_questions","survey-likert","306","958208","0.0-6.0-6.42","2699722","co38095","norming","","","{""aha"":5}","[0]","../img/tt/1048tt.jpg","",""
"null","<div style=""font-size:60px;""> </div>","null","fixation","html-keyboard-response","307","958414","0.0-6.0-0.43","2699722","co38095","norming","","","","","","",""
"null","../img/tt/1262tt.jpg","null","mooney1","image-keyboard-response","308","961421","0.0-6.0-1.43","2699722","co38095","norming","","","","","","",""
"3698.4950000001118","","","post_mooney1_questions","survey-likert","309","965121","0.0-6.0-2.43","2699722","co38095","norming","","","{""curiosity"":5,""confidence"":1}","[0,1]","../img/tt/1262tt.jpg","",""
"3037.9249999998137","","","recognition","survey-text","310","968161","0.0-6.0-3.43","2699722","co38095","norming","","","{""guess"":""vogel""}","","../img/tt/1262tt.jpg","",""
"null","../img/gs/1262gs.jpg","null","reveal","image-keyboard-response","311","970166","0.0-6.0-4.43","2699722","co38095","norming","","","","","","",""
"null","../img/tt/1262tt.jpg","null","mooney2","image-keyboard-response","312","972176","0.0-6.0-5.43","2699722","co38095","norming","","","","","","",""
"7655.604999999981","","","post_reveal_questions","survey-likert","313","979833","0.0-6.0-6.43","2699722","co38095","norming","","","{""aha"":3}","[0]","../img/tt/1262tt.jpg","",""
"null","<div style=""font-size:60px;""> </div>","null","fixation","html-keyboard-response","314","980036","0.0-6.0-0.44","2699722","co38095","norming","","","","","","",""
"null","../img/tt/456tt.jpg","null","mooney1","image-keyboard-response","315","983044","0.0-6.0-1.44","2699722","co38095","norming","","","","","","",""
"5140.119999999995","","","post_mooney1_questions","survey-likert","316","988185","0.0-6.0-2.44","2699722","co38095","norming","","","{""curiosity"":6,""confidence"":0}","[0,1]","../img/tt/456tt.jpg","",""
"669.7300000000978","","","recognition","survey-text","317","988856","0.0-6.0-3.44","2699722","co38095","norming","","","{""guess"":""""}","","../img/tt/456tt.jpg","",""
"null","../img/gs/456gs.jpg","null","reveal","image-keyboard-response","318","990860","0.0-6.0-4.44","2699722","co38095","norming","","","","","","",""
"null","../img/tt/456tt.jpg","null","mooney2","image-keyboard-response","319","992870","0.0-6.0-5.44","2699722","co38095","norming","","","","","","",""
"3087.0250000000233","","","post_reveal_questions","survey-likert","320","995961","0.0-6.0-6.44","2699722","co38095","norming","","","{""aha"":5}","[0]","../img/tt/456tt.jpg","",""
"null","<div style=""font-size:60px;""> </div>","null","fixation","html-keyboard-response","321","996168","0.0-6.0-0.45","2699722","co38095","norming","","","","","","",""
"null","../img/tt/1250tt.jpg","null","mooney1","image-keyboard-response","322","999177","0.0-6.0-1.45","2699722","co38095","norming","","","","","","",""
"4476.814999999944","","","post_mooney1_questions","survey-likert","323","1003657","0.0-6.0-2.45","2699722","co38095","norming","","","{""curiosity"":4,""confidence"":4}","[0,1]","../img/tt/1250tt.jpg","",""
"3686.07500000007","","","recognition","survey-text","324","1007345","0.0-6.0-3.45","2699722","co38095","norming","","","{""guess"":""zeehonden""}","","../img/tt/1250tt.jpg","",""
"null","../img/gs/1250gs.jpg","null","reveal","image-keyboard-response","325","1009349","0.0-6.0-4.45","2699722","co38095","norming","","","","","","",""
"null","../img/tt/1250tt.jpg","null","mooney2","image-keyboard-response","326","1011353","0.0-6.0-5.45","2699722","co38095","norming","","","","","","",""
"2333.1149999998743","","","post_reveal_questions","survey-likert","327","1013689","0.0-6.0-6.45","2699722","co38095","norming","","","{""aha"":6}","[0]","../img/tt/1250tt.jpg","",""
"null","<div style=""font-size:60px;""> </div>","null","fixation","html-keyboard-response","328","1013896","0.0-6.0-0.46","2699722","co38095","norming","","","","","","",""
"null","../img/tt/1101tt.jpg","null","mooney1","image-keyboard-response","329","1016900","0.0-6.0-1.46","2699722","co38095","norming","","","","","","",""
"5329.890000000014","","","post_mooney1_questions","survey-likert","330","1022226","0.0-6.0-2.46","2699722","co38095","norming","","","{""curiosity"":4,""confidence"":5}","[0,1]","../img/tt/1101tt.jpg","",""
"3533.8749999998836","","","recognition","survey-text","331","1025762","0.0-6.0-3.46","2699722","co38095","norming","","","{""guess"":""voetballer""}","","../img/tt/1101tt.jpg","",""
"null","../img/gs/1101gs.jpg","null","reveal","image-keyboard-response","332","1027764","0.0-6.0-4.46","2699722","co38095","norming","","","","","","",""
"null","../img/tt/1101tt.jpg","null","mooney2","image-keyboard-response","333","1029766","0.0-6.0-5.46","2699722","co38095","norming","","","","","","",""
"4217.5950000000885","","","post_reveal_questions","survey-likert","334","1033986","0.0-6.0-6.46","2699722","co38095","norming","","","{""aha"":2}","[0]","../img/tt/1101tt.jpg","",""
"null","<div style=""font-size:60px;""> </div>","null","fixation","html-keyboard-response","335","1034189","0.0-6.0-0.47","2699722","co38095","norming","","","","","","",""
"null","../img/tt/497tt.jpg","null","mooney1","image-keyboard-response","336","1037193","0.0-6.0-1.47","2699722","co38095","norming","","","","","","",""
"3694.304999999935","","","post_mooney1_questions","survey-likert","337","1040890","0.0-6.0-2.47","2699722","co38095","norming","","","{""curiosity"":5,""confidence"":1}","[0,1]","../img/tt/497tt.jpg","",""
"2693.185000000056","","","recognition","survey-text","338","1043585","0.0-6.0-3.47","2699722","co38095","norming","","","{""guess"":""kruisboog""}","","../img/tt/497tt.jpg","",""
"null","../img/gs/497gs.jpg","null","reveal","image-keyboard-response","339","1045596","0.0-6.0-4.47","2699722","co38095","norming","","","","","","",""
"null","../img/tt/497tt.jpg","null","mooney2","image-keyboard-response","340","1047598","0.0-6.0-5.47","2699722","co38095","norming","","","","","","",""
"1834.8049999998184","","","post_reveal_questions","survey-likert","341","1049434","0.0-6.0-6.47","2699722","co38095","norming","","","{""aha"":4}","[0]","../img/tt/497tt.jpg","",""
"null","<div style=""font-size:60px;""> </div>","null","fixation","html-keyboard-response","342","1049638","0.0-6.0-0.48","2699722","co38095","norming","","","","","","",""
"null","../img/tt/1279tt.jpg","null","mooney1","image-keyboard-response","343","1052642","0.0-6.0-1.48","2699722","co38095","norming","","","","","","",""
"3540.9749999998603","","","post_mooney1_questions","survey-likert","344","1056186","0.0-6.0-2.48","2699722","co38095","norming","","","{""curiosity"":5,""confidence"":1}","[0,1]","../img/tt/1279tt.jpg","",""
"4150.479999999981","","","recognition","survey-text","345","1060338","0.0-6.0-3.48","2699722","co38095","norming","","","{""guess"":""strand""}","","../img/tt/1279tt.jpg","",""
"null","../img/gs/1279gs.jpg","null","reveal","image-keyboard-response","346","1062341","0.0-6.0-4.48","2699722","co38095","norming","","","","","","",""
"null","../img/tt/1279tt.jpg","null","mooney2","image-keyboard-response","347","1064352","0.0-6.0-5.48","2699722","co38095","norming","","","","","","",""
"2311.5400000000373","","","post_reveal_questions","survey-likert","348","1066665","0.0-6.0-6.48","2699722","co38095","norming","","","{""aha"":5}","[0]","../img/tt/1279tt.jpg","",""
"null","<div style=""font-size:60px;""> </div>","null","fixation","html-keyboard-response","349","1066876","0.0-6.0-0.49","2699722","co38095","norming","","","","","","",""
"null","../img/tt/1283tt.jpg","null","mooney1","image-keyboard-response","350","1069886","0.0-6.0-1.49","2699722","co38095","norming","","","","","","",""
"5320.709999999963","","","post_mooney1_questions","survey-likert","351","1075210","0.0-6.0-2.49","2699722","co38095","norming","","","{""curiosity"":6,""confidence"":3}","[0,1]","../img/tt/1283tt.jpg","",""
"2453.8950000002515","","","recognition","survey-text","352","1077666","0.0-6.0-3.49","2699722","co38095","norming","","","{""guess"":""vos""}","","../img/tt/1283tt.jpg","",""
"null","../img/gs/1283gs.jpg","null","reveal","image-keyboard-response","353","1079676","0.0-6.0-4.49","2699722","co38095","norming","","","","","","",""
"null","../img/tt/1283tt.jpg","null","mooney2","image-keyboard-response","354","1081688","0.0-6.0-5.49","2699722","co38095","norming","","","","","","",""
"2225.0099999997765","","","post_reveal_questions","survey-likert","355","1083916","0.0-6.0-6.49","2699722","co38095","norming","","","{""aha"":3}","[0]","../img/tt/1283tt.jpg","",""
"null","<div style=""font-size:60px;""> </div>","null","fixation","html-keyboard-response","356","1084125","0.0-6.0-0.50","2699722","co38095","norming","","","","","","",""
"null","../img/tt/435tt.jpg","null","mooney1","image-keyboard-response","357","1087132","0.0-6.0-1.50","2699722","co38095","norming","","","","","","",""
"3210.845000000205","","","post_mooney1_questions","survey-likert","358","1090348","0.0-6.0-2.50","2699722","co38095","norming","","","{""curiosity"":6,""confidence"":0}","[0,1]","../img/tt/435tt.jpg","",""
"734.2050000000745","","","recognition","survey-text","359","1091083","0.0-6.0-3.50","2699722","co38095","norming","","","{""guess"":""""}","","../img/tt/435tt.jpg","",""
"null","../img/gs/435gs.jpg","null","reveal","image-keyboard-response","360","1093087","0.0-6.0-4.50","2699722","co38095","norming","","","","","","",""
"null","../img/tt/435tt.jpg","null","mooney2","image-keyboard-response","361","1095091","0.0-6.0-5.50","2699722","co38095","norming","","","","","","",""
"1998.0450000001583","","","post_reveal_questions","survey-likert","362","1097091","0.0-6.0-6.50","2699722","co38095","norming","","","{""aha"":5}","[0]","../img/tt/435tt.jpg","",""
"null","<div style=""font-size:60px;""> </div>","null","fixation","html-keyboard-response","363","1097301","0.0-6.0-0.51","2699722","co38095","norming","","","","","","",""
"null","../img/tt/1261tt.jpg","null","mooney1","image-keyboard-response","364","1100307","0.0-6.0-1.51","2699722","co38095","norming","","","","","","",""
"4462.02500000014","","","post_mooney1_questions","survey-likert","365","1104772","0.0-6.0-2.51","2699722","co38095","norming","","","{""curiosity"":5,""confidence"":1}","[0,1]","../img/tt/1261tt.jpg","",""
"2694.1099999998696","","","recognition","survey-text","366","1107468","0.0-6.0-3.51","2699722","co38095","norming","","","{""guess"":""raam""}","","../img/tt/1261tt.jpg","",""
"null","../img/gs/1261gs.jpg","null","reveal","image-keyboard-response","367","1109478","0.0-6.0-4.51","2699722","co38095","norming","","","","","","",""
"null","../img/tt/1261tt.jpg","null","mooney2","image-keyboard-response","368","1111481","0.0-6.0-5.51","2699722","co38095","norming","","","","","","",""
"1738.0450000001583","","","post_reveal_questions","survey-likert","369","1113220","0.0-6.0-6.51","2699722","co38095","norming","","","{""aha"":5}","[0]","../img/tt/1261tt.jpg","",""
"null","<div style=""font-size:60px;""> </div>","null","fixation","html-keyboard-response","370","1113426","0.0-6.0-0.52","2699722","co38095","norming","","","","","","",""
"null","../img/tt/085tt.jpg","null","mooney1","image-keyboard-response","371","1116429","0.0-6.0-1.52","2699722","co38095","norming","","","","","","",""
"3667.969999999972","","","post_mooney1_questions","survey-likert","372","1120100","0.0-6.0-2.52","2699722","co38095","norming","","","{""curiosity"":4,""confidence"":3}","[0,1]","../img/tt/085tt.jpg","",""
"2374.339999999851","","","recognition","survey-text","373","1122476","0.0-6.0-3.52","2699722","co38095","norming","","","{""guess"":""hond""}","","../img/tt/085tt.jpg","",""
"null","../img/gs/085gs.jpg","null","reveal","image-keyboard-response","374","1124478","0.0-6.0-4.52","2699722","co38095","norming","","","","","","",""
"null","../img/tt/085tt.jpg","null","mooney2","image-keyboard-response","375","1126482","0.0-6.0-5.52","2699722","co38095","norming","","","","","","",""
"1751.0349999999162","","","post_reveal_questions","survey-likert","376","1128236","0.0-6.0-6.52","2699722","co38095","norming","","","{""aha"":6}","[0]","../img/tt/085tt.jpg","",""
"null","<div style=""font-size:60px;""> </div>","null","fixation","html-keyboard-response","377","1128441","0.0-6.0-0.53","2699722","co38095","norming","","","","","","",""
"null","../img/tt/1070tt.jpg","null","mooney1","image-keyboard-response","378","1131445","0.0-6.0-1.53","2699722","co38095","norming","","","","","","",""
"2732.155000000028","","","post_mooney1_questions","survey-likert","379","1134180","0.0-6.0-2.53","2699722","co38095","norming","","","{""curiosity"":3,""confidence"":4}","[0,1]","../img/tt/1070tt.jpg","",""
"3598.405000000028","","","recognition","survey-text","380","1137780","0.0-6.0-3.53","2699722","co38095","norming","","","{""guess"":""stuk taart""}","","../img/tt/1070tt.jpg","",""
"null","../img/gs/1070gs.jpg","null","reveal","image-keyboard-response","381","1139789","0.0-6.0-4.53","2699722","co38095","norming","","","","","","",""
"null","../img/tt/1070tt.jpg","null","mooney2","image-keyboard-response","382","1141799","0.0-6.0-5.53","2699722","co38095","norming","","","","","","",""
"2299.5799999998417","","","post_reveal_questions","survey-likert","383","1144101","0.0-6.0-6.53","2699722","co38095","norming","","","{""aha"":1}","[0]","../img/tt/1070tt.jpg","",""
"null","<div style=""font-size:60px;""> </div>","null","fixation","html-keyboard-response","384","1144308","0.0-6.0-0.54","2699722","co38095","norming","","","","","","",""
"null","../img/tt/079tt.jpg","null","mooney1","image-keyboard-response","385","1147311","0.0-6.0-1.54","2699722","co38095","norming","","","","","","",""
"4331.360000000102","","","post_mooney1_questions","survey-likert","386","1151645","0.0-6.0-2.54","2699722","co38095","norming","","","{""curiosity"":6,""confidence"":3}","[0,1]","../img/tt/079tt.jpg","",""
"1758.094999999972","","","recognition","survey-text","387","1153405","0.0-6.0-3.54","2699722","co38095","norming","","","{""guess"":""beer""}","","../img/tt/079tt.jpg","",""
"null","../img/gs/079gs.jpg","null","reveal","image-keyboard-response","388","1155406","0.0-6.0-4.54","2699722","co38095","norming","","","","","","",""
"null","../img/tt/079tt.jpg","null","mooney2","image-keyboard-response","389","1157414","0.0-6.0-5.54","2699722","co38095","norming","","","","","","",""
"2300.679999999702","","","post_reveal_questions","survey-likert","390","1159717","0.0-6.0-6.54","2699722","co38095","norming","","","{""aha"":2}","[0]","../img/tt/079tt.jpg","",""
"null","<div style=""font-size:60px;""> </div>","null","fixation","html-keyboard-response","391","1159924","0.0-6.0-0.55","2699722","co38095","norming","","","","","","",""
"null","../img/tt/1107tt.jpg","null","mooney1","image-keyboard-response","392","1162936","0.0-6.0-1.55","2699722","co38095","norming","","","","","","",""
"5201.225000000093","","","post_mooney1_questions","survey-likert","393","1168141","0.0-6.0-2.55","2699722","co38095","norming","","","{""curiosity"":5,""confidence"":3}","[0,1]","../img/tt/1107tt.jpg","",""
"2909.9000000001397","","","recognition","survey-text","394","1171053","0.0-6.0-3.55","2699722","co38095","norming","","","{""guess"":""kitten""}","","../img/tt/1107tt.jpg","",""
"null","../img/gs/1107gs.jpg","null","reveal","image-keyboard-response","395","1173059","0.0-6.0-4.55","2699722","co38095","norming","","","","","","",""
"null","../img/tt/1107tt.jpg","null","mooney2","image-keyboard-response","396","1175061","0.0-6.0-5.55","2699722","co38095","norming","","","","","","",""
"2701.6650000000373","","","post_reveal_questions","survey-likert","397","1177765","0.0-6.0-6.55","2699722","co38095","norming","","","{""aha"":2}","[0]","../img/tt/1107tt.jpg","",""
"null","<div style=""font-size:60px;""> </div>","null","fixation","html-keyboard-response","398","1177966","0.0-6.0-0.56","2699722","co38095","norming","","","","","","",""
"null","../img/tt/1156tt.jpg","null","mooney1","image-keyboard-response","399","1180969","0.0-6.0-1.56","2699722","co38095","norming","","","","","","",""
"4368.684999999823","","","post_mooney1_questions","survey-likert","400","1185341","0.0-6.0-2.56","2699722","co38095","norming","","","{""curiosity"":5,""confidence"":4}","[0,1]","../img/tt/1156tt.jpg","",""
"3222.0449999999255","","","recognition","survey-text","401","1188565","0.0-6.0-3.56","2699722","co38095","norming","","","{""guess"":""bikini""}","","../img/tt/1156tt.jpg","",""
"null","../img/gs/1156gs.jpg","null","reveal","image-keyboard-response","402","1190570","0.0-6.0-4.56","2699722","co38095","norming","","","","","","",""
"null","../img/tt/1156tt.jpg","null","mooney2","image-keyboard-response","403","1192581","0.0-6.0-5.56","2699722","co38095","norming","","","","","","",""
"2229.815000000177","","","post_reveal_questions","survey-likert","404","1194813","0.0-6.0-6.56","2699722","co38095","norming","","","{""aha"":2}","[0]","../img/tt/1156tt.jpg","",""
"null","<div style=""font-size:60px;""> </div>","null","fixation","html-keyboard-response","405","1195014","0.0-6.0-0.57","2699722","co38095","norming","","","","","","",""
"null","../img/tt/1242tt.jpg","null","mooney1","image-keyboard-response","406","1198026","0.0-6.0-1.57","2699722","co38095","norming","","","","","","",""
"2742.8950000000186","","","post_mooney1_questions","survey-likert","407","1200773","0.0-6.0-2.57","2699722","co38095","norming","","","{""curiosity"":5,""confidence"":2}","[0,1]","../img/tt/1242tt.jpg","",""
"2302.160000000149","","","recognition","survey-text","408","1203076","0.0-6.0-3.57","2699722","co38095","norming","","","{""guess"":""vos""}","","../img/tt/1242tt.jpg","",""
"null","../img/gs/1242gs.jpg","null","reveal","image-keyboard-response","409","1205078","0.0-6.0-4.57","2699722","co38095","norming","","","","","","",""
"null","../img/tt/1242tt.jpg","null","mooney2","image-keyboard-response","410","1207080","0.0-6.0-5.57","2699722","co38095","norming","","","","","","",""
"3097.9500000001863","","","post_reveal_questions","survey-likert","411","1210180","0.0-6.0-6.57","2699722","co38095","norming","","","{""aha"":4}","[0]","../img/tt/1242tt.jpg","",""
"null","<div style=""font-size:60px;""> </div>","null","fixation","html-keyboard-response","412","1210382","0.0-6.0-0.58","2699722","co38095","norming","","","","","","",""
"null","../img/tt/105tt.jpg","null","mooney1","image-keyboard-response","413","1213386","0.0-6.0-1.58","2699722","co38095","norming","","","","","","",""
"5711.3650000002235","","","post_mooney1_questions","survey-likert","414","1219101","0.0-6.0-2.58","2699722","co38095","norming","","","{""curiosity"":3,""confidence"":5}","[0,1]","../img/tt/105tt.jpg","",""
"3709.8549999999814","","","recognition","survey-text","415","1222812","0.0-6.0-3.58","2699722","co38095","norming","","","{""guess"":""paperclips""}","","../img/tt/105tt.jpg","",""
"null","../img/gs/105gs.jpg","null","reveal","image-keyboard-response","416","1224819","0.0-6.0-4.58","2699722","co38095","norming","","","","","","",""
"null","../img/tt/105tt.jpg","null","mooney2","image-keyboard-response","417","1226822","0.0-6.0-5.58","2699722","co38095","norming","","","","","","",""
"2324.310000000056","","","post_reveal_questions","survey-likert","418","1229148","0.0-6.0-6.58","2699722","co38095","norming","","","{""aha"":1}","[0]","../img/tt/105tt.jpg","",""
"null","<div style=""font-size:60px;""> </div>","null","fixation","html-keyboard-response","419","1229350","0.0-6.0-0.59","2699722","co38095","norming","","","","","","",""
"null","../img/tt/1175tt.jpg","null","mooney1","image-keyboard-response","420","1232360","0.0-6.0-1.59","2699722","co38095","norming","","","","","","",""
"4809.39000000013","","","post_mooney1_questions","survey-likert","421","1237173","0.0-6.0-2.59","2699722","co38095","norming","","","{""curiosity"":4,""confidence"":5}","[0,1]","../img/tt/1175tt.jpg","",""
"3310.089999999851","","","recognition","survey-text","422","1240484","0.0-6.0-3.59","2699722","co38095","norming","","","{""guess"":""strand""}","","../img/tt/1175tt.jpg","",""
"null","../img/gs/1175gs.jpg","null","reveal","image-keyboard-response","423","1242486","0.0-6.0-4.59","2699722","co38095","norming","","","","","","",""
"null","../img/tt/1175tt.jpg","null","mooney2","image-keyboard-response","424","1244488","0.0-6.0-5.59","2699722","co38095","norming","","","","","","",""
"1801.690000000177","","","post_reveal_questions","survey-likert","425","1246292","0.0-6.0-6.59","2699722","co38095","norming","","","{""aha"":6}","[0]","../img/tt/1175tt.jpg","",""
"null","<div style=""font-size:60px;""> </div>","null","fixation","html-keyboard-response","426","1246501","0.0-6.0-0.60","2699722","co38095","norming","","","","","","",""
"null","../img/tt/1122tt.jpg","null","mooney1","image-keyboard-response","427","1249504","0.0-6.0-1.60","2699722","co38095","norming","","","","","","",""
"4049.3199999998324","","","post_mooney1_questions","survey-likert","428","1253556","0.0-6.0-2.60","2699722","co38095","norming","","","{""curiosity"":4,""confidence"":5}","[0,1]","../img/tt/1122tt.jpg","",""
"2598.189999999944","","","recognition","survey-text","429","1256156","0.0-6.0-3.60","2699722","co38095","norming","","","{""guess"":""haven""}","","../img/tt/1122tt.jpg","",""
"null","../img/gs/1122gs.jpg","null","reveal","image-keyboard-response","430","1258159","0.0-6.0-4.60","2699722","co38095","norming","","","","","","",""
"null","../img/tt/1122tt.jpg","null","mooney2","image-keyboard-response","431","1260161","0.0-6.0-5.60","2699722","co38095","norming","","","","","","",""
"3513.0500000000466","","","post_reveal_questions","survey-likert","432","1263673","0.0-6.0-6.60","2699722","co38095","norming","","","{""aha"":1}","[0]","../img/tt/1122tt.jpg","",""
"null","<div style=""font-size:60px;""> </div>","null","fixation","html-keyboard-response","433","1263881","0.0-6.0-0.61","2699722","co38095","norming","","","","","","",""
"null","../img/tt/001tt.jpg","null","mooney1","image-keyboard-response","434","1266889","0.0-6.0-1.61","2699722","co38095","norming","","","","","","",""
"4285.510000000009","","","post_mooney1_questions","survey-likert","435","1271177","0.0-6.0-2.61","2699722","co38095","norming","","","{""curiosity"":5,""confidence"":0}","[0,1]","../img/tt/001tt.jpg","",""
"597.5699999998324","","","recognition","survey-text","436","1271777","0.0-6.0-3.61","2699722","co38095","norming","","","{""guess"":""""}","","../img/tt/001tt.jpg","",""
"null","../img/gs/001gs.jpg","null","reveal","image-keyboard-response","437","1273779","0.0-6.0-4.61","2699722","co38095","norming","","","","","","",""
"null","../img/tt/001tt.jpg","null","mooney2","image-keyboard-response","438","1275789","0.0-6.0-5.61","2699722","co38095","norming","","","","","","",""
"3025.70999999973","","","post_reveal_questions","survey-likert","439","1278817","0.0-6.0-6.61","2699722","co38095","norming","","","{""aha"":4}","[0]","../img/tt/001tt.jpg","",""
"null","<div style=""font-size:60px;""> </div>","null","fixation","html-keyboard-response","440","1279019","0.0-6.0-0.62","2699722","co38095","norming","","","","","","",""
"null","../img/tt/1130tt.jpg","null","mooney1","image-keyboard-response","441","1282030","0.0-6.0-1.62","2699722","co38095","norming","","","","","","",""
"4047.280000000028","","","post_mooney1_questions","survey-likert","442","1286081","0.0-6.0-2.62","2699722","co38095","norming","","","{""curiosity"":5,""confidence"":0}","[0,1]","../img/tt/1130tt.jpg","",""
"614.0849999999627","","","recognition","survey-text","443","1286697","0.0-6.0-3.62","2699722","co38095","norming","","","{""guess"":""""}","","../img/tt/1130tt.jpg","",""
"null","../img/gs/1130gs.jpg","null","reveal","image-keyboard-response","444","1288704","0.0-6.0-4.62","2699722","co38095","norming","","","","","","",""
"null","../img/tt/1130tt.jpg","null","mooney2","image-keyboard-response","445","1290712","0.0-6.0-5.62","2699722","co38095","norming","","","","","","",""
"2790.1450000000186","","","post_reveal_questions","survey-likert","446","1293505","0.0-6.0-6.62","2699722","co38095","norming","","","{""aha"":6}","[0]","../img/tt/1130tt.jpg","",""
"null","<div style=""font-size:60px;""> </div>","null","fixation","html-keyboard-response","447","1293711","0.0-6.0-0.63","2699722","co38095","norming","","","","","","",""
"null","../img/tt/522tt.jpg","null","mooney1","image-keyboard-response","448","1296717","0.0-6.0-1.63","2699722","co38095","norming","","","","","","",""
"3016.3250000001863","","","post_mooney1_questions","survey-likert","449","1299737","0.0-6.0-2.63","2699722","co38095","norming","","","{""curiosity"":5,""confidence"":0}","[0,1]","../img/tt/522tt.jpg","",""
"686.2800000002608","","","recognition","survey-text","450","1300425","0.0-6.0-3.63","2699722","co38095","norming","","","{""guess"":""""}","","../img/tt/522tt.jpg","",""
"null","../img/gs/522gs.jpg","null","reveal","image-keyboard-response","451","1302432","0.0-6.0-4.63","2699722","co38095","norming","","","","","","",""
"null","../img/tt/522tt.jpg","null","mooney2","image-keyboard-response","452","1304434","0.0-6.0-5.63","2699722","co38095","norming","","","","","","",""
"4300.245000000112","","","post_reveal_questions","survey-likert","453","1308737","0.0-6.0-6.63","2699722","co38095","norming","","","{""aha"":6}","[0]","../img/tt/522tt.jpg","",""
"null","<div style=""font-size:60px;""> </div>","null","fixation","html-keyboard-response","454","1308942","0.0-6.0-0.64","2699722","co38095","norming","","","","","","",""
"null","../img/tt/1366tt.jpg","null","mooney1","image-keyboard-response","455","1311950","0.0-6.0-1.64","2699722","co38095","norming","","","","","","",""
"4055.469999999972","","","post_mooney1_questions","survey-likert","456","1316009","0.0-6.0-2.64","2699722","co38095","norming","","","{""curiosity"":5,""confidence"":2}","[0,1]","../img/tt/1366tt.jpg","",""
"4766","","","recognition","survey-text","457","1320777","0.0-6.0-3.64","2699722","co38095","norming","","","{""guess"":""hond""}","","../img/tt/1366tt.jpg","",""
"null","../img/gs/1366gs.jpg","null","reveal","image-keyboard-response","458","1322779","0.0-6.0-4.64","2699722","co38095","norming","","","","","","",""
"null","../img/tt/1366tt.jpg","null","mooney2","image-keyboard-response","459","1324787","0.0-6.0-5.64","2699722","co38095","norming","","","","","","",""
"2953.760000000242","","","post_reveal_questions","survey-likert","460","1327743","0.0-6.0-6.64","2699722","co38095","norming","","","{""aha"":6}","[0]","../img/tt/1366tt.jpg","",""
"null","<div style=""font-size:60px;""> </div>","null","fixation","html-keyboard-response","461","1327950","0.0-6.0-0.65","2699722","co38095","norming","","","","","","",""
"null","../img/tt/222tt.jpg","null","mooney1","image-keyboard-response","462","1330953","0.0-6.0-1.65","2699722","co38095","norming","","","","","","",""
"3939.0149999998976","","","post_mooney1_questions","survey-likert","463","1334896","0.0-6.0-2.65","2699722","co38095","norming","","","{""curiosity"":5,""confidence"":4}","[0,1]","../img/tt/222tt.jpg","",""
"2326.0449999999255","","","recognition","survey-text","464","1337223","0.0-6.0-3.65","2699722","co38095","norming","","","{""guess"":""bad""}","","../img/tt/222tt.jpg","",""
"null","../img/gs/222gs.jpg","null","reveal","image-keyboard-response","465","1339224","0.0-6.0-4.65","2699722","co38095","norming","","","","","","",""
"null","../img/tt/222tt.jpg","null","mooney2","image-keyboard-response","466","1341226","0.0-6.0-5.65","2699722","co38095","norming","","","","","","",""
"3554.545000000391","","","post_reveal_questions","survey-likert","467","1344783","0.0-6.0-6.65","2699722","co38095","norming","","","{""aha"":3}","[0]","../img/tt/222tt.jpg","",""
"null","<div style=""font-size:60px;""> </div>","null","fixation","html-keyboard-response","468","1344986","0.0-6.0-0.66","2699722","co38095","norming","","","","","","",""
"null","../img/tt/184tt.jpg","null","mooney1","image-keyboard-response","469","1347995","0.0-6.0-1.66","2699722","co38095","norming","","","","","","",""
"4432.614999999991","","","post_mooney1_questions","survey-likert","470","1352432","0.0-6.0-2.66","2699722","co38095","norming","","","{""curiosity"":6,""confidence"":0}","[0,1]","../img/tt/184tt.jpg","",""
"1478.0850000001956","","","recognition","survey-text","471","1353911","0.0-6.0-3.66","2699722","co38095","norming","","","{""guess"":""""}","","../img/tt/184tt.jpg","",""
"null","../img/gs/184gs.jpg","null","reveal","image-keyboard-response","472","1355916","0.0-6.0-4.66","2699722","co38095","norming","","","","","","",""
"null","../img/tt/184tt.jpg","null","mooney2","image-keyboard-response","473","1357927","0.0-6.0-5.66","2699722","co38095","norming","","","","","","",""
"3197.4950000001118","","","post_reveal_questions","survey-likert","474","1361127","0.0-6.0-6.66","2699722","co38095","norming","","","{""aha"":4}","[0]","../img/tt/184tt.jpg","",""
"null","<div style=""font-size:60px;""> </div>","null","fixation","html-keyboard-response","475","1361333","0.0-6.0-0.67","2699722","co38095","norming","","","","","","",""
"null","../img/tt/044tt.jpg","null","mooney1","image-keyboard-response","476","1364340","0.0-6.0-1.67","2699722","co38095","norming","","","","","","",""
"4887.969999999972","","","post_mooney1_questions","survey-likert","477","1369232","0.0-6.0-2.67","2699722","co38095","norming","","","{""curiosity"":4,""confidence"":1}","[0,1]","../img/tt/044tt.jpg","",""
"2493.8650000002235","","","recognition","survey-text","478","1371727","0.0-6.0-3.67","2699722","co38095","norming","","","{""guess"":""laptop""}","","../img/tt/044tt.jpg","",""
"null","../img/gs/044gs.jpg","null","reveal","image-keyboard-response","479","1373734","0.0-6.0-4.67","2699722","co38095","norming","","","","","","",""
"null","../img/tt/044tt.jpg","null","mooney2","image-keyboard-response","480","1375747","0.0-6.0-5.67","2699722","co38095","norming","","","","","","",""
"4337.924999999814","","","post_reveal_questions","survey-likert","481","1380087","0.0-6.0-6.67","2699722","co38095","norming","","","{""aha"":6}","[0]","../img/tt/044tt.jpg","",""
"null","<div style=""font-size:60px;""> </div>","null","fixation","html-keyboard-response","482","1380294","0.0-6.0-0.68","2699722","co38095","norming","","","","","","",""
"null","../img/tt/1191tt.jpg","null","mooney1","image-keyboard-response","483","1383303","0.0-6.0-1.68","2699722","co38095","norming","","","","","","",""
"3700.75","","","post_mooney1_questions","survey-likert","484","1386999","0.0-6.0-2.68","2699722","co38095","norming","","","{""curiosity"":5,""confidence"":3}","[0,1]","../img/tt/1191tt.jpg","",""
"3214","","","recognition","survey-text","485","1390215","0.0-6.0-3.68","2699722","co38095","norming","","","{""guess"":""paarden""}","","../img/tt/1191tt.jpg","",""
"null","../img/gs/1191gs.jpg","null","reveal","image-keyboard-response","486","1392217","0.0-6.0-4.68","2699722","co38095","norming","","","","","","",""
"null","../img/tt/1191tt.jpg","null","mooney2","image-keyboard-response","487","1394220","0.0-6.0-5.68","2699722","co38095","norming","","","","","","",""
"2631.660000000149","","","post_reveal_questions","survey-likert","488","1396855","0.0-6.0-6.68","2699722","co38095","norming","","","{""aha"":6}","[0]","../img/tt/1191tt.jpg","",""
"null","<div style=""font-size:60px;""> </div>","null","fixation","html-keyboard-response","489","1397059","0.0-6.0-0.69","2699722","co38095","norming","","","","","","",""
"null","../img/tt/1189tt.jpg","null","mooney1","image-keyboard-response","490","1400067","0.0-6.0-1.69","2699722","co38095","norming","","","","","","",""
"3864.4549999998417","","","post_mooney1_questions","survey-likert","491","1403935","0.0-6.0-2.69","2699722","co38095","norming","","","{""curiosity"":6,""confidence"":0}","[0,1]","../img/tt/1189tt.jpg","",""
"1221.8400000003166","","","recognition","survey-text","492","1405159","0.0-6.0-3.69","2699722","co38095","norming","","","{""guess"":""""}","","../img/tt/1189tt.jpg","",""
"null","../img/gs/1189gs.jpg","null","reveal","image-keyboard-response","493","1407160","0.0-6.0-4.69","2699722","co38095","norming","","","","","","",""
"null","../img/tt/1189tt.jpg","null","mooney2","image-keyboard-response","494","1409162","0.0-6.0-5.69","2699722","co38095","norming","","","","","","",""
"2434.3850000000093","","","post_reveal_questions","survey-likert","495","1411599","0.0-6.0-6.69","2699722","co38095","norming","","","{""aha"":6}","[0]","../img/tt/1189tt.jpg","",""
"null","<div style=""font-size:60px;""> </div>","null","fixation","html-keyboard-response","496","1411808","0.0-6.0-0.70","2699722","co38095","norming","","","","","","",""
"null","../img/tt/1243tt.jpg","null","mooney1","image-keyboard-response","497","1414813","0.0-6.0-1.70","2699722","co38095","norming","","","","","","",""
"3759.130000000121","","","post_mooney1_questions","survey-likert","498","1418575","0.0-6.0-2.70","2699722","co38095","norming","","","{""curiosity"":4,""confidence"":2}","[0,1]","../img/tt/1243tt.jpg","",""
"3222.1350000000093","","","recognition","survey-text","499","1421799","0.0-6.0-3.70","2699722","co38095","norming","","","{""guess"":""aap""}","","../img/tt/1243tt.jpg","",""
"null","../img/gs/1243gs.jpg","null","reveal","image-keyboard-response","500","1423808","0.0-6.0-4.70","2699722","co38095","norming","","","","","","",""
"null","../img/tt/1243tt.jpg","null","mooney2","image-keyboard-response","501","1425818","0.0-6.0-5.70","2699722","co38095","norming","","","","","","",""
"2553.660000000149","","","post_reveal_questions","survey-likert","502","1428375","0.0-6.0-6.70","2699722","co38095","norming","","","{""aha"":5}","[0]","../img/tt/1243tt.jpg","",""
"null","<div style=""font-size:60px;""> </div>","null","fixation","html-keyboard-response","503","1428580","0.0-6.0-0.71","2699722","co38095","norming","","","","","","",""
"null","../img/tt/378tt.jpg","null","mooney1","image-keyboard-response","504","1431589","0.0-6.0-1.71","2699722","co38095","norming","","","","","","",""
"5369.165000000037","","","post_mooney1_questions","survey-likert","505","1436959","0.0-6.0-2.71","2699722","co38095","norming","","","{""curiosity"":6,""confidence"":2}","[0,1]","../img/tt/378tt.jpg","",""
"2054.0399999998044","","","recognition","survey-text","506","1439015","0.0-6.0-3.71","2699722","co38095","norming","","","{""guess"":""hert""}","","../img/tt/378tt.jpg","",""
"null","../img/gs/378gs.jpg","null","reveal","image-keyboard-response","507","1441019","0.0-6.0-4.71","2699722","co38095","norming","","","","","","",""
"null","../img/tt/378tt.jpg","null","mooney2","image-keyboard-response","508","1443030","0.0-6.0-5.71","2699722","co38095","norming","","","","","","",""
"1829.6150000002235","","","post_reveal_questions","survey-likert","509","1444871","0.0-6.0-6.71","2699722","co38095","norming","","","{""aha"":5}","[0]","../img/tt/378tt.jpg","",""
"null","<div style=""font-size:60px;""> </div>","null","fixation","html-keyboard-response","510","1445073","0.0-6.0-0.72","2699722","co38095","norming","","","","","","",""
"null","../img/tt/517tt.jpg","null","mooney1","image-keyboard-response","511","1448080","0.0-6.0-1.72","2699722","co38095","norming","","","","","","",""
"3004.070000000065","","","post_mooney1_questions","survey-likert","512","1451087","0.0-6.0-2.72","2699722","co38095","norming","","","{""curiosity"":5,""confidence"":1}","[0,1]","../img/tt/517tt.jpg","",""
"3390.0100000000093","","","recognition","survey-text","513","1454479","0.0-6.0-3.72","2699722","co38095","norming","","","{""guess"":""stokstaart""}","","../img/tt/517tt.jpg","",""
"null","../img/gs/517gs.jpg","null","reveal","image-keyboard-response","514","1456481","0.0-6.0-4.72","2699722","co38095","norming","","","","","","",""
"null","../img/tt/517tt.jpg","null","mooney2","image-keyboard-response","515","1458484","0.0-6.0-5.72","2699722","co38095","norming","","","","","","",""
"2512.8249999999534","","","post_reveal_questions","survey-likert","516","1460999","0.0-6.0-6.72","2699722","co38095","norming","","","{""aha"":4}","[0]","../img/tt/517tt.jpg","",""
"null","<div style=""font-size:60px;""> </div>","null","fixation","html-keyboard-response","517","1461207","0.0-6.0-0.73","2699722","co38095","norming","","","","","","",""
"null","../img/tt/1239tt.jpg","null","mooney1","image-keyboard-response","518","1464211","0.0-6.0-1.73","2699722","co38095","norming","","","","","","",""
"4921.010000000009","","","post_mooney1_questions","survey-likert","519","1469135","0.0-6.0-2.73","2699722","co38095","norming","","","{""curiosity"":3,""confidence"":5}","[0,1]","../img/tt/1239tt.jpg","",""
"2646.114999999758","","","recognition","survey-text","520","1471783","0.0-6.0-3.73","2699722","co38095","norming","","","{""guess"":""hond""}","","../img/tt/1239tt.jpg","",""
"null","../img/gs/1239gs.jpg","null","reveal","image-keyboard-response","521","1473785","0.0-6.0-4.73","2699722","co38095","norming","","","","","","",""
"null","../img/tt/1239tt.jpg","null","mooney2","image-keyboard-response","522","1475791","0.0-6.0-5.73","2699722","co38095","norming","","","","","","",""
"3261.4850000001024","","","post_reveal_questions","survey-likert","523","1479055","0.0-6.0-6.73","2699722","co38095","norming","","","{""aha"":1}","[0]","../img/tt/1239tt.jpg","",""
"null","<div style=""font-size:60px;""> </div>","null","fixation","html-keyboard-response","524","1479256","0.0-6.0-0.74","2699722","co38095","norming","","","","","","",""
"null","../img/tt/1275tt.jpg","null","mooney1","image-keyboard-response","525","1482259","0.0-6.0-1.74","2699722","co38095","norming","","","","","","",""
"8441.454999999842","","","post_mooney1_questions","survey-likert","526","1490703","0.0-6.0-2.74","2699722","co38095","norming","","","{""curiosity"":6,""confidence"":0}","[0,1]","../img/tt/1275tt.jpg","",""
"1814.0349999999162","","","recognition","survey-text","527","1492519","0.0-6.0-3.74","2699722","co38095","norming","","","{""guess"":""""}","","../img/tt/1275tt.jpg","",""
"null","../img/gs/1275gs.jpg","null","reveal","image-keyboard-response","528","1494521","0.0-6.0-4.74","2699722","co38095","norming","","","","","","",""
"null","../img/tt/1275tt.jpg","null","mooney2","image-keyboard-response","529","1496524","0.0-6.0-5.74","2699722","co38095","norming","","","","","","",""
"4768.930000000168","","","post_reveal_questions","survey-likert","530","1501295","0.0-6.0-6.74","2699722","co38095","norming","","","{""aha"":6}","[0]","../img/tt/1275tt.jpg","",""
"null","<div style=""font-size:60px;""> </div>","null","fixation","html-keyboard-response","531","1501503","0.0-6.0-0.75","2699722","co38095","norming","","","","","","",""
"null","../img/tt/1188tt.jpg","null","mooney1","image-keyboard-response","532","1504511","0.0-6.0-1.75","2699722","co38095","norming","","","","","","",""
"3428.7900000000373","","","post_mooney1_questions","survey-likert","533","1507937","0.0-6.0-2.75","2699722","co38095","norming","","","{""curiosity"":5,""confidence"":1}","[0,1]","../img/tt/1188tt.jpg","",""
"5237.625","","","recognition","survey-text","534","1513177","0.0-6.0-3.75","2699722","co38095","norming","","","{""guess"":""kerstman""}","","../img/tt/1188tt.jpg","",""
"null","../img/gs/1188gs.jpg","null","reveal","image-keyboard-response","535","1515179","0.0-6.0-4.75","2699722","co38095","norming","","","","","","",""
"null","../img/tt/1188tt.jpg","null","mooney2","image-keyboard-response","536","1517182","0.0-6.0-5.75","2699722","co38095","norming","","","","","","",""
"1936.7399999999907","","","post_reveal_questions","survey-likert","537","1519121","0.0-6.0-6.75","2699722","co38095","norming","","","{""aha"":5}","[0]","../img/tt/1188tt.jpg","",""
"null","<div style=""font-size:60px;""> </div>","null","fixation","html-keyboard-response","538","1519331","0.0-6.0-0.76","2699722","co38095","norming","","","","","","",""
"null","../img/tt/112tt.jpg","null","mooney1","image-keyboard-response","539","1522334","0.0-6.0-1.76","2699722","co38095","norming","","","","","","",""
"5089.590000000084","","","post_mooney1_questions","survey-likert","540","1527425","0.0-6.0-2.76","2699722","co38095","norming","","","{""curiosity"":6,""confidence"":0}","[0,1]","../img/tt/112tt.jpg","",""
"606.1100000001024","","","recognition","survey-text","541","1528033","0.0-6.0-3.76","2699722","co38095","norming","","","{""guess"":""""}","","../img/tt/112tt.jpg","",""
"null","../img/gs/112gs.jpg","null","reveal","image-keyboard-response","542","1530035","0.0-6.0-4.76","2699722","co38095","norming","","","","","","",""
"null","../img/tt/112tt.jpg","null","mooney2","image-keyboard-response","543","1532038","0.0-6.0-5.76","2699722","co38095","norming","","","","","","",""
"3559.9250000000466","","","post_reveal_questions","survey-likert","544","1535601","0.0-6.0-6.76","2699722","co38095","norming","","","{""aha"":6}","[0]","../img/tt/112tt.jpg","",""
"null","<div style=""font-size:60px;""> </div>","null","fixation","html-keyboard-response","545","1535804","0.0-6.0-0.77","2699722","co38095","norming","","","","","","",""
"null","../img/tt/064tt.jpg","null","mooney1","image-keyboard-response","546","1538809","0.0-6.0-1.77","2699722","co38095","norming","","","","","","",""
"3093.184999999823","","","post_mooney1_questions","survey-likert","547","1541905","0.0-6.0-2.77","2699722","co38095","norming","","","{""curiosity"":5,""confidence"":0}","[0,1]","../img/tt/064tt.jpg","",""
"686.0699999998324","","","recognition","survey-text","548","1542593","0.0-6.0-3.77","2699722","co38095","norming","","","{""guess"":""""}","","../img/tt/064tt.jpg","",""
"null","../img/gs/064gs.jpg","null","reveal","image-keyboard-response","549","1544595","0.0-6.0-4.77","2699722","co38095","norming","","","","","","",""
"null","../img/tt/064tt.jpg","null","mooney2","image-keyboard-response","550","1546597","0.0-6.0-5.77","2699722","co38095","norming","","","","","","",""
"1705.3050000001676","","","post_reveal_questions","survey-likert","551","1548305","0.0-6.0-6.77","2699722","co38095","norming","","","{""aha"":5}","[0]","../img/tt/064tt.jpg","",""
"null","<div style=""font-size:60px;""> </div>","null","fixation","html-keyboard-response","552","1548513","0.0-6.0-0.78","2699722","co38095","norming","","","","","","",""
