"rt","stimulus","key_press","test_part","trial_type","trial_index","time_elapsed","internal_node_id","totalTime","subject","experiment_name","button_pressed","success","responses","question_order","currentStim","old","correct"
"7461.204999999609","Welcome to the experiment. This is an online experiment so please don't close the tab/window until we say goodbye.  Press any key to begin.","32","instructions","html-keyboard-response","0","7511","0.0-0.0","2746711","co39265","norming","","","","","","",""
"81416.67000000052","<div style='word-wrap: break-word; width: 900px'><h3>Please consider this information carefully before deciding whether to participate in this research</h3><ul style='text-align: left; font-size: .8em;'><li><b>Purpose of the research</b>: To examine how people process images.</li><li><b>What you will do in this research</b>:  Stimuli (images) will be presented on the computer and you will be asked different questions about them.</li><li><b>Time required</b>: Participation will take between 45 and 60 minutes to complete.</li><li><b>Risks</b>:  There are no anticipated risks associated with participating in this study. The effects of participating should be comparable to those you would experience from viewing a computer monitor for 30 minutes and using a mouse or keyboard.</li><li><b>Benefits</b>:  This study provides no benefits to you individually except for the credit. The study provides important information about the nature of perception and learning.</li><li><b>Confidentiality</b>:  Your participation in this study will remain confidential. No personally identifiable information will be associated with your data. Your de-identified data may be shared with other researchers and used in future projects.</li><li><b>Participation and withdrawal</b>:  Your participation in this study is completely voluntary and you may refuse to participate or you may choose to withdraw at any time without penalty.</li><li><b>How to contact the researchers</b>: If you have questions or concerns about your participation or payment, or want to request a summary of research findings, please contact Sander Van de Cruys (KU Leuven), at sander.vandecruys@kuleuven.be.</li></ul><p>The nature and purpose of this research have been sufficiently explained and I agree to participate in this study.  I understand that I am free to withdraw at any time without incurring any penalty.</p><p>Please consent by clicking the button below to continue. Otherwise, please exit the study at this time.</p></div>","","instructions","html-button-response","1","88924","0.0-1.0","2746711","co39265","norming","0","","","","","",""
"","","","instructions","fullscreen","2","94309","0.0-2.0","2746711","co39265","norming","","true","","","","",""
"52139.735000000655","","","sona","survey-html-form","3","146456","0.0-3.0","2746711","co39265","norming","","","[{""name"":""sonaid"",""value"":""39265""},{""name"":""debrief"",""value"":""no""},{""name"":""datajoin"",""value"":""yes""}]","","","",""
"77763.55500000136","<div style='word-wrap: break-word; width: 900px'><h3>Instructions</h3><p>This experiment will have 3 parts. In the first part you will see a series of distorted images like the one below on the left. As you can see in the righthand image, the distorted images are derived from actual photographs. In what follows, you will <strong>briefly</strong> be presented with <strong>only</strong> the distorted image.</p> <div style='float: left; margin-right: 20px;'><img src='../img/018tt.jpg' height='250' width='250'></img></div><div style='float: right; margin-left: 20px;'><img src='../img/018gs.jpg' height='250' width='250'></img></div><p>Subsequently you will be asked a few questions about the image: One question on how <strong>curious</strong> you are about the solution and one on how <strong>confident</strong> you are that you know the solution.</p>Next, we ask you to make a guess on what is in the image. Note that it is OK to name just the <strong>basic level category</strong>. For example when you see a parrot in the image, 'parrot' will obviously be a correct answer but also correct is 'bird'. However, 'animal' will <strong>not</strong> be counted as a correct response. For the example above, 'rose' would be correct or 'flower', but not 'plant'. When soccer players are depicted, 'soccer', 'football', 'soccer players' will be correct, but not 'humans', 'outdoors', or 'sports'. You do not need to describe the image in full, just name the main object in it <strong>in one or two words</strong>. All images depict objects from one of the following broad level categories: animals, inanimate objects, plants, sports, vehicles, and food. Recognizing means knowing <strong>more</strong> than these broad labels for a given image. But we always encourage you to <strong>make a guess</strong> if you can. Note that you are allowed to use <strong>Dutch and English</strong> in your answers, whatever comes easiest for you.</p><p>Press any key to continue.</p></div>","32","instructions","html-keyboard-response","4","224227","0.0-4.0","2746711","co39265","norming","","","","","","",""
"4061.6399999998976","<div style='word-wrap: break-word; width: 900px'><h3>Instructions</h3> <p>Next, the solution image will be revealed to you and you'll be asked to indicate how strong your <strong>aha-experience</strong> was after seeing the solution. This describes the positive feeling of the 'click' you sometimes experience, when the pieces of the 'puzzle' fall together and you suddenly have 'insight' in the image.</p><img src='aha.jpg' height='188' width='250'></img><p>Note that there are no right or wrong answers. We are interested in what <strong>you</strong> see in the image and how <strong>you</strong> feel about it.</p><p>Press any key to start the experiment.</p></div>","32","instructions","html-keyboard-response","5","228290","0.0-5.0","2746711","co39265","norming","","","","","","",""
"null","<div style=""font-size:60px;""> </div>","null","fixation","html-keyboard-response","6","228496","0.0-6.0-0.0","2746711","co39265","norming","","","","","","",""
"null","../img/tt/318tt.jpg","null","mooney1","image-keyboard-response","7","231506","0.0-6.0-1.0","2746711","co39265","norming","","","","","","",""
"13196.480000000505","","","post_mooney1_questions","survey-likert","8","244706","0.0-6.0-2.0","2746711","co39265","norming","","","{""curiosity"":1,""confidence"":1}","[0,1]","../img/tt/318tt.jpg","",""
"7765.0450000001","","","recognition","survey-text","9","252474","0.0-6.0-3.0","2746711","co39265","norming","","","{""guess"":""autostuur""}","","../img/tt/318tt.jpg","",""
"null","../img/gs/318gs.jpg","null","reveal","image-keyboard-response","10","254476","0.0-6.0-4.0","2746711","co39265","norming","","","","","","",""
"null","../img/tt/318tt.jpg","null","mooney2","image-keyboard-response","11","256486","0.0-6.0-5.0","2746711","co39265","norming","","","","","","",""
"5489.704999999958","","","post_reveal_questions","survey-likert","12","261978","0.0-6.0-6.0","2746711","co39265","norming","","","{""aha"":1}","[0]","../img/tt/318tt.jpg","",""
"null","<div style=""font-size:60px;""> </div>","null","fixation","html-keyboard-response","13","262189","0.0-6.0-0.1","2746711","co39265","norming","","","","","","",""
"null","../img/tt/1236tt.jpg","null","mooney1","image-keyboard-response","14","265193","0.0-6.0-1.1","2746711","co39265","norming","","","","","","",""
"6296.425000000396","","","post_mooney1_questions","survey-likert","15","271490","0.0-6.0-2.1","2746711","co39265","norming","","","{""curiosity"":3,""confidence"":0}","[0,1]","../img/tt/1236tt.jpg","",""
"4830.130000000296","","","recognition","survey-text","16","276322","0.0-6.0-3.1","2746711","co39265","norming","","","{""guess"":""persoon""}","","../img/tt/1236tt.jpg","",""
"null","../img/gs/1236gs.jpg","null","reveal","image-keyboard-response","17","278324","0.0-6.0-4.1","2746711","co39265","norming","","","","","","",""
"null","../img/tt/1236tt.jpg","null","mooney2","image-keyboard-response","18","280325","0.0-6.0-5.1","2746711","co39265","norming","","","","","","",""
"4906.33499999973","","","post_reveal_questions","survey-likert","19","285238","0.0-6.0-6.1","2746711","co39265","norming","","","{""aha"":3}","[0]","../img/tt/1236tt.jpg","",""
"null","<div style=""font-size:60px;""> </div>","null","fixation","html-keyboard-response","20","285442","0.0-6.0-0.2","2746711","co39265","norming","","","","","","",""
"null","../img/tt/1101tt.jpg","null","mooney1","image-keyboard-response","21","288446","0.0-6.0-1.2","2746711","co39265","norming","","","","","","",""
"5477.694999999541","","","post_mooney1_questions","survey-likert","22","293926","0.0-6.0-2.2","2746711","co39265","norming","","","{""curiosity"":3,""confidence"":0}","[0,1]","../img/tt/1101tt.jpg","",""
"4182.0950000000885","","","recognition","survey-text","23","298110","0.0-6.0-3.2","2746711","co39265","norming","","","{""guess"":""persoon""}","","../img/tt/1101tt.jpg","",""
"null","../img/gs/1101gs.jpg","null","reveal","image-keyboard-response","24","300116","0.0-6.0-4.2","2746711","co39265","norming","","","","","","",""
"null","../img/tt/1101tt.jpg","null","mooney2","image-keyboard-response","25","302118","0.0-6.0-5.2","2746711","co39265","norming","","","","","","",""
"2662.5750000003027","","","post_reveal_questions","survey-likert","26","304782","0.0-6.0-6.2","2746711","co39265","norming","","","{""aha"":4}","[0]","../img/tt/1101tt.jpg","",""
"null","<div style=""font-size:60px;""> </div>","null","fixation","html-keyboard-response","27","304983","0.0-6.0-0.3","2746711","co39265","norming","","","","","","",""
"null","../img/tt/1217tt.jpg","null","mooney1","image-keyboard-response","28","307992","0.0-6.0-1.3","2746711","co39265","norming","","","","","","",""
"6139.0900000005495","","","post_mooney1_questions","survey-likert","29","314134","0.0-6.0-2.3","2746711","co39265","norming","","","{""curiosity"":3,""confidence"":0}","[0,1]","../img/tt/1217tt.jpg","",""
"2718.1149999996414","","","recognition","survey-text","30","316854","0.0-6.0-3.3","2746711","co39265","norming","","","{""guess"":""""}","","../img/tt/1217tt.jpg","",""
"null","../img/gs/1217gs.jpg","null","reveal","image-keyboard-response","31","318862","0.0-6.0-4.3","2746711","co39265","norming","","","","","","",""
"null","../img/tt/1217tt.jpg","null","mooney2","image-keyboard-response","32","320865","0.0-6.0-5.3","2746711","co39265","norming","","","","","","",""
"4715.260000000882","","","post_reveal_questions","survey-likert","33","325582","0.0-6.0-6.3","2746711","co39265","norming","","","{""aha"":5}","[0]","../img/tt/1217tt.jpg","",""
"null","<div style=""font-size:60px;""> </div>","null","fixation","html-keyboard-response","34","325787","0.0-6.0-0.4","2746711","co39265","norming","","","","","","",""
"null","../img/tt/1235tt.jpg","null","mooney1","image-keyboard-response","35","328790","0.0-6.0-1.4","2746711","co39265","norming","","","","","","",""
"6973.855000000156","","","post_mooney1_questions","survey-likert","36","335766","0.0-6.0-2.4","2746711","co39265","norming","","","{""curiosity"":2,""confidence"":0}","[0,1]","../img/tt/1235tt.jpg","",""
"533.914999999979","","","recognition","survey-text","37","336302","0.0-6.0-3.4","2746711","co39265","norming","","","{""guess"":""""}","","../img/tt/1235tt.jpg","",""
"null","../img/gs/1235gs.jpg","null","reveal","image-keyboard-response","38","338311","0.0-6.0-4.4","2746711","co39265","norming","","","","","","",""
"null","../img/tt/1235tt.jpg","null","mooney2","image-keyboard-response","39","340327","0.0-6.0-5.4","2746711","co39265","norming","","","","","","",""
"3838.1399999998393","","","post_reveal_questions","survey-likert","40","344166","0.0-6.0-6.4","2746711","co39265","norming","","","{""aha"":1}","[0]","../img/tt/1235tt.jpg","",""
"null","<div style=""font-size:60px;""> </div>","null","fixation","html-keyboard-response","41","344373","0.0-6.0-0.5","2746711","co39265","norming","","","","","","",""
"null","../img/tt/1049tt.jpg","null","mooney1","image-keyboard-response","42","347381","0.0-6.0-1.5","2746711","co39265","norming","","","","","","",""
"7816.0499999994645","","","post_mooney1_questions","survey-likert","43","355200","0.0-6.0-2.5","2746711","co39265","norming","","","{""curiosity"":2,""confidence"":0}","[0,1]","../img/tt/1049tt.jpg","",""
"1325.9999999991269","","","recognition","survey-text","44","356527","0.0-6.0-3.5","2746711","co39265","norming","","","{""guess"":""""}","","../img/tt/1049tt.jpg","",""
"null","../img/gs/1049gs.jpg","null","reveal","image-keyboard-response","45","358531","0.0-6.0-4.5","2746711","co39265","norming","","","","","","",""
"null","../img/tt/1049tt.jpg","null","mooney2","image-keyboard-response","46","360532","0.0-6.0-5.5","2746711","co39265","norming","","","","","","",""
"2576.91999999946","","","post_reveal_questions","survey-likert","47","363111","0.0-6.0-6.5","2746711","co39265","norming","","","{""aha"":0}","[0]","../img/tt/1049tt.jpg","",""
"null","<div style=""font-size:60px;""> </div>","null","fixation","html-keyboard-response","48","363312","0.0-6.0-0.6","2746711","co39265","norming","","","","","","",""
"null","../img/tt/1224tt.jpg","null","mooney1","image-keyboard-response","49","366321","0.0-6.0-1.6","2746711","co39265","norming","","","","","","",""
"5499.8950000008335","","","post_mooney1_questions","survey-likert","50","371824","0.0-6.0-2.6","2746711","co39265","norming","","","{""curiosity"":3,""confidence"":2}","[0,1]","../img/tt/1224tt.jpg","",""
"4126.185000000987","","","recognition","survey-text","51","375951","0.0-6.0-3.6","2746711","co39265","norming","","","{""guess"":""kamer""}","","../img/tt/1224tt.jpg","",""
"null","../img/gs/1224gs.jpg","null","reveal","image-keyboard-response","52","377952","0.0-6.0-4.6","2746711","co39265","norming","","","","","","",""
"null","../img/tt/1224tt.jpg","null","mooney2","image-keyboard-response","53","379955","0.0-6.0-5.6","2746711","co39265","norming","","","","","","",""
"2906.4650000000256","","","post_reveal_questions","survey-likert","54","382864","0.0-6.0-6.6","2746711","co39265","norming","","","{""aha"":4}","[0]","../img/tt/1224tt.jpg","",""
"null","<div style=""font-size:60px;""> </div>","null","fixation","html-keyboard-response","55","383065","0.0-6.0-0.7","2746711","co39265","norming","","","","","","",""
"null","../img/tt/1061tt.jpg","null","mooney1","image-keyboard-response","56","386070","0.0-6.0-1.7","2746711","co39265","norming","","","","","","",""
"10113.110000000219","","","post_mooney1_questions","survey-likert","57","396184","0.0-6.0-2.7","2746711","co39265","norming","","","{""curiosity"":3,""confidence"":0}","[0,1]","../img/tt/1061tt.jpg","",""
"1045.975000000908","","","recognition","survey-text","58","397231","0.0-6.0-3.7","2746711","co39265","norming","","","{""guess"":""""}","","../img/tt/1061tt.jpg","",""
"null","../img/gs/1061gs.jpg","null","reveal","image-keyboard-response","59","399241","0.0-6.0-4.7","2746711","co39265","norming","","","","","","",""
"null","../img/tt/1061tt.jpg","null","mooney2","image-keyboard-response","60","401246","0.0-6.0-5.7","2746711","co39265","norming","","","","","","",""
"4008.855000000098","","","post_reveal_questions","survey-likert","61","405251","0.0-6.0-6.7","2746711","co39265","norming","","","{""aha"":2}","[0]","../img/tt/1061tt.jpg","",""
"null","<div style=""font-size:60px;""> </div>","null","fixation","html-keyboard-response","62","405453","0.0-6.0-0.8","2746711","co39265","norming","","","","","","",""
"null","../img/tt/1040tt.jpg","null","mooney1","image-keyboard-response","63","408464","0.0-6.0-1.8","2746711","co39265","norming","","","","","","",""
"4801.16999999882","","","post_mooney1_questions","survey-likert","64","413268","0.0-6.0-2.8","2746711","co39265","norming","","","{""curiosity"":1,""confidence"":0}","[0,1]","../img/tt/1040tt.jpg","",""
"669.9850000004517","","","recognition","survey-text","65","413939","0.0-6.0-3.8","2746711","co39265","norming","","","{""guess"":""""}","","../img/tt/1040tt.jpg","",""
"null","../img/gs/1040gs.jpg","null","reveal","image-keyboard-response","66","415947","0.0-6.0-4.8","2746711","co39265","norming","","","","","","",""
"null","../img/tt/1040tt.jpg","null","mooney2","image-keyboard-response","67","417951","0.0-6.0-5.8","2746711","co39265","norming","","","","","","",""
"2643.645000000135","","","post_reveal_questions","survey-likert","68","420595","0.0-6.0-6.8","2746711","co39265","norming","","","{""aha"":0}","[0]","../img/tt/1040tt.jpg","",""
"null","<div style=""font-size:60px;""> </div>","null","fixation","html-keyboard-response","69","420797","0.0-6.0-0.9","2746711","co39265","norming","","","","","","",""
"null","../img/tt/126tt.jpg","null","mooney1","image-keyboard-response","70","423808","0.0-6.0-1.9","2746711","co39265","norming","","","","","","",""
"3904.730000000156","","","post_mooney1_questions","survey-likert","71","427715","0.0-6.0-2.9","2746711","co39265","norming","","","{""curiosity"":1,""confidence"":0}","[0,1]","../img/tt/126tt.jpg","",""
"646.3149999999441","","","recognition","survey-text","72","428363","0.0-6.0-3.9","2746711","co39265","norming","","","{""guess"":""""}","","../img/tt/126tt.jpg","",""
"null","../img/gs/126gs.jpg","null","reveal","image-keyboard-response","73","430372","0.0-6.0-4.9","2746711","co39265","norming","","","","","","",""
"null","../img/tt/126tt.jpg","null","mooney2","image-keyboard-response","74","432382","0.0-6.0-5.9","2746711","co39265","norming","","","","","","",""
"2963.3800000010524","","","post_reveal_questions","survey-likert","75","435347","0.0-6.0-6.9","2746711","co39265","norming","","","{""aha"":0}","[0]","../img/tt/126tt.jpg","",""
"null","<div style=""font-size:60px;""> </div>","null","fixation","html-keyboard-response","76","435555","0.0-6.0-0.10","2746711","co39265","norming","","","","","","",""
"null","../img/tt/194tt.jpg","null","mooney1","image-keyboard-response","77","438564","0.0-6.0-1.10","2746711","co39265","norming","","","","","","",""
"4100.780000000668","","","post_mooney1_questions","survey-likert","78","442668","0.0-6.0-2.10","2746711","co39265","norming","","","{""curiosity"":3,""confidence"":2}","[0,1]","../img/tt/194tt.jpg","",""
"4893.2750000003725","","","recognition","survey-text","79","447563","0.0-6.0-3.10","2746711","co39265","norming","","","{""guess"":""zitbank""}","","../img/tt/194tt.jpg","",""
"null","../img/gs/194gs.jpg","null","reveal","image-keyboard-response","80","449566","0.0-6.0-4.10","2746711","co39265","norming","","","","","","",""
"null","../img/tt/194tt.jpg","null","mooney2","image-keyboard-response","81","451575","0.0-6.0-5.10","2746711","co39265","norming","","","","","","",""
"3002.664999999979","","","post_reveal_questions","survey-likert","82","454580","0.0-6.0-6.10","2746711","co39265","norming","","","{""aha"":2}","[0]","../img/tt/194tt.jpg","",""
"null","<div style=""font-size:60px;""> </div>","null","fixation","html-keyboard-response","83","454790","0.0-6.0-0.11","2746711","co39265","norming","","","","","","",""
"null","../img/tt/357tt.jpg","null","mooney1","image-keyboard-response","84","457794","0.0-6.0-1.11","2746711","co39265","norming","","","","","","",""
"3823.155000000086","","","post_mooney1_questions","survey-likert","85","461620","0.0-6.0-2.11","2746711","co39265","norming","","","{""curiosity"":1,""confidence"":0}","[0,1]","../img/tt/357tt.jpg","",""
"726.1249999992433","","","recognition","survey-text","86","462347","0.0-6.0-3.11","2746711","co39265","norming","","","{""guess"":""""}","","../img/tt/357tt.jpg","",""
"null","../img/gs/357gs.jpg","null","reveal","image-keyboard-response","87","464349","0.0-6.0-4.11","2746711","co39265","norming","","","","","","",""
"null","../img/tt/357tt.jpg","null","mooney2","image-keyboard-response","88","466356","0.0-6.0-5.11","2746711","co39265","norming","","","","","","",""
"2442.854999999341","","","post_reveal_questions","survey-likert","89","468800","0.0-6.0-6.11","2746711","co39265","norming","","","{""aha"":0}","[0]","../img/tt/357tt.jpg","",""
"null","<div style=""font-size:60px;""> </div>","null","fixation","html-keyboard-response","90","469009","0.0-6.0-0.12","2746711","co39265","norming","","","","","","",""
"null","../img/tt/1102tt.jpg","null","mooney1","image-keyboard-response","91","472016","0.0-6.0-1.12","2746711","co39265","norming","","","","","","",""
"4470.05499999976","","","post_mooney1_questions","survey-likert","92","476489","0.0-6.0-2.12","2746711","co39265","norming","","","{""curiosity"":1,""confidence"":0}","[0,1]","../img/tt/1102tt.jpg","",""
"845.8599999994622","","","recognition","survey-text","93","477336","0.0-6.0-3.12","2746711","co39265","norming","","","{""guess"":""""}","","../img/tt/1102tt.jpg","",""
"null","../img/gs/1102gs.jpg","null","reveal","image-keyboard-response","94","479339","0.0-6.0-4.12","2746711","co39265","norming","","","","","","",""
"null","../img/tt/1102tt.jpg","null","mooney2","image-keyboard-response","95","481340","0.0-6.0-5.12","2746711","co39265","norming","","","","","","",""
"3890.2550000002375","","","post_reveal_questions","survey-likert","96","485232","0.0-6.0-6.12","2746711","co39265","norming","","","{""aha"":2}","[0]","../img/tt/1102tt.jpg","",""
"null","<div style=""font-size:60px;""> </div>","null","fixation","html-keyboard-response","97","485440","0.0-6.0-0.13","2746711","co39265","norming","","","","","","",""
"null","../img/tt/524tt.jpg","null","mooney1","image-keyboard-response","98","488447","0.0-6.0-1.13","2746711","co39265","norming","","","","","","",""
"4846.594999999041","","","post_mooney1_questions","survey-likert","99","493297","0.0-6.0-2.13","2746711","co39265","norming","","","{""curiosity"":1,""confidence"":1}","[0,1]","../img/tt/524tt.jpg","",""
"7030.184999999648","","","recognition","survey-text","100","500328","0.0-6.0-3.13","2746711","co39265","norming","","","{""guess"":""koe""}","","../img/tt/524tt.jpg","",""
"null","../img/gs/524gs.jpg","null","reveal","image-keyboard-response","101","502338","0.0-6.0-4.13","2746711","co39265","norming","","","","","","",""
"null","../img/tt/524tt.jpg","null","mooney2","image-keyboard-response","102","504341","0.0-6.0-5.13","2746711","co39265","norming","","","","","","",""
"3617.835000000894","","","post_reveal_questions","survey-likert","103","507960","0.0-6.0-6.13","2746711","co39265","norming","","","{""aha"":1}","[0]","../img/tt/524tt.jpg","",""
"null","<div style=""font-size:60px;""> </div>","null","fixation","html-keyboard-response","104","508163","0.0-6.0-0.14","2746711","co39265","norming","","","","","","",""
"null","../img/tt/036tt.jpg","null","mooney1","image-keyboard-response","105","511168","0.0-6.0-1.14","2746711","co39265","norming","","","","","","",""
"3727.25999999966","","","post_mooney1_questions","survey-likert","106","514897","0.0-6.0-2.14","2746711","co39265","norming","","","{""curiosity"":1,""confidence"":0}","[0,1]","../img/tt/036tt.jpg","",""
"726.3550000007381","","","recognition","survey-text","107","515624","0.0-6.0-3.14","2746711","co39265","norming","","","{""guess"":""""}","","../img/tt/036tt.jpg","",""
"null","../img/gs/036gs.jpg","null","reveal","image-keyboard-response","108","517631","0.0-6.0-4.14","2746711","co39265","norming","","","","","","",""
"null","../img/tt/036tt.jpg","null","mooney2","image-keyboard-response","109","519634","0.0-6.0-5.14","2746711","co39265","norming","","","","","","",""
"4588.3450000000885","","","post_reveal_questions","survey-likert","110","524224","0.0-6.0-6.14","2746711","co39265","norming","","","{""aha"":4}","[0]","../img/tt/036tt.jpg","",""
"null","<div style=""font-size:60px;""> </div>","null","fixation","html-keyboard-response","111","524426","0.0-6.0-0.15","2746711","co39265","norming","","","","","","",""
"null","../img/tt/1146tt.jpg","null","mooney1","image-keyboard-response","112","527429","0.0-6.0-1.15","2746711","co39265","norming","","","","","","",""
"5401.334999998682","","","post_mooney1_questions","survey-likert","113","532833","0.0-6.0-2.15","2746711","co39265","norming","","","{""curiosity"":1,""confidence"":1}","[0,1]","../img/tt/1146tt.jpg","",""
"4317.8550000011455","","","recognition","survey-text","114","537152","0.0-6.0-3.15","2746711","co39265","norming","","","{""guess"":""persoon""}","","../img/tt/1146tt.jpg","",""
"null","../img/gs/1146gs.jpg","null","reveal","image-keyboard-response","115","539158","0.0-6.0-4.15","2746711","co39265","norming","","","","","","",""
"null","../img/tt/1146tt.jpg","null","mooney2","image-keyboard-response","116","541160","0.0-6.0-5.15","2746711","co39265","norming","","","","","","",""
"1935.7700000000186","","","post_reveal_questions","survey-likert","117","543097","0.0-6.0-6.15","2746711","co39265","norming","","","{""aha"":5}","[0]","../img/tt/1146tt.jpg","",""
"null","<div style=""font-size:60px;""> </div>","null","fixation","html-keyboard-response","118","543307","0.0-6.0-0.16","2746711","co39265","norming","","","","","","",""
"null","../img/tt/1044tt.jpg","null","mooney1","image-keyboard-response","119","546310","0.0-6.0-1.16","2746711","co39265","norming","","","","","","",""
"4088.520000001183","","","post_mooney1_questions","survey-likert","120","550401","0.0-6.0-2.16","2746711","co39265","norming","","","{""curiosity"":1,""confidence"":0}","[0,1]","../img/tt/1044tt.jpg","",""
"574.1250000010477","","","recognition","survey-text","121","550977","0.0-6.0-3.16","2746711","co39265","norming","","","{""guess"":""""}","","../img/tt/1044tt.jpg","",""
"null","../img/gs/1044gs.jpg","null","reveal","image-keyboard-response","122","552986","0.0-6.0-4.16","2746711","co39265","norming","","","","","","",""
"null","../img/tt/1044tt.jpg","null","mooney2","image-keyboard-response","123","554989","0.0-6.0-5.16","2746711","co39265","norming","","","","","","",""
"3458.1699999999255","","","post_reveal_questions","survey-likert","124","558449","0.0-6.0-6.16","2746711","co39265","norming","","","{""aha"":0}","[0]","../img/tt/1044tt.jpg","",""
"null","<div style=""font-size:60px;""> </div>","null","fixation","html-keyboard-response","125","558654","0.0-6.0-0.17","2746711","co39265","norming","","","","","","",""
"null","../img/tt/079tt.jpg","null","mooney1","image-keyboard-response","126","561665","0.0-6.0-1.17","2746711","co39265","norming","","","","","","",""
"4085.125000001397","","","post_mooney1_questions","survey-likert","127","565753","0.0-6.0-2.17","2746711","co39265","norming","","","{""curiosity"":1,""confidence"":0}","[0,1]","../img/tt/079tt.jpg","",""
"1294.1350000001257","","","recognition","survey-text","128","567049","0.0-6.0-3.17","2746711","co39265","norming","","","{""guess"":""""}","","../img/tt/079tt.jpg","",""
"null","../img/gs/079gs.jpg","null","reveal","image-keyboard-response","129","569051","0.0-6.0-4.17","2746711","co39265","norming","","","","","","",""
"null","../img/tt/079tt.jpg","null","mooney2","image-keyboard-response","130","571053","0.0-6.0-5.17","2746711","co39265","norming","","","","","","",""
"3297.9649999997346","","","post_reveal_questions","survey-likert","131","574353","0.0-6.0-6.17","2746711","co39265","norming","","","{""aha"":0}","[0]","../img/tt/079tt.jpg","",""
"null","<div style=""font-size:60px;""> </div>","null","fixation","html-keyboard-response","132","574559","0.0-6.0-0.18","2746711","co39265","norming","","","","","","",""
"null","../img/tt/1239tt.jpg","null","mooney1","image-keyboard-response","133","577562","0.0-6.0-1.18","2746711","co39265","norming","","","","","","",""
"4891.994999999879","","","post_mooney1_questions","survey-likert","134","582457","0.0-6.0-2.18","2746711","co39265","norming","","","{""curiosity"":2,""confidence"":0}","[0,1]","../img/tt/1239tt.jpg","",""
"934.1399999994319","","","recognition","survey-text","135","583393","0.0-6.0-3.18","2746711","co39265","norming","","","{""guess"":""""}","","../img/tt/1239tt.jpg","",""
"null","../img/gs/1239gs.jpg","null","reveal","image-keyboard-response","136","585399","0.0-6.0-4.18","2746711","co39265","norming","","","","","","",""
"null","../img/tt/1239tt.jpg","null","mooney2","image-keyboard-response","137","587401","0.0-6.0-5.18","2746711","co39265","norming","","","","","","",""
"1797.7399999999907","","","post_reveal_questions","survey-likert","138","589198","0.0-6.0-6.18","2746711","co39265","norming","","","{""aha"":5}","[0]","../img/tt/1239tt.jpg","",""
"null","<div style=""font-size:60px;""> </div>","null","fixation","html-keyboard-response","139","589405","0.0-6.0-0.19","2746711","co39265","norming","","","","","","",""
"null","../img/tt/013tt.jpg","null","mooney1","image-keyboard-response","140","592410","0.0-6.0-1.19","2746711","co39265","norming","","","","","","",""
"5746.37000000081","","","post_mooney1_questions","survey-likert","141","598159","0.0-6.0-2.19","2746711","co39265","norming","","","{""curiosity"":0,""confidence"":0}","[0,1]","../img/tt/013tt.jpg","",""
"974.1100000010338","","","recognition","survey-text","142","599134","0.0-6.0-3.19","2746711","co39265","norming","","","{""guess"":""""}","","../img/tt/013tt.jpg","",""
"null","../img/gs/013gs.jpg","null","reveal","image-keyboard-response","143","601139","0.0-6.0-4.19","2746711","co39265","norming","","","","","","",""
"null","../img/tt/013tt.jpg","null","mooney2","image-keyboard-response","144","603141","0.0-6.0-5.19","2746711","co39265","norming","","","","","","",""
"2440.6699999999255","","","post_reveal_questions","survey-likert","145","605583","0.0-6.0-6.19","2746711","co39265","norming","","","{""aha"":5}","[0]","../img/tt/013tt.jpg","",""
"null","<div style=""font-size:60px;""> </div>","null","fixation","html-keyboard-response","146","605786","0.0-6.0-0.20","2746711","co39265","norming","","","","","","",""
"null","../img/tt/1004tt.jpg","null","mooney1","image-keyboard-response","147","608790","0.0-6.0-1.20","2746711","co39265","norming","","","","","","",""
"5670.360000000102","","","post_mooney1_questions","survey-likert","148","614463","0.0-6.0-2.20","2746711","co39265","norming","","","{""curiosity"":1,""confidence"":0}","[0,1]","../img/tt/1004tt.jpg","",""
"966.2200000003213","","","recognition","survey-text","149","615431","0.0-6.0-3.20","2746711","co39265","norming","","","{""guess"":""""}","","../img/tt/1004tt.jpg","",""
"null","../img/gs/1004gs.jpg","null","reveal","image-keyboard-response","150","617433","0.0-6.0-4.20","2746711","co39265","norming","","","","","","",""
"null","../img/tt/1004tt.jpg","null","mooney2","image-keyboard-response","151","619436","0.0-6.0-5.20","2746711","co39265","norming","","","","","","",""
"2664.3850000000093","","","post_reveal_questions","survey-likert","152","622103","0.0-6.0-6.20","2746711","co39265","norming","","","{""aha"":1}","[0]","../img/tt/1004tt.jpg","",""
"null","<div style=""font-size:60px;""> </div>","null","fixation","html-keyboard-response","153","622309","0.0-6.0-0.21","2746711","co39265","norming","","","","","","",""
"null","../img/tt/406tt.jpg","null","mooney1","image-keyboard-response","154","625315","0.0-6.0-1.21","2746711","co39265","norming","","","","","","",""
"5345.154999999097","","","post_mooney1_questions","survey-likert","155","630663","0.0-6.0-2.21","2746711","co39265","norming","","","{""curiosity"":4,""confidence"":3}","[0,1]","../img/tt/406tt.jpg","",""
"7982.079999999725","","","recognition","survey-text","156","638647","0.0-6.0-3.21","2746711","co39265","norming","","","{""guess"":""vleermuis""}","","../img/tt/406tt.jpg","",""
"null","../img/gs/406gs.jpg","null","reveal","image-keyboard-response","157","640648","0.0-6.0-4.21","2746711","co39265","norming","","","","","","",""
"null","../img/tt/406tt.jpg","null","mooney2","image-keyboard-response","158","642649","0.0-6.0-5.21","2746711","co39265","norming","","","","","","",""
"4514.675000000396","","","post_reveal_questions","survey-likert","159","647166","0.0-6.0-6.21","2746711","co39265","norming","","","{""aha"":3}","[0]","../img/tt/406tt.jpg","",""
"null","<div style=""font-size:60px;""> </div>","null","fixation","html-keyboard-response","160","647377","0.0-6.0-0.22","2746711","co39265","norming","","","","","","",""
"null","../img/tt/1126tt.jpg","null","mooney1","image-keyboard-response","161","650385","0.0-6.0-1.22","2746711","co39265","norming","","","","","","",""
"3966.060000000638","","","post_mooney1_questions","survey-likert","162","654354","0.0-6.0-2.22","2746711","co39265","norming","","","{""curiosity"":0,""confidence"":0}","[0,1]","../img/tt/1126tt.jpg","",""
"678.0399999988731","","","recognition","survey-text","163","655033","0.0-6.0-3.22","2746711","co39265","norming","","","{""guess"":""""}","","../img/tt/1126tt.jpg","",""
"null","../img/gs/1126gs.jpg","null","reveal","image-keyboard-response","164","657040","0.0-6.0-4.22","2746711","co39265","norming","","","","","","",""
"null","../img/tt/1126tt.jpg","null","mooney2","image-keyboard-response","165","659049","0.0-6.0-5.22","2746711","co39265","norming","","","","","","",""
"2014.1149999998743","","","post_reveal_questions","survey-likert","166","661065","0.0-6.0-6.22","2746711","co39265","norming","","","{""aha"":5}","[0]","../img/tt/1126tt.jpg","",""
"null","<div style=""font-size:60px;""> </div>","null","fixation","html-keyboard-response","167","661275","0.0-6.0-0.23","2746711","co39265","norming","","","","","","",""
"null","../img/tt/279tt.jpg","null","mooney1","image-keyboard-response","168","664278","0.0-6.0-1.23","2746711","co39265","norming","","","","","","",""
"5049.275000001187","","","post_mooney1_questions","survey-likert","169","669329","0.0-6.0-2.23","2746711","co39265","norming","","","{""curiosity"":1,""confidence"":0}","[0,1]","../img/tt/279tt.jpg","",""
"1053.9150000003865","","","recognition","survey-text","170","670385","0.0-6.0-3.23","2746711","co39265","norming","","","{""guess"":""""}","","../img/tt/279tt.jpg","",""
"null","../img/gs/279gs.jpg","null","reveal","image-keyboard-response","171","672390","0.0-6.0-4.23","2746711","co39265","norming","","","","","","",""
"null","../img/tt/279tt.jpg","null","mooney2","image-keyboard-response","172","674399","0.0-6.0-5.23","2746711","co39265","norming","","","","","","",""
"1703.9800000002142","","","post_reveal_questions","survey-likert","173","676105","0.0-6.0-6.23","2746711","co39265","norming","","","{""aha"":3}","[0]","../img/tt/279tt.jpg","",""
"null","<div style=""font-size:60px;""> </div>","null","fixation","html-keyboard-response","174","676314","0.0-6.0-0.24","2746711","co39265","norming","","","","","","",""
"null","../img/tt/1122tt.jpg","null","mooney1","image-keyboard-response","175","679317","0.0-6.0-1.24","2746711","co39265","norming","","","","","","",""
"5896.44000000041","","","post_mooney1_questions","survey-likert","176","685217","0.0-6.0-2.24","2746711","co39265","norming","","","{""curiosity"":3,""confidence"":3}","[0,1]","../img/tt/1122tt.jpg","",""
"6214.169999999227","","","recognition","survey-text","177","691433","0.0-6.0-3.24","2746711","co39265","norming","","","{""guess"":""computerschermen""}","","../img/tt/1122tt.jpg","",""
"null","../img/gs/1122gs.jpg","null","reveal","image-keyboard-response","178","693434","0.0-6.0-4.24","2746711","co39265","norming","","","","","","",""
"null","../img/tt/1122tt.jpg","null","mooney2","image-keyboard-response","179","695436","0.0-6.0-5.24","2746711","co39265","norming","","","","","","",""
"2523.035000000149","","","post_reveal_questions","survey-likert","180","697961","0.0-6.0-6.24","2746711","co39265","norming","","","{""aha"":0}","[0]","../img/tt/1122tt.jpg","",""
"null","<div style=""font-size:60px;""> </div>","null","fixation","html-keyboard-response","181","698170","0.0-6.0-0.25","2746711","co39265","norming","","","","","","",""
"null","../img/tt/1241tt.jpg","null","mooney1","image-keyboard-response","182","701182","0.0-6.0-1.25","2746711","co39265","norming","","","","","","",""
"6170.510000000009","","","post_mooney1_questions","survey-likert","183","707353","0.0-6.0-2.25","2746711","co39265","norming","","","{""curiosity"":3,""confidence"":1}","[0,1]","../img/tt/1241tt.jpg","",""
"3734.0299999995623","","","recognition","survey-text","184","711089","0.0-6.0-3.25","2746711","co39265","norming","","","{""guess"":""varken""}","","../img/tt/1241tt.jpg","",""
"null","../img/gs/1241gs.jpg","null","reveal","image-keyboard-response","185","713090","0.0-6.0-4.25","2746711","co39265","norming","","","","","","",""
"null","../img/tt/1241tt.jpg","null","mooney2","image-keyboard-response","186","715093","0.0-6.0-5.25","2746711","co39265","norming","","","","","","",""
"2970.484999999753","","","post_reveal_questions","survey-likert","187","718065","0.0-6.0-6.25","2746711","co39265","norming","","","{""aha"":3}","[0]","../img/tt/1241tt.jpg","",""
"null","<div style=""font-size:60px;""> </div>","null","fixation","html-keyboard-response","188","718266","0.0-6.0-0.26","2746711","co39265","norming","","","","","","",""
"null","../img/tt/1142tt.jpg","null","mooney1","image-keyboard-response","189","721274","0.0-6.0-1.26","2746711","co39265","norming","","","","","","",""
"5198.324999999371","","","post_mooney1_questions","survey-likert","190","726473","0.0-6.0-2.26","2746711","co39265","norming","","","{""curiosity"":2,""confidence"":3}","[0,1]","../img/tt/1142tt.jpg","",""
"3790.214999999036","","","recognition","survey-text","191","730265","0.0-6.0-3.26","2746711","co39265","norming","","","{""guess"":""voetballer""}","","../img/tt/1142tt.jpg","",""
"null","../img/gs/1142gs.jpg","null","reveal","image-keyboard-response","192","732274","0.0-6.0-4.26","2746711","co39265","norming","","","","","","",""
"null","../img/tt/1142tt.jpg","null","mooney2","image-keyboard-response","193","734285","0.0-6.0-5.26","2746711","co39265","norming","","","","","","",""
"3417.984999999986","","","post_reveal_questions","survey-likert","194","737705","0.0-6.0-6.26","2746711","co39265","norming","","","{""aha"":4}","[0]","../img/tt/1142tt.jpg","",""
"null","<div style=""font-size:60px;""> </div>","null","fixation","html-keyboard-response","195","737915","0.0-6.0-0.27","2746711","co39265","norming","","","","","","",""
"null","../img/tt/184tt.jpg","null","mooney1","image-keyboard-response","196","740921","0.0-6.0-1.27","2746711","co39265","norming","","","","","","",""
"3669.799999999581","","","post_mooney1_questions","survey-likert","197","744594","0.0-6.0-2.27","2746711","co39265","norming","","","{""curiosity"":1,""confidence"":0}","[0,1]","../img/tt/184tt.jpg","",""
"2845.9199999996927","","","recognition","survey-text","198","747441","0.0-6.0-3.27","2746711","co39265","norming","","","{""guess"":""taart""}","","../img/tt/184tt.jpg","",""
"null","../img/gs/184gs.jpg","null","reveal","image-keyboard-response","199","749447","0.0-6.0-4.27","2746711","co39265","norming","","","","","","",""
"null","../img/tt/184tt.jpg","null","mooney2","image-keyboard-response","200","751450","0.0-6.0-5.27","2746711","co39265","norming","","","","","","",""
"3780.979999999632","","","post_reveal_questions","survey-likert","201","755233","0.0-6.0-6.27","2746711","co39265","norming","","","{""aha"":2}","[0]","../img/tt/184tt.jpg","",""
"null","<div style=""font-size:60px;""> </div>","null","fixation","html-keyboard-response","202","755439","0.0-6.0-0.28","2746711","co39265","norming","","","","","","",""
"null","../img/tt/353tt.jpg","null","mooney1","image-keyboard-response","203","758444","0.0-6.0-1.28","2746711","co39265","norming","","","","","","",""
"5170.825000001118","","","post_mooney1_questions","survey-likert","204","763618","0.0-6.0-2.28","2746711","co39265","norming","","","{""curiosity"":4,""confidence"":5}","[0,1]","../img/tt/353tt.jpg","",""
"4349.949999999837","","","recognition","survey-text","205","767969","0.0-6.0-3.28","2746711","co39265","norming","","","{""guess"":""pinguin""}","","../img/tt/353tt.jpg","",""
"null","../img/gs/353gs.jpg","null","reveal","image-keyboard-response","206","769971","0.0-6.0-4.28","2746711","co39265","norming","","","","","","",""
"null","../img/tt/353tt.jpg","null","mooney2","image-keyboard-response","207","771977","0.0-6.0-5.28","2746711","co39265","norming","","","","","","",""
"3270.699999999022","","","post_reveal_questions","survey-likert","208","775250","0.0-6.0-6.28","2746711","co39265","norming","","","{""aha"":3}","[0]","../img/tt/353tt.jpg","",""
"null","<div style=""font-size:60px;""> </div>","null","fixation","html-keyboard-response","209","775454","0.0-6.0-0.29","2746711","co39265","norming","","","","","","",""
"null","../img/tt/436tt.jpg","null","mooney1","image-keyboard-response","210","778466","0.0-6.0-1.29","2746711","co39265","norming","","","","","","",""
"4085.4950000011595","","","post_mooney1_questions","survey-likert","211","782554","0.0-6.0-2.29","2746711","co39265","norming","","","{""curiosity"":4,""confidence"":4}","[0,1]","../img/tt/436tt.jpg","",""
"7741.925000000163","","","recognition","survey-text","212","790297","0.0-6.0-3.29","2746711","co39265","norming","","","{""guess"":""krokodil""}","","../img/tt/436tt.jpg","",""
"null","../img/gs/436gs.jpg","null","reveal","image-keyboard-response","213","792299","0.0-6.0-4.29","2746711","co39265","norming","","","","","","",""
"null","../img/tt/436tt.jpg","null","mooney2","image-keyboard-response","214","794300","0.0-6.0-5.29","2746711","co39265","norming","","","","","","",""
"2630.374999998836","","","post_reveal_questions","survey-likert","215","796938","0.0-6.0-6.29","2746711","co39265","norming","","","{""aha"":4}","[0]","../img/tt/436tt.jpg","",""
"null","<div style=""font-size:60px;""> </div>","null","fixation","html-keyboard-response","216","797139","0.0-6.0-0.30","2746711","co39265","norming","","","","","","",""
"null","../img/tt/1275tt.jpg","null","mooney1","image-keyboard-response","217","800147","0.0-6.0-1.30","2746711","co39265","norming","","","","","","",""
"3979.980000000098","","","post_mooney1_questions","survey-likert","218","804130","0.0-6.0-2.30","2746711","co39265","norming","","","{""curiosity"":2,""confidence"":0}","[0,1]","../img/tt/1275tt.jpg","",""
"3110.689999999595","","","recognition","survey-text","219","807242","0.0-6.0-3.30","2746711","co39265","norming","","","{""guess"":""olifant""}","","../img/tt/1275tt.jpg","",""
"null","../img/gs/1275gs.jpg","null","reveal","image-keyboard-response","220","809253","0.0-6.0-4.30","2746711","co39265","norming","","","","","","",""
"null","../img/tt/1275tt.jpg","null","mooney2","image-keyboard-response","221","811254","0.0-6.0-5.30","2746711","co39265","norming","","","","","","",""
"2955.144999999902","","","post_reveal_questions","survey-likert","222","814210","0.0-6.0-6.30","2746711","co39265","norming","","","{""aha"":4}","[0]","../img/tt/1275tt.jpg","",""
"null","<div style=""font-size:60px;""> </div>","null","fixation","html-keyboard-response","223","814412","0.0-6.0-0.31","2746711","co39265","norming","","","","","","",""
"null","../img/tt/118tt.jpg","null","mooney1","image-keyboard-response","224","817416","0.0-6.0-1.31","2746711","co39265","norming","","","","","","",""
"3767.1599999994505","","","post_mooney1_questions","survey-likert","225","821185","0.0-6.0-2.31","2746711","co39265","norming","","","{""curiosity"":1,""confidence"":1}","[0,1]","../img/tt/118tt.jpg","",""
"3318.4650000003166","","","recognition","survey-text","226","824506","0.0-6.0-3.31","2746711","co39265","norming","","","{""guess"":""stoel""}","","../img/tt/118tt.jpg","",""
"null","../img/gs/118gs.jpg","null","reveal","image-keyboard-response","227","826513","0.0-6.0-4.31","2746711","co39265","norming","","","","","","",""
"null","../img/tt/118tt.jpg","null","mooney2","image-keyboard-response","228","828525","0.0-6.0-5.31","2746711","co39265","norming","","","","","","",""
"2282.755000000121","","","post_reveal_questions","survey-likert","229","830810","0.0-6.0-6.31","2746711","co39265","norming","","","{""aha"":3}","[0]","../img/tt/118tt.jpg","",""
"null","<div style=""font-size:60px;""> </div>","null","fixation","html-keyboard-response","230","831017","0.0-6.0-0.32","2746711","co39265","norming","","","","","","",""
"null","../img/tt/123tt.jpg","null","mooney1","image-keyboard-response","231","834029","0.0-6.0-1.32","2746711","co39265","norming","","","","","","",""
"3521.7449999999953","","","post_mooney1_questions","survey-likert","232","837554","0.0-6.0-2.32","2746711","co39265","norming","","","{""curiosity"":2,""confidence"":2}","[0,1]","../img/tt/123tt.jpg","",""
"2926.2049999998417","","","recognition","survey-text","233","840482","0.0-6.0-3.32","2746711","co39265","norming","","","{""guess"":""koffer""}","","../img/tt/123tt.jpg","",""
"null","../img/gs/123gs.jpg","null","reveal","image-keyboard-response","234","842485","0.0-6.0-4.32","2746711","co39265","norming","","","","","","",""
"null","../img/tt/123tt.jpg","null","mooney2","image-keyboard-response","235","844495","0.0-6.0-5.32","2746711","co39265","norming","","","","","","",""
"2944.625","","","post_reveal_questions","survey-likert","236","847442","0.0-6.0-6.32","2746711","co39265","norming","","","{""aha"":2}","[0]","../img/tt/123tt.jpg","",""
"null","<div style=""font-size:60px;""> </div>","null","fixation","html-keyboard-response","237","847644","0.0-6.0-0.33","2746711","co39265","norming","","","","","","",""
"null","../img/tt/019tt.jpg","null","mooney1","image-keyboard-response","238","850647","0.0-6.0-1.33","2746711","co39265","norming","","","","","","",""
"2928.640000000014","","","post_mooney1_questions","survey-likert","239","853578","0.0-6.0-2.33","2746711","co39265","norming","","","{""curiosity"":1,""confidence"":0}","[0,1]","../img/tt/019tt.jpg","",""
"614.3250000005355","","","recognition","survey-text","240","854194","0.0-6.0-3.33","2746711","co39265","norming","","","{""guess"":""""}","","../img/tt/019tt.jpg","",""
"null","../img/gs/019gs.jpg","null","reveal","image-keyboard-response","241","856203","0.0-6.0-4.33","2746711","co39265","norming","","","","","","",""
"null","../img/tt/019tt.jpg","null","mooney2","image-keyboard-response","242","858205","0.0-6.0-5.33","2746711","co39265","norming","","","","","","",""
"4530.274999999208","","","post_reveal_questions","survey-likert","243","862738","0.0-6.0-6.33","2746711","co39265","norming","","","{""aha"":5}","[0]","../img/tt/019tt.jpg","",""
"null","<div style=""font-size:60px;""> </div>","null","fixation","html-keyboard-response","244","862939","0.0-6.0-0.34","2746711","co39265","norming","","","","","","",""
"null","../img/tt/040tt.jpg","null","mooney1","image-keyboard-response","245","865943","0.0-6.0-1.34","2746711","co39265","norming","","","","","","",""
"3840.6549999999115","","","post_mooney1_questions","survey-likert","246","869786","0.0-6.0-2.34","2746711","co39265","norming","","","{""curiosity"":1,""confidence"":0}","[0,1]","../img/tt/040tt.jpg","",""
"854.180000000284","","","recognition","survey-text","247","870642","0.0-6.0-3.34","2746711","co39265","norming","","","{""guess"":""""}","","../img/tt/040tt.jpg","",""
"null","../img/gs/040gs.jpg","null","reveal","image-keyboard-response","248","872647","0.0-6.0-4.34","2746711","co39265","norming","","","","","","",""
"null","../img/tt/040tt.jpg","null","mooney2","image-keyboard-response","249","874650","0.0-6.0-5.34","2746711","co39265","norming","","","","","","",""
"2645.3800000000047","","","post_reveal_questions","survey-likert","250","877298","0.0-6.0-6.34","2746711","co39265","norming","","","{""aha"":6}","[0]","../img/tt/040tt.jpg","",""
"null","<div style=""font-size:60px;""> </div>","null","fixation","html-keyboard-response","251","877506","0.0-6.0-0.35","2746711","co39265","norming","","","","","","",""
"null","../img/tt/440tt.jpg","null","mooney1","image-keyboard-response","252","880512","0.0-6.0-1.35","2746711","co39265","norming","","","","","","",""
"4462.730000001029","","","post_mooney1_questions","survey-likert","253","884978","0.0-6.0-2.35","2746711","co39265","norming","","","{""curiosity"":3,""confidence"":1}","[0,1]","../img/tt/440tt.jpg","",""
"6725.620000001043","","","recognition","survey-text","254","891705","0.0-6.0-3.35","2746711","co39265","norming","","","{""guess"":""zitbank""}","","../img/tt/440tt.jpg","",""
"null","../img/gs/440gs.jpg","null","reveal","image-keyboard-response","255","893713","0.0-6.0-4.35","2746711","co39265","norming","","","","","","",""
"null","../img/tt/440tt.jpg","null","mooney2","image-keyboard-response","256","895724","0.0-6.0-5.35","2746711","co39265","norming","","","","","","",""
"3924.7950000007404","","","post_reveal_questions","survey-likert","257","899649","0.0-6.0-6.35","2746711","co39265","norming","","","{""aha"":2}","[0]","../img/tt/440tt.jpg","",""
"null","<div style=""font-size:60px;""> </div>","null","fixation","html-keyboard-response","258","899852","0.0-6.0-0.36","2746711","co39265","norming","","","","","","",""
"null","../img/tt/056tt.jpg","null","mooney1","image-keyboard-response","259","902861","0.0-6.0-1.36","2746711","co39265","norming","","","","","","",""
"4835.2599999997765","","","post_mooney1_questions","survey-likert","260","907698","0.0-6.0-2.36","2746711","co39265","norming","","","{""curiosity"":3,""confidence"":1}","[0,1]","../img/tt/056tt.jpg","",""
"2517.724999999744","","","recognition","survey-text","261","910217","0.0-6.0-3.36","2746711","co39265","norming","","","{""guess"":""wolf""}","","../img/tt/056tt.jpg","",""
"null","../img/gs/056gs.jpg","null","reveal","image-keyboard-response","262","912221","0.0-6.0-4.36","2746711","co39265","norming","","","","","","",""
"null","../img/tt/056tt.jpg","null","mooney2","image-keyboard-response","263","914222","0.0-6.0-5.36","2746711","co39265","norming","","","","","","",""
"3778.270000000717","","","post_reveal_questions","survey-likert","264","918002","0.0-6.0-6.36","2746711","co39265","norming","","","{""aha"":3}","[0]","../img/tt/056tt.jpg","",""
"null","<div style=""font-size:60px;""> </div>","null","fixation","html-keyboard-response","265","918210","0.0-6.0-0.37","2746711","co39265","norming","","","","","","",""
"null","../img/tt/135tt.jpg","null","mooney1","image-keyboard-response","266","921211","0.0-6.0-1.37","2746711","co39265","norming","","","","","","",""
"4613.129999999655","","","post_mooney1_questions","survey-likert","267","925826","0.0-6.0-2.37","2746711","co39265","norming","","","{""curiosity"":2,""confidence"":6}","[0,1]","../img/tt/135tt.jpg","",""
"7070.074999999604","","","recognition","survey-text","268","932898","0.0-6.0-3.37","2746711","co39265","norming","","","{""guess"":""toilet""}","","../img/tt/135tt.jpg","",""
"null","../img/gs/135gs.jpg","null","reveal","image-keyboard-response","269","934899","0.0-6.0-4.37","2746711","co39265","norming","","","","","","",""
"null","../img/tt/135tt.jpg","null","mooney2","image-keyboard-response","270","936910","0.0-6.0-5.37","2746711","co39265","norming","","","","","","",""
"3585.755000000121","","","post_reveal_questions","survey-likert","271","940498","0.0-6.0-6.37","2746711","co39265","norming","","","{""aha"":2}","[0]","../img/tt/135tt.jpg","",""
"null","<div style=""font-size:60px;""> </div>","null","fixation","html-keyboard-response","272","940699","0.0-6.0-0.38","2746711","co39265","norming","","","","","","",""
"null","../img/tt/1196tt.jpg","null","mooney1","image-keyboard-response","273","943704","0.0-6.0-1.38","2746711","co39265","norming","","","","","","",""
"4520.2600000011735","","","post_mooney1_questions","survey-likert","274","948226","0.0-6.0-2.38","2746711","co39265","norming","","","{""curiosity"":1,""confidence"":0}","[0,1]","../img/tt/1196tt.jpg","",""
"1117.9900000005728","","","recognition","survey-text","275","949346","0.0-6.0-3.38","2746711","co39265","norming","","","{""guess"":""""}","","../img/tt/1196tt.jpg","",""
"null","../img/gs/1196gs.jpg","null","reveal","image-keyboard-response","276","951350","0.0-6.0-4.38","2746711","co39265","norming","","","","","","",""
"null","../img/tt/1196tt.jpg","null","mooney2","image-keyboard-response","277","953354","0.0-6.0-5.38","2746711","co39265","norming","","","","","","",""
"1653.9649999995017","","","post_reveal_questions","survey-likert","278","955010","0.0-6.0-6.38","2746711","co39265","norming","","","{""aha"":5}","[0]","../img/tt/1196tt.jpg","",""
"null","<div style=""font-size:60px;""> </div>","null","fixation","html-keyboard-response","279","955212","0.0-6.0-0.39","2746711","co39265","norming","","","","","","",""
"null","../img/tt/1080tt.jpg","null","mooney1","image-keyboard-response","280","958218","0.0-6.0-1.39","2746711","co39265","norming","","","","","","",""
"3822.759999999078","","","post_mooney1_questions","survey-likert","281","962043","0.0-6.0-2.39","2746711","co39265","norming","","","{""curiosity"":1,""confidence"":0}","[0,1]","../img/tt/1080tt.jpg","",""
"622.0400000001537","","","recognition","survey-text","282","962667","0.0-6.0-3.39","2746711","co39265","norming","","","{""guess"":""""}","","../img/tt/1080tt.jpg","",""
"null","../img/gs/1080gs.jpg","null","reveal","image-keyboard-response","283","964669","0.0-6.0-4.39","2746711","co39265","norming","","","","","","",""
"null","../img/tt/1080tt.jpg","null","mooney2","image-keyboard-response","284","966671","0.0-6.0-5.39","2746711","co39265","norming","","","","","","",""
"1897.2750000011874","","","post_reveal_questions","survey-likert","285","968571","0.0-6.0-6.39","2746711","co39265","norming","","","{""aha"":4}","[0]","../img/tt/1080tt.jpg","",""
"null","<div style=""font-size:60px;""> </div>","null","fixation","html-keyboard-response","286","968776","0.0-6.0-0.40","2746711","co39265","norming","","","","","","",""
"null","../img/tt/1200tt.jpg","null","mooney1","image-keyboard-response","287","971779","0.0-6.0-1.40","2746711","co39265","norming","","","","","","",""
"3901.1599999994505","","","post_mooney1_questions","survey-likert","288","975683","0.0-6.0-2.40","2746711","co39265","norming","","","{""curiosity"":0,""confidence"":1}","[0,1]","../img/tt/1200tt.jpg","",""
"3926.004999999306","","","recognition","survey-text","289","979611","0.0-6.0-3.40","2746711","co39265","norming","","","{""guess"":""schildpad""}","","../img/tt/1200tt.jpg","",""
"null","../img/gs/1200gs.jpg","null","reveal","image-keyboard-response","290","981615","0.0-6.0-4.40","2746711","co39265","norming","","","","","","",""
"null","../img/tt/1200tt.jpg","null","mooney2","image-keyboard-response","291","983617","0.0-6.0-5.40","2746711","co39265","norming","","","","","","",""
"2503.0850000001956","","","post_reveal_questions","survey-likert","292","986123","0.0-6.0-6.40","2746711","co39265","norming","","","{""aha"":4}","[0]","../img/tt/1200tt.jpg","",""
"null","<div style=""font-size:60px;""> </div>","null","fixation","html-keyboard-response","293","986325","0.0-6.0-0.41","2746711","co39265","norming","","","","","","",""
"null","../img/tt/1128tt.jpg","null","mooney1","image-keyboard-response","294","989331","0.0-6.0-1.41","2746711","co39265","norming","","","","","","",""
"6365.980000000563","","","post_mooney1_questions","survey-likert","295","995699","0.0-6.0-2.41","2746711","co39265","norming","","","{""curiosity"":1,""confidence"":1}","[0,1]","../img/tt/1128tt.jpg","",""
"2677.8750000012806","","","recognition","survey-text","296","998379","0.0-6.0-3.41","2746711","co39265","norming","","","{""guess"":""aap""}","","../img/tt/1128tt.jpg","",""
"null","../img/gs/1128gs.jpg","null","reveal","image-keyboard-response","297","1000380","0.0-6.0-4.41","2746711","co39265","norming","","","","","","",""
"null","../img/tt/1128tt.jpg","null","mooney2","image-keyboard-response","298","1002385","0.0-6.0-5.41","2746711","co39265","norming","","","","","","",""
"6063.500000000233","","","post_reveal_questions","survey-likert","299","1008451","0.0-6.0-6.41","2746711","co39265","norming","","","{""aha"":4}","[0]","../img/tt/1128tt.jpg","",""
"null","<div style=""font-size:60px;""> </div>","null","fixation","html-keyboard-response","300","1008660","0.0-6.0-0.42","2746711","co39265","norming","","","","","","",""
"null","../img/tt/1125tt.jpg","null","mooney1","image-keyboard-response","301","1011668","0.0-6.0-1.42","2746711","co39265","norming","","","","","","",""
"3987.829999999958","","","post_mooney1_questions","survey-likert","302","1015659","0.0-6.0-2.42","2746711","co39265","norming","","","{""curiosity"":1,""confidence"":0}","[0,1]","../img/tt/1125tt.jpg","",""
"845.8150000005262","","","recognition","survey-text","303","1016507","0.0-6.0-3.42","2746711","co39265","norming","","","{""guess"":""""}","","../img/tt/1125tt.jpg","",""
"null","../img/gs/1125gs.jpg","null","reveal","image-keyboard-response","304","1018508","0.0-6.0-4.42","2746711","co39265","norming","","","","","","",""
"null","../img/tt/1125tt.jpg","null","mooney2","image-keyboard-response","305","1020511","0.0-6.0-5.42","2746711","co39265","norming","","","","","","",""
"2695.884999999078","","","post_reveal_questions","survey-likert","306","1023211","0.0-6.0-6.42","2746711","co39265","norming","","","{""aha"":1}","[0]","../img/tt/1125tt.jpg","",""
"null","<div style=""font-size:60px;""> </div>","null","fixation","html-keyboard-response","307","1023413","0.0-6.0-0.43","2746711","co39265","norming","","","","","","",""
"null","../img/tt/096tt.jpg","null","mooney1","image-keyboard-response","308","1026415","0.0-6.0-1.43","2746711","co39265","norming","","","","","","",""
"5993.715000000433","","","post_mooney1_questions","survey-likert","309","1032412","0.0-6.0-2.43","2746711","co39265","norming","","","{""curiosity"":1,""confidence"":1}","[0,1]","../img/tt/096tt.jpg","",""
"3941.75999999966","","","recognition","survey-text","310","1036355","0.0-6.0-3.43","2746711","co39265","norming","","","{""guess"":""piano""}","","../img/tt/096tt.jpg","",""
"null","../img/gs/096gs.jpg","null","reveal","image-keyboard-response","311","1038365","0.0-6.0-4.43","2746711","co39265","norming","","","","","","",""
"null","../img/tt/096tt.jpg","null","mooney2","image-keyboard-response","312","1040376","0.0-6.0-5.43","2746711","co39265","norming","","","","","","",""
"2505.14500000095","","","post_reveal_questions","survey-likert","313","1042883","0.0-6.0-6.43","2746711","co39265","norming","","","{""aha"":3}","[0]","../img/tt/096tt.jpg","",""
"null","<div style=""font-size:60px;""> </div>","null","fixation","html-keyboard-response","314","1043089","0.0-6.0-0.44","2746711","co39265","norming","","","","","","",""
"null","../img/tt/559tt.jpg","null","mooney1","image-keyboard-response","315","1046100","0.0-6.0-1.44","2746711","co39265","norming","","","","","","",""
"6107.249999999185","","","post_mooney1_questions","survey-likert","316","1052212","0.0-6.0-2.44","2746711","co39265","norming","","","{""curiosity"":1,""confidence"":5}","[0,1]","../img/tt/559tt.jpg","",""
"4230.095000000671","","","recognition","survey-text","317","1056443","0.0-6.0-3.44","2746711","co39265","norming","","","{""guess"":""naaimachine""}","","../img/tt/559tt.jpg","",""
"null","../img/gs/559gs.jpg","null","reveal","image-keyboard-response","318","1058447","0.0-6.0-4.44","2746711","co39265","norming","","","","","","",""
"null","../img/tt/559tt.jpg","null","mooney2","image-keyboard-response","319","1060458","0.0-6.0-5.44","2746711","co39265","norming","","","","","","",""
"2855.5550000001676","","","post_reveal_questions","survey-likert","320","1063315","0.0-6.0-6.44","2746711","co39265","norming","","","{""aha"":3}","[0]","../img/tt/559tt.jpg","",""
"null","<div style=""font-size:60px;""> </div>","null","fixation","html-keyboard-response","321","1063519","0.0-6.0-0.45","2746711","co39265","norming","","","","","","",""
"null","../img/tt/1027tt.jpg","null","mooney1","image-keyboard-response","322","1066522","0.0-6.0-1.45","2746711","co39265","norming","","","","","","",""
"3718.419999999227","","","post_mooney1_questions","survey-likert","323","1070244","0.0-6.0-2.45","2746711","co39265","norming","","","{""curiosity"":3,""confidence"":5}","[0,1]","../img/tt/1027tt.jpg","",""
"2390.105000000447","","","recognition","survey-text","324","1072635","0.0-6.0-3.45","2746711","co39265","norming","","","{""guess"":""koe""}","","../img/tt/1027tt.jpg","",""
"null","../img/gs/1027gs.jpg","null","reveal","image-keyboard-response","325","1074637","0.0-6.0-4.45","2746711","co39265","norming","","","","","","",""
"null","../img/tt/1027tt.jpg","null","mooney2","image-keyboard-response","326","1076639","0.0-6.0-5.45","2746711","co39265","norming","","","","","","",""
"4017.579999999609","","","post_reveal_questions","survey-likert","327","1080669","0.0-6.0-6.45","2746711","co39265","norming","","","{""aha"":4}","[0]","../img/tt/1027tt.jpg","",""
"null","<div style=""font-size:60px;""> </div>","null","fixation","html-keyboard-response","328","1080871","0.0-6.0-0.46","2746711","co39265","norming","","","","","","",""
"null","../img/tt/1262tt.jpg","null","mooney1","image-keyboard-response","329","1083876","0.0-6.0-1.46","2746711","co39265","norming","","","","","","",""
"6998.845000000205","","","post_mooney1_questions","survey-likert","330","1090877","0.0-6.0-2.46","2746711","co39265","norming","","","{""curiosity"":2,""confidence"":6}","[0,1]","../img/tt/1262tt.jpg","",""
"3502.135000000708","","","recognition","survey-text","331","1094381","0.0-6.0-3.46","2746711","co39265","norming","","","{""guess"":""vogel""}","","../img/tt/1262tt.jpg","",""
"null","../img/gs/1262gs.jpg","null","reveal","image-keyboard-response","332","1096390","0.0-6.0-4.46","2746711","co39265","norming","","","","","","",""
"null","../img/tt/1262tt.jpg","null","mooney2","image-keyboard-response","333","1098392","0.0-6.0-5.46","2746711","co39265","norming","","","","","","",""
"2386.510000000242","","","post_reveal_questions","survey-likert","334","1100781","0.0-6.0-6.46","2746711","co39265","norming","","","{""aha"":4}","[0]","../img/tt/1262tt.jpg","",""
"null","<div style=""font-size:60px;""> </div>","null","fixation","html-keyboard-response","335","1100982","0.0-6.0-0.47","2746711","co39265","norming","","","","","","",""
"null","../img/tt/378tt.jpg","null","mooney1","image-keyboard-response","336","1103993","0.0-6.0-1.47","2746711","co39265","norming","","","","","","",""
"4057.1500000006054","","","post_mooney1_questions","survey-likert","337","1108053","0.0-6.0-2.47","2746711","co39265","norming","","","{""curiosity"":3,""confidence"":3}","[0,1]","../img/tt/378tt.jpg","",""
"5397.680000000168","","","recognition","survey-text","338","1113453","0.0-6.0-3.47","2746711","co39265","norming","","","{""guess"":""gevechtsport""}","","../img/tt/378tt.jpg","",""
"null","../img/gs/378gs.jpg","null","reveal","image-keyboard-response","339","1115463","0.0-6.0-4.47","2746711","co39265","norming","","","","","","",""
"null","../img/tt/378tt.jpg","null","mooney2","image-keyboard-response","340","1117466","0.0-6.0-5.47","2746711","co39265","norming","","","","","","",""
"2672.7150000007823","","","post_reveal_questions","survey-likert","341","1120141","0.0-6.0-6.47","2746711","co39265","norming","","","{""aha"":5}","[0]","../img/tt/378tt.jpg","",""
"null","<div style=""font-size:60px;""> </div>","null","fixation","html-keyboard-response","342","1120350","0.0-6.0-0.48","2746711","co39265","norming","","","","","","",""
"null","../img/tt/080tt.jpg","null","mooney1","image-keyboard-response","343","1123362","0.0-6.0-1.48","2746711","co39265","norming","","","","","","",""
"5496.260000000009","","","post_mooney1_questions","survey-likert","344","1128861","0.0-6.0-2.48","2746711","co39265","norming","","","{""curiosity"":3,""confidence"":1}","[0,1]","../img/tt/080tt.jpg","",""
"2598.144999999786","","","recognition","survey-text","345","1131461","0.0-6.0-3.48","2746711","co39265","norming","","","{""guess"":""gras""}","","../img/tt/080tt.jpg","",""
"null","../img/gs/080gs.jpg","null","reveal","image-keyboard-response","346","1133464","0.0-6.0-4.48","2746711","co39265","norming","","","","","","",""
"null","../img/tt/080tt.jpg","null","mooney2","image-keyboard-response","347","1135467","0.0-6.0-5.48","2746711","co39265","norming","","","","","","",""
"2423.880000000354","","","post_reveal_questions","survey-likert","348","1137893","0.0-6.0-6.48","2746711","co39265","norming","","","{""aha"":6}","[0]","../img/tt/080tt.jpg","",""
"null","<div style=""font-size:60px;""> </div>","null","fixation","html-keyboard-response","349","1138099","0.0-6.0-0.49","2746711","co39265","norming","","","","","","",""
"null","../img/tt/010tt.jpg","null","mooney1","image-keyboard-response","350","1141112","0.0-6.0-1.49","2746711","co39265","norming","","","","","","",""
"3514.5750000011176","","","post_mooney1_questions","survey-likert","351","1144630","0.0-6.0-2.49","2746711","co39265","norming","","","{""curiosity"":1,""confidence"":0}","[0,1]","../img/tt/010tt.jpg","",""
"646.0700000007637","","","recognition","survey-text","352","1145278","0.0-6.0-3.49","2746711","co39265","norming","","","{""guess"":""""}","","../img/tt/010tt.jpg","",""
"null","../img/gs/010gs.jpg","null","reveal","image-keyboard-response","353","1147279","0.0-6.0-4.49","2746711","co39265","norming","","","","","","",""
"null","../img/tt/010tt.jpg","null","mooney2","image-keyboard-response","354","1149280","0.0-6.0-5.49","2746711","co39265","norming","","","","","","",""
"3716.1100000012666","","","post_reveal_questions","survey-likert","355","1152998","0.0-6.0-6.49","2746711","co39265","norming","","","{""aha"":1}","[0]","../img/tt/010tt.jpg","",""
"null","<div style=""font-size:60px;""> </div>","null","fixation","html-keyboard-response","356","1153208","0.0-6.0-0.50","2746711","co39265","norming","","","","","","",""
"null","../img/tt/1012tt.jpg","null","mooney1","image-keyboard-response","357","1156216","0.0-6.0-1.50","2746711","co39265","norming","","","","","","",""
"3723.1400000001304","","","post_mooney1_questions","survey-likert","358","1159942","0.0-6.0-2.50","2746711","co39265","norming","","","{""curiosity"":1,""confidence"":0}","[0,1]","../img/tt/1012tt.jpg","",""
"477.77999999932945","","","recognition","survey-text","359","1160422","0.0-6.0-3.50","2746711","co39265","norming","","","{""guess"":""""}","","../img/tt/1012tt.jpg","",""
"null","../img/gs/1012gs.jpg","null","reveal","image-keyboard-response","360","1162427","0.0-6.0-4.50","2746711","co39265","norming","","","","","","",""
"null","../img/tt/1012tt.jpg","null","mooney2","image-keyboard-response","361","1164438","0.0-6.0-5.50","2746711","co39265","norming","","","","","","",""
"2221.2650000001304","","","post_reveal_questions","survey-likert","362","1166662","0.0-6.0-6.50","2746711","co39265","norming","","","{""aha"":5}","[0]","../img/tt/1012tt.jpg","",""
"null","<div style=""font-size:60px;""> </div>","null","fixation","html-keyboard-response","363","1166868","0.0-6.0-0.51","2746711","co39265","norming","","","","","","",""
"null","../img/tt/1024tt.jpg","null","mooney1","image-keyboard-response","364","1169878","0.0-6.0-1.51","2746711","co39265","norming","","","","","","",""
"4429.285000000149","","","post_mooney1_questions","survey-likert","365","1174310","0.0-6.0-2.51","2746711","co39265","norming","","","{""curiosity"":3,""confidence"":3}","[0,1]","../img/tt/1024tt.jpg","",""
"4389.979999999981","","","recognition","survey-text","366","1178702","0.0-6.0-3.51","2746711","co39265","norming","","","{""guess"":""gevechtsport""}","","../img/tt/1024tt.jpg","",""
"null","../img/gs/1024gs.jpg","null","reveal","image-keyboard-response","367","1180703","0.0-6.0-4.51","2746711","co39265","norming","","","","","","",""
"null","../img/tt/1024tt.jpg","null","mooney2","image-keyboard-response","368","1182714","0.0-6.0-5.51","2746711","co39265","norming","","","","","","",""
"2385.970000001136","","","post_reveal_questions","survey-likert","369","1185102","0.0-6.0-6.51","2746711","co39265","norming","","","{""aha"":4}","[0]","../img/tt/1024tt.jpg","",""
"null","<div style=""font-size:60px;""> </div>","null","fixation","html-keyboard-response","370","1185311","0.0-6.0-0.52","2746711","co39265","norming","","","","","","",""
"null","../img/tt/1173tt.jpg","null","mooney1","image-keyboard-response","371","1188320","0.0-6.0-1.52","2746711","co39265","norming","","","","","","",""
"5018.870000001742","","","post_mooney1_questions","survey-likert","372","1193342","0.0-6.0-2.52","2746711","co39265","norming","","","{""curiosity"":3,""confidence"":3}","[0,1]","../img/tt/1173tt.jpg","",""
"5149.924999999814","","","recognition","survey-text","373","1198494","0.0-6.0-3.52","2746711","co39265","norming","","","{""guess"":""sporters""}","","../img/tt/1173tt.jpg","",""
"null","../img/gs/1173gs.jpg","null","reveal","image-keyboard-response","374","1200498","0.0-6.0-4.52","2746711","co39265","norming","","","","","","",""
"null","../img/tt/1173tt.jpg","null","mooney2","image-keyboard-response","375","1202501","0.0-6.0-5.52","2746711","co39265","norming","","","","","","",""
"1784.105000000447","","","post_reveal_questions","survey-likert","376","1204287","0.0-6.0-6.52","2746711","co39265","norming","","","{""aha"":3}","[0]","../img/tt/1173tt.jpg","",""
"null","<div style=""font-size:60px;""> </div>","null","fixation","html-keyboard-response","377","1204489","0.0-6.0-0.53","2746711","co39265","norming","","","","","","",""
"null","../img/tt/098tt.jpg","null","mooney1","image-keyboard-response","378","1207494","0.0-6.0-1.53","2746711","co39265","norming","","","","","","",""
"3262.010000000242","","","post_mooney1_questions","survey-likert","379","1210759","0.0-6.0-2.53","2746711","co39265","norming","","","{""curiosity"":0,""confidence"":0}","[0,1]","../img/tt/098tt.jpg","",""
"882.7000000001863","","","recognition","survey-text","380","1211647","0.0-6.0-3.53","2746711","co39265","norming","","","{""guess"":""""}","","../img/tt/098tt.jpg","",""
"null","../img/gs/098gs.jpg","null","reveal","image-keyboard-response","381","1213651","0.0-6.0-4.53","2746711","co39265","norming","","","","","","",""
"null","../img/tt/098tt.jpg","null","mooney2","image-keyboard-response","382","1215653","0.0-6.0-5.53","2746711","co39265","norming","","","","","","",""
"1967.634999999078","","","post_reveal_questions","survey-likert","383","1217623","0.0-6.0-6.53","2746711","co39265","norming","","","{""aha"":0}","[0]","../img/tt/098tt.jpg","",""
"null","<div style=""font-size:60px;""> </div>","null","fixation","html-keyboard-response","384","1217831","0.0-6.0-0.54","2746711","co39265","norming","","","","","","",""
"null","../img/tt/418tt.jpg","null","mooney1","image-keyboard-response","385","1220837","0.0-6.0-1.54","2746711","co39265","norming","","","","","","",""
"4848.195000000531","","","post_mooney1_questions","survey-likert","386","1225687","0.0-6.0-2.54","2746711","co39265","norming","","","{""curiosity"":2,""confidence"":1}","[0,1]","../img/tt/418tt.jpg","",""
"9213.960000000894","","","recognition","survey-text","387","1234903","0.0-6.0-3.54","2746711","co39265","norming","","","{""guess"":""vuilnisbakken""}","","../img/tt/418tt.jpg","",""
"null","../img/gs/418gs.jpg","null","reveal","image-keyboard-response","388","1236909","0.0-6.0-4.54","2746711","co39265","norming","","","","","","",""
"null","../img/tt/418tt.jpg","null","mooney2","image-keyboard-response","389","1238913","0.0-6.0-5.54","2746711","co39265","norming","","","","","","",""
"3833.4950000005774","","","post_reveal_questions","survey-likert","390","1242751","0.0-6.0-6.54","2746711","co39265","norming","","","{""aha"":2}","[0]","../img/tt/418tt.jpg","",""
"null","<div style=""font-size:60px;""> </div>","null","fixation","html-keyboard-response","391","1242958","0.0-6.0-0.55","2746711","co39265","norming","","","","","","",""
"null","../img/tt/1242tt.jpg","null","mooney1","image-keyboard-response","392","1245969","0.0-6.0-1.55","2746711","co39265","norming","","","","","","",""
"3683.404999999795","","","post_mooney1_questions","survey-likert","393","1249655","0.0-6.0-2.55","2746711","co39265","norming","","","{""curiosity"":1,""confidence"":0}","[0,1]","../img/tt/1242tt.jpg","",""
"549.9600000004284","","","recognition","survey-text","394","1250207","0.0-6.0-3.55","2746711","co39265","norming","","","{""guess"":""""}","","../img/tt/1242tt.jpg","",""
"null","../img/gs/1242gs.jpg","null","reveal","image-keyboard-response","395","1252215","0.0-6.0-4.55","2746711","co39265","norming","","","","","","",""
"null","../img/tt/1242tt.jpg","null","mooney2","image-keyboard-response","396","1254226","0.0-6.0-5.55","2746711","co39265","norming","","","","","","",""
"3995.089999998454","","","post_reveal_questions","survey-likert","397","1258223","0.0-6.0-6.55","2746711","co39265","norming","","","{""aha"":1}","[0]","../img/tt/1242tt.jpg","",""
"null","<div style=""font-size:60px;""> </div>","null","fixation","html-keyboard-response","398","1258432","0.0-6.0-0.56","2746711","co39265","norming","","","","","","",""
"null","../img/tt/1123tt.jpg","null","mooney1","image-keyboard-response","399","1261437","0.0-6.0-1.56","2746711","co39265","norming","","","","","","",""
"4518.990000000456","","","post_mooney1_questions","survey-likert","400","1265956","0.0-6.0-2.56","2746711","co39265","norming","","","{""curiosity"":2,""confidence"":1}","[0,1]","../img/tt/1123tt.jpg","",""
"5477.949999998556","","","recognition","survey-text","401","1271436","0.0-6.0-3.56","2746711","co39265","norming","","","{""guess"":""balspel""}","","../img/tt/1123tt.jpg","",""
"null","../img/gs/1123gs.jpg","null","reveal","image-keyboard-response","402","1273441","0.0-6.0-4.56","2746711","co39265","norming","","","","","","",""
"null","../img/tt/1123tt.jpg","null","mooney2","image-keyboard-response","403","1275443","0.0-6.0-5.56","2746711","co39265","norming","","","","","","",""
"3102.3300000014715","","","post_reveal_questions","survey-likert","404","1278548","0.0-6.0-6.56","2746711","co39265","norming","","","{""aha"":3}","[0]","../img/tt/1123tt.jpg","",""
"null","<div style=""font-size:60px;""> </div>","null","fixation","html-keyboard-response","405","1278758","0.0-6.0-0.57","2746711","co39265","norming","","","","","","",""
"null","../img/tt/064tt.jpg","null","mooney1","image-keyboard-response","406","1281764","0.0-6.0-1.57","2746711","co39265","norming","","","","","","",""
"6901.19000000041","","","post_mooney1_questions","survey-likert","407","1288668","0.0-6.0-2.57","2746711","co39265","norming","","","{""curiosity"":0,""confidence"":0}","[0,1]","../img/tt/064tt.jpg","",""
"957.9099999992177","","","recognition","survey-text","408","1289628","0.0-6.0-3.57","2746711","co39265","norming","","","{""guess"":""""}","","../img/tt/064tt.jpg","",""
"null","../img/gs/064gs.jpg","null","reveal","image-keyboard-response","409","1291636","0.0-6.0-4.57","2746711","co39265","norming","","","","","","",""
"null","../img/tt/064tt.jpg","null","mooney2","image-keyboard-response","410","1293640","0.0-6.0-5.57","2746711","co39265","norming","","","","","","",""
"2370.145000000717","","","post_reveal_questions","survey-likert","411","1296012","0.0-6.0-6.57","2746711","co39265","norming","","","{""aha"":0}","[0]","../img/tt/064tt.jpg","",""
"null","<div style=""font-size:60px;""> </div>","null","fixation","html-keyboard-response","412","1296215","0.0-6.0-0.58","2746711","co39265","norming","","","","","","",""
"null","../img/tt/1002tt.jpg","null","mooney1","image-keyboard-response","413","1299228","0.0-6.0-1.58","2746711","co39265","norming","","","","","","",""
"7087.799999999348","","","post_mooney1_questions","survey-likert","414","1306317","0.0-6.0-2.58","2746711","co39265","norming","","","{""curiosity"":1,""confidence"":0}","[0,1]","../img/tt/1002tt.jpg","",""
"485.88999999989755","","","recognition","survey-text","415","1306804","0.0-6.0-3.58","2746711","co39265","norming","","","{""guess"":""""}","","../img/tt/1002tt.jpg","",""
"null","../img/gs/1002gs.jpg","null","reveal","image-keyboard-response","416","1308814","0.0-6.0-4.58","2746711","co39265","norming","","","","","","",""
"null","../img/tt/1002tt.jpg","null","mooney2","image-keyboard-response","417","1310816","0.0-6.0-5.58","2746711","co39265","norming","","","","","","",""
"1953.475000000326","","","post_reveal_questions","survey-likert","418","1312772","0.0-6.0-6.58","2746711","co39265","norming","","","{""aha"":1}","[0]","../img/tt/1002tt.jpg","",""
"null","<div style=""font-size:60px;""> </div>","null","fixation","html-keyboard-response","419","1312982","0.0-6.0-0.59","2746711","co39265","norming","","","","","","",""
"null","../img/tt/1006tt.jpg","null","mooney1","image-keyboard-response","420","1315987","0.0-6.0-1.59","2746711","co39265","norming","","","","","","",""
"4111.08000000054","","","post_mooney1_questions","survey-likert","421","1320101","0.0-6.0-2.59","2746711","co39265","norming","","","{""curiosity"":0,""confidence"":1}","[0,1]","../img/tt/1006tt.jpg","",""
"2781.7849999992177","","","recognition","survey-text","422","1322884","0.0-6.0-3.59","2746711","co39265","norming","","","{""guess"":""gras""}","","../img/tt/1006tt.jpg","",""
"null","../img/gs/1006gs.jpg","null","reveal","image-keyboard-response","423","1324898","0.0-6.0-4.59","2746711","co39265","norming","","","","","","",""
"null","../img/tt/1006tt.jpg","null","mooney2","image-keyboard-response","424","1326905","0.0-6.0-5.59","2746711","co39265","norming","","","","","","",""
"1884.8949999990873","","","post_reveal_questions","survey-likert","425","1328792","0.0-6.0-6.59","2746711","co39265","norming","","","{""aha"":4}","[0]","../img/tt/1006tt.jpg","",""
"null","<div style=""font-size:60px;""> </div>","null","fixation","html-keyboard-response","426","1329000","0.0-6.0-0.60","2746711","co39265","norming","","","","","","",""
"null","../img/tt/091tt.jpg","null","mooney1","image-keyboard-response","427","1332004","0.0-6.0-1.60","2746711","co39265","norming","","","","","","",""
"3856.564999999944","","","post_mooney1_questions","survey-likert","428","1335864","0.0-6.0-2.60","2746711","co39265","norming","","","{""curiosity"":0,""confidence"":0}","[0,1]","../img/tt/091tt.jpg","",""
"598.1099999989383","","","recognition","survey-text","429","1336464","0.0-6.0-3.60","2746711","co39265","norming","","","{""guess"":""""}","","../img/tt/091tt.jpg","",""
"null","../img/gs/091gs.jpg","null","reveal","image-keyboard-response","430","1338470","0.0-6.0-4.60","2746711","co39265","norming","","","","","","",""
"null","../img/tt/091tt.jpg","null","mooney2","image-keyboard-response","431","1340481","0.0-6.0-5.60","2746711","co39265","norming","","","","","","",""
"2132.1999999999534","","","post_reveal_questions","survey-likert","432","1342616","0.0-6.0-6.60","2746711","co39265","norming","","","{""aha"":0}","[0]","../img/tt/091tt.jpg","",""
"null","<div style=""font-size:60px;""> </div>","null","fixation","html-keyboard-response","433","1342821","0.0-6.0-0.61","2746711","co39265","norming","","","","","","",""
"null","../img/tt/1116tt.jpg","null","mooney1","image-keyboard-response","434","1345829","0.0-6.0-1.61","2746711","co39265","norming","","","","","","",""
"3794.214999999851","","","post_mooney1_questions","survey-likert","435","1349624","0.0-6.0-2.61","2746711","co39265","norming","","","{""curiosity"":0,""confidence"":0}","[0,1]","../img/tt/1116tt.jpg","",""
"3605.630000000121","","","recognition","survey-text","436","1353232","0.0-6.0-3.61","2746711","co39265","norming","","","{""guess"":""boten""}","","../img/tt/1116tt.jpg","",""
"null","../img/gs/1116gs.jpg","null","reveal","image-keyboard-response","437","1355239","0.0-6.0-4.61","2746711","co39265","norming","","","","","","",""
"null","../img/tt/1116tt.jpg","null","mooney2","image-keyboard-response","438","1357244","0.0-6.0-5.61","2746711","co39265","norming","","","","","","",""
"1842.7599999995437","","","post_reveal_questions","survey-likert","439","1359088","0.0-6.0-6.61","2746711","co39265","norming","","","{""aha"":3}","[0]","../img/tt/1116tt.jpg","",""
"null","<div style=""font-size:60px;""> </div>","null","fixation","html-keyboard-response","440","1359296","0.0-6.0-0.62","2746711","co39265","norming","","","","","","",""
"null","../img/tt/1156tt.jpg","null","mooney1","image-keyboard-response","441","1362297","0.0-6.0-1.62","2746711","co39265","norming","","","","","","",""
"3499.635000000242","","","post_mooney1_questions","survey-likert","442","1365800","0.0-6.0-2.62","2746711","co39265","norming","","","{""curiosity"":2,""confidence"":1}","[0,1]","../img/tt/1156tt.jpg","",""
"3334.095000000205","","","recognition","survey-text","443","1369136","0.0-6.0-3.62","2746711","co39265","norming","","","{""guess"":""eenden""}","","../img/tt/1156tt.jpg","",""
"null","../img/gs/1156gs.jpg","null","reveal","image-keyboard-response","444","1371141","0.0-6.0-4.62","2746711","co39265","norming","","","","","","",""
"null","../img/tt/1156tt.jpg","null","mooney2","image-keyboard-response","445","1373143","0.0-6.0-5.62","2746711","co39265","norming","","","","","","",""
"1654.8100000000559","","","post_reveal_questions","survey-likert","446","1374800","0.0-6.0-6.62","2746711","co39265","norming","","","{""aha"":5}","[0]","../img/tt/1156tt.jpg","",""
"null","<div style=""font-size:60px;""> </div>","null","fixation","html-keyboard-response","447","1375001","0.0-6.0-0.63","2746711","co39265","norming","","","","","","",""
"null","../img/tt/416tt.jpg","null","mooney1","image-keyboard-response","448","1378003","0.0-6.0-1.63","2746711","co39265","norming","","","","","","",""
"3289.7450000001118","","","post_mooney1_questions","survey-likert","449","1381296","0.0-6.0-2.63","2746711","co39265","norming","","","{""curiosity"":4,""confidence"":3}","[0,1]","../img/tt/416tt.jpg","",""
"6326.320000000065","","","recognition","survey-text","450","1387618","0.0-6.0-3.63","2746711","co39265","norming","","","{""guess"":""struisvogels""}","","../img/tt/416tt.jpg","",""
"null","../img/gs/416gs.jpg","null","reveal","image-keyboard-response","451","1389619","0.0-6.0-4.63","2746711","co39265","norming","","","","","","",""
"null","../img/tt/416tt.jpg","null","mooney2","image-keyboard-response","452","1391625","0.0-6.0-5.63","2746711","co39265","norming","","","","","","",""
"5134.8400000005495","","","post_reveal_questions","survey-likert","453","1396762","0.0-6.0-6.63","2746711","co39265","norming","","","{""aha"":0}","[0]","../img/tt/416tt.jpg","",""
"null","<div style=""font-size:60px;""> </div>","null","fixation","html-keyboard-response","454","1396966","0.0-6.0-0.64","2746711","co39265","norming","","","","","","",""
"null","../img/tt/603tt.jpg","null","mooney1","image-keyboard-response","455","1399974","0.0-6.0-1.64","2746711","co39265","norming","","","","","","",""
"3576.95500000054","","","post_mooney1_questions","survey-likert","456","1403554","0.0-6.0-2.64","2746711","co39265","norming","","","{""curiosity"":0,""confidence"":0}","[0,1]","../img/tt/603tt.jpg","",""
"1565.7099999990314","","","recognition","survey-text","457","1405122","0.0-6.0-3.64","2746711","co39265","norming","","","{""guess"":""""}","","../img/tt/603tt.jpg","",""
"null","../img/gs/603gs.jpg","null","reveal","image-keyboard-response","458","1407124","0.0-6.0-4.64","2746711","co39265","norming","","","","","","",""
"null","../img/tt/603tt.jpg","null","mooney2","image-keyboard-response","459","1409133","0.0-6.0-5.64","2746711","co39265","norming","","","","","","",""
"2043.410000000149","","","post_reveal_questions","survey-likert","460","1411178","0.0-6.0-6.64","2746711","co39265","norming","","","{""aha"":4}","[0]","../img/tt/603tt.jpg","",""
"null","<div style=""font-size:60px;""> </div>","null","fixation","html-keyboard-response","461","1411382","0.0-6.0-0.65","2746711","co39265","norming","","","","","","",""
"null","../img/tt/1189tt.jpg","null","mooney1","image-keyboard-response","462","1414391","0.0-6.0-1.65","2746711","co39265","norming","","","","","","",""
"4705.860000000102","","","post_mooney1_questions","survey-likert","463","1419098","0.0-6.0-2.65","2746711","co39265","norming","","","{""curiosity"":1,""confidence"":1}","[0,1]","../img/tt/1189tt.jpg","",""
"5357.814999999246","","","recognition","survey-text","464","1424458","0.0-6.0-3.65","2746711","co39265","norming","","","{""guess"":""eend in water""}","","../img/tt/1189tt.jpg","",""
"null","../img/gs/1189gs.jpg","null","reveal","image-keyboard-response","465","1426468","0.0-6.0-4.65","2746711","co39265","norming","","","","","","",""
"null","../img/tt/1189tt.jpg","null","mooney2","image-keyboard-response","466","1428471","0.0-6.0-5.65","2746711","co39265","norming","","","","","","",""
"3920.6799999992363","","","post_reveal_questions","survey-likert","467","1432394","0.0-6.0-6.65","2746711","co39265","norming","","","{""aha"":5}","[0]","../img/tt/1189tt.jpg","",""
"null","<div style=""font-size:60px;""> </div>","null","fixation","html-keyboard-response","468","1432596","0.0-6.0-0.66","2746711","co39265","norming","","","","","","",""
"null","../img/tt/1033tt.jpg","null","mooney1","image-keyboard-response","469","1435603","0.0-6.0-1.66","2746711","co39265","norming","","","","","","",""
"4756.029999998631","","","post_mooney1_questions","survey-likert","470","1440362","0.0-6.0-2.66","2746711","co39265","norming","","","{""curiosity"":2,""confidence"":1}","[0,1]","../img/tt/1033tt.jpg","",""
"6253.955000000307","","","recognition","survey-text","471","1446620","0.0-6.0-3.66","2746711","co39265","norming","","","{""guess"":""gevechtsport""}","","../img/tt/1033tt.jpg","",""
"null","../img/gs/1033gs.jpg","null","reveal","image-keyboard-response","472","1448621","0.0-6.0-4.66","2746711","co39265","norming","","","","","","",""
"null","../img/tt/1033tt.jpg","null","mooney2","image-keyboard-response","473","1450623","0.0-6.0-5.66","2746711","co39265","norming","","","","","","",""
"2282.1999999997206","","","post_reveal_questions","survey-likert","474","1452908","0.0-6.0-6.66","2746711","co39265","norming","","","{""aha"":1}","[0]","../img/tt/1033tt.jpg","",""
"null","<div style=""font-size:60px;""> </div>","null","fixation","html-keyboard-response","475","1453117","0.0-6.0-0.67","2746711","co39265","norming","","","","","","",""
"null","../img/tt/1199tt.jpg","null","mooney1","image-keyboard-response","476","1456130","0.0-6.0-1.67","2746711","co39265","norming","","","","","","",""
"6822.7750000003725","","","post_mooney1_questions","survey-likert","477","1462956","0.0-6.0-2.67","2746711","co39265","norming","","","{""curiosity"":6,""confidence"":4}","[0,1]","../img/tt/1199tt.jpg","",""
"3246.409999999916","","","recognition","survey-text","478","1466204","0.0-6.0-3.67","2746711","co39265","norming","","","{""guess"":""turnster""}","","../img/tt/1199tt.jpg","",""
"null","../img/gs/1199gs.jpg","null","reveal","image-keyboard-response","479","1468206","0.0-6.0-4.67","2746711","co39265","norming","","","","","","",""
"null","../img/tt/1199tt.jpg","null","mooney2","image-keyboard-response","480","1470214","0.0-6.0-5.67","2746711","co39265","norming","","","","","","",""
"4122.944999999134","","","post_reveal_questions","survey-likert","481","1474340","0.0-6.0-6.67","2746711","co39265","norming","","","{""aha"":6}","[0]","../img/tt/1199tt.jpg","",""
"null","<div style=""font-size:60px;""> </div>","null","fixation","html-keyboard-response","482","1474541","0.0-6.0-0.68","2746711","co39265","norming","","","","","","",""
"null","../img/tt/055tt.jpg","null","mooney1","image-keyboard-response","483","1477553","0.0-6.0-1.68","2746711","co39265","norming","","","","","","",""
"4191.49500000081","","","post_mooney1_questions","survey-likert","484","1481748","0.0-6.0-2.68","2746711","co39265","norming","","","{""curiosity"":0,""confidence"":0}","[0,1]","../img/tt/055tt.jpg","",""
"637.7800000009593","","","recognition","survey-text","485","1482388","0.0-6.0-3.68","2746711","co39265","norming","","","{""guess"":""""}","","../img/tt/055tt.jpg","",""
"null","../img/gs/055gs.jpg","null","reveal","image-keyboard-response","486","1484391","0.0-6.0-4.68","2746711","co39265","norming","","","","","","",""
"null","../img/tt/055tt.jpg","null","mooney2","image-keyboard-response","487","1486393","0.0-6.0-5.68","2746711","co39265","norming","","","","","","",""
"1823.8249999994878","","","post_reveal_questions","survey-likert","488","1488220","0.0-6.0-6.68","2746711","co39265","norming","","","{""aha"":4}","[0]","../img/tt/055tt.jpg","",""
"null","<div style=""font-size:60px;""> </div>","null","fixation","html-keyboard-response","489","1488421","0.0-6.0-0.69","2746711","co39265","norming","","","","","","",""
"null","../img/tt/405tt.jpg","null","mooney1","image-keyboard-response","490","1491429","0.0-6.0-1.69","2746711","co39265","norming","","","","","","",""
"3555.849999998929","","","post_mooney1_questions","survey-likert","491","1494988","0.0-6.0-2.69","2746711","co39265","norming","","","{""curiosity"":0,""confidence"":0}","[0,1]","../img/tt/405tt.jpg","",""
"686.214999999851","","","recognition","survey-text","492","1495676","0.0-6.0-3.69","2746711","co39265","norming","","","{""guess"":""""}","","../img/tt/405tt.jpg","",""
"null","../img/gs/405gs.jpg","null","reveal","image-keyboard-response","493","1497678","0.0-6.0-4.69","2746711","co39265","norming","","","","","","",""
"null","../img/tt/405tt.jpg","null","mooney2","image-keyboard-response","494","1499680","0.0-6.0-5.69","2746711","co39265","norming","","","","","","",""
"3089.545000000624","","","post_reveal_questions","survey-likert","495","1502772","0.0-6.0-6.69","2746711","co39265","norming","","","{""aha"":1}","[0]","../img/tt/405tt.jpg","",""
"null","<div style=""font-size:60px;""> </div>","null","fixation","html-keyboard-response","496","1502979","0.0-6.0-0.70","2746711","co39265","norming","","","","","","",""
"null","../img/tt/008tt.jpg","null","mooney1","image-keyboard-response","497","1505988","0.0-6.0-1.70","2746711","co39265","norming","","","","","","",""
"4090.8600000001024","","","post_mooney1_questions","survey-likert","498","1510082","0.0-6.0-2.70","2746711","co39265","norming","","","{""curiosity"":4,""confidence"":1}","[0,1]","../img/tt/008tt.jpg","",""
"5622.025000000605","","","recognition","survey-text","499","1515705","0.0-6.0-3.70","2746711","co39265","norming","","","{""guess"":""geweer""}","","../img/tt/008tt.jpg","",""
"null","../img/gs/008gs.jpg","null","reveal","image-keyboard-response","500","1517714","0.0-6.0-4.70","2746711","co39265","norming","","","","","","",""
"null","../img/tt/008tt.jpg","null","mooney2","image-keyboard-response","501","1519719","0.0-6.0-5.70","2746711","co39265","norming","","","","","","",""
"3408.085000000894","","","post_reveal_questions","survey-likert","502","1523129","0.0-6.0-6.70","2746711","co39265","norming","","","{""aha"":5}","[0]","../img/tt/008tt.jpg","",""
"null","<div style=""font-size:60px;""> </div>","null","fixation","html-keyboard-response","503","1523337","0.0-6.0-0.71","2746711","co39265","norming","","","","","","",""
"null","../img/tt/1186tt.jpg","null","mooney1","image-keyboard-response","504","1526348","0.0-6.0-1.71","2746711","co39265","norming","","","","","","",""
"4083.160000000149","","","post_mooney1_questions","survey-likert","505","1530434","0.0-6.0-2.71","2746711","co39265","norming","","","{""curiosity"":3,""confidence"":3}","[0,1]","../img/tt/1186tt.jpg","",""
"4245.97499999986","","","recognition","survey-text","506","1534681","0.0-6.0-3.71","2746711","co39265","norming","","","{""guess"":""persoon""}","","../img/tt/1186tt.jpg","",""
"null","../img/gs/1186gs.jpg","null","reveal","image-keyboard-response","507","1536683","0.0-6.0-4.71","2746711","co39265","norming","","","","","","",""
"null","../img/tt/1186tt.jpg","null","mooney2","image-keyboard-response","508","1538685","0.0-6.0-5.71","2746711","co39265","norming","","","","","","",""
"2657.664999998873","","","post_reveal_questions","survey-likert","509","1541345","0.0-6.0-6.71","2746711","co39265","norming","","","{""aha"":4}","[0]","../img/tt/1186tt.jpg","",""
"null","<div style=""font-size:60px;""> </div>","null","fixation","html-keyboard-response","510","1541554","0.0-6.0-0.72","2746711","co39265","norming","","","","","","",""
"null","../img/tt/140tt.jpg","null","mooney1","image-keyboard-response","511","1544559","0.0-6.0-1.72","2746711","co39265","norming","","","","","","",""
"4375.195000000764","","","post_mooney1_questions","survey-likert","512","1548938","0.0-6.0-2.72","2746711","co39265","norming","","","{""curiosity"":3,""confidence"":6}","[0,1]","../img/tt/140tt.jpg","",""
"3325.854999999283","","","recognition","survey-text","513","1552265","0.0-6.0-3.72","2746711","co39265","norming","","","{""guess"":""vorken""}","","../img/tt/140tt.jpg","",""
"null","../img/gs/140gs.jpg","null","reveal","image-keyboard-response","514","1554270","0.0-6.0-4.72","2746711","co39265","norming","","","","","","",""
"null","../img/tt/140tt.jpg","null","mooney2","image-keyboard-response","515","1556272","0.0-6.0-5.72","2746711","co39265","norming","","","","","","",""
"5391.129999999888","","","post_reveal_questions","survey-likert","516","1561665","0.0-6.0-6.72","2746711","co39265","norming","","","{""aha"":3}","[0]","../img/tt/140tt.jpg","",""
"null","<div style=""font-size:60px;""> </div>","null","fixation","html-keyboard-response","517","1561867","0.0-6.0-0.73","2746711","co39265","norming","","","","","","",""
"null","../img/tt/1362tt.jpg","null","mooney1","image-keyboard-response","518","1564873","0.0-6.0-1.73","2746711","co39265","norming","","","","","","",""
"6196.864999999991","","","post_mooney1_questions","survey-likert","519","1571072","0.0-6.0-2.73","2746711","co39265","norming","","","{""curiosity"":3,""confidence"":3}","[0,1]","../img/tt/1362tt.jpg","",""
"7238.050000000047","","","recognition","survey-text","520","1578312","0.0-6.0-3.73","2746711","co39265","norming","","","{""guess"":""kookgerief ""}","","../img/tt/1362tt.jpg","",""
"null","../img/gs/1362gs.jpg","null","reveal","image-keyboard-response","521","1580313","0.0-6.0-4.73","2746711","co39265","norming","","","","","","",""
"null","../img/tt/1362tt.jpg","null","mooney2","image-keyboard-response","522","1582315","0.0-6.0-5.73","2746711","co39265","norming","","","","","","",""
"2850.5749999985565","","","post_reveal_questions","survey-likert","523","1585168","0.0-6.0-6.73","2746711","co39265","norming","","","{""aha"":5}","[0]","../img/tt/1362tt.jpg","",""
"null","<div style=""font-size:60px;""> </div>","null","fixation","html-keyboard-response","524","1585377","0.0-6.0-0.74","2746711","co39265","norming","","","","","","",""
"null","../img/tt/1247tt.jpg","null","mooney1","image-keyboard-response","525","1588386","0.0-6.0-1.74","2746711","co39265","norming","","","","","","",""
"4898.6150000002235","","","post_mooney1_questions","survey-likert","526","1593288","0.0-6.0-2.74","2746711","co39265","norming","","","{""curiosity"":1,""confidence"":0}","[0,1]","../img/tt/1247tt.jpg","",""
"894.1850000009872","","","recognition","survey-text","527","1594184","0.0-6.0-3.74","2746711","co39265","norming","","","{""guess"":""""}","","../img/tt/1247tt.jpg","",""
"null","../img/gs/1247gs.jpg","null","reveal","image-keyboard-response","528","1596186","0.0-6.0-4.74","2746711","co39265","norming","","","","","","",""
"null","../img/tt/1247tt.jpg","null","mooney2","image-keyboard-response","529","1598188","0.0-6.0-5.74","2746711","co39265","norming","","","","","","",""
"2457.8500000007916","","","post_reveal_questions","survey-likert","530","1600648","0.0-6.0-6.74","2746711","co39265","norming","","","{""aha"":2}","[0]","../img/tt/1247tt.jpg","",""
"null","<div style=""font-size:60px;""> </div>","null","fixation","html-keyboard-response","531","1600856","0.0-6.0-0.75","2746711","co39265","norming","","","","","","",""
"null","../img/tt/1091tt.jpg","null","mooney1","image-keyboard-response","532","1603864","0.0-6.0-1.75","2746711","co39265","norming","","","","","","",""
"8612.215000001015","","","post_mooney1_questions","survey-likert","533","1612480","0.0-6.0-2.75","2746711","co39265","norming","","","{""curiosity"":4,""confidence"":6}","[0,1]","../img/tt/1091tt.jpg","",""
"3190.0500000012107","","","recognition","survey-text","534","1615672","0.0-6.0-3.75","2746711","co39265","norming","","","{""guess"":""paard""}","","../img/tt/1091tt.jpg","",""
"null","../img/gs/1091gs.jpg","null","reveal","image-keyboard-response","535","1617682","0.0-6.0-4.75","2746711","co39265","norming","","","","","","",""
"null","../img/tt/1091tt.jpg","null","mooney2","image-keyboard-response","536","1619686","0.0-6.0-5.75","2746711","co39265","norming","","","","","","",""
"3543.375000001164","","","post_reveal_questions","survey-likert","537","1623232","0.0-6.0-6.75","2746711","co39265","norming","","","{""aha"":4}","[0]","../img/tt/1091tt.jpg","",""
"null","<div style=""font-size:60px;""> </div>","null","fixation","html-keyboard-response","538","1623438","0.0-6.0-0.76","2746711","co39265","norming","","","","","","",""
"null","../img/tt/1053tt.jpg","null","mooney1","image-keyboard-response","539","1626450","0.0-6.0-1.76","2746711","co39265","norming","","","","","","",""
"3563.2150000003166","","","post_mooney1_questions","survey-likert","540","1630011","0.0-6.0-2.76","2746711","co39265","norming","","","{""curiosity"":0,""confidence"":0}","[0,1]","../img/tt/1053tt.jpg","",""
"533.5250000008382","","","recognition","survey-text","541","1630547","0.0-6.0-3.76","2746711","co39265","norming","","","{""guess"":""""}","","../img/tt/1053tt.jpg","",""
"null","../img/gs/1053gs.jpg","null","reveal","image-keyboard-response","542","1632552","0.0-6.0-4.76","2746711","co39265","norming","","","","","","",""
"null","../img/tt/1053tt.jpg","null","mooney2","image-keyboard-response","543","1634560","0.0-6.0-5.76","2746711","co39265","norming","","","","","","",""
"2791.5450000001583","","","post_reveal_questions","survey-likert","544","1637355","0.0-6.0-6.76","2746711","co39265","norming","","","{""aha"":5}","[0]","../img/tt/1053tt.jpg","",""
"null","<div style=""font-size:60px;""> </div>","null","fixation","html-keyboard-response","545","1637563","0.0-6.0-0.77","2746711","co39265","norming","","","","","","",""
"null","../img/tt/549tt.jpg","null","mooney1","image-keyboard-response","546","1640575","0.0-6.0-1.77","2746711","co39265","norming","","","","","","",""
"3152.2499999990687","","","post_mooney1_questions","survey-likert","547","1643731","0.0-6.0-2.77","2746711","co39265","norming","","","{""curiosity"":0,""confidence"":0}","[0,1]","../img/tt/549tt.jpg","",""
"6189.940000000177","","","recognition","survey-text","548","1649922","0.0-6.0-3.77","2746711","co39265","norming","","","{""guess"":""wasknijper""}","","../img/tt/549tt.jpg","",""
"null","../img/gs/549gs.jpg","null","reveal","image-keyboard-response","549","1651929","0.0-6.0-4.77","2746711","co39265","norming","","","","","","",""
"null","../img/tt/549tt.jpg","null","mooney2","image-keyboard-response","550","1653931","0.0-6.0-5.77","2746711","co39265","norming","","","","","","",""
"2676.054999999935","","","post_reveal_questions","survey-likert","551","1656610","0.0-6.0-6.77","2746711","co39265","norming","","","{""aha"":3}","[0]","../img/tt/549tt.jpg","",""
"null","<div style=""font-size:60px;""> </div>","null","fixation","html-keyboard-response","552","1656813","0.0-6.0-0.78","2746711","co39265","norming","","","","","","",""
