"rt","stimulus","key_press","test_part","trial_type","trial_index","time_elapsed","internal_node_id","totalTime","subject","experiment_name","button_pressed","success","responses","question_order","currentStim","old","correct"
"2501.1050000002797","Welcome to the experiment. This is an online experiment so please don't close the tab/window until we say goodbye.  Press any key to begin.","69","instructions","html-keyboard-response","0","2505","0.0-0.0","2435195","co39667","norming","","","","","","",""
"3186.015000000225","<div style='word-wrap: break-word; width: 900px'><h3>Please consider this information carefully before deciding whether to participate in this research</h3><ul style='text-align: left; font-size: .8em;'><li><b>Purpose of the research</b>: To examine how people process images.</li><li><b>What you will do in this research</b>:  Stimuli (images) will be presented on the computer and you will be asked different questions about them.</li><li><b>Time required</b>: Participation will take between 45 and 60 minutes to complete.</li><li><b>Risks</b>:  There are no anticipated risks associated with participating in this study. The effects of participating should be comparable to those you would experience from viewing a computer monitor for 30 minutes and using a mouse or keyboard.</li><li><b>Benefits</b>:  This study provides no benefits to you individually except for the credit. The study provides important information about the nature of perception and learning.</li><li><b>Confidentiality</b>:  Your participation in this study will remain confidential. No personally identifiable information will be associated with your data. Your de-identified data may be shared with other researchers and used in future projects.</li><li><b>Participation and withdrawal</b>:  Your participation in this study is completely voluntary and you may refuse to participate or you may choose to withdraw at any time without penalty.</li><li><b>How to contact the researchers</b>: If you have questions or concerns about your participation or payment, or want to request a summary of research findings, please contact Sander Van de Cruys (KU Leuven), at sander.vandecruys@kuleuven.be.</li></ul><p>The nature and purpose of this research have been sufficiently explained and I agree to participate in this study.  I understand that I am free to withdraw at any time without incurring any penalty.</p><p>Please consent by clicking the button below to continue. Otherwise, please exit the study at this time.</p></div>","","instructions","html-button-response","1","5694","0.0-1.0","2435195","co39667","norming","0","","","","","",""
"","","","instructions","fullscreen","2","8383","0.0-2.0","2435195","co39667","norming","","true","","","","",""
"95044.59500000029","","","sona","survey-html-form","3","103440","0.0-3.0","2435195","co39667","norming","","","[{""name"":""sonaid"",""value"":""39667""},{""name"":""debrief"",""value"":""no""},{""name"":""datajoin"",""value"":""yes""}]","","","",""
"50654.83000000041","<div style='word-wrap: break-word; width: 900px'><h3>Instructions</h3><p>This experiment will have 3 parts. In the first part you will see a series of distorted images like the one below on the left. As you can see in the righthand image, the distorted images are derived from actual photographs. In what follows, you will <strong>briefly</strong> be presented with <strong>only</strong> the distorted image.</p> <div style='float: left; margin-right: 20px;'><img src='../img/018tt.jpg' height='250' width='250'></img></div><div style='float: right; margin-left: 20px;'><img src='../img/018gs.jpg' height='250' width='250'></img></div><p>Subsequently you will be asked a few questions about the image: One question on how <strong>curious</strong> you are about the solution and one on how <strong>confident</strong> you are that you know the solution.</p>Next, we ask you to make a guess on what is in the image. Note that it is OK to name just the <strong>basic level category</strong>. For example when you see a parrot in the image, 'parrot' will obviously be a correct answer but also correct is 'bird'. However, 'animal' will <strong>not</strong> be counted as a correct response. For the example above, 'rose' would be correct or 'flower', but not 'plant'. When soccer players are depicted, 'soccer', 'football', 'soccer players' will be correct, but not 'humans', 'outdoors', or 'sports'. You do not need to describe the image in full, just name the main object in it <strong>in one or two words</strong>. All images depict objects from one of the following broad level categories: animals, inanimate objects, plants, sports, vehicles, and food. Recognizing means knowing <strong>more</strong> than these broad labels for a given image. But we always encourage you to <strong>make a guess</strong> if you can. Note that you are allowed to use <strong>Dutch and English</strong> in your answers, whatever comes easiest for you.</p><p>Press any key to continue.</p></div>","75","instructions","html-keyboard-response","4","154096","0.0-4.0","2435195","co39667","norming","","","","","","",""
"15823.040000000212","<div style='word-wrap: break-word; width: 900px'><h3>Instructions</h3> <p>Next, the solution image will be revealed to you and you'll be asked to indicate how strong your <strong>aha-experience</strong> was after seeing the solution. This describes the positive feeling of the 'click' you sometimes experience, when the pieces of the 'puzzle' fall together and you suddenly have 'insight' in the image.</p><img src='aha.jpg' height='188' width='250'></img><p>Note that there are no right or wrong answers. We are interested in what <strong>you</strong> see in the image and how <strong>you</strong> feel about it.</p><p>Press any key to start the experiment.</p></div>","75","instructions","html-keyboard-response","5","169921","0.0-5.0","2435195","co39667","norming","","","","","","",""
"null","<div style=""font-size:60px;""> </div>","null","fixation","html-keyboard-response","6","170125","0.0-6.0-0.0","2435195","co39667","norming","","","","","","",""
"null","../img/tt/1040tt.jpg","null","mooney1","image-keyboard-response","7","173130","0.0-6.0-1.0","2435195","co39667","norming","","","","","","",""
"10346.279999999737","","","post_mooney1_questions","survey-likert","8","183480","0.0-6.0-2.0","2435195","co39667","norming","","","{""curiosity"":5,""confidence"":0}","[0,1]","../img/tt/1040tt.jpg","",""
"5029.489999999874","","","recognition","survey-text","9","188511","0.0-6.0-3.0","2435195","co39667","norming","","","{""guess"":""alligator""}","","../img/tt/1040tt.jpg","",""
"null","../img/gs/1040gs.jpg","null","reveal","image-keyboard-response","10","190520","0.0-6.0-4.0","2435195","co39667","norming","","","","","","",""
"null","../img/tt/1040tt.jpg","null","mooney2","image-keyboard-response","11","192521","0.0-6.0-5.0","2435195","co39667","norming","","","","","","",""
"6619.700000000186","","","post_reveal_questions","survey-likert","12","199143","0.0-6.0-6.0","2435195","co39667","norming","","","{""aha"":3}","[0]","../img/tt/1040tt.jpg","",""
"null","<div style=""font-size:60px;""> </div>","null","fixation","html-keyboard-response","13","199349","0.0-6.0-0.1","2435195","co39667","norming","","","","","","",""
"null","../img/tt/329tt.jpg","null","mooney1","image-keyboard-response","14","202358","0.0-6.0-1.1","2435195","co39667","norming","","","","","","",""
"4223.53999999995","","","post_mooney1_questions","survey-likert","15","206583","0.0-6.0-2.1","2435195","co39667","norming","","","{""curiosity"":4,""confidence"":0}","[0,1]","../img/tt/329tt.jpg","",""
"3982.070000000036","","","recognition","survey-text","16","210567","0.0-6.0-3.1","2435195","co39667","norming","","","{""guess"":""haywagon""}","","../img/tt/329tt.jpg","",""
"null","../img/gs/329gs.jpg","null","reveal","image-keyboard-response","17","212571","0.0-6.0-4.1","2435195","co39667","norming","","","","","","",""
"null","../img/tt/329tt.jpg","null","mooney2","image-keyboard-response","18","214578","0.0-6.0-5.1","2435195","co39667","norming","","","","","","",""
"4029.99499999985","","","post_reveal_questions","survey-likert","19","218609","0.0-6.0-6.1","2435195","co39667","norming","","","{""aha"":4}","[0]","../img/tt/329tt.jpg","",""
"null","<div style=""font-size:60px;""> </div>","null","fixation","html-keyboard-response","20","218814","0.0-6.0-0.2","2435195","co39667","norming","","","","","","",""
"null","../img/tt/031tt.jpg","null","mooney1","image-keyboard-response","21","221821","0.0-6.0-1.2","2435195","co39667","norming","","","","","","",""
"5498.97499999954","","","post_mooney1_questions","survey-likert","22","227322","0.0-6.0-2.2","2435195","co39667","norming","","","{""curiosity"":3,""confidence"":0}","[0,1]","../img/tt/031tt.jpg","",""
"2798.170000000013","","","recognition","survey-text","23","230121","0.0-6.0-3.2","2435195","co39667","norming","","","{""guess"":""rabbit""}","","../img/tt/031tt.jpg","",""
"null","../img/gs/031gs.jpg","null","reveal","image-keyboard-response","24","232126","0.0-6.0-4.2","2435195","co39667","norming","","","","","","",""
"null","../img/tt/031tt.jpg","null","mooney2","image-keyboard-response","25","234127","0.0-6.0-5.2","2435195","co39667","norming","","","","","","",""
"3119.5299999999406","","","post_reveal_questions","survey-likert","26","237249","0.0-6.0-6.2","2435195","co39667","norming","","","{""aha"":3}","[0]","../img/tt/031tt.jpg","",""
"null","<div style=""font-size:60px;""> </div>","null","fixation","html-keyboard-response","27","237455","0.0-6.0-0.3","2435195","co39667","norming","","","","","","",""
"null","../img/tt/358tt.jpg","null","mooney1","image-keyboard-response","28","240468","0.0-6.0-1.3","2435195","co39667","norming","","","","","","",""
"6395.5599999999395","","","post_mooney1_questions","survey-likert","29","246865","0.0-6.0-2.3","2435195","co39667","norming","","","{""curiosity"":5,""confidence"":3}","[0,1]","../img/tt/358tt.jpg","",""
"4566.350000000064","","","recognition","survey-text","30","251433","0.0-6.0-3.3","2435195","co39667","norming","","","{""guess"":""dog""}","","../img/tt/358tt.jpg","",""
"null","../img/gs/358gs.jpg","null","reveal","image-keyboard-response","31","253435","0.0-6.0-4.3","2435195","co39667","norming","","","","","","",""
"null","../img/tt/358tt.jpg","null","mooney2","image-keyboard-response","32","255436","0.0-6.0-5.3","2435195","co39667","norming","","","","","","",""
"1363.2999999999884","","","post_reveal_questions","survey-likert","33","256801","0.0-6.0-6.3","2435195","co39667","norming","","","{""aha"":5}","[0]","../img/tt/358tt.jpg","",""
"null","<div style=""font-size:60px;""> </div>","null","fixation","html-keyboard-response","34","257004","0.0-6.0-0.4","2435195","co39667","norming","","","","","","",""
"null","../img/tt/126tt.jpg","null","mooney1","image-keyboard-response","35","260015","0.0-6.0-1.4","2435195","co39667","norming","","","","","","",""
"4777.240000000311","","","post_mooney1_questions","survey-likert","36","264793","0.0-6.0-2.4","2435195","co39667","norming","","","{""curiosity"":4,""confidence"":4}","[0,1]","../img/tt/126tt.jpg","",""
"2974.4349999991828","","","recognition","survey-text","37","267769","0.0-6.0-3.4","2435195","co39667","norming","","","{""guess"":""cow""}","","../img/tt/126tt.jpg","",""
"null","../img/gs/126gs.jpg","null","reveal","image-keyboard-response","38","269775","0.0-6.0-4.4","2435195","co39667","norming","","","","","","",""
"null","../img/tt/126tt.jpg","null","mooney2","image-keyboard-response","39","271794","0.0-6.0-5.4","2435195","co39667","norming","","","","","","",""
"3646.530000000028","","","post_reveal_questions","survey-likert","40","275434","0.0-6.0-6.4","2435195","co39667","norming","","","{""aha"":2}","[0]","../img/tt/126tt.jpg","",""
"null","<div style=""font-size:60px;""> </div>","null","fixation","html-keyboard-response","41","275638","0.0-6.0-0.5","2435195","co39667","norming","","","","","","",""
"null","../img/tt/590tt.jpg","null","mooney1","image-keyboard-response","42","278641","0.0-6.0-1.5","2435195","co39667","norming","","","","","","",""
"6838.549999999523","","","post_mooney1_questions","survey-likert","43","285482","0.0-6.0-2.5","2435195","co39667","norming","","","{""curiosity"":4,""confidence"":0}","[0,1]","../img/tt/590tt.jpg","",""
"6685.79999999929","","","recognition","survey-text","44","292170","0.0-6.0-3.5","2435195","co39667","norming","","","{""guess"":""snowboard""}","","../img/tt/590tt.jpg","",""
"null","../img/gs/590gs.jpg","null","reveal","image-keyboard-response","45","294172","0.0-6.0-4.5","2435195","co39667","norming","","","","","","",""
"null","../img/tt/590tt.jpg","null","mooney2","image-keyboard-response","46","296182","0.0-6.0-5.5","2435195","co39667","norming","","","","","","",""
"4587.004999999423","","","post_reveal_questions","survey-likert","47","300770","0.0-6.0-6.5","2435195","co39667","norming","","","{""aha"":4}","[0]","../img/tt/590tt.jpg","",""
"null","<div style=""font-size:60px;""> </div>","null","fixation","html-keyboard-response","48","300979","0.0-6.0-0.6","2435195","co39667","norming","","","","","","",""
"null","../img/tt/007tt.jpg","null","mooney1","image-keyboard-response","49","303988","0.0-6.0-1.6","2435195","co39667","norming","","","","","","",""
"5787.545000000158","","","post_mooney1_questions","survey-likert","50","309778","0.0-6.0-2.6","2435195","co39667","norming","","","{""curiosity"":4,""confidence"":1}","[0,1]","../img/tt/007tt.jpg","",""
"4510.215000000258","","","recognition","survey-text","51","314290","0.0-6.0-3.6","2435195","co39667","norming","","","{""guess"":""sealion""}","","../img/tt/007tt.jpg","",""
"null","../img/gs/007gs.jpg","null","reveal","image-keyboard-response","52","316294","0.0-6.0-4.6","2435195","co39667","norming","","","","","","",""
"null","../img/tt/007tt.jpg","null","mooney2","image-keyboard-response","53","318296","0.0-6.0-5.6","2435195","co39667","norming","","","","","","",""
"1984.5500000001048","","","post_reveal_questions","survey-likert","54","320282","0.0-6.0-6.6","2435195","co39667","norming","","","{""aha"":5}","[0]","../img/tt/007tt.jpg","",""
"null","<div style=""font-size:60px;""> </div>","null","fixation","html-keyboard-response","55","320483","0.0-6.0-0.7","2435195","co39667","norming","","","","","","",""
"null","../img/tt/036tt.jpg","null","mooney1","image-keyboard-response","56","323486","0.0-6.0-1.7","2435195","co39667","norming","","","","","","",""
"5105.9150000000955","","","post_mooney1_questions","survey-likert","57","328594","0.0-6.0-2.7","2435195","co39667","norming","","","{""curiosity"":5,""confidence"":1}","[0,1]","../img/tt/036tt.jpg","",""
"10102.210000000021","","","recognition","survey-text","58","338701","0.0-6.0-3.7","2435195","co39667","norming","","","{""guess"":""seahorse""}","","../img/tt/036tt.jpg","",""
"null","../img/gs/036gs.jpg","null","reveal","image-keyboard-response","59","340711","0.0-6.0-4.7","2435195","co39667","norming","","","","","","",""
"null","../img/tt/036tt.jpg","null","mooney2","image-keyboard-response","60","342719","0.0-6.0-5.7","2435195","co39667","norming","","","","","","",""
"5596.164999999921","","","post_reveal_questions","survey-likert","61","348317","0.0-6.0-6.7","2435195","co39667","norming","","","{""aha"":1}","[0]","../img/tt/036tt.jpg","",""
"null","<div style=""font-size:60px;""> </div>","null","fixation","html-keyboard-response","62","348519","0.0-6.0-0.8","2435195","co39667","norming","","","","","","",""
"null","../img/tt/1130tt.jpg","null","mooney1","image-keyboard-response","63","351531","0.0-6.0-1.8","2435195","co39667","norming","","","","","","",""
"6519.490000000631","","","post_mooney1_questions","survey-likert","64","358053","0.0-6.0-2.8","2435195","co39667","norming","","","{""curiosity"":5,""confidence"":0}","[0,1]","../img/tt/1130tt.jpg","",""
"9174.080000000715","","","recognition","survey-text","65","367229","0.0-6.0-3.8","2435195","co39667","norming","","","{""guess"":""doctor""}","","../img/tt/1130tt.jpg","",""
"null","../img/gs/1130gs.jpg","null","reveal","image-keyboard-response","66","369234","0.0-6.0-4.8","2435195","co39667","norming","","","","","","",""
"null","../img/tt/1130tt.jpg","null","mooney2","image-keyboard-response","67","371235","0.0-6.0-5.8","2435195","co39667","norming","","","","","","",""
"3368.019999999902","","","post_reveal_questions","survey-likert","68","374605","0.0-6.0-6.8","2435195","co39667","norming","","","{""aha"":5}","[0]","../img/tt/1130tt.jpg","",""
"null","<div style=""font-size:60px;""> </div>","null","fixation","html-keyboard-response","69","374815","0.0-6.0-0.9","2435195","co39667","norming","","","","","","",""
"null","../img/tt/357tt.jpg","null","mooney1","image-keyboard-response","70","377825","0.0-6.0-1.9","2435195","co39667","norming","","","","","","",""
"14289.389999999956","","","post_mooney1_questions","survey-likert","71","392117","0.0-6.0-2.9","2435195","co39667","norming","","","{""curiosity"":5,""confidence"":1}","[0,1]","../img/tt/357tt.jpg","",""
"1637.76499999949","","","recognition","survey-text","72","393757","0.0-6.0-3.9","2435195","co39667","norming","","","{""guess"":""oyster""}","","../img/tt/357tt.jpg","",""
"null","../img/gs/357gs.jpg","null","reveal","image-keyboard-response","73","395766","0.0-6.0-4.9","2435195","co39667","norming","","","","","","",""
"null","../img/tt/357tt.jpg","null","mooney2","image-keyboard-response","74","397781","0.0-6.0-5.9","2435195","co39667","norming","","","","","","",""
"1933.1000000002095","","","post_reveal_questions","survey-likert","75","399715","0.0-6.0-6.9","2435195","co39667","norming","","","{""aha"":3}","[0]","../img/tt/357tt.jpg","",""
"null","<div style=""font-size:60px;""> </div>","null","fixation","html-keyboard-response","76","399918","0.0-6.0-0.10","2435195","co39667","norming","","","","","","",""
"null","../img/tt/1241tt.jpg","null","mooney1","image-keyboard-response","77","402920","0.0-6.0-1.10","2435195","co39667","norming","","","","","","",""
"9863.670000000624","","","post_mooney1_questions","survey-likert","78","412787","0.0-6.0-2.10","2435195","co39667","norming","","","{""curiosity"":4,""confidence"":1}","[0,1]","../img/tt/1241tt.jpg","",""
"2732.7299999997485","","","recognition","survey-text","79","415523","0.0-6.0-3.10","2435195","co39667","norming","","","{""guess"":""horse""}","","../img/tt/1241tt.jpg","",""
"null","../img/gs/1241gs.jpg","null","reveal","image-keyboard-response","80","417526","0.0-6.0-4.10","2435195","co39667","norming","","","","","","",""
"null","../img/tt/1241tt.jpg","null","mooney2","image-keyboard-response","81","419529","0.0-6.0-5.10","2435195","co39667","norming","","","","","","",""
"2759.7400000004563","","","post_reveal_questions","survey-likert","82","422291","0.0-6.0-6.10","2435195","co39667","norming","","","{""aha"":5}","[0]","../img/tt/1241tt.jpg","",""
"null","<div style=""font-size:60px;""> </div>","null","fixation","html-keyboard-response","83","422498","0.0-6.0-0.11","2435195","co39667","norming","","","","","","",""
"null","../img/tt/1087tt.jpg","null","mooney1","image-keyboard-response","84","425500","0.0-6.0-1.11","2435195","co39667","norming","","","","","","",""
"3716.8950000004843","","","post_mooney1_questions","survey-likert","85","429219","0.0-6.0-2.11","2435195","co39667","norming","","","{""curiosity"":5,""confidence"":4}","[0,1]","../img/tt/1087tt.jpg","",""
"2213.9850000003353","","","recognition","survey-text","86","431435","0.0-6.0-3.11","2435195","co39667","norming","","","{""guess"":""sheep""}","","../img/tt/1087tt.jpg","",""
"null","../img/gs/1087gs.jpg","null","reveal","image-keyboard-response","87","433437","0.0-6.0-4.11","2435195","co39667","norming","","","","","","",""
"null","../img/tt/1087tt.jpg","null","mooney2","image-keyboard-response","88","435443","0.0-6.0-5.11","2435195","co39667","norming","","","","","","",""
"1501.569999999425","","","post_reveal_questions","survey-likert","89","436947","0.0-6.0-6.11","2435195","co39667","norming","","","{""aha"":4}","[0]","../img/tt/1087tt.jpg","",""
"null","<div style=""font-size:60px;""> </div>","null","fixation","html-keyboard-response","90","437154","0.0-6.0-0.12","2435195","co39667","norming","","","","","","",""
"null","../img/tt/319tt.jpg","null","mooney1","image-keyboard-response","91","440164","0.0-6.0-1.12","2435195","co39667","norming","","","","","","",""
"5934.419999999576","","","post_mooney1_questions","survey-likert","92","446099","0.0-6.0-2.12","2435195","co39667","norming","","","{""curiosity"":6,""confidence"":1}","[0,1]","../img/tt/319tt.jpg","",""
"8382.120000000228","","","recognition","survey-text","93","454483","0.0-6.0-3.12","2435195","co39667","norming","","","{""guess"":""lamb""}","","../img/tt/319tt.jpg","",""
"null","../img/gs/319gs.jpg","null","reveal","image-keyboard-response","94","456487","0.0-6.0-4.12","2435195","co39667","norming","","","","","","",""
"null","../img/tt/319tt.jpg","null","mooney2","image-keyboard-response","95","458490","0.0-6.0-5.12","2435195","co39667","norming","","","","","","",""
"1670.7649999998393","","","post_reveal_questions","survey-likert","96","460163","0.0-6.0-6.12","2435195","co39667","norming","","","{""aha"":6}","[0]","../img/tt/319tt.jpg","",""
"null","<div style=""font-size:60px;""> </div>","null","fixation","html-keyboard-response","97","460367","0.0-6.0-0.13","2435195","co39667","norming","","","","","","",""
"null","../img/tt/1118tt.jpg","null","mooney1","image-keyboard-response","98","463370","0.0-6.0-1.13","2435195","co39667","norming","","","","","","",""
"7278.940000000177","","","post_mooney1_questions","survey-likert","99","470651","0.0-6.0-2.13","2435195","co39667","norming","","","{""curiosity"":3,""confidence"":0}","[0,1]","../img/tt/1118tt.jpg","",""
"4470.119999999995","","","recognition","survey-text","100","475123","0.0-6.0-3.13","2435195","co39667","norming","","","{""guess"":""no clue""}","","../img/tt/1118tt.jpg","",""
"null","../img/gs/1118gs.jpg","null","reveal","image-keyboard-response","101","477130","0.0-6.0-4.13","2435195","co39667","norming","","","","","","",""
"null","../img/tt/1118tt.jpg","null","mooney2","image-keyboard-response","102","479133","0.0-6.0-5.13","2435195","co39667","norming","","","","","","",""
"2283.645000000426","","","post_reveal_questions","survey-likert","103","481419","0.0-6.0-6.13","2435195","co39667","norming","","","{""aha"":5}","[0]","../img/tt/1118tt.jpg","",""
"null","<div style=""font-size:60px;""> </div>","null","fixation","html-keyboard-response","104","481621","0.0-6.0-0.14","2435195","co39667","norming","","","","","","",""
"null","../img/tt/019tt.jpg","null","mooney1","image-keyboard-response","105","484626","0.0-6.0-1.14","2435195","co39667","norming","","","","","","",""
"4327.1599999998","","","post_mooney1_questions","survey-likert","106","488955","0.0-6.0-2.14","2435195","co39667","norming","","","{""curiosity"":4,""confidence"":0}","[0,1]","../img/tt/019tt.jpg","",""
"3558.179999999993","","","recognition","survey-text","107","492515","0.0-6.0-3.14","2435195","co39667","norming","","","{""guess"":""snowboard""}","","../img/tt/019tt.jpg","",""
"null","../img/gs/019gs.jpg","null","reveal","image-keyboard-response","108","494516","0.0-6.0-4.14","2435195","co39667","norming","","","","","","",""
"null","../img/tt/019tt.jpg","null","mooney2","image-keyboard-response","109","496518","0.0-6.0-5.14","2435195","co39667","norming","","","","","","",""
"2507.9999999998254","","","post_reveal_questions","survey-likert","110","499027","0.0-6.0-6.14","2435195","co39667","norming","","","{""aha"":4}","[0]","../img/tt/019tt.jpg","",""
"null","<div style=""font-size:60px;""> </div>","null","fixation","html-keyboard-response","111","499232","0.0-6.0-0.15","2435195","co39667","norming","","","","","","",""
"null","../img/tt/1027tt.jpg","null","mooney1","image-keyboard-response","112","502243","0.0-6.0-1.15","2435195","co39667","norming","","","","","","",""
"4214.8699999997625","","","post_mooney1_questions","survey-likert","113","506459","0.0-6.0-2.15","2435195","co39667","norming","","","{""curiosity"":4,""confidence"":1}","[0,1]","../img/tt/1027tt.jpg","",""
"1878.179999999702","","","recognition","survey-text","114","508339","0.0-6.0-3.15","2435195","co39667","norming","","","{""guess"":""donkey""}","","../img/tt/1027tt.jpg","",""
"null","../img/gs/1027gs.jpg","null","reveal","image-keyboard-response","115","510343","0.0-6.0-4.15","2435195","co39667","norming","","","","","","",""
"null","../img/tt/1027tt.jpg","null","mooney2","image-keyboard-response","116","512345","0.0-6.0-5.15","2435195","co39667","norming","","","","","","",""
"3903.895000000426","","","post_reveal_questions","survey-likert","117","516251","0.0-6.0-6.15","2435195","co39667","norming","","","{""aha"":4}","[0]","../img/tt/1027tt.jpg","",""
"null","<div style=""font-size:60px;""> </div>","null","fixation","html-keyboard-response","118","516456","0.0-6.0-0.16","2435195","co39667","norming","","","","","","",""
"null","../img/tt/055tt.jpg","null","mooney1","image-keyboard-response","119","519466","0.0-6.0-1.16","2435195","co39667","norming","","","","","","",""
"3599.325000000128","","","post_mooney1_questions","survey-likert","120","523067","0.0-6.0-2.16","2435195","co39667","norming","","","{""curiosity"":5,""confidence"":2}","[0,1]","../img/tt/055tt.jpg","",""
"1942.1499999998487","","","recognition","survey-text","121","525011","0.0-6.0-3.16","2435195","co39667","norming","","","{""guess"":""bucket""}","","../img/tt/055tt.jpg","",""
"null","../img/gs/055gs.jpg","null","reveal","image-keyboard-response","122","527013","0.0-6.0-4.16","2435195","co39667","norming","","","","","","",""
"null","../img/tt/055tt.jpg","null","mooney2","image-keyboard-response","123","529015","0.0-6.0-5.16","2435195","co39667","norming","","","","","","",""
"1514.4000000000233","","","post_reveal_questions","survey-likert","124","530531","0.0-6.0-6.16","2435195","co39667","norming","","","{""aha"":5}","[0]","../img/tt/055tt.jpg","",""
"null","<div style=""font-size:60px;""> </div>","null","fixation","html-keyboard-response","125","530736","0.0-6.0-0.17","2435195","co39667","norming","","","","","","",""
"null","../img/tt/1089tt.jpg","null","mooney1","image-keyboard-response","126","533740","0.0-6.0-1.17","2435195","co39667","norming","","","","","","",""
"2957.210000000545","","","post_mooney1_questions","survey-likert","127","536699","0.0-6.0-2.17","2435195","co39667","norming","","","{""curiosity"":4,""confidence"":1}","[0,1]","../img/tt/1089tt.jpg","",""
"3030.1150000004563","","","recognition","survey-text","128","539731","0.0-6.0-3.17","2435195","co39667","norming","","","{""guess"":""horses""}","","../img/tt/1089tt.jpg","",""
"null","../img/gs/1089gs.jpg","null","reveal","image-keyboard-response","129","541739","0.0-6.0-4.17","2435195","co39667","norming","","","","","","",""
"null","../img/tt/1089tt.jpg","null","mooney2","image-keyboard-response","130","543742","0.0-6.0-5.17","2435195","co39667","norming","","","","","","",""
"1843.4600000000792","","","post_reveal_questions","survey-likert","131","545587","0.0-6.0-6.17","2435195","co39667","norming","","","{""aha"":5}","[0]","../img/tt/1089tt.jpg","",""
"null","<div style=""font-size:60px;""> </div>","null","fixation","html-keyboard-response","132","545788","0.0-6.0-0.18","2435195","co39667","norming","","","","","","",""
"null","../img/tt/078tt.jpg","null","mooney1","image-keyboard-response","133","548792","0.0-6.0-1.18","2435195","co39667","norming","","","","","","",""
"3337.195000000065","","","post_mooney1_questions","survey-likert","134","552131","0.0-6.0-2.18","2435195","co39667","norming","","","{""curiosity"":5,""confidence"":3}","[0,1]","../img/tt/078tt.jpg","",""
"1950.1899999994785","","","recognition","survey-text","135","554083","0.0-6.0-3.18","2435195","co39667","norming","","","{""guess"":""grapes""}","","../img/tt/078tt.jpg","",""
"null","../img/gs/078gs.jpg","null","reveal","image-keyboard-response","136","556088","0.0-6.0-4.18","2435195","co39667","norming","","","","","","",""
"null","../img/tt/078tt.jpg","null","mooney2","image-keyboard-response","137","558089","0.0-6.0-5.18","2435195","co39667","norming","","","","","","",""
"2135.4899999996414","","","post_reveal_questions","survey-likert","138","560227","0.0-6.0-6.18","2435195","co39667","norming","","","{""aha"":3}","[0]","../img/tt/078tt.jpg","",""
"null","<div style=""font-size:60px;""> </div>","null","fixation","html-keyboard-response","139","560433","0.0-6.0-0.19","2435195","co39667","norming","","","","","","",""
"null","../img/tt/1006tt.jpg","null","mooney1","image-keyboard-response","140","563445","0.0-6.0-1.19","2435195","co39667","norming","","","","","","",""
"5931.630000000005","","","post_mooney1_questions","survey-likert","141","569379","0.0-6.0-2.19","2435195","co39667","norming","","","{""curiosity"":6,""confidence"":2}","[0,1]","../img/tt/1006tt.jpg","",""
"2061.890000000014","","","recognition","survey-text","142","571443","0.0-6.0-3.19","2435195","co39667","norming","","","{""guess"":""sheep""}","","../img/tt/1006tt.jpg","",""
"null","../img/gs/1006gs.jpg","null","reveal","image-keyboard-response","143","573448","0.0-6.0-4.19","2435195","co39667","norming","","","","","","",""
"null","../img/tt/1006tt.jpg","null","mooney2","image-keyboard-response","144","575453","0.0-6.0-5.19","2435195","co39667","norming","","","","","","",""
"2676.2599999991944","","","post_reveal_questions","survey-likert","145","578131","0.0-6.0-6.19","2435195","co39667","norming","","","{""aha"":6}","[0]","../img/tt/1006tt.jpg","",""
"null","<div style=""font-size:60px;""> </div>","null","fixation","html-keyboard-response","146","578333","0.0-6.0-0.20","2435195","co39667","norming","","","","","","",""
"null","../img/tt/1142tt.jpg","null","mooney1","image-keyboard-response","147","581335","0.0-6.0-1.20","2435195","co39667","norming","","","","","","",""
"3489.545000000391","","","post_mooney1_questions","survey-likert","148","584827","0.0-6.0-2.20","2435195","co39667","norming","","","{""curiosity"":6,""confidence"":2}","[0,1]","../img/tt/1142tt.jpg","",""
"3605.9300000006333","","","recognition","survey-text","149","588435","0.0-6.0-3.20","2435195","co39667","norming","","","{""guess"":""woman jumping""}","","../img/tt/1142tt.jpg","",""
"null","../img/gs/1142gs.jpg","null","reveal","image-keyboard-response","150","590443","0.0-6.0-4.20","2435195","co39667","norming","","","","","","",""
"null","../img/tt/1142tt.jpg","null","mooney2","image-keyboard-response","151","592453","0.0-6.0-5.20","2435195","co39667","norming","","","","","","",""
"1756.2399999997579","","","post_reveal_questions","survey-likert","152","594211","0.0-6.0-6.20","2435195","co39667","norming","","","{""aha"":4}","[0]","../img/tt/1142tt.jpg","",""
"null","<div style=""font-size:60px;""> </div>","null","fixation","html-keyboard-response","153","594415","0.0-6.0-0.21","2435195","co39667","norming","","","","","","",""
"null","../img/tt/1148tt.jpg","null","mooney1","image-keyboard-response","154","597418","0.0-6.0-1.21","2435195","co39667","norming","","","","","","",""
"3799.184999999823","","","post_mooney1_questions","survey-likert","155","601220","0.0-6.0-2.21","2435195","co39667","norming","","","{""curiosity"":4,""confidence"":1}","[0,1]","../img/tt/1148tt.jpg","",""
"2429.979999999865","","","recognition","survey-text","156","603651","0.0-6.0-3.21","2435195","co39667","norming","","","{""guess"":""man in pool""}","","../img/tt/1148tt.jpg","",""
"null","../img/gs/1148gs.jpg","null","reveal","image-keyboard-response","157","605658","0.0-6.0-4.21","2435195","co39667","norming","","","","","","",""
"null","../img/tt/1148tt.jpg","null","mooney2","image-keyboard-response","158","607659","0.0-6.0-5.21","2435195","co39667","norming","","","","","","",""
"2814.04999999993","","","post_reveal_questions","survey-likert","159","610475","0.0-6.0-6.21","2435195","co39667","norming","","","{""aha"":5}","[0]","../img/tt/1148tt.jpg","",""
"null","<div style=""font-size:60px;""> </div>","null","fixation","html-keyboard-response","160","610681","0.0-6.0-0.22","2435195","co39667","norming","","","","","","",""
"null","../img/tt/1224tt.jpg","null","mooney1","image-keyboard-response","161","613684","0.0-6.0-1.22","2435195","co39667","norming","","","","","","",""
"3685.225000000093","","","post_mooney1_questions","survey-likert","162","617371","0.0-6.0-2.22","2435195","co39667","norming","","","{""curiosity"":6,""confidence"":1}","[0,1]","../img/tt/1224tt.jpg","",""
"2918.04499999946","","","recognition","survey-text","163","620291","0.0-6.0-3.22","2435195","co39667","norming","","","{""guess"":""man with gun""}","","../img/tt/1224tt.jpg","",""
"null","../img/gs/1224gs.jpg","null","reveal","image-keyboard-response","164","622292","0.0-6.0-4.22","2435195","co39667","norming","","","","","","",""
"null","../img/tt/1224tt.jpg","null","mooney2","image-keyboard-response","165","624298","0.0-6.0-5.22","2435195","co39667","norming","","","","","","",""
"1967.614999999525","","","post_reveal_questions","survey-likert","166","626267","0.0-6.0-6.22","2435195","co39667","norming","","","{""aha"":6}","[0]","../img/tt/1224tt.jpg","",""
"null","<div style=""font-size:60px;""> </div>","null","fixation","html-keyboard-response","167","626474","0.0-6.0-0.23","2435195","co39667","norming","","","","","","",""
"null","../img/tt/108tt.jpg","null","mooney1","image-keyboard-response","168","629480","0.0-6.0-1.23","2435195","co39667","norming","","","","","","",""
"3856.8299999997253","","","post_mooney1_questions","survey-likert","169","633339","0.0-6.0-2.23","2435195","co39667","norming","","","{""curiosity"":3,""confidence"":0}","[0,1]","../img/tt/108tt.jpg","",""
"3014.2949999999255","","","recognition","survey-text","170","636355","0.0-6.0-3.23","2435195","co39667","norming","","","{""guess"":""vegetable""}","","../img/tt/108tt.jpg","",""
"null","../img/gs/108gs.jpg","null","reveal","image-keyboard-response","171","638359","0.0-6.0-4.23","2435195","co39667","norming","","","","","","",""
"null","../img/tt/108tt.jpg","null","mooney2","image-keyboard-response","172","640364","0.0-6.0-5.23","2435195","co39667","norming","","","","","","",""
"3341.335000000079","","","post_reveal_questions","survey-likert","173","643707","0.0-6.0-6.23","2435195","co39667","norming","","","{""aha"":5}","[0]","../img/tt/108tt.jpg","",""
"null","<div style=""font-size:60px;""> </div>","null","fixation","html-keyboard-response","174","643914","0.0-6.0-0.24","2435195","co39667","norming","","","","","","",""
"null","../img/tt/1161tt.jpg","null","mooney1","image-keyboard-response","175","646917","0.0-6.0-1.24","2435195","co39667","norming","","","","","","",""
"5092.229999999283","","","post_mooney1_questions","survey-likert","176","652011","0.0-6.0-2.24","2435195","co39667","norming","","","{""curiosity"":1,""confidence"":0}","[0,1]","../img/tt/1161tt.jpg","",""
"2101.6399999998976","","","recognition","survey-text","177","654115","0.0-6.0-3.24","2435195","co39667","norming","","","{""guess"":""monkeys""}","","../img/tt/1161tt.jpg","",""
"null","../img/gs/1161gs.jpg","null","reveal","image-keyboard-response","178","656119","0.0-6.0-4.24","2435195","co39667","norming","","","","","","",""
"null","../img/tt/1161tt.jpg","null","mooney2","image-keyboard-response","179","658121","0.0-6.0-5.24","2435195","co39667","norming","","","","","","",""
"2840.6999999997206","","","post_reveal_questions","survey-likert","180","660964","0.0-6.0-6.24","2435195","co39667","norming","","","{""aha"":0}","[0]","../img/tt/1161tt.jpg","",""
"null","<div style=""font-size:60px;""> </div>","null","fixation","html-keyboard-response","181","661165","0.0-6.0-0.25","2435195","co39667","norming","","","","","","",""
"null","../img/tt/013tt.jpg","null","mooney1","image-keyboard-response","182","664169","0.0-6.0-1.25","2435195","co39667","norming","","","","","","",""
"2800.425000000396","","","post_mooney1_questions","survey-likert","183","666972","0.0-6.0-2.25","2435195","co39667","norming","","","{""curiosity"":4,""confidence"":0}","[0,1]","../img/tt/013tt.jpg","",""
"4150.024999999907","","","recognition","survey-text","184","671123","0.0-6.0-3.25","2435195","co39667","norming","","","{""guess"":""no clue""}","","../img/tt/013tt.jpg","",""
"null","../img/gs/013gs.jpg","null","reveal","image-keyboard-response","185","673128","0.0-6.0-4.25","2435195","co39667","norming","","","","","","",""
"null","../img/tt/013tt.jpg","null","mooney2","image-keyboard-response","186","675138","0.0-6.0-5.25","2435195","co39667","norming","","","","","","",""
"1919.0199999993201","","","post_reveal_questions","survey-likert","187","677059","0.0-6.0-6.25","2435195","co39667","norming","","","{""aha"":4}","[0]","../img/tt/013tt.jpg","",""
"null","<div style=""font-size:60px;""> </div>","null","fixation","html-keyboard-response","188","677263","0.0-6.0-0.26","2435195","co39667","norming","","","","","","",""
"null","../img/tt/599tt.jpg","null","mooney1","image-keyboard-response","189","680269","0.0-6.0-1.26","2435195","co39667","norming","","","","","","",""
"4181.165000000037","","","post_mooney1_questions","survey-likert","190","684451","0.0-6.0-2.26","2435195","co39667","norming","","","{""curiosity"":4,""confidence"":0}","[0,1]","../img/tt/599tt.jpg","",""
"1557.9799999995157","","","recognition","survey-text","191","686011","0.0-6.0-3.26","2435195","co39667","norming","","","{""guess"":""cat""}","","../img/tt/599tt.jpg","",""
"null","../img/gs/599gs.jpg","null","reveal","image-keyboard-response","192","688013","0.0-6.0-4.26","2435195","co39667","norming","","","","","","",""
"null","../img/tt/599tt.jpg","null","mooney2","image-keyboard-response","193","690015","0.0-6.0-5.26","2435195","co39667","norming","","","","","","",""
"1793.9999999998836","","","post_reveal_questions","survey-likert","194","691811","0.0-6.0-6.26","2435195","co39667","norming","","","{""aha"":4}","[0]","../img/tt/599tt.jpg","",""
"null","<div style=""font-size:60px;""> </div>","null","fixation","html-keyboard-response","195","692021","0.0-6.0-0.27","2435195","co39667","norming","","","","","","",""
"null","../img/tt/1227tt.jpg","null","mooney1","image-keyboard-response","196","695026","0.0-6.0-1.27","2435195","co39667","norming","","","","","","",""
"3319.1550000001444","","","post_mooney1_questions","survey-likert","197","698348","0.0-6.0-2.27","2435195","co39667","norming","","","{""curiosity"":3,""confidence"":3}","[0,1]","../img/tt/1227tt.jpg","",""
"1686.2399999999907","","","recognition","survey-text","198","700035","0.0-6.0-3.27","2435195","co39667","norming","","","{""guess"":""chickens""}","","../img/tt/1227tt.jpg","",""
"null","../img/gs/1227gs.jpg","null","reveal","image-keyboard-response","199","702040","0.0-6.0-4.27","2435195","co39667","norming","","","","","","",""
"null","../img/tt/1227tt.jpg","null","mooney2","image-keyboard-response","200","704043","0.0-6.0-5.27","2435195","co39667","norming","","","","","","",""
"2768.1149999998743","","","post_reveal_questions","survey-likert","201","706813","0.0-6.0-6.27","2435195","co39667","norming","","","{""aha"":2}","[0]","../img/tt/1227tt.jpg","",""
"null","<div style=""font-size:60px;""> </div>","null","fixation","html-keyboard-response","202","707021","0.0-6.0-0.28","2435195","co39667","norming","","","","","","",""
"null","../img/tt/081tt.jpg","null","mooney1","image-keyboard-response","203","710024","0.0-6.0-1.28","2435195","co39667","norming","","","","","","",""
"2922.5050000004703","","","post_mooney1_questions","survey-likert","204","712949","0.0-6.0-2.28","2435195","co39667","norming","","","{""curiosity"":1,""confidence"":5}","[0,1]","../img/tt/081tt.jpg","",""
"1166.2400000004563","","","recognition","survey-text","205","714117","0.0-6.0-3.28","2435195","co39667","norming","","","{""guess"":""frog""}","","../img/tt/081tt.jpg","",""
"null","../img/gs/081gs.jpg","null","reveal","image-keyboard-response","206","716126","0.0-6.0-4.28","2435195","co39667","norming","","","","","","",""
"null","../img/tt/081tt.jpg","null","mooney2","image-keyboard-response","207","718137","0.0-6.0-5.28","2435195","co39667","norming","","","","","","",""
"3906.3299999997253","","","post_reveal_questions","survey-likert","208","722045","0.0-6.0-6.28","2435195","co39667","norming","","","{""aha"":0}","[0]","../img/tt/081tt.jpg","",""
"null","<div style=""font-size:60px;""> </div>","null","fixation","html-keyboard-response","209","722252","0.0-6.0-0.29","2435195","co39667","norming","","","","","","",""
"null","../img/tt/1205tt.jpg","null","mooney1","image-keyboard-response","210","725260","0.0-6.0-1.29","2435195","co39667","norming","","","","","","",""
"6270.6699999999255","","","post_mooney1_questions","survey-likert","211","731533","0.0-6.0-2.29","2435195","co39667","norming","","","{""curiosity"":4,""confidence"":1}","[0,1]","../img/tt/1205tt.jpg","",""
"2181.9300000006333","","","recognition","survey-text","212","733717","0.0-6.0-3.29","2435195","co39667","norming","","","{""guess"":""cowboy""}","","../img/tt/1205tt.jpg","",""
"null","../img/gs/1205gs.jpg","null","reveal","image-keyboard-response","213","735720","0.0-6.0-4.29","2435195","co39667","norming","","","","","","",""
"null","../img/tt/1205tt.jpg","null","mooney2","image-keyboard-response","214","737723","0.0-6.0-5.29","2435195","co39667","norming","","","","","","",""
"1504.0699999999488","","","post_reveal_questions","survey-likert","215","739229","0.0-6.0-6.29","2435195","co39667","norming","","","{""aha"":5}","[0]","../img/tt/1205tt.jpg","",""
"null","<div style=""font-size:60px;""> </div>","null","fixation","html-keyboard-response","216","739436","0.0-6.0-0.30","2435195","co39667","norming","","","","","","",""
"null","../img/tt/1159tt.jpg","null","mooney1","image-keyboard-response","217","742443","0.0-6.0-1.30","2435195","co39667","norming","","","","","","",""
"3903.4000000001397","","","post_mooney1_questions","survey-likert","218","746349","0.0-6.0-2.30","2435195","co39667","norming","","","{""curiosity"":4,""confidence"":1}","[0,1]","../img/tt/1159tt.jpg","",""
"3942.2149999999674","","","recognition","survey-text","219","750293","0.0-6.0-3.30","2435195","co39667","norming","","","{""guess"":""skateboarding""}","","../img/tt/1159tt.jpg","",""
"null","../img/gs/1159gs.jpg","null","reveal","image-keyboard-response","220","752295","0.0-6.0-4.30","2435195","co39667","norming","","","","","","",""
"null","../img/tt/1159tt.jpg","null","mooney2","image-keyboard-response","221","754300","0.0-6.0-5.30","2435195","co39667","norming","","","","","","",""
"1488.699999999837","","","post_reveal_questions","survey-likert","222","755789","0.0-6.0-6.30","2435195","co39667","norming","","","{""aha"":5}","[0]","../img/tt/1159tt.jpg","",""
"null","<div style=""font-size:60px;""> </div>","null","fixation","html-keyboard-response","223","755992","0.0-6.0-0.31","2435195","co39667","norming","","","","","","",""
"null","../img/tt/1228tt.jpg","null","mooney1","image-keyboard-response","224","759000","0.0-6.0-1.31","2435195","co39667","norming","","","","","","",""
"3610.6550000004936","","","post_mooney1_questions","survey-likert","225","762615","0.0-6.0-2.31","2435195","co39667","norming","","","{""curiosity"":5,""confidence"":1}","[0,1]","../img/tt/1228tt.jpg","",""
"1262.290000000503","","","recognition","survey-text","226","763879","0.0-6.0-3.31","2435195","co39667","norming","","","{""guess"":""owl""}","","../img/tt/1228tt.jpg","",""
"null","../img/gs/1228gs.jpg","null","reveal","image-keyboard-response","227","765881","0.0-6.0-4.31","2435195","co39667","norming","","","","","","",""
"null","../img/tt/1228tt.jpg","null","mooney2","image-keyboard-response","228","767883","0.0-6.0-5.31","2435195","co39667","norming","","","","","","",""
"1871.4300000000512","","","post_reveal_questions","survey-likert","229","769759","0.0-6.0-6.31","2435195","co39667","norming","","","{""aha"":5}","[0]","../img/tt/1228tt.jpg","",""
"null","<div style=""font-size:60px;""> </div>","null","fixation","html-keyboard-response","230","769960","0.0-6.0-0.32","2435195","co39667","norming","","","","","","",""
"null","../img/tt/184tt.jpg","null","mooney1","image-keyboard-response","231","772963","0.0-6.0-1.32","2435195","co39667","norming","","","","","","",""
"2465.109999999171","","","post_mooney1_questions","survey-likert","232","775431","0.0-6.0-2.32","2435195","co39667","norming","","","{""curiosity"":5,""confidence"":1}","[0,1]","../img/tt/184tt.jpg","",""
"5806.125000000116","","","recognition","survey-text","233","781239","0.0-6.0-3.32","2435195","co39667","norming","","","{""guess"":""reptilian""}","","../img/tt/184tt.jpg","",""
"null","../img/gs/184gs.jpg","null","reveal","image-keyboard-response","234","783247","0.0-6.0-4.32","2435195","co39667","norming","","","","","","",""
"null","../img/tt/184tt.jpg","null","mooney2","image-keyboard-response","235","785250","0.0-6.0-5.32","2435195","co39667","norming","","","","","","",""
"1498.7599999995437","","","post_reveal_questions","survey-likert","236","786751","0.0-6.0-6.32","2435195","co39667","norming","","","{""aha"":5}","[0]","../img/tt/184tt.jpg","",""
"null","<div style=""font-size:60px;""> </div>","null","fixation","html-keyboard-response","237","786961","0.0-6.0-0.33","2435195","co39667","norming","","","","","","",""
"null","../img/tt/1190tt.jpg","null","mooney1","image-keyboard-response","238","789963","0.0-6.0-1.33","2435195","co39667","norming","","","","","","",""
"2848.879999999539","","","post_mooney1_questions","survey-likert","239","792815","0.0-6.0-2.33","2435195","co39667","norming","","","{""curiosity"":4,""confidence"":0}","[0,1]","../img/tt/1190tt.jpg","",""
"894.0799999999581","","","recognition","survey-text","240","793711","0.0-6.0-3.33","2435195","co39667","norming","","","{""guess"":""""}","","../img/tt/1190tt.jpg","",""
"null","../img/gs/1190gs.jpg","null","reveal","image-keyboard-response","241","795718","0.0-6.0-4.33","2435195","co39667","norming","","","","","","",""
"null","../img/tt/1190tt.jpg","null","mooney2","image-keyboard-response","242","797724","0.0-6.0-5.33","2435195","co39667","norming","","","","","","",""
"1648.5400000000373","","","post_reveal_questions","survey-likert","243","799375","0.0-6.0-6.33","2435195","co39667","norming","","","{""aha"":5}","[0]","../img/tt/1190tt.jpg","",""
"null","<div style=""font-size:60px;""> </div>","null","fixation","html-keyboard-response","244","799580","0.0-6.0-0.34","2435195","co39667","norming","","","","","","",""
"null","../img/tt/098tt.jpg","null","mooney1","image-keyboard-response","245","802581","0.0-6.0-1.34","2435195","co39667","norming","","","","","","",""
"3711.6099999992875","","","post_mooney1_questions","survey-likert","246","806295","0.0-6.0-2.34","2435195","co39667","norming","","","{""curiosity"":4,""confidence"":1}","[0,1]","../img/tt/098tt.jpg","",""
"1358.3150000002934","","","recognition","survey-text","247","807655","0.0-6.0-3.34","2435195","co39667","norming","","","{""guess"":""bird""}","","../img/tt/098tt.jpg","",""
"null","../img/gs/098gs.jpg","null","reveal","image-keyboard-response","248","809665","0.0-6.0-4.34","2435195","co39667","norming","","","","","","",""
"null","../img/tt/098tt.jpg","null","mooney2","image-keyboard-response","249","811667","0.0-6.0-5.34","2435195","co39667","norming","","","","","","",""
"1577.9299999994691","","","post_reveal_questions","survey-likert","250","813247","0.0-6.0-6.34","2435195","co39667","norming","","","{""aha"":5}","[0]","../img/tt/098tt.jpg","",""
"null","<div style=""font-size:60px;""> </div>","null","fixation","html-keyboard-response","251","813450","0.0-6.0-0.35","2435195","co39667","norming","","","","","","",""
"null","../img/tt/318tt.jpg","null","mooney1","image-keyboard-response","252","816458","0.0-6.0-1.35","2435195","co39667","norming","","","","","","",""
"4707.315000000643","","","post_mooney1_questions","survey-likert","253","821167","0.0-6.0-2.35","2435195","co39667","norming","","","{""curiosity"":5,""confidence"":1}","[0,1]","../img/tt/318tt.jpg","",""
"1621.8250000001863","","","recognition","survey-text","254","822792","0.0-6.0-3.35","2435195","co39667","norming","","","{""guess"":""helmet""}","","../img/tt/318tt.jpg","",""
"null","../img/gs/318gs.jpg","null","reveal","image-keyboard-response","255","824795","0.0-6.0-4.35","2435195","co39667","norming","","","","","","",""
"null","../img/tt/318tt.jpg","null","mooney2","image-keyboard-response","256","826798","0.0-6.0-5.35","2435195","co39667","norming","","","","","","",""
"2335.9300000001676","","","post_reveal_questions","survey-likert","257","829136","0.0-6.0-6.35","2435195","co39667","norming","","","{""aha"":5}","[0]","../img/tt/318tt.jpg","",""
"null","<div style=""font-size:60px;""> </div>","null","fixation","html-keyboard-response","258","829343","0.0-6.0-0.36","2435195","co39667","norming","","","","","","",""
"null","../img/tt/1116tt.jpg","null","mooney1","image-keyboard-response","259","832347","0.0-6.0-1.36","2435195","co39667","norming","","","","","","",""
"3140.1850000001723","","","post_mooney1_questions","survey-likert","260","835488","0.0-6.0-2.36","2435195","co39667","norming","","","{""curiosity"":5,""confidence"":2}","[0,1]","../img/tt/1116tt.jpg","",""
"1414.0749999996042","","","recognition","survey-text","261","836904","0.0-6.0-3.36","2435195","co39667","norming","","","{""guess"":""boats""}","","../img/tt/1116tt.jpg","",""
"null","../img/gs/1116gs.jpg","null","reveal","image-keyboard-response","262","838908","0.0-6.0-4.36","2435195","co39667","norming","","","","","","",""
"null","../img/tt/1116tt.jpg","null","mooney2","image-keyboard-response","263","840910","0.0-6.0-5.36","2435195","co39667","norming","","","","","","",""
"2279.7150000005495","","","post_reveal_questions","survey-likert","264","843192","0.0-6.0-6.36","2435195","co39667","norming","","","{""aha"":6}","[0]","../img/tt/1116tt.jpg","",""
"null","<div style=""font-size:60px;""> </div>","null","fixation","html-keyboard-response","265","843396","0.0-6.0-0.37","2435195","co39667","norming","","","","","","",""
"null","../img/tt/1012tt.jpg","null","mooney1","image-keyboard-response","266","846399","0.0-6.0-1.37","2435195","co39667","norming","","","","","","",""
"3894.4199999995762","","","post_mooney1_questions","survey-likert","267","850296","0.0-6.0-2.37","2435195","co39667","norming","","","{""curiosity"":3,""confidence"":1}","[0,1]","../img/tt/1012tt.jpg","",""
"1470.715000000433","","","recognition","survey-text","268","851768","0.0-6.0-3.37","2435195","co39667","norming","","","{""guess"":""worm""}","","../img/tt/1012tt.jpg","",""
"null","../img/gs/1012gs.jpg","null","reveal","image-keyboard-response","269","853773","0.0-6.0-4.37","2435195","co39667","norming","","","","","","",""
"null","../img/tt/1012tt.jpg","null","mooney2","image-keyboard-response","270","855775","0.0-6.0-5.37","2435195","co39667","norming","","","","","","",""
"1990.75","","","post_reveal_questions","survey-likert","271","857768","0.0-6.0-6.37","2435195","co39667","norming","","","{""aha"":5}","[0]","../img/tt/1012tt.jpg","",""
"null","<div style=""font-size:60px;""> </div>","null","fixation","html-keyboard-response","272","857972","0.0-6.0-0.38","2435195","co39667","norming","","","","","","",""
"null","../img/tt/064tt.jpg","null","mooney1","image-keyboard-response","273","860976","0.0-6.0-1.38","2435195","co39667","norming","","","","","","",""
"3645.965000000666","","","post_mooney1_questions","survey-likert","274","864625","0.0-6.0-2.38","2435195","co39667","norming","","","{""curiosity"":4,""confidence"":0}","[0,1]","../img/tt/064tt.jpg","",""
"1733.6949999999488","","","recognition","survey-text","275","866360","0.0-6.0-3.38","2435195","co39667","norming","","","{""guess"":""fangs""}","","../img/tt/064tt.jpg","",""
"null","../img/gs/064gs.jpg","null","reveal","image-keyboard-response","276","868364","0.0-6.0-4.38","2435195","co39667","norming","","","","","","",""
"null","../img/tt/064tt.jpg","null","mooney2","image-keyboard-response","277","870366","0.0-6.0-5.38","2435195","co39667","norming","","","","","","",""
"1560.1949999999488","","","post_reveal_questions","survey-likert","278","871928","0.0-6.0-6.38","2435195","co39667","norming","","","{""aha"":4}","[0]","../img/tt/064tt.jpg","",""
"null","<div style=""font-size:60px;""> </div>","null","fixation","html-keyboard-response","279","872135","0.0-6.0-0.39","2435195","co39667","norming","","","","","","",""
"null","../img/tt/412tt.jpg","null","mooney1","image-keyboard-response","280","875141","0.0-6.0-1.39","2435195","co39667","norming","","","","","","",""
"5032.615000000107","","","post_mooney1_questions","survey-likert","281","880176","0.0-6.0-2.39","2435195","co39667","norming","","","{""curiosity"":1,""confidence"":0}","[0,1]","../img/tt/412tt.jpg","",""
"662.2049999996088","","","recognition","survey-text","282","880840","0.0-6.0-3.39","2435195","co39667","norming","","","{""guess"":""""}","","../img/tt/412tt.jpg","",""
"null","../img/gs/412gs.jpg","null","reveal","image-keyboard-response","283","882843","0.0-6.0-4.39","2435195","co39667","norming","","","","","","",""
"null","../img/tt/412tt.jpg","null","mooney2","image-keyboard-response","284","884848","0.0-6.0-5.39","2435195","co39667","norming","","","","","","",""
"2727.635000000242","","","post_reveal_questions","survey-likert","285","887578","0.0-6.0-6.39","2435195","co39667","norming","","","{""aha"":2}","[0]","../img/tt/412tt.jpg","",""
"null","<div style=""font-size:60px;""> </div>","null","fixation","html-keyboard-response","286","887785","0.0-6.0-0.40","2435195","co39667","norming","","","","","","",""
"null","../img/tt/307tt.jpg","null","mooney1","image-keyboard-response","287","890788","0.0-6.0-1.40","2435195","co39667","norming","","","","","","",""
"2891.730000000214","","","post_mooney1_questions","survey-likert","288","893682","0.0-6.0-2.40","2435195","co39667","norming","","","{""curiosity"":3,""confidence"":1}","[0,1]","../img/tt/307tt.jpg","",""
"1638.544999999809","","","recognition","survey-text","289","895322","0.0-6.0-3.40","2435195","co39667","norming","","","{""guess"":""turtle""}","","../img/tt/307tt.jpg","",""
"null","../img/gs/307gs.jpg","null","reveal","image-keyboard-response","290","897332","0.0-6.0-4.40","2435195","co39667","norming","","","","","","",""
"null","../img/tt/307tt.jpg","null","mooney2","image-keyboard-response","291","899340","0.0-6.0-5.40","2435195","co39667","norming","","","","","","",""
"1619.7150000007823","","","post_reveal_questions","survey-likert","292","900962","0.0-6.0-6.40","2435195","co39667","norming","","","{""aha"":3}","[0]","../img/tt/307tt.jpg","",""
"null","<div style=""font-size:60px;""> </div>","null","fixation","html-keyboard-response","293","901171","0.0-6.0-0.41","2435195","co39667","norming","","","","","","",""
"null","../img/tt/1199tt.jpg","null","mooney1","image-keyboard-response","294","904175","0.0-6.0-1.41","2435195","co39667","norming","","","","","","",""
"6087.690000000293","","","post_mooney1_questions","survey-likert","295","910265","0.0-6.0-2.41","2435195","co39667","norming","","","{""curiosity"":4,""confidence"":1}","[0,1]","../img/tt/1199tt.jpg","",""
"2237.9700000000885","","","recognition","survey-text","296","912506","0.0-6.0-3.41","2435195","co39667","norming","","","{""guess"":""woman in church""}","","../img/tt/1199tt.jpg","",""
"null","../img/gs/1199gs.jpg","null","reveal","image-keyboard-response","297","914511","0.0-6.0-4.41","2435195","co39667","norming","","","","","","",""
"null","../img/tt/1199tt.jpg","null","mooney2","image-keyboard-response","298","916512","0.0-6.0-5.41","2435195","co39667","norming","","","","","","",""
"1432.9100000004983","","","post_reveal_questions","survey-likert","299","917946","0.0-6.0-6.41","2435195","co39667","norming","","","{""aha"":5}","[0]","../img/tt/1199tt.jpg","",""
"null","<div style=""font-size:60px;""> </div>","null","fixation","html-keyboard-response","300","918147","0.0-6.0-0.42","2435195","co39667","norming","","","","","","",""
"null","../img/tt/008tt.jpg","null","mooney1","image-keyboard-response","301","921149","0.0-6.0-1.42","2435195","co39667","norming","","","","","","",""
"4395.599999999744","","","post_mooney1_questions","survey-likert","302","925546","0.0-6.0-2.42","2435195","co39667","norming","","","{""curiosity"":5,""confidence"":1}","[0,1]","../img/tt/008tt.jpg","",""
"1565.8050000001676","","","recognition","survey-text","303","927113","0.0-6.0-3.42","2435195","co39667","norming","","","{""guess"":""wasp""}","","../img/tt/008tt.jpg","",""
"null","../img/gs/008gs.jpg","null","reveal","image-keyboard-response","304","929120","0.0-6.0-4.42","2435195","co39667","norming","","","","","","",""
"null","../img/tt/008tt.jpg","null","mooney2","image-keyboard-response","305","931122","0.0-6.0-5.42","2435195","co39667","norming","","","","","","",""
"2036.2150000000838","","","post_reveal_questions","survey-likert","306","933162","0.0-6.0-6.42","2435195","co39667","norming","","","{""aha"":5}","[0]","../img/tt/008tt.jpg","",""
"null","<div style=""font-size:60px;""> </div>","null","fixation","html-keyboard-response","307","933364","0.0-6.0-0.43","2435195","co39667","norming","","","","","","",""
"null","../img/tt/046tt.jpg","null","mooney1","image-keyboard-response","308","936367","0.0-6.0-1.43","2435195","co39667","norming","","","","","","",""
"5152.7200000000885","","","post_mooney1_questions","survey-likert","309","941522","0.0-6.0-2.43","2435195","co39667","norming","","","{""curiosity"":5,""confidence"":0}","[0,1]","../img/tt/046tt.jpg","",""
"3286.1149999998743","","","recognition","survey-text","310","944809","0.0-6.0-3.43","2435195","co39667","norming","","","{""guess"":""""}","","../img/tt/046tt.jpg","",""
"null","../img/gs/046gs.jpg","null","reveal","image-keyboard-response","311","946819","0.0-6.0-4.43","2435195","co39667","norming","","","","","","",""
"null","../img/tt/046tt.jpg","null","mooney2","image-keyboard-response","312","948830","0.0-6.0-5.43","2435195","co39667","norming","","","","","","",""
"1512.9100000003818","","","post_reveal_questions","survey-likert","313","950346","0.0-6.0-6.43","2435195","co39667","norming","","","{""aha"":5}","[0]","../img/tt/046tt.jpg","",""
"null","<div style=""font-size:60px;""> </div>","null","fixation","html-keyboard-response","314","950552","0.0-6.0-0.44","2435195","co39667","norming","","","","","","",""
"null","../img/tt/1024tt.jpg","null","mooney1","image-keyboard-response","315","953561","0.0-6.0-1.44","2435195","co39667","norming","","","","","","",""
"3015.0599999997066","","","post_mooney1_questions","survey-likert","316","956578","0.0-6.0-2.44","2435195","co39667","norming","","","{""curiosity"":4,""confidence"":2}","[0,1]","../img/tt/1024tt.jpg","",""
"3285.9850000004517","","","recognition","survey-text","317","959866","0.0-6.0-3.44","2435195","co39667","norming","","","{""guess"":""woman""}","","../img/tt/1024tt.jpg","",""
"null","../img/gs/1024gs.jpg","null","reveal","image-keyboard-response","318","961873","0.0-6.0-4.44","2435195","co39667","norming","","","","","","",""
"null","../img/tt/1024tt.jpg","null","mooney2","image-keyboard-response","319","963874","0.0-6.0-5.44","2435195","co39667","norming","","","","","","",""
"4005.264999999781","","","post_reveal_questions","survey-likert","320","967882","0.0-6.0-6.44","2435195","co39667","norming","","","{""aha"":5}","[0]","../img/tt/1024tt.jpg","",""
"null","<div style=""font-size:60px;""> </div>","null","fixation","html-keyboard-response","321","968087","0.0-6.0-0.45","2435195","co39667","norming","","","","","","",""
"null","../img/tt/353tt.jpg","null","mooney1","image-keyboard-response","322","971090","0.0-6.0-1.45","2435195","co39667","norming","","","","","","",""
"6004.730000000563","","","post_mooney1_questions","survey-likert","323","977098","0.0-6.0-2.45","2435195","co39667","norming","","","{""curiosity"":1,""confidence"":0}","[0,1]","../img/tt/353tt.jpg","",""
"1246.1899999998277","","","recognition","survey-text","324","978346","0.0-6.0-3.45","2435195","co39667","norming","","","{""guess"":""frog""}","","../img/tt/353tt.jpg","",""
"null","../img/gs/353gs.jpg","null","reveal","image-keyboard-response","325","980351","0.0-6.0-4.45","2435195","co39667","norming","","","","","","",""
"null","../img/tt/353tt.jpg","null","mooney2","image-keyboard-response","326","982353","0.0-6.0-5.45","2435195","co39667","norming","","","","","","",""
"2198.3249999993714","","","post_reveal_questions","survey-likert","327","984553","0.0-6.0-6.45","2435195","co39667","norming","","","{""aha"":4}","[0]","../img/tt/353tt.jpg","",""
"null","<div style=""font-size:60px;""> </div>","null","fixation","html-keyboard-response","328","984759","0.0-6.0-0.46","2435195","co39667","norming","","","","","","",""
"null","../img/tt/032tt.jpg","null","mooney1","image-keyboard-response","329","987761","0.0-6.0-1.46","2435195","co39667","norming","","","","","","",""
"2198.489999999758","","","post_mooney1_questions","survey-likert","330","989962","0.0-6.0-2.46","2435195","co39667","norming","","","{""curiosity"":5,""confidence"":1}","[0,1]","../img/tt/032tt.jpg","",""
"1374.3000000003958","","","recognition","survey-text","331","991338","0.0-6.0-3.46","2435195","co39667","norming","","","{""guess"":""panda""}","","../img/tt/032tt.jpg","",""
"null","../img/gs/032gs.jpg","null","reveal","image-keyboard-response","332","993347","0.0-6.0-4.46","2435195","co39667","norming","","","","","","",""
"null","../img/tt/032tt.jpg","null","mooney2","image-keyboard-response","333","995349","0.0-6.0-5.46","2435195","co39667","norming","","","","","","",""
"2050.030000000377","","","post_reveal_questions","survey-likert","334","997401","0.0-6.0-6.46","2435195","co39667","norming","","","{""aha"":5}","[0]","../img/tt/032tt.jpg","",""
"null","<div style=""font-size:60px;""> </div>","null","fixation","html-keyboard-response","335","997603","0.0-6.0-0.47","2435195","co39667","norming","","","","","","",""
"null","../img/tt/001tt.jpg","null","mooney1","image-keyboard-response","336","1000611","0.0-6.0-1.47","2435195","co39667","norming","","","","","","",""
"4876.219999999274","","","post_mooney1_questions","survey-likert","337","1005493","0.0-6.0-2.47","2435195","co39667","norming","","","{""curiosity"":4,""confidence"":0}","[0,1]","../img/tt/001tt.jpg","",""
"2037.744999999646","","","recognition","survey-text","338","1007533","0.0-6.0-3.47","2435195","co39667","norming","","","{""guess"":""peacock""}","","../img/tt/001tt.jpg","",""
"null","../img/gs/001gs.jpg","null","reveal","image-keyboard-response","339","1009541","0.0-6.0-4.47","2435195","co39667","norming","","","","","","",""
"null","../img/tt/001tt.jpg","null","mooney2","image-keyboard-response","340","1011543","0.0-6.0-5.47","2435195","co39667","norming","","","","","","",""
"1403.405000000028","","","post_reveal_questions","survey-likert","341","1012949","0.0-6.0-6.47","2435195","co39667","norming","","","{""aha"":5}","[0]","../img/tt/001tt.jpg","",""
"null","<div style=""font-size:60px;""> </div>","null","fixation","html-keyboard-response","342","1013153","0.0-6.0-0.48","2435195","co39667","norming","","","","","","",""
"null","../img/tt/380tt.jpg","null","mooney1","image-keyboard-response","343","1016156","0.0-6.0-1.48","2435195","co39667","norming","","","","","","",""
"3933.7200000000885","","","post_mooney1_questions","survey-likert","344","1020093","0.0-6.0-2.48","2435195","co39667","norming","","","{""curiosity"":4,""confidence"":0}","[0,1]","../img/tt/380tt.jpg","",""
"726.1749999998137","","","recognition","survey-text","345","1020820","0.0-6.0-3.48","2435195","co39667","norming","","","{""guess"":""""}","","../img/tt/380tt.jpg","",""
"null","../img/gs/380gs.jpg","null","reveal","image-keyboard-response","346","1022829","0.0-6.0-4.48","2435195","co39667","norming","","","","","","",""
"null","../img/tt/380tt.jpg","null","mooney2","image-keyboard-response","347","1024832","0.0-6.0-5.48","2435195","co39667","norming","","","","","","",""
"1922.7350000001024","","","post_reveal_questions","survey-likert","348","1026757","0.0-6.0-6.48","2435195","co39667","norming","","","{""aha"":5}","[0]","../img/tt/380tt.jpg","",""
"null","<div style=""font-size:60px;""> </div>","null","fixation","html-keyboard-response","349","1026967","0.0-6.0-0.49","2435195","co39667","norming","","","","","","",""
"null","../img/tt/1107tt.jpg","null","mooney1","image-keyboard-response","350","1029977","0.0-6.0-1.49","2435195","co39667","norming","","","","","","",""
"4489.174999999697","","","post_mooney1_questions","survey-likert","351","1034469","0.0-6.0-2.49","2435195","co39667","norming","","","{""curiosity"":3,""confidence"":5}","[0,1]","../img/tt/1107tt.jpg","",""
"1366.08499999973","","","recognition","survey-text","352","1035837","0.0-6.0-3.49","2435195","co39667","norming","","","{""guess"":""kitten""}","","../img/tt/1107tt.jpg","",""
"null","../img/gs/1107gs.jpg","null","reveal","image-keyboard-response","353","1037838","0.0-6.0-4.49","2435195","co39667","norming","","","","","","",""
"null","../img/tt/1107tt.jpg","null","mooney2","image-keyboard-response","354","1039840","0.0-6.0-5.49","2435195","co39667","norming","","","","","","",""
"1721.254999999539","","","post_reveal_questions","survey-likert","355","1041565","0.0-6.0-6.49","2435195","co39667","norming","","","{""aha"":0}","[0]","../img/tt/1107tt.jpg","",""
"null","<div style=""font-size:60px;""> </div>","null","fixation","html-keyboard-response","356","1041772","0.0-6.0-0.50","2435195","co39667","norming","","","","","","",""
"null","../img/tt/084tt.jpg","null","mooney1","image-keyboard-response","357","1044775","0.0-6.0-1.50","2435195","co39667","norming","","","","","","",""
"3250.924999999348","","","post_mooney1_questions","survey-likert","358","1048029","0.0-6.0-2.50","2435195","co39667","norming","","","{""curiosity"":4,""confidence"":3}","[0,1]","../img/tt/084tt.jpg","",""
"1262.1849999995902","","","recognition","survey-text","359","1049293","0.0-6.0-3.50","2435195","co39667","norming","","","{""guess"":""duck""}","","../img/tt/084tt.jpg","",""
"null","../img/gs/084gs.jpg","null","reveal","image-keyboard-response","360","1051299","0.0-6.0-4.50","2435195","co39667","norming","","","","","","",""
"null","../img/tt/084tt.jpg","null","mooney2","image-keyboard-response","361","1053310","0.0-6.0-5.50","2435195","co39667","norming","","","","","","",""
"1844.2250000007916","","","post_reveal_questions","survey-likert","362","1055157","0.0-6.0-6.50","2435195","co39667","norming","","","{""aha"":0}","[0]","../img/tt/084tt.jpg","",""
"null","<div style=""font-size:60px;""> </div>","null","fixation","html-keyboard-response","363","1055358","0.0-6.0-0.51","2435195","co39667","norming","","","","","","",""
"null","../img/tt/468tt.jpg","null","mooney1","image-keyboard-response","364","1058362","0.0-6.0-1.51","2435195","co39667","norming","","","","","","",""
"4664.969999999739","","","post_mooney1_questions","survey-likert","365","1063029","0.0-6.0-2.51","2435195","co39667","norming","","","{""curiosity"":5,""confidence"":1}","[0,1]","../img/tt/468tt.jpg","",""
"3638.1949999995995","","","recognition","survey-text","366","1066668","0.0-6.0-3.51","2435195","co39667","norming","","","{""guess"":""birds""}","","../img/tt/468tt.jpg","",""
"null","../img/gs/468gs.jpg","null","reveal","image-keyboard-response","367","1068676","0.0-6.0-4.51","2435195","co39667","norming","","","","","","",""
"null","../img/tt/468tt.jpg","null","mooney2","image-keyboard-response","368","1070685","0.0-6.0-5.51","2435195","co39667","norming","","","","","","",""
"2012.2000000001863","","","post_reveal_questions","survey-likert","369","1072700","0.0-6.0-6.51","2435195","co39667","norming","","","{""aha"":6}","[0]","../img/tt/468tt.jpg","",""
"null","<div style=""font-size:60px;""> </div>","null","fixation","html-keyboard-response","370","1072901","0.0-6.0-0.52","2435195","co39667","norming","","","","","","",""
"null","../img/tt/567tt.jpg","null","mooney1","image-keyboard-response","371","1075912","0.0-6.0-1.52","2435195","co39667","norming","","","","","","",""
"5824.739999999991","","","post_mooney1_questions","survey-likert","372","1081740","0.0-6.0-2.52","2435195","co39667","norming","","","{""curiosity"":0,""confidence"":0}","[0,1]","../img/tt/567tt.jpg","",""
"990.0299999997951","","","recognition","survey-text","373","1082732","0.0-6.0-3.52","2435195","co39667","norming","","","{""guess"":""""}","","../img/tt/567tt.jpg","",""
"null","../img/gs/567gs.jpg","null","reveal","image-keyboard-response","374","1084740","0.0-6.0-4.52","2435195","co39667","norming","","","","","","",""
"null","../img/tt/567tt.jpg","null","mooney2","image-keyboard-response","375","1086745","0.0-6.0-5.52","2435195","co39667","norming","","","","","","",""
"2456.3050000006333","","","post_reveal_questions","survey-likert","376","1089204","0.0-6.0-6.52","2435195","co39667","norming","","","{""aha"":0}","[0]","../img/tt/567tt.jpg","",""
"null","<div style=""font-size:60px;""> </div>","null","fixation","html-keyboard-response","377","1089408","0.0-6.0-0.53","2435195","co39667","norming","","","","","","",""
"null","../img/tt/559tt.jpg","null","mooney1","image-keyboard-response","378","1092410","0.0-6.0-1.53","2435195","co39667","norming","","","","","","",""
"4678.874999999534","","","post_mooney1_questions","survey-likert","379","1097092","0.0-6.0-2.53","2435195","co39667","norming","","","{""curiosity"":4,""confidence"":1}","[0,1]","../img/tt/559tt.jpg","",""
"2534.125000000233","","","recognition","survey-text","380","1099628","0.0-6.0-3.53","2435195","co39667","norming","","","{""guess"":""sewing machine""}","","../img/tt/559tt.jpg","",""
"null","../img/gs/559gs.jpg","null","reveal","image-keyboard-response","381","1101639","0.0-6.0-4.53","2435195","co39667","norming","","","","","","",""
"null","../img/tt/559tt.jpg","null","mooney2","image-keyboard-response","382","1103642","0.0-6.0-5.53","2435195","co39667","norming","","","","","","",""
"2503.7350000003353","","","post_reveal_questions","survey-likert","383","1106148","0.0-6.0-6.53","2435195","co39667","norming","","","{""aha"":4}","[0]","../img/tt/559tt.jpg","",""
"null","<div style=""font-size:60px;""> </div>","null","fixation","html-keyboard-response","384","1106350","0.0-6.0-0.54","2435195","co39667","norming","","","","","","",""
"null","../img/tt/1097tt.jpg","null","mooney1","image-keyboard-response","385","1109359","0.0-6.0-1.54","2435195","co39667","norming","","","","","","",""
"4913.8549999997485","","","post_mooney1_questions","survey-likert","386","1114276","0.0-6.0-2.54","2435195","co39667","norming","","","{""curiosity"":2,""confidence"":5}","[0,1]","../img/tt/1097tt.jpg","",""
"2470.3449999997392","","","recognition","survey-text","387","1116748","0.0-6.0-3.54","2435195","co39667","norming","","","{""guess"":""man paddling""}","","../img/tt/1097tt.jpg","",""
"null","../img/gs/1097gs.jpg","null","reveal","image-keyboard-response","388","1118751","0.0-6.0-4.54","2435195","co39667","norming","","","","","","",""
"null","../img/tt/1097tt.jpg","null","mooney2","image-keyboard-response","389","1120754","0.0-6.0-5.54","2435195","co39667","norming","","","","","","",""
"1799.9300000001676","","","post_reveal_questions","survey-likert","390","1122556","0.0-6.0-6.54","2435195","co39667","norming","","","{""aha"":0}","[0]","../img/tt/1097tt.jpg","",""
"null","<div style=""font-size:60px;""> </div>","null","fixation","html-keyboard-response","391","1122767","0.0-6.0-0.55","2435195","co39667","norming","","","","","","",""
"null","../img/tt/1211tt.jpg","null","mooney1","image-keyboard-response","392","1125770","0.0-6.0-1.55","2435195","co39667","norming","","","","","","",""
"3807.0650000008754","","","post_mooney1_questions","survey-likert","393","1129577","0.0-6.0-2.55","2435195","co39667","norming","","","{""curiosity"":4,""confidence"":0}","[0,1]","../img/tt/1211tt.jpg","",""
"854.1300000008196","","","recognition","survey-text","394","1130433","0.0-6.0-3.55","2435195","co39667","norming","","","{""guess"":""""}","","../img/tt/1211tt.jpg","",""
"null","../img/gs/1211gs.jpg","null","reveal","image-keyboard-response","395","1132438","0.0-6.0-4.55","2435195","co39667","norming","","","","","","",""
"null","../img/tt/1211tt.jpg","null","mooney2","image-keyboard-response","396","1134439","0.0-6.0-5.55","2435195","co39667","norming","","","","","","",""
"1830.8999999999069","","","post_reveal_questions","survey-likert","397","1136273","0.0-6.0-6.55","2435195","co39667","norming","","","{""aha"":5}","[0]","../img/tt/1211tt.jpg","",""
"null","<div style=""font-size:60px;""> </div>","null","fixation","html-keyboard-response","398","1136477","0.0-6.0-0.56","2435195","co39667","norming","","","","","","",""
"null","../img/tt/076tt.jpg","null","mooney1","image-keyboard-response","399","1139479","0.0-6.0-1.56","2435195","co39667","norming","","","","","","",""
"1822.639999999432","","","post_mooney1_questions","survey-likert","400","1141305","0.0-6.0-2.56","2435195","co39667","norming","","","{""curiosity"":2,""confidence"":4}","[0,1]","../img/tt/076tt.jpg","",""
"2206.2799999993294","","","recognition","survey-text","401","1143513","0.0-6.0-3.56","2435195","co39667","norming","","","{""guess"":""roller blades""}","","../img/tt/076tt.jpg","",""
"null","../img/gs/076gs.jpg","null","reveal","image-keyboard-response","402","1145514","0.0-6.0-4.56","2435195","co39667","norming","","","","","","",""
"null","../img/tt/076tt.jpg","null","mooney2","image-keyboard-response","403","1147526","0.0-6.0-5.56","2435195","co39667","norming","","","","","","",""
"3560.590000000084","","","post_reveal_questions","survey-likert","404","1151089","0.0-6.0-6.56","2435195","co39667","norming","","","{""aha"":0}","[0]","../img/tt/076tt.jpg","",""
"null","<div style=""font-size:60px;""> </div>","null","fixation","html-keyboard-response","405","1151296","0.0-6.0-0.57","2435195","co39667","norming","","","","","","",""
"null","../img/tt/140tt.jpg","null","mooney1","image-keyboard-response","406","1154307","0.0-6.0-1.57","2435195","co39667","norming","","","","","","",""
"3557.0899999993853","","","post_mooney1_questions","survey-likert","407","1157865","0.0-6.0-2.57","2435195","co39667","norming","","","{""curiosity"":0,""confidence"":6}","[0,1]","../img/tt/140tt.jpg","",""
"2078.2899999995716","","","recognition","survey-text","408","1159945","0.0-6.0-3.57","2435195","co39667","norming","","","{""guess"":""two forks""}","","../img/tt/140tt.jpg","",""
"null","../img/gs/140gs.jpg","null","reveal","image-keyboard-response","409","1161951","0.0-6.0-4.57","2435195","co39667","norming","","","","","","",""
"null","../img/tt/140tt.jpg","null","mooney2","image-keyboard-response","410","1163952","0.0-6.0-5.57","2435195","co39667","norming","","","","","","",""
"2894.405000000028","","","post_reveal_questions","survey-likert","411","1166849","0.0-6.0-6.57","2435195","co39667","norming","","","{""aha"":0}","[0]","../img/tt/140tt.jpg","",""
"null","<div style=""font-size:60px;""> </div>","null","fixation","html-keyboard-response","412","1167050","0.0-6.0-0.58","2435195","co39667","norming","","","","","","",""
"null","../img/tt/580tt.jpg","null","mooney1","image-keyboard-response","413","1170053","0.0-6.0-1.58","2435195","co39667","norming","","","","","","",""
"6009.305000000633","","","post_mooney1_questions","survey-likert","414","1176065","0.0-6.0-2.58","2435195","co39667","norming","","","{""curiosity"":4,""confidence"":1}","[0,1]","../img/tt/580tt.jpg","",""
"1685.8149999997113","","","recognition","survey-text","415","1177753","0.0-6.0-3.58","2435195","co39667","norming","","","{""guess"":""flowersd""}","","../img/tt/580tt.jpg","",""
"null","../img/gs/580gs.jpg","null","reveal","image-keyboard-response","416","1179760","0.0-6.0-4.58","2435195","co39667","norming","","","","","","",""
"null","../img/tt/580tt.jpg","null","mooney2","image-keyboard-response","417","1181768","0.0-6.0-5.58","2435195","co39667","norming","","","","","","",""
"1286.769999999553","","","post_reveal_questions","survey-likert","418","1183057","0.0-6.0-6.58","2435195","co39667","norming","","","{""aha"":5}","[0]","../img/tt/580tt.jpg","",""
"null","<div style=""font-size:60px;""> </div>","null","fixation","html-keyboard-response","419","1183263","0.0-6.0-0.59","2435195","co39667","norming","","","","","","",""
"null","../img/tt/010tt.jpg","null","mooney1","image-keyboard-response","420","1186268","0.0-6.0-1.59","2435195","co39667","norming","","","","","","",""
"3292.0500000000466","","","post_mooney1_questions","survey-likert","421","1189566","0.0-6.0-2.59","2435195","co39667","norming","","","{""curiosity"":5,""confidence"":1}","[0,1]","../img/tt/010tt.jpg","",""
"1238.209999999497","","","recognition","survey-text","422","1190806","0.0-6.0-3.59","2435195","co39667","norming","","","{""guess"":""bat""}","","../img/tt/010tt.jpg","",""
"null","../img/gs/010gs.jpg","null","reveal","image-keyboard-response","423","1192816","0.0-6.0-4.59","2435195","co39667","norming","","","","","","",""
"null","../img/tt/010tt.jpg","null","mooney2","image-keyboard-response","424","1194820","0.0-6.0-5.59","2435195","co39667","norming","","","","","","",""
"1831.774999999674","","","post_reveal_questions","survey-likert","425","1196654","0.0-6.0-6.59","2435195","co39667","norming","","","{""aha"":5}","[0]","../img/tt/010tt.jpg","",""
"null","<div style=""font-size:60px;""> </div>","null","fixation","html-keyboard-response","426","1196860","0.0-6.0-0.60","2435195","co39667","norming","","","","","","",""
"null","../img/tt/438tt.jpg","null","mooney1","image-keyboard-response","427","1199865","0.0-6.0-1.60","2435195","co39667","norming","","","","","","",""
"5985.810000000056","","","post_mooney1_questions","survey-likert","428","1205854","0.0-6.0-2.60","2435195","co39667","norming","","","{""curiosity"":4,""confidence"":1}","[0,1]","../img/tt/438tt.jpg","",""
"2141.810000000056","","","recognition","survey-text","429","1207998","0.0-6.0-3.60","2435195","co39667","norming","","","{""guess"":""duck""}","","../img/tt/438tt.jpg","",""
"null","../img/gs/438gs.jpg","null","reveal","image-keyboard-response","430","1210004","0.0-6.0-4.60","2435195","co39667","norming","","","","","","",""
"null","../img/tt/438tt.jpg","null","mooney2","image-keyboard-response","431","1212015","0.0-6.0-5.60","2435195","co39667","norming","","","","","","",""
"2500.635000000242","","","post_reveal_questions","survey-likert","432","1214518","0.0-6.0-6.60","2435195","co39667","norming","","","{""aha"":5}","[0]","../img/tt/438tt.jpg","",""
"null","<div style=""font-size:60px;""> </div>","null","fixation","html-keyboard-response","433","1214726","0.0-6.0-0.61","2435195","co39667","norming","","","","","","",""
"null","../img/tt/1279tt.jpg","null","mooney1","image-keyboard-response","434","1217734","0.0-6.0-1.61","2435195","co39667","norming","","","","","","",""
"3301.075000000419","","","post_mooney1_questions","survey-likert","435","1221038","0.0-6.0-2.61","2435195","co39667","norming","","","{""curiosity"":5,""confidence"":1}","[0,1]","../img/tt/1279tt.jpg","",""
"1518.0599999993574","","","recognition","survey-text","436","1222558","0.0-6.0-3.61","2435195","co39667","norming","","","{""guess"":""wolf""}","","../img/tt/1279tt.jpg","",""
"null","../img/gs/1279gs.jpg","null","reveal","image-keyboard-response","437","1224566","0.0-6.0-4.61","2435195","co39667","norming","","","","","","",""
"null","../img/tt/1279tt.jpg","null","mooney2","image-keyboard-response","438","1226568","0.0-6.0-5.61","2435195","co39667","norming","","","","","","",""
"1947.285000000149","","","post_reveal_questions","survey-likert","439","1228518","0.0-6.0-6.61","2435195","co39667","norming","","","{""aha"":5}","[0]","../img/tt/1279tt.jpg","",""
"null","<div style=""font-size:60px;""> </div>","null","fixation","html-keyboard-response","440","1228719","0.0-6.0-0.62","2435195","co39667","norming","","","","","","",""
"null","../img/tt/497tt.jpg","null","mooney1","image-keyboard-response","441","1231730","0.0-6.0-1.62","2435195","co39667","norming","","","","","","",""
"3168.630000000354","","","post_mooney1_questions","survey-likert","442","1234902","0.0-6.0-2.62","2435195","co39667","norming","","","{""curiosity"":5,""confidence"":1}","[0,1]","../img/tt/497tt.jpg","",""
"1702.1050000002142","","","recognition","survey-text","443","1236606","0.0-6.0-3.62","2435195","co39667","norming","","","{""guess"":""violin""}","","../img/tt/497tt.jpg","",""
"null","../img/gs/497gs.jpg","null","reveal","image-keyboard-response","444","1238611","0.0-6.0-4.62","2435195","co39667","norming","","","","","","",""
"null","../img/tt/497tt.jpg","null","mooney2","image-keyboard-response","445","1240613","0.0-6.0-5.62","2435195","co39667","norming","","","","","","",""
"2206.9600000004284","","","post_reveal_questions","survey-likert","446","1242822","0.0-6.0-6.62","2435195","co39667","norming","","","{""aha"":5}","[0]","../img/tt/497tt.jpg","",""
"null","<div style=""font-size:60px;""> </div>","null","fixation","html-keyboard-response","447","1243026","0.0-6.0-0.63","2435195","co39667","norming","","","","","","",""
"null","../img/tt/436tt.jpg","null","mooney1","image-keyboard-response","448","1246037","0.0-6.0-1.63","2435195","co39667","norming","","","","","","",""
"3454.1150000004563","","","post_mooney1_questions","survey-likert","449","1249486","0.0-6.0-2.63","2435195","co39667","norming","","","{""curiosity"":1,""confidence"":4}","[0,1]","../img/tt/436tt.jpg","",""
"2406.2199999997392","","","recognition","survey-text","450","1251894","0.0-6.0-3.63","2435195","co39667","norming","","","{""guess"":""reptillian""}","","../img/tt/436tt.jpg","",""
"null","../img/gs/436gs.jpg","null","reveal","image-keyboard-response","451","1253904","0.0-6.0-4.63","2435195","co39667","norming","","","","","","",""
"null","../img/tt/436tt.jpg","null","mooney2","image-keyboard-response","452","1255914","0.0-6.0-5.63","2435195","co39667","norming","","","","","","",""
"3017.4399999994785","","","post_reveal_questions","survey-likert","453","1258934","0.0-6.0-6.63","2435195","co39667","norming","","","{""aha"":0}","[0]","../img/tt/436tt.jpg","",""
"null","<div style=""font-size:60px;""> </div>","null","fixation","html-keyboard-response","454","1259136","0.0-6.0-0.64","2435195","co39667","norming","","","","","","",""
"null","../img/tt/1096tt.jpg","null","mooney1","image-keyboard-response","455","1262148","0.0-6.0-1.64","2435195","co39667","norming","","","","","","",""
"4110.305000000168","","","post_mooney1_questions","survey-likert","456","1266262","0.0-6.0-2.64","2435195","co39667","norming","","","{""curiosity"":5,""confidence"":1}","[0,1]","../img/tt/1096tt.jpg","",""
"1694.1100000003353","","","recognition","survey-text","457","1267958","0.0-6.0-3.64","2435195","co39667","norming","","","{""guess"":""moose""}","","../img/tt/1096tt.jpg","",""
"null","../img/gs/1096gs.jpg","null","reveal","image-keyboard-response","458","1269964","0.0-6.0-4.64","2435195","co39667","norming","","","","","","",""
"null","../img/tt/1096tt.jpg","null","mooney2","image-keyboard-response","459","1271967","0.0-6.0-5.64","2435195","co39667","norming","","","","","","",""
"2893.0799999998417","","","post_reveal_questions","survey-likert","460","1274862","0.0-6.0-6.64","2435195","co39667","norming","","","{""aha"":5}","[0]","../img/tt/1096tt.jpg","",""
"null","<div style=""font-size:60px;""> </div>","null","fixation","html-keyboard-response","461","1275066","0.0-6.0-0.65","2435195","co39667","norming","","","","","","",""
"null","../img/tt/496tt.jpg","null","mooney1","image-keyboard-response","462","1278070","0.0-6.0-1.65","2435195","co39667","norming","","","","","","",""
"2549.1750000002794","","","post_mooney1_questions","survey-likert","463","1280622","0.0-6.0-2.65","2435195","co39667","norming","","","{""curiosity"":4,""confidence"":0}","[0,1]","../img/tt/496tt.jpg","",""
"662.0299999995623","","","recognition","survey-text","464","1281286","0.0-6.0-3.65","2435195","co39667","norming","","","{""guess"":""""}","","../img/tt/496tt.jpg","",""
"null","../img/gs/496gs.jpg","null","reveal","image-keyboard-response","465","1283289","0.0-6.0-4.65","2435195","co39667","norming","","","","","","",""
"null","../img/tt/496tt.jpg","null","mooney2","image-keyboard-response","466","1285291","0.0-6.0-5.65","2435195","co39667","norming","","","","","","",""
"2935.859999999637","","","post_reveal_questions","survey-likert","467","1288230","0.0-6.0-6.65","2435195","co39667","norming","","","{""aha"":4}","[0]","../img/tt/496tt.jpg","",""
"null","<div style=""font-size:60px;""> </div>","null","fixation","html-keyboard-response","468","1288432","0.0-6.0-0.66","2435195","co39667","norming","","","","","","",""
"null","../img/tt/584tt.jpg","null","mooney1","image-keyboard-response","469","1291443","0.0-6.0-1.66","2435195","co39667","norming","","","","","","",""
"7007.829999999609","","","post_mooney1_questions","survey-likert","470","1298454","0.0-6.0-2.66","2435195","co39667","norming","","","{""curiosity"":4,""confidence"":5}","[0,1]","../img/tt/584tt.jpg","",""
"1885.7249999991618","","","recognition","survey-text","471","1300342","0.0-6.0-3.66","2435195","co39667","norming","","","{""guess"":""tools""}","","../img/tt/584tt.jpg","",""
"null","../img/gs/584gs.jpg","null","reveal","image-keyboard-response","472","1302348","0.0-6.0-4.66","2435195","co39667","norming","","","","","","",""
"null","../img/tt/584tt.jpg","null","mooney2","image-keyboard-response","473","1304349","0.0-6.0-5.66","2435195","co39667","norming","","","","","","",""
"1951.8300000000745","","","post_reveal_questions","survey-likert","474","1306302","0.0-6.0-6.66","2435195","co39667","norming","","","{""aha"":1}","[0]","../img/tt/584tt.jpg","",""
"null","<div style=""font-size:60px;""> </div>","null","fixation","html-keyboard-response","475","1306504","0.0-6.0-0.67","2435195","co39667","norming","","","","","","",""
"null","../img/tt/118tt.jpg","null","mooney1","image-keyboard-response","476","1309516","0.0-6.0-1.67","2435195","co39667","norming","","","","","","",""
"4615.860000000102","","","post_mooney1_questions","survey-likert","477","1314135","0.0-6.0-2.67","2435195","co39667","norming","","","{""curiosity"":5,""confidence"":0}","[0,1]","../img/tt/118tt.jpg","",""
"622.0400000002701","","","recognition","survey-text","478","1314759","0.0-6.0-3.67","2435195","co39667","norming","","","{""guess"":""""}","","../img/tt/118tt.jpg","",""
"null","../img/gs/118gs.jpg","null","reveal","image-keyboard-response","479","1316762","0.0-6.0-4.67","2435195","co39667","norming","","","","","","",""
"null","../img/tt/118tt.jpg","null","mooney2","image-keyboard-response","480","1318768","0.0-6.0-5.67","2435195","co39667","norming","","","","","","",""
"1413.1200000001118","","","post_reveal_questions","survey-likert","481","1320183","0.0-6.0-6.67","2435195","co39667","norming","","","{""aha"":2}","[0]","../img/tt/118tt.jpg","",""
"null","<div style=""font-size:60px;""> </div>","null","fixation","html-keyboard-response","482","1320388","0.0-6.0-0.68","2435195","co39667","norming","","","","","","",""
"null","../img/tt/1362tt.jpg","null","mooney1","image-keyboard-response","483","1323396","0.0-6.0-1.68","2435195","co39667","norming","","","","","","",""
"3768.179999999935","","","post_mooney1_questions","survey-likert","484","1327167","0.0-6.0-2.68","2435195","co39667","norming","","","{""curiosity"":1,""confidence"":0}","[0,1]","../img/tt/1362tt.jpg","",""
"621.6899999999441","","","recognition","survey-text","485","1327791","0.0-6.0-3.68","2435195","co39667","norming","","","{""guess"":""""}","","../img/tt/1362tt.jpg","",""
"null","../img/gs/1362gs.jpg","null","reveal","image-keyboard-response","486","1329801","0.0-6.0-4.68","2435195","co39667","norming","","","","","","",""
"null","../img/tt/1362tt.jpg","null","mooney2","image-keyboard-response","487","1331810","0.0-6.0-5.68","2435195","co39667","norming","","","","","","",""
"1715.024999999674","","","post_reveal_questions","survey-likert","488","1333527","0.0-6.0-6.68","2435195","co39667","norming","","","{""aha"":1}","[0]","../img/tt/1362tt.jpg","",""
"null","<div style=""font-size:60px;""> </div>","null","fixation","html-keyboard-response","489","1333733","0.0-6.0-0.69","2435195","co39667","norming","","","","","","",""
"null","../img/tt/442tt.jpg","null","mooney1","image-keyboard-response","490","1336740","0.0-6.0-1.69","2435195","co39667","norming","","","","","","",""
"4104.449999999721","","","post_mooney1_questions","survey-likert","491","1340847","0.0-6.0-2.69","2435195","co39667","norming","","","{""curiosity"":4,""confidence"":1}","[0,1]","../img/tt/442tt.jpg","",""
"1806.079999999376","","","recognition","survey-text","492","1342655","0.0-6.0-3.69","2435195","co39667","norming","","","{""guess"":""leopard""}","","../img/tt/442tt.jpg","",""
"null","../img/gs/442gs.jpg","null","reveal","image-keyboard-response","493","1344657","0.0-6.0-4.69","2435195","co39667","norming","","","","","","",""
"null","../img/tt/442tt.jpg","null","mooney2","image-keyboard-response","494","1346659","0.0-6.0-5.69","2435195","co39667","norming","","","","","","",""
"4153.780000000494","","","post_reveal_questions","survey-likert","495","1350816","0.0-6.0-6.69","2435195","co39667","norming","","","{""aha"":5}","[0]","../img/tt/442tt.jpg","",""
"null","<div style=""font-size:60px;""> </div>","null","fixation","html-keyboard-response","496","1351026","0.0-6.0-0.70","2435195","co39667","norming","","","","","","",""
"null","../img/tt/1261tt.jpg","null","mooney1","image-keyboard-response","497","1354038","0.0-6.0-1.70","2435195","co39667","norming","","","","","","",""
"9214.05499999947","","","post_mooney1_questions","survey-likert","498","1363256","0.0-6.0-2.70","2435195","co39667","norming","","","{""curiosity"":4,""confidence"":1}","[0,1]","../img/tt/1261tt.jpg","",""
"1766.0200000000186","","","recognition","survey-text","499","1365023","0.0-6.0-3.70","2435195","co39667","norming","","","{""guess"":""cactus""}","","../img/tt/1261tt.jpg","",""
"null","../img/gs/1261gs.jpg","null","reveal","image-keyboard-response","500","1367031","0.0-6.0-4.70","2435195","co39667","norming","","","","","","",""
"null","../img/tt/1261tt.jpg","null","mooney2","image-keyboard-response","501","1369040","0.0-6.0-5.70","2435195","co39667","norming","","","","","","",""
"4069.3899999996647","","","post_reveal_questions","survey-likert","502","1373112","0.0-6.0-6.70","2435195","co39667","norming","","","{""aha"":3}","[0]","../img/tt/1261tt.jpg","",""
"null","<div style=""font-size:60px;""> </div>","null","fixation","html-keyboard-response","503","1373317","0.0-6.0-0.71","2435195","co39667","norming","","","","","","",""
"null","../img/tt/060tt.jpg","null","mooney1","image-keyboard-response","504","1376320","0.0-6.0-1.71","2435195","co39667","norming","","","","","","",""
"4343.135000000242","","","post_mooney1_questions","survey-likert","505","1380664","0.0-6.0-2.71","2435195","co39667","norming","","","{""curiosity"":2,""confidence"":0}","[0,1]","../img/tt/060tt.jpg","",""
"1389.6649999998044","","","recognition","survey-text","506","1382056","0.0-6.0-3.71","2435195","co39667","norming","","","{""guess"":""""}","","../img/tt/060tt.jpg","",""
"null","../img/gs/060gs.jpg","null","reveal","image-keyboard-response","507","1384058","0.0-6.0-4.71","2435195","co39667","norming","","","","","","",""
"null","../img/tt/060tt.jpg","null","mooney2","image-keyboard-response","508","1386061","0.0-6.0-5.71","2435195","co39667","norming","","","","","","",""
"2824.564999999944","","","post_reveal_questions","survey-likert","509","1388888","0.0-6.0-6.71","2435195","co39667","norming","","","{""aha"":3}","[0]","../img/tt/060tt.jpg","",""
"null","<div style=""font-size:60px;""> </div>","null","fixation","html-keyboard-response","510","1389094","0.0-6.0-0.72","2435195","co39667","norming","","","","","","",""
"null","../img/tt/406tt.jpg","null","mooney1","image-keyboard-response","511","1392100","0.0-6.0-1.72","2435195","co39667","norming","","","","","","",""
"3545.0649999992456","","","post_mooney1_questions","survey-likert","512","1395648","0.0-6.0-2.72","2435195","co39667","norming","","","{""curiosity"":3,""confidence"":1}","[0,1]","../img/tt/406tt.jpg","",""
"1237.7849999992177","","","recognition","survey-text","513","1396888","0.0-6.0-3.72","2435195","co39667","norming","","","{""guess"":""tent""}","","../img/tt/406tt.jpg","",""
"null","../img/gs/406gs.jpg","null","reveal","image-keyboard-response","514","1398892","0.0-6.0-4.72","2435195","co39667","norming","","","","","","",""
"null","../img/tt/406tt.jpg","null","mooney2","image-keyboard-response","515","1400895","0.0-6.0-5.72","2435195","co39667","norming","","","","","","",""
"2207.0600000005215","","","post_reveal_questions","survey-likert","516","1403104","0.0-6.0-6.72","2435195","co39667","norming","","","{""aha"":3}","[0]","../img/tt/406tt.jpg","",""
"null","<div style=""font-size:60px;""> </div>","null","fixation","html-keyboard-response","517","1403309","0.0-6.0-0.73","2435195","co39667","norming","","","","","","",""
"null","../img/tt/1262tt.jpg","null","mooney1","image-keyboard-response","518","1406319","0.0-6.0-1.73","2435195","co39667","norming","","","","","","",""
"2240.350000000093","","","post_mooney1_questions","survey-likert","519","1408560","0.0-6.0-2.73","2435195","co39667","norming","","","{""curiosity"":5,""confidence"":1}","[0,1]","../img/tt/1262tt.jpg","",""
"2094.2249999998603","","","recognition","survey-text","520","1410656","0.0-6.0-3.73","2435195","co39667","norming","","","{""guess"":""dragon""}","","../img/tt/1262tt.jpg","",""
"null","../img/gs/1262gs.jpg","null","reveal","image-keyboard-response","521","1412660","0.0-6.0-4.73","2435195","co39667","norming","","","","","","",""
"null","../img/tt/1262tt.jpg","null","mooney2","image-keyboard-response","522","1414663","0.0-6.0-5.73","2435195","co39667","norming","","","","","","",""
"2470.955000000773","","","post_reveal_questions","survey-likert","523","1417136","0.0-6.0-6.73","2435195","co39667","norming","","","{""aha"":2}","[0]","../img/tt/1262tt.jpg","",""
"null","<div style=""font-size:60px;""> </div>","null","fixation","html-keyboard-response","524","1417341","0.0-6.0-0.74","2435195","co39667","norming","","","","","","",""
"null","../img/tt/1053tt.jpg","null","mooney1","image-keyboard-response","525","1420347","0.0-6.0-1.74","2435195","co39667","norming","","","","","","",""
"6827.945000000065","","","post_mooney1_questions","survey-likert","526","1427177","0.0-6.0-2.74","2435195","co39667","norming","","","{""curiosity"":5,""confidence"":1}","[0,1]","../img/tt/1053tt.jpg","",""
"2790.0449999999255","","","recognition","survey-text","527","1429968","0.0-6.0-3.74","2435195","co39667","norming","","","{""guess"":""cows""}","","../img/tt/1053tt.jpg","",""
"null","../img/gs/1053gs.jpg","null","reveal","image-keyboard-response","528","1431976","0.0-6.0-4.74","2435195","co39667","norming","","","","","","",""
"null","../img/tt/1053tt.jpg","null","mooney2","image-keyboard-response","529","1433984","0.0-6.0-5.74","2435195","co39667","norming","","","","","","",""
"1884.7500000002328","","","post_reveal_questions","survey-likert","530","1435871","0.0-6.0-6.74","2435195","co39667","norming","","","{""aha"":2}","[0]","../img/tt/1053tt.jpg","",""
"null","<div style=""font-size:60px;""> </div>","null","fixation","html-keyboard-response","531","1436078","0.0-6.0-0.75","2435195","co39667","norming","","","","","","",""
"null","../img/tt/435tt.jpg","null","mooney1","image-keyboard-response","532","1439084","0.0-6.0-1.75","2435195","co39667","norming","","","","","","",""
"4457.319999999367","","","post_mooney1_questions","survey-likert","533","1443543","0.0-6.0-2.75","2435195","co39667","norming","","","{""curiosity"":1,""confidence"":0}","[0,1]","../img/tt/435tt.jpg","",""
"1134.1349999993108","","","recognition","survey-text","534","1444679","0.0-6.0-3.75","2435195","co39667","norming","","","{""guess"":""""}","","../img/tt/435tt.jpg","",""
"null","../img/gs/435gs.jpg","null","reveal","image-keyboard-response","535","1446682","0.0-6.0-4.75","2435195","co39667","norming","","","","","","",""
"null","../img/tt/435tt.jpg","null","mooney2","image-keyboard-response","536","1448688","0.0-6.0-5.75","2435195","co39667","norming","","","","","","",""
"3084.214999999851","","","post_reveal_questions","survey-likert","537","1451775","0.0-6.0-6.75","2435195","co39667","norming","","","{""aha"":3}","[0]","../img/tt/435tt.jpg","",""
"null","<div style=""font-size:60px;""> </div>","null","fixation","html-keyboard-response","538","1451985","0.0-6.0-0.76","2435195","co39667","norming","","","","","","",""
"null","../img/tt/1353tt.jpg","null","mooney1","image-keyboard-response","539","1454989","0.0-6.0-1.76","2435195","co39667","norming","","","","","","",""
"2894.6650000007357","","","post_mooney1_questions","survey-likert","540","1457887","0.0-6.0-2.76","2435195","co39667","norming","","","{""curiosity"":0,""confidence"":0}","[0,1]","../img/tt/1353tt.jpg","",""
"710.315000000177","","","recognition","survey-text","541","1458599","0.0-6.0-3.76","2435195","co39667","norming","","","{""guess"":""""}","","../img/tt/1353tt.jpg","",""
"null","../img/gs/1353gs.jpg","null","reveal","image-keyboard-response","542","1460602","0.0-6.0-4.76","2435195","co39667","norming","","","","","","",""
"null","../img/tt/1353tt.jpg","null","mooney2","image-keyboard-response","543","1462611","0.0-6.0-5.76","2435195","co39667","norming","","","","","","",""
"1401.5200000004843","","","post_reveal_questions","survey-likert","544","1464015","0.0-6.0-6.76","2435195","co39667","norming","","","{""aha"":0}","[0]","../img/tt/1353tt.jpg","",""
"null","<div style=""font-size:60px;""> </div>","null","fixation","html-keyboard-response","545","1464223","0.0-6.0-0.77","2435195","co39667","norming","","","","","","",""
"null","../img/tt/1102tt.jpg","null","mooney1","image-keyboard-response","546","1467225","0.0-6.0-1.77","2435195","co39667","norming","","","","","","",""
"2666.6450000002515","","","post_mooney1_questions","survey-likert","547","1469895","0.0-6.0-2.77","2435195","co39667","norming","","","{""curiosity"":3,""confidence"":0}","[0,1]","../img/tt/1102tt.jpg","",""
"2822.124999999767","","","recognition","survey-text","548","1472719","0.0-6.0-3.77","2435195","co39667","norming","","","{""guess"":""""}","","../img/tt/1102tt.jpg","",""
"null","../img/gs/1102gs.jpg","null","reveal","image-keyboard-response","549","1474729","0.0-6.0-4.77","2435195","co39667","norming","","","","","","",""
"null","../img/tt/1102tt.jpg","null","mooney2","image-keyboard-response","550","1476730","0.0-6.0-5.77","2435195","co39667","norming","","","","","","",""
"1202.2900000000373","","","post_reveal_questions","survey-likert","551","1477935","0.0-6.0-6.77","2435195","co39667","norming","","","{""aha"":2}","[0]","../img/tt/1102tt.jpg","",""
"null","<div style=""font-size:60px;""> </div>","null","fixation","html-keyboard-response","552","1478136","0.0-6.0-0.78","2435195","co39667","norming","","","","","","",""
