"rt","stimulus","key_press","test_part","trial_type","trial_index","time_elapsed","internal_node_id","totalTime","subject","experiment_name","button_pressed","success","responses","question_order","currentStim","old","correct"
"6688.29000000001","Welcome to the experiment. This is an online experiment so please don't close the tab/window until we say goodbye.  Press any key to begin.","32","instructions","html-keyboard-response","0","6701","0.0-0.0","3113224","co39250","norming","","","","","","",""
"19166.300000000007","<div style='word-wrap: break-word; width: 900px'><h3>Please consider this information carefully before deciding whether to participate in this research</h3><ul style='text-align: left; font-size: .8em;'><li><b>Purpose of the research</b>: To examine how people process images.</li><li><b>What you will do in this research</b>:  Stimuli (images) will be presented on the computer and you will be asked different questions about them.</li><li><b>Time required</b>: Participation will take between 45 and 60 minutes to complete.</li><li><b>Risks</b>:  There are no anticipated risks associated with participating in this study. The effects of participating should be comparable to those you would experience from viewing a computer monitor for 30 minutes and using a mouse or keyboard.</li><li><b>Benefits</b>:  This study provides no benefits to you individually except for the credit. The study provides important information about the nature of perception and learning.</li><li><b>Confidentiality</b>:  Your participation in this study will remain confidential. No personally identifiable information will be associated with your data. Your de-identified data may be shared with other researchers and used in future projects.</li><li><b>Participation and withdrawal</b>:  Your participation in this study is completely voluntary and you may refuse to participate or you may choose to withdraw at any time without penalty.</li><li><b>How to contact the researchers</b>: If you have questions or concerns about your participation or payment, or want to request a summary of research findings, please contact Sander Van de Cruys (KU Leuven), at sander.vandecruys@kuleuven.be.</li></ul><p>The nature and purpose of this research have been sufficiently explained and I agree to participate in this study.  I understand that I am free to withdraw at any time without incurring any penalty.</p><p>Please consent by clicking the button below to continue. Otherwise, please exit the study at this time.</p></div>","","instructions","html-button-response","1","25869","0.0-1.0","3113224","co39250","norming","0","","","","","",""
"","","","instructions","fullscreen","2","30108","0.0-2.0","3113224","co39250","norming","","true","","","","",""
"22927.449999999993","","","sona","survey-html-form","3","53046","0.0-3.0","3113224","co39250","norming","","","[{""name"":""sonaid"",""value"":""39250""},{""name"":""debrief"",""value"":""yes""},{""name"":""datajoin"",""value"":""yes""}]","","","",""
"58377.835","<div style='word-wrap: break-word; width: 900px'><h3>Instructions</h3><p>This experiment will have 3 parts. In the first part you will see a series of distorted images like the one below on the left. As you can see in the righthand image, the distorted images are derived from actual photographs. In what follows, you will <strong>briefly</strong> be presented with <strong>only</strong> the distorted image.</p> <div style='float: left; margin-right: 20px;'><img src='../img/018tt.jpg' height='250' width='250'></img></div><div style='float: right; margin-left: 20px;'><img src='../img/018gs.jpg' height='250' width='250'></img></div><p>Subsequently you will be asked a few questions about the image: One question on how <strong>curious</strong> you are about the solution and one on how <strong>confident</strong> you are that you know the solution.</p>Next, we ask you to make a guess on what is in the image. Note that it is OK to name just the <strong>basic level category</strong>. For example when you see a parrot in the image, 'parrot' will obviously be a correct answer but also correct is 'bird'. However, 'animal' will <strong>not</strong> be counted as a correct response. For the example above, 'rose' would be correct or 'flower', but not 'plant'. When soccer players are depicted, 'soccer', 'football', 'soccer players' will be correct, but not 'humans', 'outdoors', or 'sports'. You do not need to describe the image in full, just name the main object in it <strong>in one or two words</strong>. All images depict objects from one of the following broad level categories: animals, inanimate objects, plants, sports, vehicles, and food. Recognizing means knowing <strong>more</strong> than these broad labels for a given image. But we always encourage you to <strong>make a guess</strong> if you can. Note that you are allowed to use <strong>Dutch and English</strong> in your answers, whatever comes easiest for you.</p><p>Press any key to continue.</p></div>","32","instructions","html-keyboard-response","4","111423","0.0-4.0","3113224","co39250","norming","","","","","","",""
"19839.425000000017","<div style='word-wrap: break-word; width: 900px'><h3>Instructions</h3> <p>Next, the solution image will be revealed to you and you'll be asked to indicate how strong your <strong>aha-experience</strong> was after seeing the solution. This describes the positive feeling of the 'click' you sometimes experience, when the pieces of the 'puzzle' fall together and you suddenly have 'insight' in the image.</p><img src='aha.jpg' height='188' width='250'></img><p>Note that there are no right or wrong answers. We are interested in what <strong>you</strong> see in the image and how <strong>you</strong> feel about it.</p><p>Press any key to start the experiment.</p></div>","32","instructions","html-keyboard-response","5","131263","0.0-5.0","3113224","co39250","norming","","","","","","",""
"null","<div style=""font-size:60px;""> </div>","null","fixation","html-keyboard-response","6","131473","0.0-6.0-0.0","3113224","co39250","norming","","","","","","",""
"null","../img/tt/1268tt.jpg","null","mooney1","image-keyboard-response","7","134477","0.0-6.0-1.0","3113224","co39250","norming","","","","","","",""
"16609.059999999998","","","post_mooney1_questions","survey-likert","8","151087","0.0-6.0-2.0","3113224","co39250","norming","","","{""curiosity"":6,""confidence"":0}","[0,1]","../img/tt/1268tt.jpg","",""
"9525.764999999985","","","recognition","survey-text","9","160615","0.0-6.0-3.0","3113224","co39250","norming","","","{""guess"":""""}","","../img/tt/1268tt.jpg","",""
"null","../img/gs/1268gs.jpg","null","reveal","image-keyboard-response","10","162620","0.0-6.0-4.0","3113224","co39250","norming","","","","","","",""
"null","../img/tt/1268tt.jpg","null","mooney2","image-keyboard-response","11","164628","0.0-6.0-5.0","3113224","co39250","norming","","","","","","",""
"6706.60500000004","","","post_reveal_questions","survey-likert","12","171339","0.0-6.0-6.0","3113224","co39250","norming","","","{""aha"":5}","[0]","../img/tt/1268tt.jpg","",""
"null","<div style=""font-size:60px;""> </div>","null","fixation","html-keyboard-response","13","171549","0.0-6.0-0.1","3113224","co39250","norming","","","","","","",""
"null","../img/tt/1118tt.jpg","null","mooney1","image-keyboard-response","14","174549","0.0-6.0-1.1","3113224","co39250","norming","","","","","","",""
"7596.684999999998","","","post_mooney1_questions","survey-likert","15","182147","0.0-6.0-2.1","3113224","co39250","norming","","","{""curiosity"":4,""confidence"":1}","[0,1]","../img/tt/1118tt.jpg","",""
"6437.880000000005","","","recognition","survey-text","16","188586","0.0-6.0-3.1","3113224","co39250","norming","","","{""guess"":""a car""}","","../img/tt/1118tt.jpg","",""
"null","../img/gs/1118gs.jpg","null","reveal","image-keyboard-response","17","190591","0.0-6.0-4.1","3113224","co39250","norming","","","","","","",""
"null","../img/tt/1118tt.jpg","null","mooney2","image-keyboard-response","18","192598","0.0-6.0-5.1","3113224","co39250","norming","","","","","","",""
"3387.3550000000105","","","post_reveal_questions","survey-likert","19","195986","0.0-6.0-6.1","3113224","co39250","norming","","","{""aha"":6}","[0]","../img/tt/1118tt.jpg","",""
"null","<div style=""font-size:60px;""> </div>","null","fixation","html-keyboard-response","20","196189","0.0-6.0-0.2","3113224","co39250","norming","","","","","","",""
"null","../img/tt/1096tt.jpg","null","mooney1","image-keyboard-response","21","199192","0.0-6.0-1.2","3113224","co39250","norming","","","","","","",""
"7265.86500000002","","","post_mooney1_questions","survey-likert","22","206459","0.0-6.0-2.2","3113224","co39250","norming","","","{""curiosity"":5,""confidence"":2}","[0,1]","../img/tt/1096tt.jpg","",""
"18237.73999999999","","","recognition","survey-text","23","224698","0.0-6.0-3.2","3113224","co39250","norming","","","{""guess"":""a cow""}","","../img/tt/1096tt.jpg","",""
"null","../img/gs/1096gs.jpg","null","reveal","image-keyboard-response","24","226707","0.0-6.0-4.2","3113224","co39250","norming","","","","","","",""
"null","../img/tt/1096tt.jpg","null","mooney2","image-keyboard-response","25","228716","0.0-6.0-5.2","3113224","co39250","norming","","","","","","",""
"4765.470000000001","","","post_reveal_questions","survey-likert","26","233484","0.0-6.0-6.2","3113224","co39250","norming","","","{""aha"":4}","[0]","../img/tt/1096tt.jpg","",""
"null","<div style=""font-size:60px;""> </div>","null","fixation","html-keyboard-response","27","233686","0.0-6.0-0.3","3113224","co39250","norming","","","","","","",""
"null","../img/tt/124tt.jpg","null","mooney1","image-keyboard-response","28","236690","0.0-6.0-1.3","3113224","co39250","norming","","","","","","",""
"8169.595000000001","","","post_mooney1_questions","survey-likert","29","244860","0.0-6.0-2.3","3113224","co39250","norming","","","{""curiosity"":6,""confidence"":1}","[0,1]","../img/tt/124tt.jpg","",""
"6301.934999999998","","","recognition","survey-text","30","251164","0.0-6.0-3.3","3113224","co39250","norming","","","{""guess"":""een bedelaar""}","","../img/tt/124tt.jpg","",""
"null","../img/gs/124gs.jpg","null","reveal","image-keyboard-response","31","253167","0.0-6.0-4.3","3113224","co39250","norming","","","","","","",""
"null","../img/tt/124tt.jpg","null","mooney2","image-keyboard-response","32","255169","0.0-6.0-5.3","3113224","co39250","norming","","","","","","",""
"2954.7799999999697","","","post_reveal_questions","survey-likert","33","258124","0.0-6.0-6.3","3113224","co39250","norming","","","{""aha"":5}","[0]","../img/tt/124tt.jpg","",""
"null","<div style=""font-size:60px;""> </div>","null","fixation","html-keyboard-response","34","258334","0.0-6.0-0.4","3113224","co39250","norming","","","","","","",""
"null","../img/tt/056tt.jpg","null","mooney1","image-keyboard-response","35","261343","0.0-6.0-1.4","3113224","co39250","norming","","","","","","",""
"4116.415000000008","","","post_mooney1_questions","survey-likert","36","265460","0.0-6.0-2.4","3113224","co39250","norming","","","{""curiosity"":5,""confidence"":3}","[0,1]","../img/tt/056tt.jpg","",""
"5142.34500000003","","","recognition","survey-text","37","270604","0.0-6.0-3.4","3113224","co39250","norming","","","{""guess"":""a wolf""}","","../img/tt/056tt.jpg","",""
"null","../img/gs/056gs.jpg","null","reveal","image-keyboard-response","38","272607","0.0-6.0-4.4","3113224","co39250","norming","","","","","","",""
"null","../img/tt/056tt.jpg","null","mooney2","image-keyboard-response","39","274619","0.0-6.0-5.4","3113224","co39250","norming","","","","","","",""
"3544.5250000000233","","","post_reveal_questions","survey-likert","40","278165","0.0-6.0-6.4","3113224","co39250","norming","","","{""aha"":4}","[0]","../img/tt/056tt.jpg","",""
"null","<div style=""font-size:60px;""> </div>","null","fixation","html-keyboard-response","41","278374","0.0-6.0-0.5","3113224","co39250","norming","","","","","","",""
"null","../img/tt/1250tt.jpg","null","mooney1","image-keyboard-response","42","281378","0.0-6.0-1.5","3113224","co39250","norming","","","","","","",""
"3905.6199999999953","","","post_mooney1_questions","survey-likert","43","285285","0.0-6.0-2.5","3113224","co39250","norming","","","{""curiosity"":6,""confidence"":0}","[0,1]","../img/tt/1250tt.jpg","",""
"1013.8450000000303","","","recognition","survey-text","44","286300","0.0-6.0-3.5","3113224","co39250","norming","","","{""guess"":""""}","","../img/tt/1250tt.jpg","",""
"null","../img/gs/1250gs.jpg","null","reveal","image-keyboard-response","45","288306","0.0-6.0-4.5","3113224","co39250","norming","","","","","","",""
"null","../img/tt/1250tt.jpg","null","mooney2","image-keyboard-response","46","290312","0.0-6.0-5.5","3113224","co39250","norming","","","","","","",""
"2476.0800000000163","","","post_reveal_questions","survey-likert","47","292797","0.0-6.0-6.5","3113224","co39250","norming","","","{""aha"":6}","[0]","../img/tt/1250tt.jpg","",""
"null","<div style=""font-size:60px;""> </div>","null","fixation","html-keyboard-response","48","293001","0.0-6.0-0.6","3113224","co39250","norming","","","","","","",""
"null","../img/tt/279tt.jpg","null","mooney1","image-keyboard-response","49","296011","0.0-6.0-1.6","3113224","co39250","norming","","","","","","",""
"4881.369999999995","","","post_mooney1_questions","survey-likert","50","300893","0.0-6.0-2.6","3113224","co39250","norming","","","{""curiosity"":5,""confidence"":4}","[0,1]","../img/tt/279tt.jpg","",""
"9397.820000000007","","","recognition","survey-text","51","310293","0.0-6.0-3.6","3113224","co39250","norming","","","{""guess"":""a panda""}","","../img/tt/279tt.jpg","",""
"null","../img/gs/279gs.jpg","null","reveal","image-keyboard-response","52","312299","0.0-6.0-4.6","3113224","co39250","norming","","","","","","",""
"null","../img/tt/279tt.jpg","null","mooney2","image-keyboard-response","53","314310","0.0-6.0-5.6","3113224","co39250","norming","","","","","","",""
"3046.4049999999697","","","post_reveal_questions","survey-likert","54","317357","0.0-6.0-6.6","3113224","co39250","norming","","","{""aha"":6}","[0]","../img/tt/279tt.jpg","",""
"null","<div style=""font-size:60px;""> </div>","null","fixation","html-keyboard-response","55","317566","0.0-6.0-0.7","3113224","co39250","norming","","","","","","",""
"null","../img/tt/1061tt.jpg","null","mooney1","image-keyboard-response","56","320573","0.0-6.0-1.7","3113224","co39250","norming","","","","","","",""
"4095.3499999999767","","","post_mooney1_questions","survey-likert","57","324670","0.0-6.0-2.7","3113224","co39250","norming","","","{""curiosity"":6,""confidence"":0}","[0,1]","../img/tt/1061tt.jpg","",""
"7301.419999999984","","","recognition","survey-text","58","331973","0.0-6.0-3.7","3113224","co39250","norming","","","{""guess"":""""}","","../img/tt/1061tt.jpg","",""
"null","../img/gs/1061gs.jpg","null","reveal","image-keyboard-response","59","333977","0.0-6.0-4.7","3113224","co39250","norming","","","","","","",""
"null","../img/tt/1061tt.jpg","null","mooney2","image-keyboard-response","60","335979","0.0-6.0-5.7","3113224","co39250","norming","","","","","","",""
"2753.4550000000745","","","post_reveal_questions","survey-likert","61","338733","0.0-6.0-6.7","3113224","co39250","norming","","","{""aha"":6}","[0]","../img/tt/1061tt.jpg","",""
"null","<div style=""font-size:60px;""> </div>","null","fixation","html-keyboard-response","62","338937","0.0-6.0-0.8","3113224","co39250","norming","","","","","","",""
"null","../img/tt/135tt.jpg","null","mooney1","image-keyboard-response","63","341946","0.0-6.0-1.8","3113224","co39250","norming","","","","","","",""
"10154.190000000002","","","post_mooney1_questions","survey-likert","64","352101","0.0-6.0-2.8","3113224","co39250","norming","","","{""curiosity"":6,""confidence"":1}","[0,1]","../img/tt/135tt.jpg","",""
"14069.925000000047","","","recognition","survey-text","65","366177","0.0-6.0-3.8","3113224","co39250","norming","","","{""guess"":""een eetbord""}","","../img/tt/135tt.jpg","",""
"null","../img/gs/135gs.jpg","null","reveal","image-keyboard-response","66","368179","0.0-6.0-4.8","3113224","co39250","norming","","","","","","",""
"null","../img/tt/135tt.jpg","null","mooney2","image-keyboard-response","67","370180","0.0-6.0-5.8","3113224","co39250","norming","","","","","","",""
"2100.545000000042","","","post_reveal_questions","survey-likert","68","372281","0.0-6.0-6.8","3113224","co39250","norming","","","{""aha"":6}","[0]","../img/tt/135tt.jpg","",""
"null","<div style=""font-size:60px;""> </div>","null","fixation","html-keyboard-response","69","372492","0.0-6.0-0.9","3113224","co39250","norming","","","","","","",""
"null","../img/tt/1239tt.jpg","null","mooney1","image-keyboard-response","70","375497","0.0-6.0-1.9","3113224","co39250","norming","","","","","","",""
"7367.649999999965","","","post_mooney1_questions","survey-likert","71","382866","0.0-6.0-2.9","3113224","co39250","norming","","","{""curiosity"":6,""confidence"":1}","[0,1]","../img/tt/1239tt.jpg","",""
"14205.604999999981","","","recognition","survey-text","72","397073","0.0-6.0-3.9","3113224","co39250","norming","","","{""guess"":""""}","","../img/tt/1239tt.jpg","",""
"null","../img/gs/1239gs.jpg","null","reveal","image-keyboard-response","73","399075","0.0-6.0-4.9","3113224","co39250","norming","","","","","","",""
"null","../img/tt/1239tt.jpg","null","mooney2","image-keyboard-response","74","401082","0.0-6.0-5.9","3113224","co39250","norming","","","","","","",""
"2326.42499999993","","","post_reveal_questions","survey-likert","75","403409","0.0-6.0-6.9","3113224","co39250","norming","","","{""aha"":6}","[0]","../img/tt/1239tt.jpg","",""
"null","<div style=""font-size:60px;""> </div>","null","fixation","html-keyboard-response","76","403620","0.0-6.0-0.10","3113224","co39250","norming","","","","","","",""
"null","../img/tt/1080tt.jpg","null","mooney1","image-keyboard-response","77","406629","0.0-6.0-1.10","3113224","co39250","norming","","","","","","",""
"7171.830000000016","","","post_mooney1_questions","survey-likert","78","413810","0.0-6.0-2.10","3113224","co39250","norming","","","{""curiosity"":6,""confidence"":0}","[0,1]","../img/tt/1080tt.jpg","",""
"2060.820000000065","","","recognition","survey-text","79","415874","0.0-6.0-3.10","3113224","co39250","norming","","","{""guess"":""""}","","../img/tt/1080tt.jpg","",""
"null","../img/gs/1080gs.jpg","null","reveal","image-keyboard-response","80","417880","0.0-6.0-4.10","3113224","co39250","norming","","","","","","",""
"null","../img/tt/1080tt.jpg","null","mooney2","image-keyboard-response","81","419883","0.0-6.0-5.10","3113224","co39250","norming","","","","","","",""
"5590.070000000007","","","post_reveal_questions","survey-likert","82","425474","0.0-6.0-6.10","3113224","co39250","norming","","","{""aha"":6}","[0]","../img/tt/1080tt.jpg","",""
"null","<div style=""font-size:60px;""> </div>","null","fixation","html-keyboard-response","83","425674","0.0-6.0-0.11","3113224","co39250","norming","","","","","","",""
"null","../img/tt/1063tt.jpg","null","mooney1","image-keyboard-response","84","428685","0.0-6.0-1.11","3113224","co39250","norming","","","","","","",""
"5828.035000000033","","","post_mooney1_questions","survey-likert","85","434514","0.0-6.0-2.11","3113224","co39250","norming","","","{""curiosity"":4,""confidence"":4}","[0,1]","../img/tt/1063tt.jpg","",""
"7197.619999999995","","","recognition","survey-text","86","441713","0.0-6.0-3.11","3113224","co39250","norming","","","{""guess"":""two horses""}","","../img/tt/1063tt.jpg","",""
"null","../img/gs/1063gs.jpg","null","reveal","image-keyboard-response","87","443723","0.0-6.0-4.11","3113224","co39250","norming","","","","","","",""
"null","../img/tt/1063tt.jpg","null","mooney2","image-keyboard-response","88","445726","0.0-6.0-5.11","3113224","co39250","norming","","","","","","",""
"2930.9650000000256","","","post_reveal_questions","survey-likert","89","448658","0.0-6.0-6.11","3113224","co39250","norming","","","{""aha"":4}","[0]","../img/tt/1063tt.jpg","",""
"null","<div style=""font-size:60px;""> </div>","null","fixation","html-keyboard-response","90","448862","0.0-6.0-0.12","3113224","co39250","norming","","","","","","",""
"null","../img/tt/1154tt.jpg","null","mooney1","image-keyboard-response","91","451865","0.0-6.0-1.12","3113224","co39250","norming","","","","","","",""
"14335.809999999998","","","post_mooney1_questions","survey-likert","92","466202","0.0-6.0-2.12","3113224","co39250","norming","","","{""curiosity"":6,""confidence"":1}","[0,1]","../img/tt/1154tt.jpg","",""
"15693.969999999914","","","recognition","survey-text","93","481904","0.0-6.0-3.12","3113224","co39250","norming","","","{""guess"":""a moose""}","","../img/tt/1154tt.jpg","",""
"null","../img/gs/1154gs.jpg","null","reveal","image-keyboard-response","94","483915","0.0-6.0-4.12","3113224","co39250","norming","","","","","","",""
"null","../img/tt/1154tt.jpg","null","mooney2","image-keyboard-response","95","485919","0.0-6.0-5.12","3113224","co39250","norming","","","","","","",""
"3960.2450000001118","","","post_reveal_questions","survey-likert","96","489880","0.0-6.0-6.12","3113224","co39250","norming","","","{""aha"":4}","[0]","../img/tt/1154tt.jpg","",""
"null","<div style=""font-size:60px;""> </div>","null","fixation","html-keyboard-response","97","490085","0.0-6.0-0.13","3113224","co39250","norming","","","","","","",""
"null","../img/tt/580tt.jpg","null","mooney1","image-keyboard-response","98","493095","0.0-6.0-1.13","3113224","co39250","norming","","","","","","",""
"6823.375000000058","","","post_mooney1_questions","survey-likert","99","499920","0.0-6.0-2.13","3113224","co39250","norming","","","{""curiosity"":6,""confidence"":0}","[0,1]","../img/tt/580tt.jpg","",""
"1678.1950000001234","","","recognition","survey-text","100","501600","0.0-6.0-3.13","3113224","co39250","norming","","","{""guess"":""""}","","../img/tt/580tt.jpg","",""
"null","../img/gs/580gs.jpg","null","reveal","image-keyboard-response","101","503602","0.0-6.0-4.13","3113224","co39250","norming","","","","","","",""
"null","../img/tt/580tt.jpg","null","mooney2","image-keyboard-response","102","505606","0.0-6.0-5.13","3113224","co39250","norming","","","","","","",""
"3568.8450000000303","","","post_reveal_questions","survey-likert","103","509176","0.0-6.0-6.13","3113224","co39250","norming","","","{""aha"":6}","[0]","../img/tt/580tt.jpg","",""
"null","<div style=""font-size:60px;""> </div>","null","fixation","html-keyboard-response","104","509377","0.0-6.0-0.14","3113224","co39250","norming","","","","","","",""
"null","../img/tt/052tt.jpg","null","mooney1","image-keyboard-response","105","512379","0.0-6.0-1.14","3113224","co39250","norming","","","","","","",""
"15994.020000000135","","","post_mooney1_questions","survey-likert","106","528376","0.0-6.0-2.14","3113224","co39250","norming","","","{""curiosity"":5,""confidence"":1}","[0,1]","../img/tt/052tt.jpg","",""
"7197.70000000007","","","recognition","survey-text","107","535576","0.0-6.0-3.14","3113224","co39250","norming","","","{""guess"":""""}","","../img/tt/052tt.jpg","",""
"null","../img/gs/052gs.jpg","null","reveal","image-keyboard-response","108","537583","0.0-6.0-4.14","3113224","co39250","norming","","","","","","",""
"null","../img/tt/052tt.jpg","null","mooney2","image-keyboard-response","109","539584","0.0-6.0-5.14","3113224","co39250","norming","","","","","","",""
"2410.984999999986","","","post_reveal_questions","survey-likert","110","541996","0.0-6.0-6.14","3113224","co39250","norming","","","{""aha"":6}","[0]","../img/tt/052tt.jpg","",""
"null","<div style=""font-size:60px;""> </div>","null","fixation","html-keyboard-response","111","542206","0.0-6.0-0.15","3113224","co39250","norming","","","","","","",""
"null","../img/tt/534tt.jpg","null","mooney1","image-keyboard-response","112","545211","0.0-6.0-1.15","3113224","co39250","norming","","","","","","",""
"8559.66499999992","","","post_mooney1_questions","survey-likert","113","553772","0.0-6.0-2.15","3113224","co39250","norming","","","{""curiosity"":6,""confidence"":1}","[0,1]","../img/tt/534tt.jpg","",""
"4774.144999999902","","","recognition","survey-text","114","558548","0.0-6.0-3.15","3113224","co39250","norming","","","{""guess"":""bamboo""}","","../img/tt/534tt.jpg","",""
"null","../img/gs/534gs.jpg","null","reveal","image-keyboard-response","115","560550","0.0-6.0-4.15","3113224","co39250","norming","","","","","","",""
"null","../img/tt/534tt.jpg","null","mooney2","image-keyboard-response","116","562552","0.0-6.0-5.15","3113224","co39250","norming","","","","","","",""
"2394.530000000028","","","post_reveal_questions","survey-likert","117","564948","0.0-6.0-6.15","3113224","co39250","norming","","","{""aha"":6}","[0]","../img/tt/534tt.jpg","",""
"null","<div style=""font-size:60px;""> </div>","null","fixation","html-keyboard-response","118","565149","0.0-6.0-0.16","3113224","co39250","norming","","","","","","",""
"null","../img/tt/1200tt.jpg","null","mooney1","image-keyboard-response","119","568152","0.0-6.0-1.16","3113224","co39250","norming","","","","","","",""
"4946.45000000007","","","post_mooney1_questions","survey-likert","120","573100","0.0-6.0-2.16","3113224","co39250","norming","","","{""curiosity"":6,""confidence"":1}","[0,1]","../img/tt/1200tt.jpg","",""
"3093.6199999999953","","","recognition","survey-text","121","576196","0.0-6.0-3.16","3113224","co39250","norming","","","{""guess"":""a tank""}","","../img/tt/1200tt.jpg","",""
"null","../img/gs/1200gs.jpg","null","reveal","image-keyboard-response","122","578204","0.0-6.0-4.16","3113224","co39250","norming","","","","","","",""
"null","../img/tt/1200tt.jpg","null","mooney2","image-keyboard-response","123","580214","0.0-6.0-5.16","3113224","co39250","norming","","","","","","",""
"2108.560000000056","","","post_reveal_questions","survey-likert","124","582324","0.0-6.0-6.16","3113224","co39250","norming","","","{""aha"":6}","[0]","../img/tt/1200tt.jpg","",""
"null","<div style=""font-size:60px;""> </div>","null","fixation","html-keyboard-response","125","582528","0.0-6.0-0.17","3113224","co39250","norming","","","","","","",""
"null","../img/tt/007tt.jpg","null","mooney1","image-keyboard-response","126","585532","0.0-6.0-1.17","3113224","co39250","norming","","","","","","",""
"8645.515000000014","","","post_mooney1_questions","survey-likert","127","594180","0.0-6.0-2.17","3113224","co39250","norming","","","{""curiosity"":6,""confidence"":1}","[0,1]","../img/tt/007tt.jpg","",""
"6486.334999999963","","","recognition","survey-text","128","600659","0.0-6.0-3.17","3113224","co39250","norming","","","{""guess"":""a horse""}","","../img/tt/007tt.jpg","",""
"null","../img/gs/007gs.jpg","null","reveal","image-keyboard-response","129","602661","0.0-6.0-4.17","3113224","co39250","norming","","","","","","",""
"null","../img/tt/007tt.jpg","null","mooney2","image-keyboard-response","130","604664","0.0-6.0-5.17","3113224","co39250","norming","","","","","","",""
"4337.765000000014","","","post_reveal_questions","survey-likert","131","609003","0.0-6.0-6.17","3113224","co39250","norming","","","{""aha"":4}","[0]","../img/tt/007tt.jpg","",""
"null","<div style=""font-size:60px;""> </div>","null","fixation","html-keyboard-response","132","609212","0.0-6.0-0.18","3113224","co39250","norming","","","","","","",""
"null","../img/tt/1043tt.jpg","null","mooney1","image-keyboard-response","133","612215","0.0-6.0-1.18","3113224","co39250","norming","","","","","","",""
"5937.459999999963","","","post_mooney1_questions","survey-likert","134","618155","0.0-6.0-2.18","3113224","co39250","norming","","","{""curiosity"":6,""confidence"":0}","[0,1]","../img/tt/1043tt.jpg","",""
"1205.829999999958","","","recognition","survey-text","135","619363","0.0-6.0-3.18","3113224","co39250","norming","","","{""guess"":""""}","","../img/tt/1043tt.jpg","",""
"null","../img/gs/1043gs.jpg","null","reveal","image-keyboard-response","136","621374","0.0-6.0-4.18","3113224","co39250","norming","","","","","","",""
"null","../img/tt/1043tt.jpg","null","mooney2","image-keyboard-response","137","623376","0.0-6.0-5.18","3113224","co39250","norming","","","","","","",""
"2233.3349999999627","","","post_reveal_questions","survey-likert","138","625611","0.0-6.0-6.18","3113224","co39250","norming","","","{""aha"":6}","[0]","../img/tt/1043tt.jpg","",""
"null","<div style=""font-size:60px;""> </div>","null","fixation","html-keyboard-response","139","625818","0.0-6.0-0.19","3113224","co39250","norming","","","","","","",""
"null","../img/tt/549tt.jpg","null","mooney1","image-keyboard-response","140","628822","0.0-6.0-1.19","3113224","co39250","norming","","","","","","",""
"9347.20000000007","","","post_mooney1_questions","survey-likert","141","638171","0.0-6.0-2.19","3113224","co39250","norming","","","{""curiosity"":6,""confidence"":0}","[0,1]","../img/tt/549tt.jpg","",""
"6957.9700000000885","","","recognition","survey-text","142","645131","0.0-6.0-3.19","3113224","co39250","norming","","","{""guess"":""""}","","../img/tt/549tt.jpg","",""
"null","../img/gs/549gs.jpg","null","reveal","image-keyboard-response","143","647135","0.0-6.0-4.19","3113224","co39250","norming","","","","","","",""
"null","../img/tt/549tt.jpg","null","mooney2","image-keyboard-response","144","649143","0.0-6.0-5.19","3113224","co39250","norming","","","","","","",""
"3018.5500000000466","","","post_reveal_questions","survey-likert","145","652163","0.0-6.0-6.19","3113224","co39250","norming","","","{""aha"":3}","[0]","../img/tt/549tt.jpg","",""
"null","<div style=""font-size:60px;""> </div>","null","fixation","html-keyboard-response","146","652370","0.0-6.0-0.20","3113224","co39250","norming","","","","","","",""
"null","../img/tt/378tt.jpg","null","mooney1","image-keyboard-response","147","655377","0.0-6.0-1.20","3113224","co39250","norming","","","","","","",""
"12519.23999999999","","","post_mooney1_questions","survey-likert","148","667908","0.0-6.0-2.20","3113224","co39250","norming","","","{""curiosity"":4,""confidence"":1}","[0,1]","../img/tt/378tt.jpg","",""
"5718.170000000042","","","recognition","survey-text","149","673628","0.0-6.0-3.20","3113224","co39250","norming","","","{""guess"":""an insect""}","","../img/tt/378tt.jpg","",""
"null","../img/gs/378gs.jpg","null","reveal","image-keyboard-response","150","675635","0.0-6.0-4.20","3113224","co39250","norming","","","","","","",""
"null","../img/tt/378tt.jpg","null","mooney2","image-keyboard-response","151","677637","0.0-6.0-5.20","3113224","co39250","norming","","","","","","",""
"3108.355000000098","","","post_reveal_questions","survey-likert","152","680748","0.0-6.0-6.20","3113224","co39250","norming","","","{""aha"":6}","[0]","../img/tt/378tt.jpg","",""
"null","<div style=""font-size:60px;""> </div>","null","fixation","html-keyboard-response","153","680956","0.0-6.0-0.21","3113224","co39250","norming","","","","","","",""
"null","../img/tt/1012tt.jpg","null","mooney1","image-keyboard-response","154","683968","0.0-6.0-1.21","3113224","co39250","norming","","","","","","",""
"6793.394999999902","","","post_mooney1_questions","survey-likert","155","690764","0.0-6.0-2.21","3113224","co39250","norming","","","{""curiosity"":6,""confidence"":1}","[0,1]","../img/tt/1012tt.jpg","",""
"3941.929999999935","","","recognition","survey-text","156","694708","0.0-6.0-3.21","3113224","co39250","norming","","","{""guess"":""a tapir""}","","../img/tt/1012tt.jpg","",""
"null","../img/gs/1012gs.jpg","null","reveal","image-keyboard-response","157","696715","0.0-6.0-4.21","3113224","co39250","norming","","","","","","",""
"null","../img/tt/1012tt.jpg","null","mooney2","image-keyboard-response","158","698718","0.0-6.0-5.21","3113224","co39250","norming","","","","","","",""
"2676.8249999999534","","","post_reveal_questions","survey-likert","159","701396","0.0-6.0-6.21","3113224","co39250","norming","","","{""aha"":6}","[0]","../img/tt/1012tt.jpg","",""
"null","<div style=""font-size:60px;""> </div>","null","fixation","html-keyboard-response","160","701606","0.0-6.0-0.22","3113224","co39250","norming","","","","","","",""
"null","../img/tt/189tt.jpg","null","mooney1","image-keyboard-response","161","704611","0.0-6.0-1.22","3113224","co39250","norming","","","","","","",""
"4679.5650000000605","","","post_mooney1_questions","survey-likert","162","709292","0.0-6.0-2.22","3113224","co39250","norming","","","{""curiosity"":6,""confidence"":1}","[0,1]","../img/tt/189tt.jpg","",""
"3253.939999999944","","","recognition","survey-text","163","712548","0.0-6.0-3.22","3113224","co39250","norming","","","{""guess"":""stables""}","","../img/tt/189tt.jpg","",""
"null","../img/gs/189gs.jpg","null","reveal","image-keyboard-response","164","714556","0.0-6.0-4.22","3113224","co39250","norming","","","","","","",""
"null","../img/tt/189tt.jpg","null","mooney2","image-keyboard-response","165","716560","0.0-6.0-5.22","3113224","co39250","norming","","","","","","",""
"3001.5950000000885","","","post_reveal_questions","survey-likert","166","719561","0.0-6.0-6.22","3113224","co39250","norming","","","{""aha"":5}","[0]","../img/tt/189tt.jpg","",""
"null","<div style=""font-size:60px;""> </div>","null","fixation","html-keyboard-response","167","719765","0.0-6.0-0.23","3113224","co39250","norming","","","","","","",""
"null","../img/tt/358tt.jpg","null","mooney1","image-keyboard-response","168","722777","0.0-6.0-1.23","3113224","co39250","norming","","","","","","",""
"7062.354999999981","","","post_mooney1_questions","survey-likert","169","729841","0.0-6.0-2.23","3113224","co39250","norming","","","{""curiosity"":6,""confidence"":0}","[0,1]","../img/tt/358tt.jpg","",""
"1246.0200000000186","","","recognition","survey-text","170","731089","0.0-6.0-3.23","3113224","co39250","norming","","","{""guess"":""""}","","../img/tt/358tt.jpg","",""
"null","../img/gs/358gs.jpg","null","reveal","image-keyboard-response","171","733096","0.0-6.0-4.23","3113224","co39250","norming","","","","","","",""
"null","../img/tt/358tt.jpg","null","mooney2","image-keyboard-response","172","735100","0.0-6.0-5.23","3113224","co39250","norming","","","","","","",""
"3098.675000000163","","","post_reveal_questions","survey-likert","173","738201","0.0-6.0-6.23","3113224","co39250","norming","","","{""aha"":5}","[0]","../img/tt/358tt.jpg","",""
"null","<div style=""font-size:60px;""> </div>","null","fixation","html-keyboard-response","174","738409","0.0-6.0-0.24","3113224","co39250","norming","","","","","","",""
"null","../img/tt/082tt.jpg","null","mooney1","image-keyboard-response","175","741420","0.0-6.0-1.24","3113224","co39250","norming","","","","","","",""
"5218.400000000023","","","post_mooney1_questions","survey-likert","176","746641","0.0-6.0-2.24","3113224","co39250","norming","","","{""curiosity"":6,""confidence"":1}","[0,1]","../img/tt/082tt.jpg","",""
"10462.050000000047","","","recognition","survey-text","177","757105","0.0-6.0-3.24","3113224","co39250","norming","","","{""guess"":""a smith""}","","../img/tt/082tt.jpg","",""
"null","../img/gs/082gs.jpg","null","reveal","image-keyboard-response","178","759107","0.0-6.0-4.24","3113224","co39250","norming","","","","","","",""
"null","../img/tt/082tt.jpg","null","mooney2","image-keyboard-response","179","761109","0.0-6.0-5.24","3113224","co39250","norming","","","","","","",""
"2442.2549999998882","","","post_reveal_questions","survey-likert","180","763553","0.0-6.0-6.24","3113224","co39250","norming","","","{""aha"":6}","[0]","../img/tt/082tt.jpg","",""
"null","<div style=""font-size:60px;""> </div>","null","fixation","html-keyboard-response","181","763764","0.0-6.0-0.25","3113224","co39250","norming","","","","","","",""
"null","../img/tt/598tt.jpg","null","mooney1","image-keyboard-response","182","766770","0.0-6.0-1.25","3113224","co39250","norming","","","","","","",""
"5229.244999999995","","","post_mooney1_questions","survey-likert","183","772001","0.0-6.0-2.25","3113224","co39250","norming","","","{""curiosity"":6,""confidence"":0}","[0,1]","../img/tt/598tt.jpg","",""
"1421.9949999999953","","","recognition","survey-text","184","773425","0.0-6.0-3.25","3113224","co39250","norming","","","{""guess"":""""}","","../img/tt/598tt.jpg","",""
"null","../img/gs/598gs.jpg","null","reveal","image-keyboard-response","185","775431","0.0-6.0-4.25","3113224","co39250","norming","","","","","","",""
"null","../img/tt/598tt.jpg","null","mooney2","image-keyboard-response","186","777437","0.0-6.0-5.25","3113224","co39250","norming","","","","","","",""
"3642.179999999935","","","post_reveal_questions","survey-likert","187","781076","0.0-6.0-6.25","3113224","co39250","norming","","","{""aha"":4}","[0]","../img/tt/598tt.jpg","",""
"null","<div style=""font-size:60px;""> </div>","null","fixation","html-keyboard-response","188","781279","0.0-6.0-0.26","3113224","co39250","norming","","","","","","",""
"null","../img/tt/1362tt.jpg","null","mooney1","image-keyboard-response","189","784284","0.0-6.0-1.26","3113224","co39250","norming","","","","","","",""
"5237.77500000014","","","post_mooney1_questions","survey-likert","190","789524","0.0-6.0-2.26","3113224","co39250","norming","","","{""curiosity"":5,""confidence"":1}","[0,1]","../img/tt/1362tt.jpg","",""
"5310.035000000033","","","recognition","survey-text","191","794836","0.0-6.0-3.26","3113224","co39250","norming","","","{""guess"":""een schoenmaker""}","","../img/tt/1362tt.jpg","",""
"null","../img/gs/1362gs.jpg","null","reveal","image-keyboard-response","192","796843","0.0-6.0-4.26","3113224","co39250","norming","","","","","","",""
"null","../img/tt/1362tt.jpg","null","mooney2","image-keyboard-response","193","798844","0.0-6.0-5.26","3113224","co39250","norming","","","","","","",""
"3046.814999999944","","","post_reveal_questions","survey-likert","194","801892","0.0-6.0-6.26","3113224","co39250","norming","","","{""aha"":3}","[0]","../img/tt/1362tt.jpg","",""
"null","<div style=""font-size:60px;""> </div>","null","fixation","html-keyboard-response","195","802098","0.0-6.0-0.27","3113224","co39250","norming","","","","","","",""
"null","../img/tt/1125tt.jpg","null","mooney1","image-keyboard-response","196","805108","0.0-6.0-1.27","3113224","co39250","norming","","","","","","",""
"4765.649999999907","","","post_mooney1_questions","survey-likert","197","809876","0.0-6.0-2.27","3113224","co39250","norming","","","{""curiosity"":5,""confidence"":1}","[0,1]","../img/tt/1125tt.jpg","",""
"12557.925000000047","","","recognition","survey-text","198","822436","0.0-6.0-3.27","3113224","co39250","norming","","","{""guess"":""a masked man""}","","../img/tt/1125tt.jpg","",""
"null","../img/gs/1125gs.jpg","null","reveal","image-keyboard-response","199","824437","0.0-6.0-4.27","3113224","co39250","norming","","","","","","",""
"null","../img/tt/1125tt.jpg","null","mooney2","image-keyboard-response","200","826439","0.0-6.0-5.27","3113224","co39250","norming","","","","","","",""
"4194.8300000000745","","","post_reveal_questions","survey-likert","201","830636","0.0-6.0-6.27","3113224","co39250","norming","","","{""aha"":4}","[0]","../img/tt/1125tt.jpg","",""
"null","<div style=""font-size:60px;""> </div>","null","fixation","html-keyboard-response","202","830843","0.0-6.0-0.28","3113224","co39250","norming","","","","","","",""
"null","../img/tt/080tt.jpg","null","mooney1","image-keyboard-response","203","833850","0.0-6.0-1.28","3113224","co39250","norming","","","","","","",""
"7999.445000000065","","","post_mooney1_questions","survey-likert","204","841855","0.0-6.0-2.28","3113224","co39250","norming","","","{""curiosity"":4,""confidence"":1}","[0,1]","../img/tt/080tt.jpg","",""
"4182.159999999916","","","recognition","survey-text","205","846039","0.0-6.0-3.28","3113224","co39250","norming","","","{""guess"":""a wet tree""}","","../img/tt/080tt.jpg","",""
"null","../img/gs/080gs.jpg","null","reveal","image-keyboard-response","206","848045","0.0-6.0-4.28","3113224","co39250","norming","","","","","","",""
"null","../img/tt/080tt.jpg","null","mooney2","image-keyboard-response","207","850047","0.0-6.0-5.28","3113224","co39250","norming","","","","","","",""
"3093.5350000000326","","","post_reveal_questions","survey-likert","208","853143","0.0-6.0-6.28","3113224","co39250","norming","","","{""aha"":4}","[0]","../img/tt/080tt.jpg","",""
"null","<div style=""font-size:60px;""> </div>","null","fixation","html-keyboard-response","209","853345","0.0-6.0-0.29","3113224","co39250","norming","","","","","","",""
"null","../img/tt/507tt.jpg","null","mooney1","image-keyboard-response","210","856350","0.0-6.0-1.29","3113224","co39250","norming","","","","","","",""
"11206.91499999992","","","post_mooney1_questions","survey-likert","211","867559","0.0-6.0-2.29","3113224","co39250","norming","","","{""curiosity"":6,""confidence"":1}","[0,1]","../img/tt/507tt.jpg","",""
"6166.165000000037","","","recognition","survey-text","212","873727","0.0-6.0-3.29","3113224","co39250","norming","","","{""guess"":""a hunter animal""}","","../img/tt/507tt.jpg","",""
"null","../img/gs/507gs.jpg","null","reveal","image-keyboard-response","213","875737","0.0-6.0-4.29","3113224","co39250","norming","","","","","","",""
"null","../img/tt/507tt.jpg","null","mooney2","image-keyboard-response","214","877744","0.0-6.0-5.29","3113224","co39250","norming","","","","","","",""
"3677.015000000014","","","post_reveal_questions","survey-likert","215","881424","0.0-6.0-6.29","3113224","co39250","norming","","","{""aha"":4}","[0]","../img/tt/507tt.jpg","",""
"null","<div style=""font-size:60px;""> </div>","null","fixation","html-keyboard-response","216","881628","0.0-6.0-0.30","3113224","co39250","norming","","","","","","",""
"null","../img/tt/497tt.jpg","null","mooney1","image-keyboard-response","217","884633","0.0-6.0-1.30","3113224","co39250","norming","","","","","","",""
"8685.75","","","post_mooney1_questions","survey-likert","218","893319","0.0-6.0-2.30","3113224","co39250","norming","","","{""curiosity"":5,""confidence"":2}","[0,1]","../img/tt/497tt.jpg","",""
"3606.060000000056","","","recognition","survey-text","219","896927","0.0-6.0-3.30","3113224","co39250","norming","","","{""guess"":""a cake""}","","../img/tt/497tt.jpg","",""
"null","../img/gs/497gs.jpg","null","reveal","image-keyboard-response","220","898934","0.0-6.0-4.30","3113224","co39250","norming","","","","","","",""
"null","../img/tt/497tt.jpg","null","mooney2","image-keyboard-response","221","900941","0.0-6.0-5.30","3113224","co39250","norming","","","","","","",""
"2356.6049999999814","","","post_reveal_questions","survey-likert","222","903300","0.0-6.0-6.30","3113224","co39250","norming","","","{""aha"":6}","[0]","../img/tt/497tt.jpg","",""
"null","<div style=""font-size:60px;""> </div>","null","fixation","html-keyboard-response","223","903501","0.0-6.0-0.31","3113224","co39250","norming","","","","","","",""
"null","../img/tt/1087tt.jpg","null","mooney1","image-keyboard-response","224","906508","0.0-6.0-1.31","3113224","co39250","norming","","","","","","",""
"3245.2200000000885","","","post_mooney1_questions","survey-likert","225","909756","0.0-6.0-2.31","3113224","co39250","norming","","","{""curiosity"":6,""confidence"":4}","[0,1]","../img/tt/1087tt.jpg","",""
"2701.655000000028","","","recognition","survey-text","226","912459","0.0-6.0-3.31","3113224","co39250","norming","","","{""guess"":""sheep""}","","../img/tt/1087tt.jpg","",""
"null","../img/gs/1087gs.jpg","null","reveal","image-keyboard-response","227","914463","0.0-6.0-4.31","3113224","co39250","norming","","","","","","",""
"null","../img/tt/1087tt.jpg","null","mooney2","image-keyboard-response","228","916464","0.0-6.0-5.31","3113224","co39250","norming","","","","","","",""
"7410.400000000256","","","post_reveal_questions","survey-likert","229","923875","0.0-6.0-6.31","3113224","co39250","norming","","","{""aha"":1}","[0]","../img/tt/1087tt.jpg","",""
"null","<div style=""font-size:60px;""> </div>","null","fixation","html-keyboard-response","230","924079","0.0-6.0-0.32","3113224","co39250","norming","","","","","","",""
"null","../img/tt/567tt.jpg","null","mooney1","image-keyboard-response","231","927082","0.0-6.0-1.32","3113224","co39250","norming","","","","","","",""
"4680.340000000084","","","post_mooney1_questions","survey-likert","232","931764","0.0-6.0-2.32","3113224","co39250","norming","","","{""curiosity"":6,""confidence"":2}","[0,1]","../img/tt/567tt.jpg","",""
"5013.920000000158","","","recognition","survey-text","233","936780","0.0-6.0-3.32","3113224","co39250","norming","","","{""guess"":""broodrooster""}","","../img/tt/567tt.jpg","",""
"null","../img/gs/567gs.jpg","null","reveal","image-keyboard-response","234","938783","0.0-6.0-4.32","3113224","co39250","norming","","","","","","",""
"null","../img/tt/567tt.jpg","null","mooney2","image-keyboard-response","235","940783","0.0-6.0-5.32","3113224","co39250","norming","","","","","","",""
"2627.125","","","post_reveal_questions","survey-likert","236","943411","0.0-6.0-6.32","3113224","co39250","norming","","","{""aha"":2}","[0]","../img/tt/567tt.jpg","",""
"null","<div style=""font-size:60px;""> </div>","null","fixation","html-keyboard-response","237","943614","0.0-6.0-0.33","3113224","co39250","norming","","","","","","",""
"null","../img/tt/1037tt.jpg","null","mooney1","image-keyboard-response","238","946621","0.0-6.0-1.33","3113224","co39250","norming","","","","","","",""
"3637.569999999949","","","post_mooney1_questions","survey-likert","239","950260","0.0-6.0-2.33","3113224","co39250","norming","","","{""curiosity"":6,""confidence"":1}","[0,1]","../img/tt/1037tt.jpg","",""
"3477.6600000000326","","","recognition","survey-text","240","953739","0.0-6.0-3.33","3113224","co39250","norming","","","{""guess"":""wolves""}","","../img/tt/1037tt.jpg","",""
"null","../img/gs/1037gs.jpg","null","reveal","image-keyboard-response","241","955749","0.0-6.0-4.33","3113224","co39250","norming","","","","","","",""
"null","../img/tt/1037tt.jpg","null","mooney2","image-keyboard-response","242","957756","0.0-6.0-5.33","3113224","co39250","norming","","","","","","",""
"3453.130000000121","","","post_reveal_questions","survey-likert","243","961208","0.0-6.0-6.33","3113224","co39250","norming","","","{""aha"":4}","[0]","../img/tt/1037tt.jpg","",""
"null","<div style=""font-size:60px;""> </div>","null","fixation","html-keyboard-response","244","961410","0.0-6.0-0.34","3113224","co39250","norming","","","","","","",""
"null","../img/tt/1199tt.jpg","null","mooney1","image-keyboard-response","245","964415","0.0-6.0-1.34","3113224","co39250","norming","","","","","","",""
"5830.195000000065","","","post_mooney1_questions","survey-likert","246","970248","0.0-6.0-2.34","3113224","co39250","norming","","","{""curiosity"":6,""confidence"":1}","[0,1]","../img/tt/1199tt.jpg","",""
"3958.2449999999953","","","recognition","survey-text","247","974208","0.0-6.0-3.34","3113224","co39250","norming","","","{""guess"":""a doctor""}","","../img/tt/1199tt.jpg","",""
"null","../img/gs/1199gs.jpg","null","reveal","image-keyboard-response","248","976210","0.0-6.0-4.34","3113224","co39250","norming","","","","","","",""
"null","../img/tt/1199tt.jpg","null","mooney2","image-keyboard-response","249","978212","0.0-6.0-5.34","3113224","co39250","norming","","","","","","",""
"2138.0599999999395","","","post_reveal_questions","survey-likert","250","980352","0.0-6.0-6.34","3113224","co39250","norming","","","{""aha"":4}","[0]","../img/tt/1199tt.jpg","",""
"null","<div style=""font-size:60px;""> </div>","null","fixation","html-keyboard-response","251","980554","0.0-6.0-0.35","3113224","co39250","norming","","","","","","",""
"null","../img/tt/353tt.jpg","null","mooney1","image-keyboard-response","252","983559","0.0-6.0-1.35","3113224","co39250","norming","","","","","","",""
"7158.555000000051","","","post_mooney1_questions","survey-likert","253","990721","0.0-6.0-2.35","3113224","co39250","norming","","","{""curiosity"":6,""confidence"":2}","[0,1]","../img/tt/353tt.jpg","",""
"3389.8699999999953","","","recognition","survey-text","254","994112","0.0-6.0-3.35","3113224","co39250","norming","","","{""guess"":""pigs""}","","../img/tt/353tt.jpg","",""
"null","../img/gs/353gs.jpg","null","reveal","image-keyboard-response","255","996113","0.0-6.0-4.35","3113224","co39250","norming","","","","","","",""
"null","../img/tt/353tt.jpg","null","mooney2","image-keyboard-response","256","998116","0.0-6.0-5.35","3113224","co39250","norming","","","","","","",""
"2746.534999999916","","","post_reveal_questions","survey-likert","257","1000864","0.0-6.0-6.35","3113224","co39250","norming","","","{""aha"":4}","[0]","../img/tt/353tt.jpg","",""
"null","<div style=""font-size:60px;""> </div>","null","fixation","html-keyboard-response","258","1001067","0.0-6.0-0.36","3113224","co39250","norming","","","","","","",""
"null","../img/tt/436tt.jpg","null","mooney1","image-keyboard-response","259","1004075","0.0-6.0-1.36","3113224","co39250","norming","","","","","","",""
"5139.385000000009","","","post_mooney1_questions","survey-likert","260","1009217","0.0-6.0-2.36","3113224","co39250","norming","","","{""curiosity"":6,""confidence"":1}","[0,1]","../img/tt/436tt.jpg","",""
"4549.974999999977","","","recognition","survey-text","261","1013768","0.0-6.0-3.36","3113224","co39250","norming","","","{""guess"":""a crocodile""}","","../img/tt/436tt.jpg","",""
"null","../img/gs/436gs.jpg","null","reveal","image-keyboard-response","262","1015775","0.0-6.0-4.36","3113224","co39250","norming","","","","","","",""
"null","../img/tt/436tt.jpg","null","mooney2","image-keyboard-response","263","1017781","0.0-6.0-5.36","3113224","co39250","norming","","","","","","",""
"2065.685000000056","","","post_reveal_questions","survey-likert","264","1019849","0.0-6.0-6.36","3113224","co39250","norming","","","{""aha"":5}","[0]","../img/tt/436tt.jpg","",""
"null","<div style=""font-size:60px;""> </div>","null","fixation","html-keyboard-response","265","1020052","0.0-6.0-0.37","3113224","co39250","norming","","","","","","",""
"null","../img/tt/517tt.jpg","null","mooney1","image-keyboard-response","266","1023063","0.0-6.0-1.37","3113224","co39250","norming","","","","","","",""
"7347.915000000037","","","post_mooney1_questions","survey-likert","267","1030414","0.0-6.0-2.37","3113224","co39250","norming","","","{""curiosity"":4,""confidence"":1}","[0,1]","../img/tt/517tt.jpg","",""
"5765.784999999916","","","recognition","survey-text","268","1036181","0.0-6.0-3.37","3113224","co39250","norming","","","{""guess"":""een luiaard""}","","../img/tt/517tt.jpg","",""
"null","../img/gs/517gs.jpg","null","reveal","image-keyboard-response","269","1038190","0.0-6.0-4.37","3113224","co39250","norming","","","","","","",""
"null","../img/tt/517tt.jpg","null","mooney2","image-keyboard-response","270","1040194","0.0-6.0-5.37","3113224","co39250","norming","","","","","","",""
"2649.060000000056","","","post_reveal_questions","survey-likert","271","1042846","0.0-6.0-6.37","3113224","co39250","norming","","","{""aha"":2}","[0]","../img/tt/517tt.jpg","",""
"null","<div style=""font-size:60px;""> </div>","null","fixation","html-keyboard-response","272","1043047","0.0-6.0-0.38","3113224","co39250","norming","","","","","","",""
"null","../img/tt/081tt.jpg","null","mooney1","image-keyboard-response","273","1046052","0.0-6.0-1.38","3113224","co39250","norming","","","","","","",""
"3718.795000000042","","","post_mooney1_questions","survey-likert","274","1049774","0.0-6.0-2.38","3113224","co39250","norming","","","{""curiosity"":4,""confidence"":2}","[0,1]","../img/tt/081tt.jpg","",""
"2989.929999999935","","","recognition","survey-text","275","1052766","0.0-6.0-3.38","3113224","co39250","norming","","","{""guess"":""a dog""}","","../img/tt/081tt.jpg","",""
"null","../img/gs/081gs.jpg","null","reveal","image-keyboard-response","276","1054771","0.0-6.0-4.38","3113224","co39250","norming","","","","","","",""
"null","../img/tt/081tt.jpg","null","mooney2","image-keyboard-response","277","1056773","0.0-6.0-5.38","3113224","co39250","norming","","","","","","",""
"2374.8249999999534","","","post_reveal_questions","survey-likert","278","1059150","0.0-6.0-6.38","3113224","co39250","norming","","","{""aha"":4}","[0]","../img/tt/081tt.jpg","",""
"null","<div style=""font-size:60px;""> </div>","null","fixation","html-keyboard-response","279","1059359","0.0-6.0-0.39","3113224","co39250","norming","","","","","","",""
"null","../img/tt/079tt.jpg","null","mooney1","image-keyboard-response","280","1062368","0.0-6.0-1.39","3113224","co39250","norming","","","","","","",""
"3915.6949999998324","","","post_mooney1_questions","survey-likert","281","1066286","0.0-6.0-2.39","3113224","co39250","norming","","","{""curiosity"":3,""confidence"":4}","[0,1]","../img/tt/079tt.jpg","",""
"3214.060000000056","","","recognition","survey-text","282","1069502","0.0-6.0-3.39","3113224","co39250","norming","","","{""guess"":""a bear""}","","../img/tt/079tt.jpg","",""
"null","../img/gs/079gs.jpg","null","reveal","image-keyboard-response","283","1071510","0.0-6.0-4.39","3113224","co39250","norming","","","","","","",""
"null","../img/tt/079tt.jpg","null","mooney2","image-keyboard-response","284","1073521","0.0-6.0-5.39","3113224","co39250","norming","","","","","","",""
"4914.3849999997765","","","post_reveal_questions","survey-likert","285","1078438","0.0-6.0-6.39","3113224","co39250","norming","","","{""aha"":2}","[0]","../img/tt/079tt.jpg","",""
"null","<div style=""font-size:60px;""> </div>","null","fixation","html-keyboard-response","286","1078640","0.0-6.0-0.40","3113224","co39250","norming","","","","","","",""
"null","../img/tt/1227tt.jpg","null","mooney1","image-keyboard-response","287","1081642","0.0-6.0-1.40","3113224","co39250","norming","","","","","","",""
"4689.465000000084","","","post_mooney1_questions","survey-likert","288","1086335","0.0-6.0-2.40","3113224","co39250","norming","","","{""curiosity"":3,""confidence"":2}","[0,1]","../img/tt/1227tt.jpg","",""
"3997.929999999935","","","recognition","survey-text","289","1090335","0.0-6.0-3.40","3113224","co39250","norming","","","{""guess"":""chicken""}","","../img/tt/1227tt.jpg","",""
"null","../img/gs/1227gs.jpg","null","reveal","image-keyboard-response","290","1092346","0.0-6.0-4.40","3113224","co39250","norming","","","","","","",""
"null","../img/tt/1227tt.jpg","null","mooney2","image-keyboard-response","291","1094351","0.0-6.0-5.40","3113224","co39250","norming","","","","","","",""
"3166.255000000121","","","post_reveal_questions","survey-likert","292","1097519","0.0-6.0-6.40","3113224","co39250","norming","","","{""aha"":2}","[0]","../img/tt/1227tt.jpg","",""
"null","<div style=""font-size:60px;""> </div>","null","fixation","html-keyboard-response","293","1097720","0.0-6.0-0.41","3113224","co39250","norming","","","","","","",""
"null","../img/tt/032tt.jpg","null","mooney1","image-keyboard-response","294","1100727","0.0-6.0-1.41","3113224","co39250","norming","","","","","","",""
"6839.385000000009","","","post_mooney1_questions","survey-likert","295","1107567","0.0-6.0-2.41","3113224","co39250","norming","","","{""curiosity"":5,""confidence"":0}","[0,1]","../img/tt/032tt.jpg","",""
"662.0800000000745","","","recognition","survey-text","296","1108231","0.0-6.0-3.41","3113224","co39250","norming","","","{""guess"":""""}","","../img/tt/032tt.jpg","",""
"null","../img/gs/032gs.jpg","null","reveal","image-keyboard-response","297","1110233","0.0-6.0-4.41","3113224","co39250","norming","","","","","","",""
"null","../img/tt/032tt.jpg","null","mooney2","image-keyboard-response","298","1112241","0.0-6.0-5.41","3113224","co39250","norming","","","","","","",""
"2316.0149999998976","","","post_reveal_questions","survey-likert","299","1114559","0.0-6.0-6.41","3113224","co39250","norming","","","{""aha"":5}","[0]","../img/tt/032tt.jpg","",""
"null","<div style=""font-size:60px;""> </div>","null","fixation","html-keyboard-response","300","1114766","0.0-6.0-0.42","3113224","co39250","norming","","","","","","",""
"null","../img/tt/1048tt.jpg","null","mooney1","image-keyboard-response","301","1117770","0.0-6.0-1.42","3113224","co39250","norming","","","","","","",""
"8682.639999999898","","","post_mooney1_questions","survey-likert","302","1126456","0.0-6.0-2.42","3113224","co39250","norming","","","{""curiosity"":5,""confidence"":2}","[0,1]","../img/tt/1048tt.jpg","",""
"5013.530000000261","","","recognition","survey-text","303","1131471","0.0-6.0-3.42","3113224","co39250","norming","","","{""guess"":""drinking animals""}","","../img/tt/1048tt.jpg","",""
"null","../img/gs/1048gs.jpg","null","reveal","image-keyboard-response","304","1133479","0.0-6.0-4.42","3113224","co39250","norming","","","","","","",""
"null","../img/tt/1048tt.jpg","null","mooney2","image-keyboard-response","305","1135482","0.0-6.0-5.42","3113224","co39250","norming","","","","","","",""
"3512.864999999758","","","post_reveal_questions","survey-likert","306","1138999","0.0-6.0-6.42","3113224","co39250","norming","","","{""aha"":6}","[0]","../img/tt/1048tt.jpg","",""
"null","<div style=""font-size:60px;""> </div>","null","fixation","html-keyboard-response","307","1139200","0.0-6.0-0.43","3113224","co39250","norming","","","","","","",""
"null","../img/tt/599tt.jpg","null","mooney1","image-keyboard-response","308","1142209","0.0-6.0-1.43","3113224","co39250","norming","","","","","","",""
"4411.350000000093","","","post_mooney1_questions","survey-likert","309","1146625","0.0-6.0-2.43","3113224","co39250","norming","","","{""curiosity"":6,""confidence"":1}","[0,1]","../img/tt/599tt.jpg","",""
"3022.0800000000745","","","recognition","survey-text","310","1149649","0.0-6.0-3.43","3113224","co39250","norming","","","{""guess"":""a cat""}","","../img/tt/599tt.jpg","",""
"null","../img/gs/599gs.jpg","null","reveal","image-keyboard-response","311","1151650","0.0-6.0-4.43","3113224","co39250","norming","","","","","","",""
"null","../img/tt/599tt.jpg","null","mooney2","image-keyboard-response","312","1153652","0.0-6.0-5.43","3113224","co39250","norming","","","","","","",""
"2362.6400000001304","","","post_reveal_questions","survey-likert","313","1156017","0.0-6.0-6.43","3113224","co39250","norming","","","{""aha"":6}","[0]","../img/tt/599tt.jpg","",""
"null","<div style=""font-size:60px;""> </div>","null","fixation","html-keyboard-response","314","1156218","0.0-6.0-0.44","3113224","co39250","norming","","","","","","",""
"null","../img/tt/1024tt.jpg","null","mooney1","image-keyboard-response","315","1159221","0.0-6.0-1.44","3113224","co39250","norming","","","","","","",""
"4297.654999999795","","","post_mooney1_questions","survey-likert","316","1163521","0.0-6.0-2.44","3113224","co39250","norming","","","{""curiosity"":6,""confidence"":0}","[0,1]","../img/tt/1024tt.jpg","",""
"909.9199999999255","","","recognition","survey-text","317","1164433","0.0-6.0-3.44","3113224","co39250","norming","","","{""guess"":""""}","","../img/tt/1024tt.jpg","",""
"null","../img/gs/1024gs.jpg","null","reveal","image-keyboard-response","318","1166437","0.0-6.0-4.44","3113224","co39250","norming","","","","","","",""
"null","../img/tt/1024tt.jpg","null","mooney2","image-keyboard-response","319","1168443","0.0-6.0-5.44","3113224","co39250","norming","","","","","","",""
"1562.2100000001956","","","post_reveal_questions","survey-likert","320","1170009","0.0-6.0-6.44","3113224","co39250","norming","","","{""aha"":6}","[0]","../img/tt/1024tt.jpg","",""
"null","<div style=""font-size:60px;""> </div>","null","fixation","html-keyboard-response","321","1170215","0.0-6.0-0.45","3113224","co39250","norming","","","","","","",""
"null","../img/tt/524tt.jpg","null","mooney1","image-keyboard-response","322","1173217","0.0-6.0-1.45","3113224","co39250","norming","","","","","","",""
"6165.164999999804","","","post_mooney1_questions","survey-likert","323","1179385","0.0-6.0-2.45","3113224","co39250","norming","","","{""curiosity"":6,""confidence"":1}","[0,1]","../img/tt/524tt.jpg","",""
"6062.144999999786","","","recognition","survey-text","324","1185449","0.0-6.0-3.45","3113224","co39250","norming","","","{""guess"":""a buffalo""}","","../img/tt/524tt.jpg","",""
"null","../img/gs/524gs.jpg","null","reveal","image-keyboard-response","325","1187456","0.0-6.0-4.45","3113224","co39250","norming","","","","","","",""
"null","../img/tt/524tt.jpg","null","mooney2","image-keyboard-response","326","1189461","0.0-6.0-5.45","3113224","co39250","norming","","","","","","",""
"3145.0800000000745","","","post_reveal_questions","survey-likert","327","1192608","0.0-6.0-6.45","3113224","co39250","norming","","","{""aha"":6}","[0]","../img/tt/524tt.jpg","",""
"null","<div style=""font-size:60px;""> </div>","null","fixation","html-keyboard-response","328","1192816","0.0-6.0-0.46","3113224","co39250","norming","","","","","","",""
"null","../img/tt/1261tt.jpg","null","mooney1","image-keyboard-response","329","1195822","0.0-6.0-1.46","3113224","co39250","norming","","","","","","",""
"5904.235000000335","","","post_mooney1_questions","survey-likert","330","1201729","0.0-6.0-2.46","3113224","co39250","norming","","","{""curiosity"":6,""confidence"":2}","[0,1]","../img/tt/1261tt.jpg","",""
"3557.9200000001583","","","recognition","survey-text","331","1205289","0.0-6.0-3.46","3113224","co39250","norming","","","{""guess"":""a lama""}","","../img/tt/1261tt.jpg","",""
"null","../img/gs/1261gs.jpg","null","reveal","image-keyboard-response","332","1207293","0.0-6.0-4.46","3113224","co39250","norming","","","","","","",""
"null","../img/tt/1261tt.jpg","null","mooney2","image-keyboard-response","333","1209295","0.0-6.0-5.46","3113224","co39250","norming","","","","","","",""
"2864.8300000000745","","","post_reveal_questions","survey-likert","334","1212163","0.0-6.0-6.46","3113224","co39250","norming","","","{""aha"":6}","[0]","../img/tt/1261tt.jpg","",""
"null","<div style=""font-size:60px;""> </div>","null","fixation","html-keyboard-response","335","1212373","0.0-6.0-0.47","3113224","co39250","norming","","","","","","",""
"null","../img/tt/1159tt.jpg","null","mooney1","image-keyboard-response","336","1215377","0.0-6.0-1.47","3113224","co39250","norming","","","","","","",""
"3703.195000000065","","","post_mooney1_questions","survey-likert","337","1219083","0.0-6.0-2.47","3113224","co39250","norming","","","{""curiosity"":6,""confidence"":0}","[0,1]","../img/tt/1159tt.jpg","",""
"669.7499999997672","","","recognition","survey-text","338","1219755","0.0-6.0-3.47","3113224","co39250","norming","","","{""guess"":""""}","","../img/tt/1159tt.jpg","",""
"null","../img/gs/1159gs.jpg","null","reveal","image-keyboard-response","339","1221762","0.0-6.0-4.47","3113224","co39250","norming","","","","","","",""
"null","../img/tt/1159tt.jpg","null","mooney2","image-keyboard-response","340","1223774","0.0-6.0-5.47","3113224","co39250","norming","","","","","","",""
"3242.564999999944","","","post_reveal_questions","survey-likert","341","1227019","0.0-6.0-6.47","3113224","co39250","norming","","","{""aha"":6}","[0]","../img/tt/1159tt.jpg","",""
"null","<div style=""font-size:60px;""> </div>","null","fixation","html-keyboard-response","342","1227222","0.0-6.0-0.48","3113224","co39250","norming","","","","","","",""
"null","../img/tt/1270tt.jpg","null","mooney1","image-keyboard-response","343","1230227","0.0-6.0-1.48","3113224","co39250","norming","","","","","","",""
"3708.994999999879","","","post_mooney1_questions","survey-likert","344","1233939","0.0-6.0-2.48","3113224","co39250","norming","","","{""curiosity"":5,""confidence"":2}","[0,1]","../img/tt/1270tt.jpg","",""
"3517.939999999944","","","recognition","survey-text","345","1237458","0.0-6.0-3.48","3113224","co39250","norming","","","{""guess"":""a mousse""}","","../img/tt/1270tt.jpg","",""
"null","../img/gs/1270gs.jpg","null","reveal","image-keyboard-response","346","1239461","0.0-6.0-4.48","3113224","co39250","norming","","","","","","",""
"null","../img/tt/1270tt.jpg","null","mooney2","image-keyboard-response","347","1241463","0.0-6.0-5.48","3113224","co39250","norming","","","","","","",""
"2696.7349999998696","","","post_reveal_questions","survey-likert","348","1244162","0.0-6.0-6.48","3113224","co39250","norming","","","{""aha"":2}","[0]","../img/tt/1270tt.jpg","",""
"null","<div style=""font-size:60px;""> </div>","null","fixation","html-keyboard-response","349","1244365","0.0-6.0-0.49","3113224","co39250","norming","","","","","","",""
"null","../img/tt/1040tt.jpg","null","mooney1","image-keyboard-response","350","1247369","0.0-6.0-1.49","3113224","co39250","norming","","","","","","",""
"4957.989999999758","","","post_mooney1_questions","survey-likert","351","1252330","0.0-6.0-2.49","3113224","co39250","norming","","","{""curiosity"":5,""confidence"":2}","[0,1]","../img/tt/1040tt.jpg","",""
"3918.4500000001863","","","recognition","survey-text","352","1256251","0.0-6.0-3.49","3113224","co39250","norming","","","{""guess"":""a crocodile""}","","../img/tt/1040tt.jpg","",""
"null","../img/gs/1040gs.jpg","null","reveal","image-keyboard-response","353","1258254","0.0-6.0-4.49","3113224","co39250","norming","","","","","","",""
"null","../img/tt/1040tt.jpg","null","mooney2","image-keyboard-response","354","1260263","0.0-6.0-5.49","3113224","co39250","norming","","","","","","",""
"2208.744999999879","","","post_reveal_questions","survey-likert","355","1262475","0.0-6.0-6.49","3113224","co39250","norming","","","{""aha"":6}","[0]","../img/tt/1040tt.jpg","",""
"null","<div style=""font-size:60px;""> </div>","null","fixation","html-keyboard-response","356","1262680","0.0-6.0-0.50","3113224","co39250","norming","","","","","","",""
"null","../img/tt/049tt.jpg","null","mooney1","image-keyboard-response","357","1265681","0.0-6.0-1.50","3113224","co39250","norming","","","","","","",""
"7677.055000000168","","","post_mooney1_questions","survey-likert","358","1273355","0.0-6.0-2.50","3113224","co39250","norming","","","{""curiosity"":6,""confidence"":0}","[0,1]","../img/tt/049tt.jpg","",""
"1109.869999999879","","","recognition","survey-text","359","1274466","0.0-6.0-3.50","3113224","co39250","norming","","","{""guess"":""""}","","../img/tt/049tt.jpg","",""
"null","../img/gs/049gs.jpg","null","reveal","image-keyboard-response","360","1276469","0.0-6.0-4.50","3113224","co39250","norming","","","","","","",""
"null","../img/tt/049tt.jpg","null","mooney2","image-keyboard-response","361","1278471","0.0-6.0-5.50","3113224","co39250","norming","","","","","","",""
"2809.0200000000186","","","post_reveal_questions","survey-likert","362","1281283","0.0-6.0-6.50","3113224","co39250","norming","","","{""aha"":5}","[0]","../img/tt/049tt.jpg","",""
"null","<div style=""font-size:60px;""> </div>","null","fixation","html-keyboard-response","363","1281484","0.0-6.0-0.51","3113224","co39250","norming","","","","","","",""
"null","../img/tt/1033tt.jpg","null","mooney1","image-keyboard-response","364","1284490","0.0-6.0-1.51","3113224","co39250","norming","","","","","","",""
"3942.9050000002608","","","post_mooney1_questions","survey-likert","365","1288435","0.0-6.0-2.51","3113224","co39250","norming","","","{""curiosity"":6,""confidence"":0}","[0,1]","../img/tt/1033tt.jpg","",""
"910.0649999999441","","","recognition","survey-text","366","1289346","0.0-6.0-3.51","3113224","co39250","norming","","","{""guess"":""""}","","../img/tt/1033tt.jpg","",""
"null","../img/gs/1033gs.jpg","null","reveal","image-keyboard-response","367","1291349","0.0-6.0-4.51","3113224","co39250","norming","","","","","","",""
"null","../img/tt/1033tt.jpg","null","mooney2","image-keyboard-response","368","1293357","0.0-6.0-5.51","3113224","co39250","norming","","","","","","",""
"3258.7900000000373","","","post_reveal_questions","survey-likert","369","1296618","0.0-6.0-6.51","3113224","co39250","norming","","","{""aha"":6}","[0]","../img/tt/1033tt.jpg","",""
"null","<div style=""font-size:60px;""> </div>","null","fixation","html-keyboard-response","370","1296828","0.0-6.0-0.52","3113224","co39250","norming","","","","","","",""
"null","../img/tt/1260tt.jpg","null","mooney1","image-keyboard-response","371","1299836","0.0-6.0-1.52","3113224","co39250","norming","","","","","","",""
"5220.064999999944","","","post_mooney1_questions","survey-likert","372","1305059","0.0-6.0-2.52","3113224","co39250","norming","","","{""curiosity"":6,""confidence"":0}","[0,1]","../img/tt/1260tt.jpg","",""
"989.7049999998417","","","recognition","survey-text","373","1306050","0.0-6.0-3.52","3113224","co39250","norming","","","{""guess"":""""}","","../img/tt/1260tt.jpg","",""
"null","../img/gs/1260gs.jpg","null","reveal","image-keyboard-response","374","1308051","0.0-6.0-4.52","3113224","co39250","norming","","","","","","",""
"null","../img/tt/1260tt.jpg","null","mooney2","image-keyboard-response","375","1310059","0.0-6.0-5.52","3113224","co39250","norming","","","","","","",""
"2605.105000000214","","","post_reveal_questions","survey-likert","376","1312666","0.0-6.0-6.52","3113224","co39250","norming","","","{""aha"":6}","[0]","../img/tt/1260tt.jpg","",""
"null","<div style=""font-size:60px;""> </div>","null","fixation","html-keyboard-response","377","1312869","0.0-6.0-0.53","3113224","co39250","norming","","","","","","",""
"null","../img/tt/085tt.jpg","null","mooney1","image-keyboard-response","378","1315874","0.0-6.0-1.53","3113224","co39250","norming","","","","","","",""
"4285.004999999888","","","post_mooney1_questions","survey-likert","379","1320162","0.0-6.0-2.53","3113224","co39250","norming","","","{""curiosity"":5,""confidence"":1}","[0,1]","../img/tt/085tt.jpg","",""
"4198.405000000261","","","recognition","survey-text","380","1324363","0.0-6.0-3.53","3113224","co39250","norming","","","{""guess"":""een krekel""}","","../img/tt/085tt.jpg","",""
"null","../img/gs/085gs.jpg","null","reveal","image-keyboard-response","381","1326369","0.0-6.0-4.53","3113224","co39250","norming","","","","","","",""
"null","../img/tt/085tt.jpg","null","mooney2","image-keyboard-response","382","1328371","0.0-6.0-5.53","3113224","co39250","norming","","","","","","",""
"2980.7900000000373","","","post_reveal_questions","survey-likert","383","1331363","0.0-6.0-6.53","3113224","co39250","norming","","","{""aha"":3}","[0]","../img/tt/085tt.jpg","",""
"null","<div style=""font-size:60px;""> </div>","null","fixation","html-keyboard-response","384","1331569","0.0-6.0-0.54","3113224","co39250","norming","","","","","","",""
"null","../img/tt/1006tt.jpg","null","mooney1","image-keyboard-response","385","1334581","0.0-6.0-1.54","3113224","co39250","norming","","","","","","",""
"6370.75","","","post_mooney1_questions","survey-likert","386","1340955","0.0-6.0-2.54","3113224","co39250","norming","","","{""curiosity"":6,""confidence"":1}","[0,1]","../img/tt/1006tt.jpg","",""
"2950.1800000001676","","","recognition","survey-text","387","1343907","0.0-6.0-3.54","3113224","co39250","norming","","","{""guess"":""goats""}","","../img/tt/1006tt.jpg","",""
"null","../img/gs/1006gs.jpg","null","reveal","image-keyboard-response","388","1345913","0.0-6.0-4.54","3113224","co39250","norming","","","","","","",""
"null","../img/tt/1006tt.jpg","null","mooney2","image-keyboard-response","389","1347915","0.0-6.0-5.54","3113224","co39250","norming","","","","","","",""
"5573.689999999944","","","post_reveal_questions","survey-likert","390","1353491","0.0-6.0-6.54","3113224","co39250","norming","","","{""aha"":2}","[0]","../img/tt/1006tt.jpg","",""
"null","<div style=""font-size:60px;""> </div>","null","fixation","html-keyboard-response","391","1353694","0.0-6.0-0.55","3113224","co39250","norming","","","","","","",""
"null","../img/tt/094tt.jpg","null","mooney1","image-keyboard-response","392","1356698","0.0-6.0-1.55","3113224","co39250","norming","","","","","","",""
"2503.2999999998137","","","post_mooney1_questions","survey-likert","393","1359203","0.0-6.0-2.55","3113224","co39250","norming","","","{""curiosity"":5,""confidence"":1}","[0,1]","../img/tt/094tt.jpg","",""
"2902.1200000001118","","","recognition","survey-text","394","1362107","0.0-6.0-3.55","3113224","co39250","norming","","","{""guess"":""a cow""}","","../img/tt/094tt.jpg","",""
"null","../img/gs/094gs.jpg","null","reveal","image-keyboard-response","395","1364114","0.0-6.0-4.55","3113224","co39250","norming","","","","","","",""
"null","../img/tt/094tt.jpg","null","mooney2","image-keyboard-response","396","1366123","0.0-6.0-5.55","3113224","co39250","norming","","","","","","",""
"2797.714999999851","","","post_reveal_questions","survey-likert","397","1368923","0.0-6.0-6.55","3113224","co39250","norming","","","{""aha"":4}","[0]","../img/tt/094tt.jpg","",""
"null","<div style=""font-size:60px;""> </div>","null","fixation","html-keyboard-response","398","1369124","0.0-6.0-0.56","3113224","co39250","norming","","","","","","",""
"null","../img/tt/329tt.jpg","null","mooney1","image-keyboard-response","399","1372126","0.0-6.0-1.56","3113224","co39250","norming","","","","","","",""
"3529.4850000001024","","","post_mooney1_questions","survey-likert","400","1375659","0.0-6.0-2.56","3113224","co39250","norming","","","{""curiosity"":6,""confidence"":0}","[0,1]","../img/tt/329tt.jpg","",""
"597.7299999999814","","","recognition","survey-text","401","1376258","0.0-6.0-3.56","3113224","co39250","norming","","","{""guess"":""""}","","../img/tt/329tt.jpg","",""
"null","../img/gs/329gs.jpg","null","reveal","image-keyboard-response","402","1378266","0.0-6.0-4.56","3113224","co39250","norming","","","","","","",""
"null","../img/tt/329tt.jpg","null","mooney2","image-keyboard-response","403","1380268","0.0-6.0-5.56","3113224","co39250","norming","","","","","","",""
"2284.655000000028","","","post_reveal_questions","survey-likert","404","1382555","0.0-6.0-6.56","3113224","co39250","norming","","","{""aha"":6}","[0]","../img/tt/329tt.jpg","",""
"null","<div style=""font-size:60px;""> </div>","null","fixation","html-keyboard-response","405","1382762","0.0-6.0-0.57","3113224","co39250","norming","","","","","","",""
"null","../img/tt/013tt.jpg","null","mooney1","image-keyboard-response","406","1385770","0.0-6.0-1.57","3113224","co39250","norming","","","","","","",""
"4821.394999999786","","","post_mooney1_questions","survey-likert","407","1390592","0.0-6.0-2.57","3113224","co39250","norming","","","{""curiosity"":6,""confidence"":0}","[0,1]","../img/tt/013tt.jpg","",""
"829.9750000000931","","","recognition","survey-text","408","1391424","0.0-6.0-3.57","3113224","co39250","norming","","","{""guess"":""""}","","../img/tt/013tt.jpg","",""
"null","../img/gs/013gs.jpg","null","reveal","image-keyboard-response","409","1393434","0.0-6.0-4.57","3113224","co39250","norming","","","","","","",""
"null","../img/tt/013tt.jpg","null","mooney2","image-keyboard-response","410","1395438","0.0-6.0-5.57","3113224","co39250","norming","","","","","","",""
"3015.8549999997485","","","post_reveal_questions","survey-likert","411","1398456","0.0-6.0-6.57","3113224","co39250","norming","","","{""aha"":5}","[0]","../img/tt/013tt.jpg","",""
"null","<div style=""font-size:60px;""> </div>","null","fixation","html-keyboard-response","412","1398663","0.0-6.0-0.58","3113224","co39250","norming","","","","","","",""
"null","../img/tt/126tt.jpg","null","mooney1","image-keyboard-response","413","1401669","0.0-6.0-1.58","3113224","co39250","norming","","","","","","",""
"4455.625000000233","","","post_mooney1_questions","survey-likert","414","1406128","0.0-6.0-2.58","3113224","co39250","norming","","","{""curiosity"":6,""confidence"":2}","[0,1]","../img/tt/126tt.jpg","",""
"2941.880000000121","","","recognition","survey-text","415","1409072","0.0-6.0-3.58","3113224","co39250","norming","","","{""guess"":""a whale""}","","../img/tt/126tt.jpg","",""
"null","../img/gs/126gs.jpg","null","reveal","image-keyboard-response","416","1411074","0.0-6.0-4.58","3113224","co39250","norming","","","","","","",""
"null","../img/tt/126tt.jpg","null","mooney2","image-keyboard-response","417","1413076","0.0-6.0-5.58","3113224","co39250","norming","","","","","","",""
"3136.715000000084","","","post_reveal_questions","survey-likert","418","1416216","0.0-6.0-6.58","3113224","co39250","norming","","","{""aha"":6}","[0]","../img/tt/126tt.jpg","",""
"null","<div style=""font-size:60px;""> </div>","null","fixation","html-keyboard-response","419","1416424","0.0-6.0-0.59","3113224","co39250","norming","","","","","","",""
"null","../img/tt/1309tt.jpg","null","mooney1","image-keyboard-response","420","1419431","0.0-6.0-1.59","3113224","co39250","norming","","","","","","",""
"5381.924999999814","","","post_mooney1_questions","survey-likert","421","1424816","0.0-6.0-2.59","3113224","co39250","norming","","","{""curiosity"":5,""confidence"":3}","[0,1]","../img/tt/1309tt.jpg","",""
"3373.8700000001118","","","recognition","survey-text","422","1428192","0.0-6.0-3.59","3113224","co39250","norming","","","{""guess"":""a truck""}","","../img/tt/1309tt.jpg","",""
"null","../img/gs/1309gs.jpg","null","reveal","image-keyboard-response","423","1430198","0.0-6.0-4.59","3113224","co39250","norming","","","","","","",""
"null","../img/tt/1309tt.jpg","null","mooney2","image-keyboard-response","424","1432209","0.0-6.0-5.59","3113224","co39250","norming","","","","","","",""
"2796.024999999907","","","post_reveal_questions","survey-likert","425","1435008","0.0-6.0-6.59","3113224","co39250","norming","","","{""aha"":2}","[0]","../img/tt/1309tt.jpg","",""
"null","<div style=""font-size:60px;""> </div>","null","fixation","html-keyboard-response","426","1435215","0.0-6.0-0.60","3113224","co39250","norming","","","","","","",""
"null","../img/tt/222tt.jpg","null","mooney1","image-keyboard-response","427","1438219","0.0-6.0-1.60","3113224","co39250","norming","","","","","","",""
"3081.2399999999907","","","post_mooney1_questions","survey-likert","428","1441304","0.0-6.0-2.60","3113224","co39250","norming","","","{""curiosity"":5,""confidence"":2}","[0,1]","../img/tt/222tt.jpg","",""
"3478","","","recognition","survey-text","429","1444784","0.0-6.0-3.60","3113224","co39250","norming","","","{""guess"":""a boat""}","","../img/tt/222tt.jpg","",""
"null","../img/gs/222gs.jpg","null","reveal","image-keyboard-response","430","1446790","0.0-6.0-4.60","3113224","co39250","norming","","","","","","",""
"null","../img/tt/222tt.jpg","null","mooney2","image-keyboard-response","431","1448792","0.0-6.0-5.60","3113224","co39250","norming","","","","","","",""
"1782.4150000000373","","","post_reveal_questions","survey-likert","432","1450576","0.0-6.0-6.60","3113224","co39250","norming","","","{""aha"":6}","[0]","../img/tt/222tt.jpg","",""
"null","<div style=""font-size:60px;""> </div>","null","fixation","html-keyboard-response","433","1450788","0.0-6.0-0.61","3113224","co39250","norming","","","","","","",""
"null","../img/tt/1262tt.jpg","null","mooney1","image-keyboard-response","434","1453800","0.0-6.0-1.61","3113224","co39250","norming","","","","","","",""
"7080.435000000056","","","post_mooney1_questions","survey-likert","435","1460883","0.0-6.0-2.61","3113224","co39250","norming","","","{""curiosity"":6,""confidence"":1}","[0,1]","../img/tt/1262tt.jpg","",""
"3510.0449999999255","","","recognition","survey-text","436","1464395","0.0-6.0-3.61","3113224","co39250","norming","","","{""guess"":""a fish""}","","../img/tt/1262tt.jpg","",""
"null","../img/gs/1262gs.jpg","null","reveal","image-keyboard-response","437","1466399","0.0-6.0-4.61","3113224","co39250","norming","","","","","","",""
"null","../img/tt/1262tt.jpg","null","mooney2","image-keyboard-response","438","1468407","0.0-6.0-5.61","3113224","co39250","norming","","","","","","",""
"3129.1049999999814","","","post_reveal_questions","survey-likert","439","1471539","0.0-6.0-6.61","3113224","co39250","norming","","","{""aha"":4}","[0]","../img/tt/1262tt.jpg","",""
"null","<div style=""font-size:60px;""> </div>","null","fixation","html-keyboard-response","440","1471741","0.0-6.0-0.62","3113224","co39250","norming","","","","","","",""
"null","../img/tt/603tt.jpg","null","mooney1","image-keyboard-response","441","1474743","0.0-6.0-1.62","3113224","co39250","norming","","","","","","",""
"4403.1049999997485","","","post_mooney1_questions","survey-likert","442","1479148","0.0-6.0-2.62","3113224","co39250","norming","","","{""curiosity"":6,""confidence"":0}","[0,1]","../img/tt/603tt.jpg","",""
"1069.9799999999814","","","recognition","survey-text","443","1480219","0.0-6.0-3.62","3113224","co39250","norming","","","{""guess"":""""}","","../img/tt/603tt.jpg","",""
"null","../img/gs/603gs.jpg","null","reveal","image-keyboard-response","444","1482220","0.0-6.0-4.62","3113224","co39250","norming","","","","","","",""
"null","../img/tt/603tt.jpg","null","mooney2","image-keyboard-response","445","1484222","0.0-6.0-5.62","3113224","co39250","norming","","","","","","",""
"2482.2949999999255","","","post_reveal_questions","survey-likert","446","1486707","0.0-6.0-6.62","3113224","co39250","norming","","","{""aha"":4}","[0]","../img/tt/603tt.jpg","",""
"null","<div style=""font-size:60px;""> </div>","null","fixation","html-keyboard-response","447","1486911","0.0-6.0-0.63","3113224","co39250","norming","","","","","","",""
"null","../img/tt/315tt.jpg","null","mooney1","image-keyboard-response","448","1489922","0.0-6.0-1.63","3113224","co39250","norming","","","","","","",""
"5357.789999999804","","","post_mooney1_questions","survey-likert","449","1495284","0.0-6.0-2.63","3113224","co39250","norming","","","{""curiosity"":5,""confidence"":1}","[0,1]","../img/tt/315tt.jpg","",""
"8293.749999999767","","","recognition","survey-text","450","1503579","0.0-6.0-3.63","3113224","co39250","norming","","","{""guess"":""a jaguar""}","","../img/tt/315tt.jpg","",""
"null","../img/gs/315gs.jpg","null","reveal","image-keyboard-response","451","1505585","0.0-6.0-4.63","3113224","co39250","norming","","","","","","",""
"null","../img/tt/315tt.jpg","null","mooney2","image-keyboard-response","452","1507595","0.0-6.0-5.63","3113224","co39250","norming","","","","","","",""
"4717.385000000009","","","post_reveal_questions","survey-likert","453","1512315","0.0-6.0-6.63","3113224","co39250","norming","","","{""aha"":1}","[0]","../img/tt/315tt.jpg","",""
"null","<div style=""font-size:60px;""> </div>","null","fixation","html-keyboard-response","454","1512523","0.0-6.0-0.64","3113224","co39250","norming","","","","","","",""
"null","../img/tt/1173tt.jpg","null","mooney1","image-keyboard-response","455","1515526","0.0-6.0-1.64","3113224","co39250","norming","","","","","","",""
"6307.699999999953","","","post_mooney1_questions","survey-likert","456","1521835","0.0-6.0-2.64","3113224","co39250","norming","","","{""curiosity"":5,""confidence"":2}","[0,1]","../img/tt/1173tt.jpg","",""
"6630.049999999814","","","recognition","survey-text","457","1528467","0.0-6.0-3.64","3113224","co39250","norming","","","{""guess"":""hockey players""}","","../img/tt/1173tt.jpg","",""
"null","../img/gs/1173gs.jpg","null","reveal","image-keyboard-response","458","1530473","0.0-6.0-4.64","3113224","co39250","norming","","","","","","",""
"null","../img/tt/1173tt.jpg","null","mooney2","image-keyboard-response","459","1532475","0.0-6.0-5.64","3113224","co39250","norming","","","","","","",""
"3365.6149999999907","","","post_reveal_questions","survey-likert","460","1535843","0.0-6.0-6.64","3113224","co39250","norming","","","{""aha"":4}","[0]","../img/tt/1173tt.jpg","",""
"null","<div style=""font-size:60px;""> </div>","null","fixation","html-keyboard-response","461","1536052","0.0-6.0-0.65","3113224","co39250","norming","","","","","","",""
"null","../img/tt/319tt.jpg","null","mooney1","image-keyboard-response","462","1539063","0.0-6.0-1.65","3113224","co39250","norming","","","","","","",""
"8529.289999999804","","","post_mooney1_questions","survey-likert","463","1547595","0.0-6.0-2.65","3113224","co39250","norming","","","{""curiosity"":6,""confidence"":1}","[0,1]","../img/tt/319tt.jpg","",""
"8813.824999999953","","","recognition","survey-text","464","1556411","0.0-6.0-3.65","3113224","co39250","norming","","","{""guess"":""een ezel""}","","../img/tt/319tt.jpg","",""
"null","../img/gs/319gs.jpg","null","reveal","image-keyboard-response","465","1558412","0.0-6.0-4.65","3113224","co39250","norming","","","","","","",""
"null","../img/tt/319tt.jpg","null","mooney2","image-keyboard-response","466","1560414","0.0-6.0-5.65","3113224","co39250","norming","","","","","","",""
"3042.159999999916","","","post_reveal_questions","survey-likert","467","1563459","0.0-6.0-6.65","3113224","co39250","norming","","","{""aha"":5}","[0]","../img/tt/319tt.jpg","",""
"null","<div style=""font-size:60px;""> </div>","null","fixation","html-keyboard-response","468","1563669","0.0-6.0-0.66","3113224","co39250","norming","","","","","","",""
"null","../img/tt/163tt.jpg","null","mooney1","image-keyboard-response","469","1566674","0.0-6.0-1.66","3113224","co39250","norming","","","","","","",""
"5759.975000000093","","","post_mooney1_questions","survey-likert","470","1572433","0.0-6.0-2.66","3113224","co39250","norming","","","{""curiosity"":5,""confidence"":2}","[0,1]","../img/tt/163tt.jpg","",""
"8485.975000000093","","","recognition","survey-text","471","1580921","0.0-6.0-3.66","3113224","co39250","norming","","","{""guess"":""animal head""}","","../img/tt/163tt.jpg","",""
"null","../img/gs/163gs.jpg","null","reveal","image-keyboard-response","472","1582928","0.0-6.0-4.66","3113224","co39250","norming","","","","","","",""
"null","../img/tt/163tt.jpg","null","mooney2","image-keyboard-response","473","1584929","0.0-6.0-5.66","3113224","co39250","norming","","","","","","",""
"2101.3850000000093","","","post_reveal_questions","survey-likert","474","1587033","0.0-6.0-6.66","3113224","co39250","norming","","","{""aha"":6}","[0]","../img/tt/163tt.jpg","",""
"null","<div style=""font-size:60px;""> </div>","null","fixation","html-keyboard-response","475","1587234","0.0-6.0-0.67","3113224","co39250","norming","","","","","","",""
"null","../img/tt/468tt.jpg","null","mooney1","image-keyboard-response","476","1590240","0.0-6.0-1.67","3113224","co39250","norming","","","","","","",""
"3013.820000000065","","","post_mooney1_questions","survey-likert","477","1593257","0.0-6.0-2.67","3113224","co39250","norming","","","{""curiosity"":6,""confidence"":0}","[0,1]","../img/tt/468tt.jpg","",""
"469.9049999997951","","","recognition","survey-text","478","1593729","0.0-6.0-3.67","3113224","co39250","norming","","","{""guess"":""""}","","../img/tt/468tt.jpg","",""
"null","../img/gs/468gs.jpg","null","reveal","image-keyboard-response","479","1595738","0.0-6.0-4.67","3113224","co39250","norming","","","","","","",""
"null","../img/tt/468tt.jpg","null","mooney2","image-keyboard-response","480","1597743","0.0-6.0-5.67","3113224","co39250","norming","","","","","","",""
"2183.340000000084","","","post_reveal_questions","survey-likert","481","1599929","0.0-6.0-6.67","3113224","co39250","norming","","","{""aha"":6}","[0]","../img/tt/468tt.jpg","",""
"null","<div style=""font-size:60px;""> </div>","null","fixation","html-keyboard-response","482","1600139","0.0-6.0-0.68","3113224","co39250","norming","","","","","","",""
"null","../img/tt/1066tt.jpg","null","mooney1","image-keyboard-response","483","1603146","0.0-6.0-1.68","3113224","co39250","norming","","","","","","",""
"3963.2949999999255","","","post_mooney1_questions","survey-likert","484","1607113","0.0-6.0-2.68","3113224","co39250","norming","","","{""curiosity"":5,""confidence"":1}","[0,1]","../img/tt/1066tt.jpg","",""
"6718.170000000158","","","recognition","survey-text","485","1613833","0.0-6.0-3.68","3113224","co39250","norming","","","{""guess"":""een drukerij""}","","../img/tt/1066tt.jpg","",""
"null","../img/gs/1066gs.jpg","null","reveal","image-keyboard-response","486","1615841","0.0-6.0-4.68","3113224","co39250","norming","","","","","","",""
"null","../img/tt/1066tt.jpg","null","mooney2","image-keyboard-response","487","1617846","0.0-6.0-5.68","3113224","co39250","norming","","","","","","",""
"2576.0749999999534","","","post_reveal_questions","survey-likert","488","1620425","0.0-6.0-6.68","3113224","co39250","norming","","","{""aha"":6}","[0]","../img/tt/1066tt.jpg","",""
"null","<div style=""font-size:60px;""> </div>","null","fixation","html-keyboard-response","489","1620632","0.0-6.0-0.69","3113224","co39250","norming","","","","","","",""
"null","../img/tt/1235tt.jpg","null","mooney1","image-keyboard-response","490","1623634","0.0-6.0-1.69","3113224","co39250","norming","","","","","","",""
"3700.100000000093","","","post_mooney1_questions","survey-likert","491","1627337","0.0-6.0-2.69","3113224","co39250","norming","","","{""curiosity"":6,""confidence"":0}","[0,1]","../img/tt/1235tt.jpg","",""
"589.8850000000093","","","recognition","survey-text","492","1627929","0.0-6.0-3.69","3113224","co39250","norming","","","{""guess"":""""}","","../img/tt/1235tt.jpg","",""
"null","../img/gs/1235gs.jpg","null","reveal","image-keyboard-response","493","1629939","0.0-6.0-4.69","3113224","co39250","norming","","","","","","",""
"null","../img/tt/1235tt.jpg","null","mooney2","image-keyboard-response","494","1631944","0.0-6.0-5.69","3113224","co39250","norming","","","","","","",""
"1648.1850000000559","","","post_reveal_questions","survey-likert","495","1633595","0.0-6.0-6.69","3113224","co39250","norming","","","{""aha"":6}","[0]","../img/tt/1235tt.jpg","",""
"null","<div style=""font-size:60px;""> </div>","null","fixation","html-keyboard-response","496","1633798","0.0-6.0-0.70","3113224","co39250","norming","","","","","","",""
"null","../img/tt/1143tt.jpg","null","mooney1","image-keyboard-response","497","1636809","0.0-6.0-1.70","3113224","co39250","norming","","","","","","",""
"3926.840000000084","","","post_mooney1_questions","survey-likert","498","1640739","0.0-6.0-2.70","3113224","co39250","norming","","","{""curiosity"":4,""confidence"":4}","[0,1]","../img/tt/1143tt.jpg","",""
"2957.9550000000745","","","recognition","survey-text","499","1643699","0.0-6.0-3.70","3113224","co39250","norming","","","{""guess"":""fitness""}","","../img/tt/1143tt.jpg","",""
"null","../img/gs/1143gs.jpg","null","reveal","image-keyboard-response","500","1645704","0.0-6.0-4.70","3113224","co39250","norming","","","","","","",""
"null","../img/tt/1143tt.jpg","null","mooney2","image-keyboard-response","501","1647705","0.0-6.0-5.70","3113224","co39250","norming","","","","","","",""
"2015.119999999879","","","post_reveal_questions","survey-likert","502","1649723","0.0-6.0-6.70","3113224","co39250","norming","","","{""aha"":1}","[0]","../img/tt/1143tt.jpg","",""
"null","<div style=""font-size:60px;""> </div>","null","fixation","html-keyboard-response","503","1649925","0.0-6.0-0.71","3113224","co39250","norming","","","","","","",""
"null","../img/tt/1004tt.jpg","null","mooney1","image-keyboard-response","504","1652928","0.0-6.0-1.71","3113224","co39250","norming","","","","","","",""
"5927.600000000093","","","post_mooney1_questions","survey-likert","505","1658859","0.0-6.0-2.71","3113224","co39250","norming","","","{""curiosity"":5,""confidence"":1}","[0,1]","../img/tt/1004tt.jpg","",""
"2966.029999999795","","","recognition","survey-text","506","1661827","0.0-6.0-3.71","3113224","co39250","norming","","","{""guess"":""pigs""}","","../img/tt/1004tt.jpg","",""
"null","../img/gs/1004gs.jpg","null","reveal","image-keyboard-response","507","1663836","0.0-6.0-4.71","3113224","co39250","norming","","","","","","",""
"null","../img/tt/1004tt.jpg","null","mooney2","image-keyboard-response","508","1665844","0.0-6.0-5.71","3113224","co39250","norming","","","","","","",""
"5460.629999999655","","","post_reveal_questions","survey-likert","509","1671307","0.0-6.0-6.71","3113224","co39250","norming","","","{""aha"":6}","[0]","../img/tt/1004tt.jpg","",""
"null","<div style=""font-size:60px;""> </div>","null","fixation","html-keyboard-response","510","1671508","0.0-6.0-0.72","3113224","co39250","norming","","","","","","",""
"null","../img/tt/1272tt.jpg","null","mooney1","image-keyboard-response","511","1674514","0.0-6.0-1.72","3113224","co39250","norming","","","","","","",""
"5654.304999999935","","","post_mooney1_questions","survey-likert","512","1680171","0.0-6.0-2.72","3113224","co39250","norming","","","{""curiosity"":6,""confidence"":0}","[0,1]","../img/tt/1272tt.jpg","",""
"1069.844999999972","","","recognition","survey-text","513","1681243","0.0-6.0-3.72","3113224","co39250","norming","","","{""guess"":""""}","","../img/tt/1272tt.jpg","",""
"null","../img/gs/1272gs.jpg","null","reveal","image-keyboard-response","514","1683250","0.0-6.0-4.72","3113224","co39250","norming","","","","","","",""
"null","../img/tt/1272tt.jpg","null","mooney2","image-keyboard-response","515","1685261","0.0-6.0-5.72","3113224","co39250","norming","","","","","","",""
"3010.655000000028","","","post_reveal_questions","survey-likert","516","1688275","0.0-6.0-6.72","3113224","co39250","norming","","","{""aha"":6}","[0]","../img/tt/1272tt.jpg","",""
"null","<div style=""font-size:60px;""> </div>","null","fixation","html-keyboard-response","517","1688477","0.0-6.0-0.73","3113224","co39250","norming","","","","","","",""
"null","../img/tt/1202tt.jpg","null","mooney1","image-keyboard-response","518","1691485","0.0-6.0-1.73","3113224","co39250","norming","","","","","","",""
"3827.244999999879","","","post_mooney1_questions","survey-likert","519","1695315","0.0-6.0-2.73","3113224","co39250","norming","","","{""curiosity"":6,""confidence"":0}","[0,1]","../img/tt/1202tt.jpg","",""
"813.7550000001211","","","recognition","survey-text","520","1696130","0.0-6.0-3.73","3113224","co39250","norming","","","{""guess"":""""}","","../img/tt/1202tt.jpg","",""
"null","../img/gs/1202gs.jpg","null","reveal","image-keyboard-response","521","1698134","0.0-6.0-4.73","3113224","co39250","norming","","","","","","",""
"null","../img/tt/1202tt.jpg","null","mooney2","image-keyboard-response","522","1700136","0.0-6.0-5.73","3113224","co39250","norming","","","","","","",""
"3895.874999999767","","","post_reveal_questions","survey-likert","523","1704035","0.0-6.0-6.73","3113224","co39250","norming","","","{""aha"":6}","[0]","../img/tt/1202tt.jpg","",""
"null","<div style=""font-size:60px;""> </div>","null","fixation","html-keyboard-response","524","1704237","0.0-6.0-0.74","3113224","co39250","norming","","","","","","",""
"null","../img/tt/044tt.jpg","null","mooney1","image-keyboard-response","525","1707240","0.0-6.0-1.74","3113224","co39250","norming","","","","","","",""
"5414.48499999987","","","post_mooney1_questions","survey-likert","526","1712658","0.0-6.0-2.74","3113224","co39250","norming","","","{""curiosity"":5,""confidence"":2}","[0,1]","../img/tt/044tt.jpg","",""
"3550.3549999999814","","","recognition","survey-text","527","1716210","0.0-6.0-3.74","3113224","co39250","norming","","","{""guess"":""a laptop""}","","../img/tt/044tt.jpg","",""
"null","../img/gs/044gs.jpg","null","reveal","image-keyboard-response","528","1718213","0.0-6.0-4.74","3113224","co39250","norming","","","","","","",""
"null","../img/tt/044tt.jpg","null","mooney2","image-keyboard-response","529","1720217","0.0-6.0-5.74","3113224","co39250","norming","","","","","","",""
"3015.255000000121","","","post_reveal_questions","survey-likert","530","1723235","0.0-6.0-6.74","3113224","co39250","norming","","","{""aha"":6}","[0]","../img/tt/044tt.jpg","",""
"null","<div style=""font-size:60px;""> </div>","null","fixation","html-keyboard-response","531","1723440","0.0-6.0-0.75","3113224","co39250","norming","","","","","","",""
"null","../img/tt/1205tt.jpg","null","mooney1","image-keyboard-response","532","1726450","0.0-6.0-1.75","3113224","co39250","norming","","","","","","",""
"8709.65000000014","","","post_mooney1_questions","survey-likert","533","1735163","0.0-6.0-2.75","3113224","co39250","norming","","","{""curiosity"":6,""confidence"":2}","[0,1]","../img/tt/1205tt.jpg","",""
"5045.814999999944","","","recognition","survey-text","534","1740211","0.0-6.0-3.75","3113224","co39250","norming","","","{""guess"":""show publiek""}","","../img/tt/1205tt.jpg","",""
"null","../img/gs/1205gs.jpg","null","reveal","image-keyboard-response","535","1742219","0.0-6.0-4.75","3113224","co39250","norming","","","","","","",""
"null","../img/tt/1205tt.jpg","null","mooney2","image-keyboard-response","536","1744222","0.0-6.0-5.75","3113224","co39250","norming","","","","","","",""
"2849.470000000205","","","post_reveal_questions","survey-likert","537","1747075","0.0-6.0-6.75","3113224","co39250","norming","","","{""aha"":5}","[0]","../img/tt/1205tt.jpg","",""
"null","<div style=""font-size:60px;""> </div>","null","fixation","html-keyboard-response","538","1747278","0.0-6.0-0.76","3113224","co39250","norming","","","","","","",""
"null","../img/tt/1130tt.jpg","null","mooney1","image-keyboard-response","539","1750281","0.0-6.0-1.76","3113224","co39250","norming","","","","","","",""
"4054.560000000056","","","post_mooney1_questions","survey-likert","540","1754339","0.0-6.0-2.76","3113224","co39250","norming","","","{""curiosity"":4,""confidence"":4}","[0,1]","../img/tt/1130tt.jpg","",""
"8973.994999999646","","","recognition","survey-text","541","1763315","0.0-6.0-3.76","3113224","co39250","norming","","","{""guess"":""a cyclist""}","","../img/tt/1130tt.jpg","",""
"null","../img/gs/1130gs.jpg","null","reveal","image-keyboard-response","542","1765320","0.0-6.0-4.76","3113224","co39250","norming","","","","","","",""
"null","../img/tt/1130tt.jpg","null","mooney2","image-keyboard-response","543","1767322","0.0-6.0-5.76","3113224","co39250","norming","","","","","","",""
"1884.8950000000186","","","post_reveal_questions","survey-likert","544","1769211","0.0-6.0-6.76","3113224","co39250","norming","","","{""aha"":0}","[0]","../img/tt/1130tt.jpg","",""
"null","<div style=""font-size:60px;""> </div>","null","fixation","html-keyboard-response","545","1769413","0.0-6.0-0.77","3113224","co39250","norming","","","","","","",""
"null","../img/tt/1279tt.jpg","null","mooney1","image-keyboard-response","546","1772423","0.0-6.0-1.77","3113224","co39250","norming","","","","","","",""
"4945.129999999888","","","post_mooney1_questions","survey-likert","547","1777371","0.0-6.0-2.77","3113224","co39250","norming","","","{""curiosity"":6,""confidence"":0}","[0,1]","../img/tt/1279tt.jpg","",""
"653.7949999999255","","","recognition","survey-text","548","1778027","0.0-6.0-3.77","3113224","co39250","norming","","","{""guess"":""""}","","../img/tt/1279tt.jpg","",""
"null","../img/gs/1279gs.jpg","null","reveal","image-keyboard-response","549","1780031","0.0-6.0-4.77","3113224","co39250","norming","","","","","","",""
"null","../img/tt/1279tt.jpg","null","mooney2","image-keyboard-response","550","1782040","0.0-6.0-5.77","3113224","co39250","norming","","","","","","",""
"2599.9250000000466","","","post_reveal_questions","survey-likert","551","1784643","0.0-6.0-6.77","3113224","co39250","norming","","","{""aha"":4}","[0]","../img/tt/1279tt.jpg","",""
"null","<div style=""font-size:60px;""> </div>","null","fixation","html-keyboard-response","552","1784848","0.0-6.0-0.78","3113224","co39250","norming","","","","","","",""
