"rt","stimulus","key_press","test_part","trial_type","trial_index","time_elapsed","internal_node_id","totalTime","subject","experiment_name","button_pressed","success","responses","question_order","currentStim","old","correct"
"5189.899999999966","Welcome to the experiment. This is an online experiment so please don't close the tab/window until we say goodbye.  Press any key to begin.","13","instructions","html-keyboard-response","0","5192","0.0-0.0","2854023","co39112","norming","","","","","","",""
"32166.359999999942","<div style='word-wrap: break-word; width: 900px'><h3>Please consider this information carefully before deciding whether to participate in this research</h3><ul style='text-align: left; font-size: .8em;'><li><b>Purpose of the research</b>: To examine how people process images.</li><li><b>What you will do in this research</b>:  Stimuli (images) will be presented on the computer and you will be asked different questions about them.</li><li><b>Time required</b>: Participation will take between 45 and 60 minutes to complete.</li><li><b>Risks</b>:  There are no anticipated risks associated with participating in this study. The effects of participating should be comparable to those you would experience from viewing a computer monitor for 30 minutes and using a mouse or keyboard.</li><li><b>Benefits</b>:  This study provides no benefits to you individually except for the credit. The study provides important information about the nature of perception and learning.</li><li><b>Confidentiality</b>:  Your participation in this study will remain confidential. No personally identifiable information will be associated with your data. Your de-identified data may be shared with other researchers and used in future projects.</li><li><b>Participation and withdrawal</b>:  Your participation in this study is completely voluntary and you may refuse to participate or you may choose to withdraw at any time without penalty.</li><li><b>How to contact the researchers</b>: If you have questions or concerns about your participation or payment, or want to request a summary of research findings, please contact Sander Van de Cruys (KU Leuven), at sander.vandecruys@kuleuven.be.</li></ul><p>The nature and purpose of this research have been sufficiently explained and I agree to participate in this study.  I understand that I am free to withdraw at any time without incurring any penalty.</p><p>Please consent by clicking the button below to continue. Otherwise, please exit the study at this time.</p></div>","","instructions","html-button-response","1","37360","0.0-1.0","2854023","co39112","norming","0","","","","","",""
"","","","instructions","fullscreen","2","45625","0.0-2.0","2854023","co39112","norming","","true","","","","",""
"28867.979999999872","","","sona","survey-html-form","3","74487","0.0-3.0","2854023","co39112","norming","","","[{""name"":""sonaid"",""value"":""39112""},{""name"":""debrief"",""value"":""yes""},{""name"":""datajoin"",""value"":""yes""}]","","","",""
"74615.79499999993","<div style='word-wrap: break-word; width: 900px'><h3>Instructions</h3><p>This experiment will have 3 parts. In the first part you will see a series of distorted images like the one below on the left. As you can see in the righthand image, the distorted images are derived from actual photographs. In what follows, you will <strong>briefly</strong> be presented with <strong>only</strong> the distorted image.</p> <div style='float: left; margin-right: 20px;'><img src='../img/018tt.jpg' height='250' width='250'></img></div><div style='float: right; margin-left: 20px;'><img src='../img/018gs.jpg' height='250' width='250'></img></div><p>Subsequently you will be asked a few questions about the image: One question on how <strong>curious</strong> you are about the solution and one on how <strong>confident</strong> you are that you know the solution.</p>Next, we ask you to make a guess on what is in the image. Note that it is OK to name just the <strong>basic level category</strong>. For example when you see a parrot in the image, 'parrot' will obviously be a correct answer but also correct is 'bird'. However, 'animal' will <strong>not</strong> be counted as a correct response. For the example above, 'rose' would be correct or 'flower', but not 'plant'. When soccer players are depicted, 'soccer', 'football', 'soccer players' will be correct, but not 'humans', 'outdoors', or 'sports'. You do not need to describe the image in full, just name the main object in it <strong>in one or two words</strong>. All images depict objects from one of the following broad level categories: animals, inanimate objects, plants, sports, vehicles, and food. Recognizing means knowing <strong>more</strong> than these broad labels for a given image. But we always encourage you to <strong>make a guess</strong> if you can. Note that you are allowed to use <strong>Dutch and English</strong> in your answers, whatever comes easiest for you.</p><p>Press any key to continue.</p></div>","32","instructions","html-keyboard-response","4","149115","0.0-4.0","2854023","co39112","norming","","","","","","",""
"78942.79000000004","<div style='word-wrap: break-word; width: 900px'><h3>Instructions</h3> <p>Next, the solution image will be revealed to you and you'll be asked to indicate how strong your <strong>aha-experience</strong> was after seeing the solution. This describes the positive feeling of the 'click' you sometimes experience, when the pieces of the 'puzzle' fall together and you suddenly have 'insight' in the image.</p><img src='aha.jpg' height='188' width='250'></img><p>Note that there are no right or wrong answers. We are interested in what <strong>you</strong> see in the image and how <strong>you</strong> feel about it.</p><p>Press any key to start the experiment.</p></div>","32","instructions","html-keyboard-response","5","228058","0.0-5.0","2854023","co39112","norming","","","","","","",""
"null","<div style=""font-size:60px;""> </div>","null","fixation","html-keyboard-response","6","228263","0.0-6.0-0.0","2854023","co39112","norming","","","","","","",""
"null","../img/tt/1089tt.jpg","null","mooney1","image-keyboard-response","7","231268","0.0-6.0-1.0","2854023","co39112","norming","","","","","","",""
"7025.014999999956","","","post_mooney1_questions","survey-likert","8","238296","0.0-6.0-2.0","2854023","co39112","norming","","","{""curiosity"":4,""confidence"":1}","[0,1]","../img/tt/1089tt.jpg","",""
"3437.444999999774","","","recognition","survey-text","9","241736","0.0-6.0-3.0","2854023","co39112","norming","","","{""guess"":""bed""}","","../img/tt/1089tt.jpg","",""
"null","../img/gs/1089gs.jpg","null","reveal","image-keyboard-response","10","243742","0.0-6.0-4.0","2854023","co39112","norming","","","","","","",""
"null","../img/tt/1089tt.jpg","null","mooney2","image-keyboard-response","11","245743","0.0-6.0-5.0","2854023","co39112","norming","","","","","","",""
"4184.054999999935","","","post_reveal_questions","survey-likert","12","249928","0.0-6.0-6.0","2854023","co39112","norming","","","{""aha"":3}","[0]","../img/tt/1089tt.jpg","",""
"null","<div style=""font-size:60px;""> </div>","null","fixation","html-keyboard-response","13","250132","0.0-6.0-0.1","2854023","co39112","norming","","","","","","",""
"null","../img/tt/044tt.jpg","null","mooney1","image-keyboard-response","14","253137","0.0-6.0-1.1","2854023","co39112","norming","","","","","","",""
"9093.989999999845","","","post_mooney1_questions","survey-likert","15","262232","0.0-6.0-2.1","2854023","co39112","norming","","","{""curiosity"":4,""confidence"":1}","[0,1]","../img/tt/044tt.jpg","",""
"4717.930000000051","","","recognition","survey-text","16","266952","0.0-6.0-3.1","2854023","co39112","norming","","","{""guess"":""computer""}","","../img/tt/044tt.jpg","",""
"null","../img/gs/044gs.jpg","null","reveal","image-keyboard-response","17","268958","0.0-6.0-4.1","2854023","co39112","norming","","","","","","",""
"null","../img/tt/044tt.jpg","null","mooney2","image-keyboard-response","18","270959","0.0-6.0-5.1","2854023","co39112","norming","","","","","","",""
"2984.189999999886","","","post_reveal_questions","survey-likert","19","273944","0.0-6.0-6.1","2854023","co39112","norming","","","{""aha"":4}","[0]","../img/tt/044tt.jpg","",""
"null","<div style=""font-size:60px;""> </div>","null","fixation","html-keyboard-response","20","274151","0.0-6.0-0.2","2854023","co39112","norming","","","","","","",""
"null","../img/tt/1175tt.jpg","null","mooney1","image-keyboard-response","21","277153","0.0-6.0-1.2","2854023","co39112","norming","","","","","","",""
"5069.95000000007","","","post_mooney1_questions","survey-likert","22","282224","0.0-6.0-2.2","2854023","co39112","norming","","","{""curiosity"":3,""confidence"":1}","[0,1]","../img/tt/1175tt.jpg","",""
"4917.7099999999045","","","recognition","survey-text","23","287144","0.0-6.0-3.2","2854023","co39112","norming","","","{""guess"":""fruit""}","","../img/tt/1175tt.jpg","",""
"null","../img/gs/1175gs.jpg","null","reveal","image-keyboard-response","24","289166","0.0-6.0-4.2","2854023","co39112","norming","","","","","","",""
"null","../img/tt/1175tt.jpg","null","mooney2","image-keyboard-response","25","291176","0.0-6.0-5.2","2854023","co39112","norming","","","","","","",""
"4425.385000000009","","","post_reveal_questions","survey-likert","26","295603","0.0-6.0-6.2","2854023","co39112","norming","","","{""aha"":4}","[0]","../img/tt/1175tt.jpg","",""
"null","<div style=""font-size:60px;""> </div>","null","fixation","html-keyboard-response","27","295805","0.0-6.0-0.3","2854023","co39112","norming","","","","","","",""
"null","../img/tt/1033tt.jpg","null","mooney1","image-keyboard-response","28","298811","0.0-6.0-1.3","2854023","co39112","norming","","","","","","",""
"4775.440000000119","","","post_mooney1_questions","survey-likert","29","303588","0.0-6.0-2.3","2854023","co39112","norming","","","{""curiosity"":3,""confidence"":1}","[0,1]","../img/tt/1033tt.jpg","",""
"3598.2850000000326","","","recognition","survey-text","30","307188","0.0-6.0-3.3","2854023","co39112","norming","","","{""guess"":""bowling""}","","../img/tt/1033tt.jpg","",""
"null","../img/gs/1033gs.jpg","null","reveal","image-keyboard-response","31","309190","0.0-6.0-4.3","2854023","co39112","norming","","","","","","",""
"null","../img/tt/1033tt.jpg","null","mooney2","image-keyboard-response","32","311200","0.0-6.0-5.3","2854023","co39112","norming","","","","","","",""
"2545.884999999951","","","post_reveal_questions","survey-likert","33","313748","0.0-6.0-6.3","2854023","co39112","norming","","","{""aha"":4}","[0]","../img/tt/1033tt.jpg","",""
"null","<div style=""font-size:60px;""> </div>","null","fixation","html-keyboard-response","34","313950","0.0-6.0-0.4","2854023","co39112","norming","","","","","","",""
"null","../img/tt/1046tt.jpg","null","mooney1","image-keyboard-response","35","316952","0.0-6.0-1.4","2854023","co39112","norming","","","","","","",""
"4723.029999999853","","","post_mooney1_questions","survey-likert","36","321676","0.0-6.0-2.4","2854023","co39112","norming","","","{""curiosity"":4,""confidence"":2}","[0,1]","../img/tt/1046tt.jpg","",""
"2534.0400000000373","","","recognition","survey-text","37","324211","0.0-6.0-3.4","2854023","co39112","norming","","","{""guess"":""food""}","","../img/tt/1046tt.jpg","",""
"null","../img/gs/1046gs.jpg","null","reveal","image-keyboard-response","38","326214","0.0-6.0-4.4","2854023","co39112","norming","","","","","","",""
"null","../img/tt/1046tt.jpg","null","mooney2","image-keyboard-response","39","328225","0.0-6.0-5.4","2854023","co39112","norming","","","","","","",""
"3113.4349999999977","","","post_reveal_questions","survey-likert","40","331340","0.0-6.0-6.4","2854023","co39112","norming","","","{""aha"":3}","[0]","../img/tt/1046tt.jpg","",""
"null","<div style=""font-size:60px;""> </div>","null","fixation","html-keyboard-response","41","331542","0.0-6.0-0.5","2854023","co39112","norming","","","","","","",""
"null","../img/tt/1171tt.jpg","null","mooney1","image-keyboard-response","42","334542","0.0-6.0-1.5","2854023","co39112","norming","","","","","","",""
"4131.999999999825","","","post_mooney1_questions","survey-likert","43","338675","0.0-6.0-2.5","2854023","co39112","norming","","","{""curiosity"":4,""confidence"":1}","[0,1]","../img/tt/1171tt.jpg","",""
"1966.1500000000233","","","recognition","survey-text","44","340644","0.0-6.0-3.5","2854023","co39112","norming","","","{""guess"":""person""}","","../img/tt/1171tt.jpg","",""
"null","../img/gs/1171gs.jpg","null","reveal","image-keyboard-response","45","342646","0.0-6.0-4.5","2854023","co39112","norming","","","","","","",""
"null","../img/tt/1171tt.jpg","null","mooney2","image-keyboard-response","46","344653","0.0-6.0-5.5","2854023","co39112","norming","","","","","","",""
"3765.3549999999814","","","post_reveal_questions","survey-likert","47","348420","0.0-6.0-6.5","2854023","co39112","norming","","","{""aha"":3}","[0]","../img/tt/1171tt.jpg","",""
"null","<div style=""font-size:60px;""> </div>","null","fixation","html-keyboard-response","48","348624","0.0-6.0-0.6","2854023","co39112","norming","","","","","","",""
"null","../img/tt/279tt.jpg","null","mooney1","image-keyboard-response","49","351627","0.0-6.0-1.6","2854023","co39112","norming","","","","","","",""
"5687.135000000126","","","post_mooney1_questions","survey-likert","50","357316","0.0-6.0-2.6","2854023","co39112","norming","","","{""curiosity"":3,""confidence"":6}","[0,1]","../img/tt/279tt.jpg","",""
"2669.9599999999045","","","recognition","survey-text","51","359988","0.0-6.0-3.6","2854023","co39112","norming","","","{""guess"":""koala""}","","../img/tt/279tt.jpg","",""
"null","../img/gs/279gs.jpg","null","reveal","image-keyboard-response","52","361990","0.0-6.0-4.6","2854023","co39112","norming","","","","","","",""
"null","../img/tt/279tt.jpg","null","mooney2","image-keyboard-response","53","363990","0.0-6.0-5.6","2854023","co39112","norming","","","","","","",""
"1852.865000000107","","","post_reveal_questions","survey-likert","54","365844","0.0-6.0-6.6","2854023","co39112","norming","","","{""aha"":1}","[0]","../img/tt/279tt.jpg","",""
"null","<div style=""font-size:60px;""> </div>","null","fixation","html-keyboard-response","55","366045","0.0-6.0-0.7","2854023","co39112","norming","","","","","","",""
"null","../img/tt/1101tt.jpg","null","mooney1","image-keyboard-response","56","369048","0.0-6.0-1.7","2854023","co39112","norming","","","","","","",""
"6209.554999999935","","","post_mooney1_questions","survey-likert","57","375260","0.0-6.0-2.7","2854023","co39112","norming","","","{""curiosity"":4,""confidence"":5}","[0,1]","../img/tt/1101tt.jpg","",""
"2646.074999999895","","","recognition","survey-text","58","377908","0.0-6.0-3.7","2854023","co39112","norming","","","{""guess"":""man""}","","../img/tt/1101tt.jpg","",""
"null","../img/gs/1101gs.jpg","null","reveal","image-keyboard-response","59","379909","0.0-6.0-4.7","2854023","co39112","norming","","","","","","",""
"null","../img/tt/1101tt.jpg","null","mooney2","image-keyboard-response","60","381912","0.0-6.0-5.7","2854023","co39112","norming","","","","","","",""
"2282.140000000072","","","post_reveal_questions","survey-likert","61","384196","0.0-6.0-6.7","2854023","co39112","norming","","","{""aha"":2}","[0]","../img/tt/1101tt.jpg","",""
"null","<div style=""font-size:60px;""> </div>","null","fixation","html-keyboard-response","62","384406","0.0-6.0-0.8","2854023","co39112","norming","","","","","","",""
"null","../img/tt/049tt.jpg","null","mooney1","image-keyboard-response","63","387411","0.0-6.0-1.8","2854023","co39112","norming","","","","","","",""
"6326.389999999956","","","post_mooney1_questions","survey-likert","64","393740","0.0-6.0-2.8","2854023","co39112","norming","","","{""curiosity"":4,""confidence"":1}","[0,1]","../img/tt/049tt.jpg","",""
"2822.2350000000442","","","recognition","survey-text","65","396564","0.0-6.0-3.8","2854023","co39112","norming","","","{""guess"":""animal""}","","../img/tt/049tt.jpg","",""
"null","../img/gs/049gs.jpg","null","reveal","image-keyboard-response","66","398570","0.0-6.0-4.8","2854023","co39112","norming","","","","","","",""
"null","../img/tt/049tt.jpg","null","mooney2","image-keyboard-response","67","400580","0.0-6.0-5.8","2854023","co39112","norming","","","","","","",""
"5597.480000000156","","","post_reveal_questions","survey-likert","68","406180","0.0-6.0-6.8","2854023","co39112","norming","","","{""aha"":2}","[0]","../img/tt/049tt.jpg","",""
"null","<div style=""font-size:60px;""> </div>","null","fixation","html-keyboard-response","69","406390","0.0-6.0-0.9","2854023","co39112","norming","","","","","","",""
"null","../img/tt/1055tt.jpg","null","mooney1","image-keyboard-response","70","409399","0.0-6.0-1.9","2854023","co39112","norming","","","","","","",""
"5114.739999999991","","","post_mooney1_questions","survey-likert","71","414521","0.0-6.0-2.9","2854023","co39112","norming","","","{""curiosity"":4,""confidence"":0}","[0,1]","../img/tt/1055tt.jpg","",""
"2910.32500000007","","","recognition","survey-text","72","417433","0.0-6.0-3.9","2854023","co39112","norming","","","{""guess"":""bean""}","","../img/tt/1055tt.jpg","",""
"null","../img/gs/1055gs.jpg","null","reveal","image-keyboard-response","73","419441","0.0-6.0-4.9","2854023","co39112","norming","","","","","","",""
"null","../img/tt/1055tt.jpg","null","mooney2","image-keyboard-response","74","421442","0.0-6.0-5.9","2854023","co39112","norming","","","","","","",""
"2764.310000000056","","","post_reveal_questions","survey-likert","75","424209","0.0-6.0-6.9","2854023","co39112","norming","","","{""aha"":4}","[0]","../img/tt/1055tt.jpg","",""
"null","<div style=""font-size:60px;""> </div>","null","fixation","html-keyboard-response","76","424418","0.0-6.0-0.10","2854023","co39112","norming","","","","","","",""
"null","../img/tt/1040tt.jpg","null","mooney1","image-keyboard-response","77","427431","0.0-6.0-1.10","2854023","co39112","norming","","","","","","",""
"5319.825000000012","","","post_mooney1_questions","survey-likert","78","432753","0.0-6.0-2.10","2854023","co39112","norming","","","{""curiosity"":4,""confidence"":0}","[0,1]","../img/tt/1040tt.jpg","",""
"3253.200000000128","","","recognition","survey-text","79","436009","0.0-6.0-3.10","2854023","co39112","norming","","","{""guess"":""basketbal""}","","../img/tt/1040tt.jpg","",""
"null","../img/gs/1040gs.jpg","null","reveal","image-keyboard-response","80","438016","0.0-6.0-4.10","2854023","co39112","norming","","","","","","",""
"null","../img/tt/1040tt.jpg","null","mooney2","image-keyboard-response","81","440025","0.0-6.0-5.10","2854023","co39112","norming","","","","","","",""
"4389.609999999928","","","post_reveal_questions","survey-likert","82","444417","0.0-6.0-6.10","2854023","co39112","norming","","","{""aha"":4}","[0]","../img/tt/1040tt.jpg","",""
"null","<div style=""font-size:60px;""> </div>","null","fixation","html-keyboard-response","83","444621","0.0-6.0-0.11","2854023","co39112","norming","","","","","","",""
"null","../img/tt/456tt.jpg","null","mooney1","image-keyboard-response","84","447624","0.0-6.0-1.11","2854023","co39112","norming","","","","","","",""
"5190.589999999967","","","post_mooney1_questions","survey-likert","85","452817","0.0-6.0-2.11","2854023","co39112","norming","","","{""curiosity"":4,""confidence"":0}","[0,1]","../img/tt/456tt.jpg","",""
"3478.1399999999558","","","recognition","survey-text","86","456297","0.0-6.0-3.11","2854023","co39112","norming","","","{""guess"":""mountain""}","","../img/tt/456tt.jpg","",""
"null","../img/gs/456gs.jpg","null","reveal","image-keyboard-response","87","458298","0.0-6.0-4.11","2854023","co39112","norming","","","","","","",""
"null","../img/tt/456tt.jpg","null","mooney2","image-keyboard-response","88","460301","0.0-6.0-5.11","2854023","co39112","norming","","","","","","",""
"1938.1949999999488","","","post_reveal_questions","survey-likert","89","462241","0.0-6.0-6.11","2854023","co39112","norming","","","{""aha"":4}","[0]","../img/tt/456tt.jpg","",""
"null","<div style=""font-size:60px;""> </div>","null","fixation","html-keyboard-response","90","462448","0.0-6.0-0.12","2854023","co39112","norming","","","","","","",""
"null","../img/tt/552tt.jpg","null","mooney1","image-keyboard-response","91","465453","0.0-6.0-1.12","2854023","co39112","norming","","","","","","",""
"4154.85999999987","","","post_mooney1_questions","survey-likert","92","469609","0.0-6.0-2.12","2854023","co39112","norming","","","{""curiosity"":4,""confidence"":0}","[0,1]","../img/tt/552tt.jpg","",""
"6398.39499999996","","","recognition","survey-text","93","476011","0.0-6.0-3.12","2854023","co39112","norming","","","{""guess"":""basket""}","","../img/tt/552tt.jpg","",""
"null","../img/gs/552gs.jpg","null","reveal","image-keyboard-response","94","478017","0.0-6.0-4.12","2854023","co39112","norming","","","","","","",""
"null","../img/tt/552tt.jpg","null","mooney2","image-keyboard-response","95","480025","0.0-6.0-5.12","2854023","co39112","norming","","","","","","",""
"3991.9249999998137","","","post_reveal_questions","survey-likert","96","484019","0.0-6.0-6.12","2854023","co39112","norming","","","{""aha"":4}","[0]","../img/tt/552tt.jpg","",""
"null","<div style=""font-size:60px;""> </div>","null","fixation","html-keyboard-response","97","484222","0.0-6.0-0.13","2854023","co39112","norming","","","","","","",""
"null","../img/tt/1161tt.jpg","null","mooney1","image-keyboard-response","98","487225","0.0-6.0-1.13","2854023","co39112","norming","","","","","","",""
"5376.449999999953","","","post_mooney1_questions","survey-likert","99","492603","0.0-6.0-2.13","2854023","co39112","norming","","","{""curiosity"":4,""confidence"":1}","[0,1]","../img/tt/1161tt.jpg","",""
"8110.030000000028","","","recognition","survey-text","100","500715","0.0-6.0-3.13","2854023","co39112","norming","","","{""guess"":""mountain climber""}","","../img/tt/1161tt.jpg","",""
"null","../img/gs/1161gs.jpg","null","reveal","image-keyboard-response","101","502716","0.0-6.0-4.13","2854023","co39112","norming","","","","","","",""
"null","../img/tt/1161tt.jpg","null","mooney2","image-keyboard-response","102","504717","0.0-6.0-5.13","2854023","co39112","norming","","","","","","",""
"3083.7850000000326","","","post_reveal_questions","survey-likert","103","507803","0.0-6.0-6.13","2854023","co39112","norming","","","{""aha"":2}","[0]","../img/tt/1161tt.jpg","",""
"null","<div style=""font-size:60px;""> </div>","null","fixation","html-keyboard-response","104","508011","0.0-6.0-0.14","2854023","co39112","norming","","","","","","",""
"null","../img/tt/126tt.jpg","null","mooney1","image-keyboard-response","105","511014","0.0-6.0-1.14","2854023","co39112","norming","","","","","","",""
"5978.515000000014","","","post_mooney1_questions","survey-likert","106","516995","0.0-6.0-2.14","2854023","co39112","norming","","","{""curiosity"":4,""confidence"":0}","[0,1]","../img/tt/126tt.jpg","",""
"2693.8699999998207","","","recognition","survey-text","107","519691","0.0-6.0-3.14","2854023","co39112","norming","","","{""guess"":""water""}","","../img/tt/126tt.jpg","",""
"null","../img/gs/126gs.jpg","null","reveal","image-keyboard-response","108","521695","0.0-6.0-4.14","2854023","co39112","norming","","","","","","",""
"null","../img/tt/126tt.jpg","null","mooney2","image-keyboard-response","109","523706","0.0-6.0-5.14","2854023","co39112","norming","","","","","","",""
"3694.414999999921","","","post_reveal_questions","survey-likert","110","527402","0.0-6.0-6.14","2854023","co39112","norming","","","{""aha"":4}","[0]","../img/tt/126tt.jpg","",""
"null","<div style=""font-size:60px;""> </div>","null","fixation","html-keyboard-response","111","527613","0.0-6.0-0.15","2854023","co39112","norming","","","","","","",""
"null","../img/tt/1232tt.jpg","null","mooney1","image-keyboard-response","112","530616","0.0-6.0-1.15","2854023","co39112","norming","","","","","","",""
"4136.379999999888","","","post_mooney1_questions","survey-likert","113","534749","0.0-6.0-2.15","2854023","co39112","norming","","","{""curiosity"":4,""confidence"":5}","[0,1]","../img/tt/1232tt.jpg","",""
"2550.2800000001444","","","recognition","survey-text","114","537301","0.0-6.0-3.15","2854023","co39112","norming","","","{""guess"":""pigeon""}","","../img/tt/1232tt.jpg","",""
"null","../img/gs/1232gs.jpg","null","reveal","image-keyboard-response","115","539302","0.0-6.0-4.15","2854023","co39112","norming","","","","","","",""
"null","../img/tt/1232tt.jpg","null","mooney2","image-keyboard-response","116","541303","0.0-6.0-5.15","2854023","co39112","norming","","","","","","",""
"2322.844999999972","","","post_reveal_questions","survey-likert","117","543629","0.0-6.0-6.15","2854023","co39112","norming","","","{""aha"":0}","[0]","../img/tt/1232tt.jpg","",""
"null","<div style=""font-size:60px;""> </div>","null","fixation","html-keyboard-response","118","543837","0.0-6.0-0.16","2854023","co39112","norming","","","","","","",""
"null","../img/tt/1116tt.jpg","null","mooney1","image-keyboard-response","119","546842","0.0-6.0-1.16","2854023","co39112","norming","","","","","","",""
"4176.550000000163","","","post_mooney1_questions","survey-likert","120","551021","0.0-6.0-2.16","2854023","co39112","norming","","","{""curiosity"":5,""confidence"":0}","[0,1]","../img/tt/1116tt.jpg","",""
"1733.5749999999534","","","recognition","survey-text","121","552757","0.0-6.0-3.16","2854023","co39112","norming","","","{""guess"":""car""}","","../img/tt/1116tt.jpg","",""
"null","../img/gs/1116gs.jpg","null","reveal","image-keyboard-response","122","554764","0.0-6.0-4.16","2854023","co39112","norming","","","","","","",""
"null","../img/tt/1116tt.jpg","null","mooney2","image-keyboard-response","123","556766","0.0-6.0-5.16","2854023","co39112","norming","","","","","","",""
"2020.4099999999162","","","post_reveal_questions","survey-likert","124","558789","0.0-6.0-6.16","2854023","co39112","norming","","","{""aha"":3}","[0]","../img/tt/1116tt.jpg","",""
"null","<div style=""font-size:60px;""> </div>","null","fixation","html-keyboard-response","125","558990","0.0-6.0-0.17","2854023","co39112","norming","","","","","","",""
"null","../img/tt/031tt.jpg","null","mooney1","image-keyboard-response","126","561995","0.0-6.0-1.17","2854023","co39112","norming","","","","","","",""
"5030.745000000112","","","post_mooney1_questions","survey-likert","127","567029","0.0-6.0-2.17","2854023","co39112","norming","","","{""curiosity"":4,""confidence"":0}","[0,1]","../img/tt/031tt.jpg","",""
"1886.1549999999115","","","recognition","survey-text","128","568917","0.0-6.0-3.17","2854023","co39112","norming","","","{""guess"":""bear""}","","../img/tt/031tt.jpg","",""
"null","../img/gs/031gs.jpg","null","reveal","image-keyboard-response","129","570923","0.0-6.0-4.17","2854023","co39112","norming","","","","","","",""
"null","../img/tt/031tt.jpg","null","mooney2","image-keyboard-response","130","572925","0.0-6.0-5.17","2854023","co39112","norming","","","","","","",""
"1677.3150000000605","","","post_reveal_questions","survey-likert","131","574605","0.0-6.0-6.17","2854023","co39112","norming","","","{""aha"":5}","[0]","../img/tt/031tt.jpg","",""
"null","<div style=""font-size:60px;""> </div>","null","fixation","html-keyboard-response","132","574806","0.0-6.0-0.18","2854023","co39112","norming","","","","","","",""
"null","../img/tt/435tt.jpg","null","mooney1","image-keyboard-response","133","577809","0.0-6.0-1.18","2854023","co39112","norming","","","","","","",""
"3785.0999999998603","","","post_mooney1_questions","survey-likert","134","581597","0.0-6.0-2.18","2854023","co39112","norming","","","{""curiosity"":4,""confidence"":0}","[0,1]","../img/tt/435tt.jpg","",""
"2758.0200000000186","","","recognition","survey-text","135","584356","0.0-6.0-3.18","2854023","co39112","norming","","","{""guess"":""airplane""}","","../img/tt/435tt.jpg","",""
"null","../img/gs/435gs.jpg","null","reveal","image-keyboard-response","136","586361","0.0-6.0-4.18","2854023","co39112","norming","","","","","","",""
"null","../img/tt/435tt.jpg","null","mooney2","image-keyboard-response","137","588370","0.0-6.0-5.18","2854023","co39112","norming","","","","","","",""
"2224.6350000000093","","","post_reveal_questions","survey-likert","138","590596","0.0-6.0-6.18","2854023","co39112","norming","","","{""aha"":4}","[0]","../img/tt/435tt.jpg","",""
"null","<div style=""font-size:60px;""> </div>","null","fixation","html-keyboard-response","139","590802","0.0-6.0-0.19","2854023","co39112","norming","","","","","","",""
"null","../img/tt/1154tt.jpg","null","mooney1","image-keyboard-response","140","593816","0.0-6.0-1.19","2854023","co39112","norming","","","","","","",""
"9728.900000000023","","","post_mooney1_questions","survey-likert","141","603548","0.0-6.0-2.19","2854023","co39112","norming","","","{""curiosity"":4,""confidence"":1}","[0,1]","../img/tt/1154tt.jpg","",""
"6237.989999999991","","","recognition","survey-text","142","609788","0.0-6.0-3.19","2854023","co39112","norming","","","{""guess"":""climber""}","","../img/tt/1154tt.jpg","",""
"null","../img/gs/1154gs.jpg","null","reveal","image-keyboard-response","143","611795","0.0-6.0-4.19","2854023","co39112","norming","","","","","","",""
"null","../img/tt/1154tt.jpg","null","mooney2","image-keyboard-response","144","613798","0.0-6.0-5.19","2854023","co39112","norming","","","","","","",""
"3355.810000000056","","","post_reveal_questions","survey-likert","145","617156","0.0-6.0-6.19","2854023","co39112","norming","","","{""aha"":2}","[0]","../img/tt/1154tt.jpg","",""
"null","<div style=""font-size:60px;""> </div>","null","fixation","html-keyboard-response","146","617362","0.0-6.0-0.20","2854023","co39112","norming","","","","","","",""
"null","../img/tt/1307tt.jpg","null","mooney1","image-keyboard-response","147","620368","0.0-6.0-1.20","2854023","co39112","norming","","","","","","",""
"7513.489999999991","","","post_mooney1_questions","survey-likert","148","627884","0.0-6.0-2.20","2854023","co39112","norming","","","{""curiosity"":4,""confidence"":2}","[0,1]","../img/tt/1307tt.jpg","",""
"3501.8349999999627","","","recognition","survey-text","149","631388","0.0-6.0-3.20","2854023","co39112","norming","","","{""guess"":""luchtabllon""}","","../img/tt/1307tt.jpg","",""
"null","../img/gs/1307gs.jpg","null","reveal","image-keyboard-response","150","633390","0.0-6.0-4.20","2854023","co39112","norming","","","","","","",""
"null","../img/tt/1307tt.jpg","null","mooney2","image-keyboard-response","151","635392","0.0-6.0-5.20","2854023","co39112","norming","","","","","","",""
"1809.7100000000792","","","post_reveal_questions","survey-likert","152","637204","0.0-6.0-6.20","2854023","co39112","norming","","","{""aha"":2}","[0]","../img/tt/1307tt.jpg","",""
"null","<div style=""font-size:60px;""> </div>","null","fixation","html-keyboard-response","153","637413","0.0-6.0-0.21","2854023","co39112","norming","","","","","","",""
"null","../img/tt/418tt.jpg","null","mooney1","image-keyboard-response","154","640416","0.0-6.0-1.21","2854023","co39112","norming","","","","","","",""
"6529.589999999851","","","post_mooney1_questions","survey-likert","155","646948","0.0-6.0-2.21","2854023","co39112","norming","","","{""curiosity"":4,""confidence"":1}","[0,1]","../img/tt/418tt.jpg","",""
"6326.100000000093","","","recognition","survey-text","156","653276","0.0-6.0-3.21","2854023","co39112","norming","","","{""guess"":""animal""}","","../img/tt/418tt.jpg","",""
"null","../img/gs/418gs.jpg","null","reveal","image-keyboard-response","157","655286","0.0-6.0-4.21","2854023","co39112","norming","","","","","","",""
"null","../img/tt/418tt.jpg","null","mooney2","image-keyboard-response","158","657287","0.0-6.0-5.21","2854023","co39112","norming","","","","","","",""
"3226.4049999999115","","","post_reveal_questions","survey-likert","159","660516","0.0-6.0-6.21","2854023","co39112","norming","","","{""aha"":1}","[0]","../img/tt/418tt.jpg","",""
"null","<div style=""font-size:60px;""> </div>","null","fixation","html-keyboard-response","160","660717","0.0-6.0-0.22","2854023","co39112","norming","","","","","","",""
"null","../img/tt/1205tt.jpg","null","mooney1","image-keyboard-response","161","663728","0.0-6.0-1.22","2854023","co39112","norming","","","","","","",""
"7169.145000000019","","","post_mooney1_questions","survey-likert","162","670900","0.0-6.0-2.22","2854023","co39112","norming","","","{""curiosity"":3,""confidence"":0}","[0,1]","../img/tt/1205tt.jpg","",""
"3014.0200000000186","","","recognition","survey-text","163","673916","0.0-6.0-3.22","2854023","co39112","norming","","","{""guess"":""casserole""}","","../img/tt/1205tt.jpg","",""
"null","../img/gs/1205gs.jpg","null","reveal","image-keyboard-response","164","675921","0.0-6.0-4.22","2854023","co39112","norming","","","","","","",""
"null","../img/tt/1205tt.jpg","null","mooney2","image-keyboard-response","165","677923","0.0-6.0-5.22","2854023","co39112","norming","","","","","","",""
"2231.1250000001164","","","post_reveal_questions","survey-likert","166","680156","0.0-6.0-6.22","2854023","co39112","norming","","","{""aha"":4}","[0]","../img/tt/1205tt.jpg","",""
"null","<div style=""font-size:60px;""> </div>","null","fixation","html-keyboard-response","167","680364","0.0-6.0-0.23","2854023","co39112","norming","","","","","","",""
"null","../img/tt/056tt.jpg","null","mooney1","image-keyboard-response","168","683367","0.0-6.0-1.23","2854023","co39112","norming","","","","","","",""
"7506.454999999958","","","post_mooney1_questions","survey-likert","169","690876","0.0-6.0-2.23","2854023","co39112","norming","","","{""curiosity"":4,""confidence"":3}","[0,1]","../img/tt/056tt.jpg","",""
"2862.1249999998836","","","recognition","survey-text","170","693740","0.0-6.0-3.23","2854023","co39112","norming","","","{""guess"":""lion cub""}","","../img/tt/056tt.jpg","",""
"null","../img/gs/056gs.jpg","null","reveal","image-keyboard-response","171","695741","0.0-6.0-4.23","2854023","co39112","norming","","","","","","",""
"null","../img/tt/056tt.jpg","null","mooney2","image-keyboard-response","172","697749","0.0-6.0-5.23","2854023","co39112","norming","","","","","","",""
"3387.944999999949","","","post_reveal_questions","survey-likert","173","701140","0.0-6.0-6.23","2854023","co39112","norming","","","{""aha"":3}","[0]","../img/tt/056tt.jpg","",""
"null","<div style=""font-size:60px;""> </div>","null","fixation","html-keyboard-response","174","701341","0.0-6.0-0.24","2854023","co39112","norming","","","","","","",""
"null","../img/tt/010tt.jpg","null","mooney1","image-keyboard-response","175","704345","0.0-6.0-1.24","2854023","co39112","norming","","","","","","",""
"5361.124999999884","","","post_mooney1_questions","survey-likert","176","709708","0.0-6.0-2.24","2854023","co39112","norming","","","{""curiosity"":3,""confidence"":1}","[0,1]","../img/tt/010tt.jpg","",""
"3789.899999999907","","","recognition","survey-text","177","713500","0.0-6.0-3.24","2854023","co39112","norming","","","{""guess"":""troffee""}","","../img/tt/010tt.jpg","",""
"null","../img/gs/010gs.jpg","null","reveal","image-keyboard-response","178","715510","0.0-6.0-4.24","2854023","co39112","norming","","","","","","",""
"null","../img/tt/010tt.jpg","null","mooney2","image-keyboard-response","179","717511","0.0-6.0-5.24","2854023","co39112","norming","","","","","","",""
"2715.844999999972","","","post_reveal_questions","survey-likert","180","720228","0.0-6.0-6.24","2854023","co39112","norming","","","{""aha"":4}","[0]","../img/tt/010tt.jpg","",""
"null","<div style=""font-size:60px;""> </div>","null","fixation","html-keyboard-response","181","720436","0.0-6.0-0.25","2854023","co39112","norming","","","","","","",""
"null","../img/tt/1069tt.jpg","null","mooney1","image-keyboard-response","182","723438","0.0-6.0-1.25","2854023","co39112","norming","","","","","","",""
"7963.604999999981","","","post_mooney1_questions","survey-likert","183","731404","0.0-6.0-2.25","2854023","co39112","norming","","","{""curiosity"":5,""confidence"":1}","[0,1]","../img/tt/1069tt.jpg","",""
"3885.9250000000466","","","recognition","survey-text","184","735292","0.0-6.0-3.25","2854023","co39112","norming","","","{""guess"":""mountain goats""}","","../img/tt/1069tt.jpg","",""
"null","../img/gs/1069gs.jpg","null","reveal","image-keyboard-response","185","737302","0.0-6.0-4.25","2854023","co39112","norming","","","","","","",""
"null","../img/tt/1069tt.jpg","null","mooney2","image-keyboard-response","186","739304","0.0-6.0-5.25","2854023","co39112","norming","","","","","","",""
"3930.055000000051","","","post_reveal_questions","survey-likert","187","743236","0.0-6.0-6.25","2854023","co39112","norming","","","{""aha"":5}","[0]","../img/tt/1069tt.jpg","",""
"null","<div style=""font-size:60px;""> </div>","null","fixation","html-keyboard-response","188","743440","0.0-6.0-0.26","2854023","co39112","norming","","","","","","",""
"null","../img/tt/1269tt.jpg","null","mooney1","image-keyboard-response","189","746444","0.0-6.0-1.26","2854023","co39112","norming","","","","","","",""
"7997.659999999916","","","post_mooney1_questions","survey-likert","190","754444","0.0-6.0-2.26","2854023","co39112","norming","","","{""curiosity"":1,""confidence"":6}","[0,1]","../img/tt/1269tt.jpg","",""
"2606.2049999998417","","","recognition","survey-text","191","757052","0.0-6.0-3.26","2854023","co39112","norming","","","{""guess"":""squirrel""}","","../img/tt/1269tt.jpg","",""
"null","../img/gs/1269gs.jpg","null","reveal","image-keyboard-response","192","759055","0.0-6.0-4.26","2854023","co39112","norming","","","","","","",""
"null","../img/tt/1269tt.jpg","null","mooney2","image-keyboard-response","193","761057","0.0-6.0-5.26","2854023","co39112","norming","","","","","","",""
"2952.604999999865","","","post_reveal_questions","survey-likert","194","764012","0.0-6.0-6.26","2854023","co39112","norming","","","{""aha"":0}","[0]","../img/tt/1269tt.jpg","",""
"null","<div style=""font-size:60px;""> </div>","null","fixation","html-keyboard-response","195","764220","0.0-6.0-0.27","2854023","co39112","norming","","","","","","",""
"null","../img/tt/1130tt.jpg","null","mooney1","image-keyboard-response","196","767228","0.0-6.0-1.27","2854023","co39112","norming","","","","","","",""
"9309.455000000075","","","post_mooney1_questions","survey-likert","197","776537","0.0-6.0-2.27","2854023","co39112","norming","","","{""curiosity"":4,""confidence"":1}","[0,1]","../img/tt/1130tt.jpg","",""
"3981.9649999999674","","","recognition","survey-text","198","780520","0.0-6.0-3.27","2854023","co39112","norming","","","{""guess"":""basketbalplayer""}","","../img/tt/1130tt.jpg","",""
"null","../img/gs/1130gs.jpg","null","reveal","image-keyboard-response","199","782522","0.0-6.0-4.27","2854023","co39112","norming","","","","","","",""
"null","../img/tt/1130tt.jpg","null","mooney2","image-keyboard-response","200","784531","0.0-6.0-5.27","2854023","co39112","norming","","","","","","",""
"4291.265000000014","","","post_reveal_questions","survey-likert","201","788824","0.0-6.0-6.27","2854023","co39112","norming","","","{""aha"":4}","[0]","../img/tt/1130tt.jpg","",""
"null","<div style=""font-size:60px;""> </div>","null","fixation","html-keyboard-response","202","789031","0.0-6.0-0.28","2854023","co39112","norming","","","","","","",""
"null","../img/tt/353tt.jpg","null","mooney1","image-keyboard-response","203","792043","0.0-6.0-1.28","2854023","co39112","norming","","","","","","",""
"7962.989999999991","","","post_mooney1_questions","survey-likert","204","800008","0.0-6.0-2.28","2854023","co39112","norming","","","{""curiosity"":4,""confidence"":1}","[0,1]","../img/tt/353tt.jpg","",""
"1950.2600000001257","","","recognition","survey-text","205","801960","0.0-6.0-3.28","2854023","co39112","norming","","","{""guess"":""beaver""}","","../img/tt/353tt.jpg","",""
"null","../img/gs/353gs.jpg","null","reveal","image-keyboard-response","206","803966","0.0-6.0-4.28","2854023","co39112","norming","","","","","","",""
"null","../img/tt/353tt.jpg","null","mooney2","image-keyboard-response","207","805969","0.0-6.0-5.28","2854023","co39112","norming","","","","","","",""
"2797.5","","","post_reveal_questions","survey-likert","208","808769","0.0-6.0-6.28","2854023","co39112","norming","","","{""aha"":4}","[0]","../img/tt/353tt.jpg","",""
"null","<div style=""font-size:60px;""> </div>","null","fixation","html-keyboard-response","209","808971","0.0-6.0-0.29","2854023","co39112","norming","","","","","","",""
"null","../img/tt/008tt.jpg","null","mooney1","image-keyboard-response","210","811979","0.0-6.0-1.29","2854023","co39112","norming","","","","","","",""
"3802.3450000000885","","","post_mooney1_questions","survey-likert","211","815785","0.0-6.0-2.29","2854023","co39112","norming","","","{""curiosity"":4,""confidence"":1}","[0,1]","../img/tt/008tt.jpg","",""
"5470.369999999995","","","recognition","survey-text","212","821257","0.0-6.0-3.29","2854023","co39112","norming","","","{""guess"":""basketbalplayer""}","","../img/tt/008tt.jpg","",""
"null","../img/gs/008gs.jpg","null","reveal","image-keyboard-response","213","823264","0.0-6.0-4.29","2854023","co39112","norming","","","","","","",""
"null","../img/tt/008tt.jpg","null","mooney2","image-keyboard-response","214","825266","0.0-6.0-5.29","2854023","co39112","norming","","","","","","",""
"2876.3349999999627","","","post_reveal_questions","survey-likert","215","828144","0.0-6.0-6.29","2854023","co39112","norming","","","{""aha"":5}","[0]","../img/tt/008tt.jpg","",""
"null","<div style=""font-size:60px;""> </div>","null","fixation","html-keyboard-response","216","828353","0.0-6.0-0.30","2854023","co39112","norming","","","","","","",""
"null","../img/tt/1096tt.jpg","null","mooney1","image-keyboard-response","217","831362","0.0-6.0-1.30","2854023","co39112","norming","","","","","","",""
"10227.999999999884","","","post_mooney1_questions","survey-likert","218","841594","0.0-6.0-2.30","2854023","co39112","norming","","","{""curiosity"":4,""confidence"":1}","[0,1]","../img/tt/1096tt.jpg","",""
"3598.1099999998696","","","recognition","survey-text","219","845194","0.0-6.0-3.30","2854023","co39112","norming","","","{""guess"":""dining room""}","","../img/tt/1096tt.jpg","",""
"null","../img/gs/1096gs.jpg","null","reveal","image-keyboard-response","220","847203","0.0-6.0-4.30","2854023","co39112","norming","","","","","","",""
"null","../img/tt/1096tt.jpg","null","mooney2","image-keyboard-response","221","849211","0.0-6.0-5.30","2854023","co39112","norming","","","","","","",""
"2077.229999999865","","","post_reveal_questions","survey-likert","222","851290","0.0-6.0-6.30","2854023","co39112","norming","","","{""aha"":4}","[0]","../img/tt/1096tt.jpg","",""
"null","<div style=""font-size:60px;""> </div>","null","fixation","html-keyboard-response","223","851493","0.0-6.0-0.31","2854023","co39112","norming","","","","","","",""
"null","../img/tt/496tt.jpg","null","mooney1","image-keyboard-response","224","854495","0.0-6.0-1.31","2854023","co39112","norming","","","","","","",""
"7144.210000000196","","","post_mooney1_questions","survey-likert","225","861642","0.0-6.0-2.31","2854023","co39112","norming","","","{""curiosity"":4,""confidence"":0}","[0,1]","../img/tt/496tt.jpg","",""
"2062.035000000149","","","recognition","survey-text","226","863706","0.0-6.0-3.31","2854023","co39112","norming","","","{""guess"":""skunk""}","","../img/tt/496tt.jpg","",""
"null","../img/gs/496gs.jpg","null","reveal","image-keyboard-response","227","865710","0.0-6.0-4.31","2854023","co39112","norming","","","","","","",""
"null","../img/tt/496tt.jpg","null","mooney2","image-keyboard-response","228","867714","0.0-6.0-5.31","2854023","co39112","norming","","","","","","",""
"2814.7799999999115","","","post_reveal_questions","survey-likert","229","870530","0.0-6.0-6.31","2854023","co39112","norming","","","{""aha"":5}","[0]","../img/tt/496tt.jpg","",""
"null","<div style=""font-size:60px;""> </div>","null","fixation","html-keyboard-response","230","870738","0.0-6.0-0.32","2854023","co39112","norming","","","","","","",""
"null","../img/tt/406tt.jpg","null","mooney1","image-keyboard-response","231","873741","0.0-6.0-1.32","2854023","co39112","norming","","","","","","",""
"5595.199999999953","","","post_mooney1_questions","survey-likert","232","879338","0.0-6.0-2.32","2854023","co39112","norming","","","{""curiosity"":4,""confidence"":1}","[0,1]","../img/tt/406tt.jpg","",""
"1550.219999999972","","","recognition","survey-text","233","880890","0.0-6.0-3.32","2854023","co39112","norming","","","{""guess"":""bat""}","","../img/tt/406tt.jpg","",""
"null","../img/gs/406gs.jpg","null","reveal","image-keyboard-response","234","882893","0.0-6.0-4.32","2854023","co39112","norming","","","","","","",""
"null","../img/tt/406tt.jpg","null","mooney2","image-keyboard-response","235","884895","0.0-6.0-5.32","2854023","co39112","norming","","","","","","",""
"2304.870000000228","","","post_reveal_questions","survey-likert","236","887202","0.0-6.0-6.32","2854023","co39112","norming","","","{""aha"":3}","[0]","../img/tt/406tt.jpg","",""
"null","<div style=""font-size:60px;""> </div>","null","fixation","html-keyboard-response","237","887410","0.0-6.0-0.33","2854023","co39112","norming","","","","","","",""
"null","../img/tt/1189tt.jpg","null","mooney1","image-keyboard-response","238","890415","0.0-6.0-1.33","2854023","co39112","norming","","","","","","",""
"5128.425000000047","","","post_mooney1_questions","survey-likert","239","895546","0.0-6.0-2.33","2854023","co39112","norming","","","{""curiosity"":6,""confidence"":0}","[0,1]","../img/tt/1189tt.jpg","",""
"2157.944999999949","","","recognition","survey-text","240","897705","0.0-6.0-3.33","2854023","co39112","norming","","","{""guess"":""lobster""}","","../img/tt/1189tt.jpg","",""
"null","../img/gs/1189gs.jpg","null","reveal","image-keyboard-response","241","899708","0.0-6.0-4.33","2854023","co39112","norming","","","","","","",""
"null","../img/tt/1189tt.jpg","null","mooney2","image-keyboard-response","242","901718","0.0-6.0-5.33","2854023","co39112","norming","","","","","","",""
"2400.4250000000466","","","post_reveal_questions","survey-likert","243","904121","0.0-6.0-6.33","2854023","co39112","norming","","","{""aha"":5}","[0]","../img/tt/1189tt.jpg","",""
"null","<div style=""font-size:60px;""> </div>","null","fixation","html-keyboard-response","244","904322","0.0-6.0-0.34","2854023","co39112","norming","","","","","","",""
"null","../img/tt/1044tt.jpg","null","mooney1","image-keyboard-response","245","907325","0.0-6.0-1.34","2854023","co39112","norming","","","","","","",""
"11961.129999999888","","","post_mooney1_questions","survey-likert","246","919289","0.0-6.0-2.34","2854023","co39112","norming","","","{""curiosity"":5,""confidence"":1}","[0,1]","../img/tt/1044tt.jpg","",""
"3646.020000000135","","","recognition","survey-text","247","922937","0.0-6.0-3.34","2854023","co39112","norming","","","{""guess"":""grapes""}","","../img/tt/1044tt.jpg","",""
"null","../img/gs/1044gs.jpg","null","reveal","image-keyboard-response","248","924943","0.0-6.0-4.34","2854023","co39112","norming","","","","","","",""
"null","../img/tt/1044tt.jpg","null","mooney2","image-keyboard-response","249","926951","0.0-6.0-5.34","2854023","co39112","norming","","","","","","",""
"1935.3449999998556","","","post_reveal_questions","survey-likert","250","928889","0.0-6.0-6.34","2854023","co39112","norming","","","{""aha"":5}","[0]","../img/tt/1044tt.jpg","",""
"null","<div style=""font-size:60px;""> </div>","null","fixation","html-keyboard-response","251","929090","0.0-6.0-0.35","2854023","co39112","norming","","","","","","",""
"null","../img/tt/380tt.jpg","null","mooney1","image-keyboard-response","252","932101","0.0-6.0-1.35","2854023","co39112","norming","","","","","","",""
"7696.700000000186","","","post_mooney1_questions","survey-likert","253","939801","0.0-6.0-2.35","2854023","co39112","norming","","","{""curiosity"":5,""confidence"":2}","[0,1]","../img/tt/380tt.jpg","",""
"2222.119999999879","","","recognition","survey-text","254","942025","0.0-6.0-3.35","2854023","co39112","norming","","","{""guess"":""bird""}","","../img/tt/380tt.jpg","",""
"null","../img/gs/380gs.jpg","null","reveal","image-keyboard-response","255","944029","0.0-6.0-4.35","2854023","co39112","norming","","","","","","",""
"null","../img/tt/380tt.jpg","null","mooney2","image-keyboard-response","256","946031","0.0-6.0-5.35","2854023","co39112","norming","","","","","","",""
"2567","","","post_reveal_questions","survey-likert","257","948600","0.0-6.0-6.35","2854023","co39112","norming","","","{""aha"":4}","[0]","../img/tt/380tt.jpg","",""
"null","<div style=""font-size:60px;""> </div>","null","fixation","html-keyboard-response","258","948806","0.0-6.0-0.36","2854023","co39112","norming","","","","","","",""
"null","../img/tt/549tt.jpg","null","mooney1","image-keyboard-response","259","951812","0.0-6.0-1.36","2854023","co39112","norming","","","","","","",""
"4826.410000000149","","","post_mooney1_questions","survey-likert","260","956641","0.0-6.0-2.36","2854023","co39112","norming","","","{""curiosity"":4,""confidence"":2}","[0,1]","../img/tt/549tt.jpg","",""
"3206.0399999998044","","","recognition","survey-text","261","959846","0.0-6.0-3.36","2854023","co39112","norming","","","{""guess"":""mountain""}","","../img/tt/549tt.jpg","",""
"null","../img/gs/549gs.jpg","null","reveal","image-keyboard-response","262","961848","0.0-6.0-4.36","2854023","co39112","norming","","","","","","",""
"null","../img/tt/549tt.jpg","null","mooney2","image-keyboard-response","263","963850","0.0-6.0-5.36","2854023","co39112","norming","","","","","","",""
"1689.5600000000559","","","post_reveal_questions","survey-likert","264","965542","0.0-6.0-6.36","2854023","co39112","norming","","","{""aha"":5}","[0]","../img/tt/549tt.jpg","",""
"null","<div style=""font-size:60px;""> </div>","null","fixation","html-keyboard-response","265","965750","0.0-6.0-0.37","2854023","co39112","norming","","","","","","",""
"null","../img/tt/1186tt.jpg","null","mooney1","image-keyboard-response","266","968761","0.0-6.0-1.37","2854023","co39112","norming","","","","","","",""
"6882.719999999856","","","post_mooney1_questions","survey-likert","267","975646","0.0-6.0-2.37","2854023","co39112","norming","","","{""curiosity"":5,""confidence"":1}","[0,1]","../img/tt/1186tt.jpg","",""
"2198.1450000000186","","","recognition","survey-text","268","977846","0.0-6.0-3.37","2854023","co39112","norming","","","{""guess"":""cowboy""}","","../img/tt/1186tt.jpg","",""
"null","../img/gs/1186gs.jpg","null","reveal","image-keyboard-response","269","979849","0.0-6.0-4.37","2854023","co39112","norming","","","","","","",""
"null","../img/tt/1186tt.jpg","null","mooney2","image-keyboard-response","270","981852","0.0-6.0-5.37","2854023","co39112","norming","","","","","","",""
"3311.795000000042","","","post_reveal_questions","survey-likert","271","985166","0.0-6.0-6.37","2854023","co39112","norming","","","{""aha"":4}","[0]","../img/tt/1186tt.jpg","",""
"null","<div style=""font-size:60px;""> </div>","null","fixation","html-keyboard-response","272","985369","0.0-6.0-0.38","2854023","co39112","norming","","","","","","",""
"null","../img/tt/1202tt.jpg","null","mooney1","image-keyboard-response","273","988372","0.0-6.0-1.38","2854023","co39112","norming","","","","","","",""
"7935.829999999842","","","post_mooney1_questions","survey-likert","274","996310","0.0-6.0-2.38","2854023","co39112","norming","","","{""curiosity"":6,""confidence"":0}","[0,1]","../img/tt/1202tt.jpg","",""
"4462.105000000098","","","recognition","survey-text","275","1000774","0.0-6.0-3.38","2854023","co39112","norming","","","{""guess"":""person ""}","","../img/tt/1202tt.jpg","",""
"null","../img/gs/1202gs.jpg","null","reveal","image-keyboard-response","276","1002782","0.0-6.0-4.38","2854023","co39112","norming","","","","","","",""
"null","../img/tt/1202tt.jpg","null","mooney2","image-keyboard-response","277","1004784","0.0-6.0-5.38","2854023","co39112","norming","","","","","","",""
"2827.1600000000326","","","post_reveal_questions","survey-likert","278","1007614","0.0-6.0-6.38","2854023","co39112","norming","","","{""aha"":6}","[0]","../img/tt/1202tt.jpg","",""
"null","<div style=""font-size:60px;""> </div>","null","fixation","html-keyboard-response","279","1007823","0.0-6.0-0.39","2854023","co39112","norming","","","","","","",""
"null","../img/tt/1078tt.jpg","null","mooney1","image-keyboard-response","280","1010834","0.0-6.0-1.39","2854023","co39112","norming","","","","","","",""
"6569.655000000028","","","post_mooney1_questions","survey-likert","281","1017406","0.0-6.0-2.39","2854023","co39112","norming","","","{""curiosity"":3,""confidence"":6}","[0,1]","../img/tt/1078tt.jpg","",""
"3446.144999999902","","","recognition","survey-text","282","1020854","0.0-6.0-3.39","2854023","co39112","norming","","","{""guess"":""skateboarder""}","","../img/tt/1078tt.jpg","",""
"null","../img/gs/1078gs.jpg","null","reveal","image-keyboard-response","283","1022861","0.0-6.0-4.39","2854023","co39112","norming","","","","","","",""
"null","../img/tt/1078tt.jpg","null","mooney2","image-keyboard-response","284","1024862","0.0-6.0-5.39","2854023","co39112","norming","","","","","","",""
"2445.414999999921","","","post_reveal_questions","survey-likert","285","1027310","0.0-6.0-6.39","2854023","co39112","norming","","","{""aha"":0}","[0]","../img/tt/1078tt.jpg","",""
"null","<div style=""font-size:60px;""> </div>","null","fixation","html-keyboard-response","286","1027516","0.0-6.0-0.40","2854023","co39112","norming","","","","","","",""
"null","../img/tt/1260tt.jpg","null","mooney1","image-keyboard-response","287","1030525","0.0-6.0-1.40","2854023","co39112","norming","","","","","","",""
"5134.374999999884","","","post_mooney1_questions","survey-likert","288","1035662","0.0-6.0-2.40","2854023","co39112","norming","","","{""curiosity"":5,""confidence"":4}","[0,1]","../img/tt/1260tt.jpg","",""
"2390.089999999851","","","recognition","survey-text","289","1038054","0.0-6.0-3.40","2854023","co39112","norming","","","{""guess"":""mouse""}","","../img/tt/1260tt.jpg","",""
"null","../img/gs/1260gs.jpg","null","reveal","image-keyboard-response","290","1040055","0.0-6.0-4.40","2854023","co39112","norming","","","","","","",""
"null","../img/tt/1260tt.jpg","null","mooney2","image-keyboard-response","291","1042057","0.0-6.0-5.40","2854023","co39112","norming","","","","","","",""
"1643.1649999999208","","","post_reveal_questions","survey-likert","292","1043702","0.0-6.0-6.40","2854023","co39112","norming","","","{""aha"":1}","[0]","../img/tt/1260tt.jpg","",""
"null","<div style=""font-size:60px;""> </div>","null","fixation","html-keyboard-response","293","1043909","0.0-6.0-0.41","2854023","co39112","norming","","","","","","",""
"null","../img/tt/1002tt.jpg","null","mooney1","image-keyboard-response","294","1046916","0.0-6.0-1.41","2854023","co39112","norming","","","","","","",""
"5135.214999999967","","","post_mooney1_questions","survey-likert","295","1052054","0.0-6.0-2.41","2854023","co39112","norming","","","{""curiosity"":4,""confidence"":6}","[0,1]","../img/tt/1002tt.jpg","",""
"2302.2350000001024","","","recognition","survey-text","296","1054358","0.0-6.0-3.41","2854023","co39112","norming","","","{""guess"":""bear""}","","../img/tt/1002tt.jpg","",""
"null","../img/gs/1002gs.jpg","null","reveal","image-keyboard-response","297","1056360","0.0-6.0-4.41","2854023","co39112","norming","","","","","","",""
"null","../img/tt/1002tt.jpg","null","mooney2","image-keyboard-response","298","1058366","0.0-6.0-5.41","2854023","co39112","norming","","","","","","",""
"3158.0849999999627","","","post_reveal_questions","survey-likert","299","1061526","0.0-6.0-6.41","2854023","co39112","norming","","","{""aha"":0}","[0]","../img/tt/1002tt.jpg","",""
"null","<div style=""font-size:60px;""> </div>","null","fixation","html-keyboard-response","300","1061735","0.0-6.0-0.42","2854023","co39112","norming","","","","","","",""
"null","../img/tt/296tt.jpg","null","mooney1","image-keyboard-response","301","1064744","0.0-6.0-1.42","2854023","co39112","norming","","","","","","",""
"6498.695000000065","","","post_mooney1_questions","survey-likert","302","1071246","0.0-6.0-2.42","2854023","co39112","norming","","","{""curiosity"":5,""confidence"":2}","[0,1]","../img/tt/296tt.jpg","",""
"4358.155000000261","","","recognition","survey-text","303","1075606","0.0-6.0-3.42","2854023","co39112","norming","","","{""guess"":""hospital bed""}","","../img/tt/296tt.jpg","",""
"null","../img/gs/296gs.jpg","null","reveal","image-keyboard-response","304","1077607","0.0-6.0-4.42","2854023","co39112","norming","","","","","","",""
"null","../img/tt/296tt.jpg","null","mooney2","image-keyboard-response","305","1079614","0.0-6.0-5.42","2854023","co39112","norming","","","","","","",""
"1819.0900000000838","","","post_reveal_questions","survey-likert","306","1081436","0.0-6.0-6.42","2854023","co39112","norming","","","{""aha"":4}","[0]","../img/tt/296tt.jpg","",""
"null","<div style=""font-size:60px;""> </div>","null","fixation","html-keyboard-response","307","1081641","0.0-6.0-0.43","2854023","co39112","norming","","","","","","",""
"null","../img/tt/112tt.jpg","null","mooney1","image-keyboard-response","308","1084644","0.0-6.0-1.43","2854023","co39112","norming","","","","","","",""
"5805.354999999981","","","post_mooney1_questions","survey-likert","309","1090452","0.0-6.0-2.43","2854023","co39112","norming","","","{""curiosity"":6,""confidence"":1}","[0,1]","../img/tt/112tt.jpg","",""
"2806.185000000056","","","recognition","survey-text","310","1093260","0.0-6.0-3.43","2854023","co39112","norming","","","{""guess"":""golf clubs""}","","../img/tt/112tt.jpg","",""
"null","../img/gs/112gs.jpg","null","reveal","image-keyboard-response","311","1095261","0.0-6.0-4.43","2854023","co39112","norming","","","","","","",""
"null","../img/tt/112tt.jpg","null","mooney2","image-keyboard-response","312","1097263","0.0-6.0-5.43","2854023","co39112","norming","","","","","","",""
"1634.4200000003912","","","post_reveal_questions","survey-likert","313","1098900","0.0-6.0-6.43","2854023","co39112","norming","","","{""aha"":6}","[0]","../img/tt/112tt.jpg","",""
"null","<div style=""font-size:60px;""> </div>","null","fixation","html-keyboard-response","314","1099109","0.0-6.0-0.44","2854023","co39112","norming","","","","","","",""
"null","../img/tt/085tt.jpg","null","mooney1","image-keyboard-response","315","1102121","0.0-6.0-1.44","2854023","co39112","norming","","","","","","",""
"7903.789999999804","","","post_mooney1_questions","survey-likert","316","1110028","0.0-6.0-2.44","2854023","co39112","norming","","","{""curiosity"":5,""confidence"":5}","[0,1]","../img/tt/085tt.jpg","",""
"2078.1099999998696","","","recognition","survey-text","317","1112108","0.0-6.0-3.44","2854023","co39112","norming","","","{""guess"":""mantis""}","","../img/tt/085tt.jpg","",""
"null","../img/gs/085gs.jpg","null","reveal","image-keyboard-response","318","1114109","0.0-6.0-4.44","2854023","co39112","norming","","","","","","",""
"null","../img/tt/085tt.jpg","null","mooney2","image-keyboard-response","319","1116112","0.0-6.0-5.44","2854023","co39112","norming","","","","","","",""
"1497.940000000177","","","post_reveal_questions","survey-likert","320","1117612","0.0-6.0-6.44","2854023","co39112","norming","","","{""aha"":1}","[0]","../img/tt/085tt.jpg","",""
"null","<div style=""font-size:60px;""> </div>","null","fixation","html-keyboard-response","321","1117813","0.0-6.0-0.45","2854023","co39112","norming","","","","","","",""
"null","../img/tt/273tt.jpg","null","mooney1","image-keyboard-response","322","1120822","0.0-6.0-1.45","2854023","co39112","norming","","","","","","",""
"5635.479999999981","","","post_mooney1_questions","survey-likert","323","1126460","0.0-6.0-2.45","2854023","co39112","norming","","","{""curiosity"":4,""confidence"":5}","[0,1]","../img/tt/273tt.jpg","",""
"17134.099999999627","","","recognition","survey-text","324","1143596","0.0-6.0-3.45","2854023","co39112","norming","","","{""guess"":""iemand die zijn tong uitsteekt""}","","../img/tt/273tt.jpg","",""
"null","../img/gs/273gs.jpg","null","reveal","image-keyboard-response","325","1145598","0.0-6.0-4.45","2854023","co39112","norming","","","","","","",""
"null","../img/tt/273tt.jpg","null","mooney2","image-keyboard-response","326","1147598","0.0-6.0-5.45","2854023","co39112","norming","","","","","","",""
"2996.66500000027","","","post_reveal_questions","survey-likert","327","1150596","0.0-6.0-6.45","2854023","co39112","norming","","","{""aha"":2}","[0]","../img/tt/273tt.jpg","",""
"null","<div style=""font-size:60px;""> </div>","null","fixation","html-keyboard-response","328","1150801","0.0-6.0-0.46","2854023","co39112","norming","","","","","","",""
"null","../img/tt/1255tt.jpg","null","mooney1","image-keyboard-response","329","1153809","0.0-6.0-1.46","2854023","co39112","norming","","","","","","",""
"5384.199999999953","","","post_mooney1_questions","survey-likert","330","1159196","0.0-6.0-2.46","2854023","co39112","norming","","","{""curiosity"":5,""confidence"":1}","[0,1]","../img/tt/1255tt.jpg","",""
"1725.9549999998417","","","recognition","survey-text","331","1160924","0.0-6.0-3.46","2854023","co39112","norming","","","{""guess"":""rabbit""}","","../img/tt/1255tt.jpg","",""
"null","../img/gs/1255gs.jpg","null","reveal","image-keyboard-response","332","1162926","0.0-6.0-4.46","2854023","co39112","norming","","","","","","",""
"null","../img/tt/1255tt.jpg","null","mooney2","image-keyboard-response","333","1164928","0.0-6.0-5.46","2854023","co39112","norming","","","","","","",""
"2114.0749999999534","","","post_reveal_questions","survey-likert","334","1167044","0.0-6.0-6.46","2854023","co39112","norming","","","{""aha"":5}","[0]","../img/tt/1255tt.jpg","",""
"null","<div style=""font-size:60px;""> </div>","null","fixation","html-keyboard-response","335","1167246","0.0-6.0-0.47","2854023","co39112","norming","","","","","","",""
"null","../img/tt/013tt.jpg","null","mooney1","image-keyboard-response","336","1170249","0.0-6.0-1.47","2854023","co39112","norming","","","","","","",""
"4512.335000000196","","","post_mooney1_questions","survey-likert","337","1174764","0.0-6.0-2.47","2854023","co39112","norming","","","{""curiosity"":4,""confidence"":1}","[0,1]","../img/tt/013tt.jpg","",""
"2669.6299999998882","","","recognition","survey-text","338","1177436","0.0-6.0-3.47","2854023","co39112","norming","","","{""guess"":""2 persons""}","","../img/tt/013tt.jpg","",""
"null","../img/gs/013gs.jpg","null","reveal","image-keyboard-response","339","1179438","0.0-6.0-4.47","2854023","co39112","norming","","","","","","",""
"null","../img/tt/013tt.jpg","null","mooney2","image-keyboard-response","340","1181440","0.0-6.0-5.47","2854023","co39112","norming","","","","","","",""
"4193.9550000000745","","","post_reveal_questions","survey-likert","341","1185636","0.0-6.0-6.47","2854023","co39112","norming","","","{""aha"":5}","[0]","../img/tt/013tt.jpg","",""
"null","<div style=""font-size:60px;""> </div>","null","fixation","html-keyboard-response","342","1185845","0.0-6.0-0.48","2854023","co39112","norming","","","","","","",""
"null","../img/tt/1191tt.jpg","null","mooney1","image-keyboard-response","343","1188853","0.0-6.0-1.48","2854023","co39112","norming","","","","","","",""
"6436.719999999972","","","post_mooney1_questions","survey-likert","344","1195292","0.0-6.0-2.48","2854023","co39112","norming","","","{""curiosity"":5,""confidence"":2}","[0,1]","../img/tt/1191tt.jpg","",""
"8909.955000000075","","","recognition","survey-text","345","1204205","0.0-6.0-3.48","2854023","co39112","norming","","","{""guess"":""2 persons on a beach""}","","../img/tt/1191tt.jpg","",""
"null","../img/gs/1191gs.jpg","null","reveal","image-keyboard-response","346","1206206","0.0-6.0-4.48","2854023","co39112","norming","","","","","","",""
"null","../img/tt/1191tt.jpg","null","mooney2","image-keyboard-response","347","1208211","0.0-6.0-5.48","2854023","co39112","norming","","","","","","",""
"2527.720000000205","","","post_reveal_questions","survey-likert","348","1210741","0.0-6.0-6.48","2854023","co39112","norming","","","{""aha"":4}","[0]","../img/tt/1191tt.jpg","",""
"null","<div style=""font-size:60px;""> </div>","null","fixation","html-keyboard-response","349","1210942","0.0-6.0-0.49","2854023","co39112","norming","","","","","","",""
"null","../img/tt/1027tt.jpg","null","mooney1","image-keyboard-response","350","1213950","0.0-6.0-1.49","2854023","co39112","norming","","","","","","",""
"5083.584999999963","","","post_mooney1_questions","survey-likert","351","1219037","0.0-6.0-2.49","2854023","co39112","norming","","","{""curiosity"":4,""confidence"":1}","[0,1]","../img/tt/1027tt.jpg","",""
"2654.2199999997392","","","recognition","survey-text","352","1221693","0.0-6.0-3.49","2854023","co39112","norming","","","{""guess"":""horses""}","","../img/tt/1027tt.jpg","",""
"null","../img/gs/1027gs.jpg","null","reveal","image-keyboard-response","353","1223703","0.0-6.0-4.49","2854023","co39112","norming","","","","","","",""
"null","../img/tt/1027tt.jpg","null","mooney2","image-keyboard-response","354","1225706","0.0-6.0-5.49","2854023","co39112","norming","","","","","","",""
"3776.380000000354","","","post_reveal_questions","survey-likert","355","1229485","0.0-6.0-6.49","2854023","co39112","norming","","","{""aha"":5}","[0]","../img/tt/1027tt.jpg","",""
"null","<div style=""font-size:60px;""> </div>","null","fixation","html-keyboard-response","356","1229686","0.0-6.0-0.50","2854023","co39112","norming","","","","","","",""
"null","../img/tt/1173tt.jpg","null","mooney1","image-keyboard-response","357","1232690","0.0-6.0-1.50","2854023","co39112","norming","","","","","","",""
"7168.589999999851","","","post_mooney1_questions","survey-likert","358","1239861","0.0-6.0-2.50","2854023","co39112","norming","","","{""curiosity"":5,""confidence"":2}","[0,1]","../img/tt/1173tt.jpg","",""
"8709.979999999981","","","recognition","survey-text","359","1248573","0.0-6.0-3.50","2854023","co39112","norming","","","{""guess"":""hockey or soccer players""}","","../img/tt/1173tt.jpg","",""
"null","../img/gs/1173gs.jpg","null","reveal","image-keyboard-response","360","1250579","0.0-6.0-4.50","2854023","co39112","norming","","","","","","",""
"null","../img/tt/1173tt.jpg","null","mooney2","image-keyboard-response","361","1252581","0.0-6.0-5.50","2854023","co39112","norming","","","","","","",""
"2069.5300000002608","","","post_reveal_questions","survey-likert","362","1254653","0.0-6.0-6.50","2854023","co39112","norming","","","{""aha"":3}","[0]","../img/tt/1173tt.jpg","",""
"null","<div style=""font-size:60px;""> </div>","null","fixation","html-keyboard-response","363","1254854","0.0-6.0-0.51","2854023","co39112","norming","","","","","","",""
"null","../img/tt/1122tt.jpg","null","mooney1","image-keyboard-response","364","1257857","0.0-6.0-1.51","2854023","co39112","norming","","","","","","",""
"4931.430000000168","","","post_mooney1_questions","survey-likert","365","1262790","0.0-6.0-2.51","2854023","co39112","norming","","","{""curiosity"":5,""confidence"":2}","[0,1]","../img/tt/1122tt.jpg","",""
"2358.0550000001676","","","recognition","survey-text","366","1265149","0.0-6.0-3.51","2854023","co39112","norming","","","{""guess"":""traffic""}","","../img/tt/1122tt.jpg","",""
"null","../img/gs/1122gs.jpg","null","reveal","image-keyboard-response","367","1267150","0.0-6.0-4.51","2854023","co39112","norming","","","","","","",""
"null","../img/tt/1122tt.jpg","null","mooney2","image-keyboard-response","368","1269152","0.0-6.0-5.51","2854023","co39112","norming","","","","","","",""
"3410.6349999997765","","","post_reveal_questions","survey-likert","369","1272565","0.0-6.0-6.51","2854023","co39112","norming","","","{""aha"":5}","[0]","../img/tt/1122tt.jpg","",""
"null","<div style=""font-size:60px;""> </div>","null","fixation","html-keyboard-response","370","1272768","0.0-6.0-0.52","2854023","co39112","norming","","","","","","",""
"null","../img/tt/064tt.jpg","null","mooney1","image-keyboard-response","371","1275771","0.0-6.0-1.52","2854023","co39112","norming","","","","","","",""
"5055.229999999981","","","post_mooney1_questions","survey-likert","372","1280830","0.0-6.0-2.52","2854023","co39112","norming","","","{""curiosity"":5,""confidence"":3}","[0,1]","../img/tt/064tt.jpg","",""
"1614.0549999999348","","","recognition","survey-text","373","1282445","0.0-6.0-3.52","2854023","co39112","norming","","","{""guess"":""snake""}","","../img/tt/064tt.jpg","",""
"null","../img/gs/064gs.jpg","null","reveal","image-keyboard-response","374","1284447","0.0-6.0-4.52","2854023","co39112","norming","","","","","","",""
"null","../img/tt/064tt.jpg","null","mooney2","image-keyboard-response","375","1286449","0.0-6.0-5.52","2854023","co39112","norming","","","","","","",""
"2785.655000000028","","","post_reveal_questions","survey-likert","376","1289237","0.0-6.0-6.52","2854023","co39112","norming","","","{""aha"":5}","[0]","../img/tt/064tt.jpg","",""
"null","<div style=""font-size:60px;""> </div>","null","fixation","html-keyboard-response","377","1289443","0.0-6.0-0.53","2854023","co39112","norming","","","","","","",""
"null","../img/tt/1097tt.jpg","null","mooney1","image-keyboard-response","378","1292449","0.0-6.0-1.53","2854023","co39112","norming","","","","","","",""
"9073.274999999674","","","post_mooney1_questions","survey-likert","379","1301525","0.0-6.0-2.53","2854023","co39112","norming","","","{""curiosity"":5,""confidence"":2}","[0,1]","../img/tt/1097tt.jpg","",""
"5174.209999999963","","","recognition","survey-text","380","1306701","0.0-6.0-3.53","2854023","co39112","norming","","","{""guess"":""surfer""}","","../img/tt/1097tt.jpg","",""
"null","../img/gs/1097gs.jpg","null","reveal","image-keyboard-response","381","1308703","0.0-6.0-4.53","2854023","co39112","norming","","","","","","",""
"null","../img/tt/1097tt.jpg","null","mooney2","image-keyboard-response","382","1310713","0.0-6.0-5.53","2854023","co39112","norming","","","","","","",""
"2017.4149999998044","","","post_reveal_questions","survey-likert","383","1312733","0.0-6.0-6.53","2854023","co39112","norming","","","{""aha"":1}","[0]","../img/tt/1097tt.jpg","",""
"null","<div style=""font-size:60px;""> </div>","null","fixation","html-keyboard-response","384","1312935","0.0-6.0-0.54","2854023","co39112","norming","","","","","","",""
"null","../img/tt/1200tt.jpg","null","mooney1","image-keyboard-response","385","1315944","0.0-6.0-1.54","2854023","co39112","norming","","","","","","",""
"4593.985000000102","","","post_mooney1_questions","survey-likert","386","1320541","0.0-6.0-2.54","2854023","co39112","norming","","","{""curiosity"":5,""confidence"":0}","[0,1]","../img/tt/1200tt.jpg","",""
"5902.314999999711","","","recognition","survey-text","387","1326457","0.0-6.0-3.54","2854023","co39112","norming","","","{""guess"":""boat""}","","../img/tt/1200tt.jpg","",""
"null","../img/gs/1200gs.jpg","null","reveal","image-keyboard-response","388","1328465","0.0-6.0-4.54","2854023","co39112","norming","","","","","","",""
"null","../img/tt/1200tt.jpg","null","mooney2","image-keyboard-response","389","1330468","0.0-6.0-5.54","2854023","co39112","norming","","","","","","",""
"1946.255000000354","","","post_reveal_questions","survey-likert","390","1332416","0.0-6.0-6.54","2854023","co39112","norming","","","{""aha"":3}","[0]","../img/tt/1200tt.jpg","",""
"null","<div style=""font-size:60px;""> </div>","null","fixation","html-keyboard-response","391","1332622","0.0-6.0-0.55","2854023","co39112","norming","","","","","","",""
"null","../img/tt/1087tt.jpg","null","mooney1","image-keyboard-response","392","1335627","0.0-6.0-1.55","2854023","co39112","norming","","","","","","",""
"7228.964999999618","","","post_mooney1_questions","survey-likert","393","1342857","0.0-6.0-2.55","2854023","co39112","norming","","","{""curiosity"":4,""confidence"":5}","[0,1]","../img/tt/1087tt.jpg","",""
"1598.089999999851","","","recognition","survey-text","394","1344457","0.0-6.0-3.55","2854023","co39112","norming","","","{""guess"":""sheep""}","","../img/tt/1087tt.jpg","",""
"null","../img/gs/1087gs.jpg","null","reveal","image-keyboard-response","395","1346459","0.0-6.0-4.55","2854023","co39112","norming","","","","","","",""
"null","../img/tt/1087tt.jpg","null","mooney2","image-keyboard-response","396","1348462","0.0-6.0-5.55","2854023","co39112","norming","","","","","","",""
"2816.4650000003166","","","post_reveal_questions","survey-likert","397","1351280","0.0-6.0-6.55","2854023","co39112","norming","","","{""aha"":3}","[0]","../img/tt/1087tt.jpg","",""
"null","<div style=""font-size:60px;""> </div>","null","fixation","html-keyboard-response","398","1351491","0.0-6.0-0.56","2854023","co39112","norming","","","","","","",""
"null","../img/tt/080tt.jpg","null","mooney1","image-keyboard-response","399","1354494","0.0-6.0-1.56","2854023","co39112","norming","","","","","","",""
"5832.245000000112","","","post_mooney1_questions","survey-likert","400","1360329","0.0-6.0-2.56","2854023","co39112","norming","","","{""curiosity"":5,""confidence"":1}","[0,1]","../img/tt/080tt.jpg","",""
"1533.8600000001024","","","recognition","survey-text","401","1361864","0.0-6.0-3.56","2854023","co39112","norming","","","{""guess"":""egg""}","","../img/tt/080tt.jpg","",""
"null","../img/gs/080gs.jpg","null","reveal","image-keyboard-response","402","1363867","0.0-6.0-4.56","2854023","co39112","norming","","","","","","",""
"null","../img/tt/080tt.jpg","null","mooney2","image-keyboard-response","403","1365870","0.0-6.0-5.56","2854023","co39112","norming","","","","","","",""
"3520.3249999999534","","","post_reveal_questions","survey-likert","404","1369392","0.0-6.0-6.56","2854023","co39112","norming","","","{""aha"":5}","[0]","../img/tt/080tt.jpg","",""
"null","<div style=""font-size:60px;""> </div>","null","fixation","html-keyboard-response","405","1369598","0.0-6.0-0.57","2854023","co39112","norming","","","","","","",""
"null","../img/tt/1228tt.jpg","null","mooney1","image-keyboard-response","406","1372598","0.0-6.0-1.57","2854023","co39112","norming","","","","","","",""
"3863.0649999994785","","","post_mooney1_questions","survey-likert","407","1376465","0.0-6.0-2.57","2854023","co39112","norming","","","{""curiosity"":5,""confidence"":0}","[0,1]","../img/tt/1228tt.jpg","",""
"1750.2049999998417","","","recognition","survey-text","408","1378217","0.0-6.0-3.57","2854023","co39112","norming","","","{""guess"":""bird""}","","../img/tt/1228tt.jpg","",""
"null","../img/gs/1228gs.jpg","null","reveal","image-keyboard-response","409","1380218","0.0-6.0-4.57","2854023","co39112","norming","","","","","","",""
"null","../img/tt/1228tt.jpg","null","mooney2","image-keyboard-response","410","1382225","0.0-6.0-5.57","2854023","co39112","norming","","","","","","",""
"2521.3050000001676","","","post_reveal_questions","survey-likert","411","1384749","0.0-6.0-6.57","2854023","co39112","norming","","","{""aha"":4}","[0]","../img/tt/1228tt.jpg","",""
"null","<div style=""font-size:60px;""> </div>","null","fixation","html-keyboard-response","412","1384951","0.0-6.0-0.58","2854023","co39112","norming","","","","","","",""
"null","../img/tt/534tt.jpg","null","mooney1","image-keyboard-response","413","1387957","0.0-6.0-1.58","2854023","co39112","norming","","","","","","",""
"6949.755000000121","","","post_mooney1_questions","survey-likert","414","1394909","0.0-6.0-2.58","2854023","co39112","norming","","","{""curiosity"":4,""confidence"":5}","[0,1]","../img/tt/534tt.jpg","",""
"2333.734999999637","","","recognition","survey-text","415","1397245","0.0-6.0-3.58","2854023","co39112","norming","","","{""guess"":""cactus""}","","../img/tt/534tt.jpg","",""
"null","../img/gs/534gs.jpg","null","reveal","image-keyboard-response","416","1399246","0.0-6.0-4.58","2854023","co39112","norming","","","","","","",""
"null","../img/tt/534tt.jpg","null","mooney2","image-keyboard-response","417","1401253","0.0-6.0-5.58","2854023","co39112","norming","","","","","","",""
"4629.479999999981","","","post_reveal_questions","survey-likert","418","1405885","0.0-6.0-6.58","2854023","co39112","norming","","","{""aha"":1}","[0]","../img/tt/534tt.jpg","",""
"null","<div style=""font-size:60px;""> </div>","null","fixation","html-keyboard-response","419","1406087","0.0-6.0-0.59","2854023","co39112","norming","","","","","","",""
"null","../img/tt/135tt.jpg","null","mooney1","image-keyboard-response","420","1409091","0.0-6.0-1.59","2854023","co39112","norming","","","","","","",""
"4110.72499999986","","","post_mooney1_questions","survey-likert","421","1413205","0.0-6.0-2.59","2854023","co39112","norming","","","{""curiosity"":4,""confidence"":1}","[0,1]","../img/tt/135tt.jpg","",""
"2166.20999999973","","","recognition","survey-text","422","1415373","0.0-6.0-3.59","2854023","co39112","norming","","","{""guess"":""toilet""}","","../img/tt/135tt.jpg","",""
"null","../img/gs/135gs.jpg","null","reveal","image-keyboard-response","423","1417375","0.0-6.0-4.59","2854023","co39112","norming","","","","","","",""
"null","../img/tt/135tt.jpg","null","mooney2","image-keyboard-response","424","1419378","0.0-6.0-5.59","2854023","co39112","norming","","","","","","",""
"3583.5099999997765","","","post_reveal_questions","survey-likert","425","1422965","0.0-6.0-6.59","2854023","co39112","norming","","","{""aha"":1}","[0]","../img/tt/135tt.jpg","",""
"null","<div style=""font-size:60px;""> </div>","null","fixation","html-keyboard-response","426","1423172","0.0-6.0-0.60","2854023","co39112","norming","","","","","","",""
"null","../img/tt/318tt.jpg","null","mooney1","image-keyboard-response","427","1426177","0.0-6.0-1.60","2854023","co39112","norming","","","","","","",""
"6386.869999999879","","","post_mooney1_questions","survey-likert","428","1432565","0.0-6.0-2.60","2854023","co39112","norming","","","{""curiosity"":5,""confidence"":1}","[0,1]","../img/tt/318tt.jpg","",""
"4134.044999999693","","","recognition","survey-text","429","1436701","0.0-6.0-3.60","2854023","co39112","norming","","","{""guess"":""washing machine""}","","../img/tt/318tt.jpg","",""
"null","../img/gs/318gs.jpg","null","reveal","image-keyboard-response","430","1438706","0.0-6.0-4.60","2854023","co39112","norming","","","","","","",""
"null","../img/tt/318tt.jpg","null","mooney2","image-keyboard-response","431","1440708","0.0-6.0-5.60","2854023","co39112","norming","","","","","","",""
"1734.2349999998696","","","post_reveal_questions","survey-likert","432","1442447","0.0-6.0-6.60","2854023","co39112","norming","","","{""aha"":5}","[0]","../img/tt/318tt.jpg","",""
"null","<div style=""font-size:60px;""> </div>","null","fixation","html-keyboard-response","433","1442652","0.0-6.0-0.61","2854023","co39112","norming","","","","","","",""
"null","../img/tt/1226tt.jpg","null","mooney1","image-keyboard-response","434","1445660","0.0-6.0-1.61","2854023","co39112","norming","","","","","","",""
"9745.490000000224","","","post_mooney1_questions","survey-likert","435","1455407","0.0-6.0-2.61","2854023","co39112","norming","","","{""curiosity"":5,""confidence"":1}","[0,1]","../img/tt/1226tt.jpg","",""
"1422.0150000001304","","","recognition","survey-text","436","1456831","0.0-6.0-3.61","2854023","co39112","norming","","","{""guess"":""fire""}","","../img/tt/1226tt.jpg","",""
"null","../img/gs/1226gs.jpg","null","reveal","image-keyboard-response","437","1458833","0.0-6.0-4.61","2854023","co39112","norming","","","","","","",""
"null","../img/tt/1226tt.jpg","null","mooney2","image-keyboard-response","438","1460835","0.0-6.0-5.61","2854023","co39112","norming","","","","","","",""
"2322.149999999907","","","post_reveal_questions","survey-likert","439","1463159","0.0-6.0-6.61","2854023","co39112","norming","","","{""aha"":6}","[0]","../img/tt/1226tt.jpg","",""
"null","<div style=""font-size:60px;""> </div>","null","fixation","html-keyboard-response","440","1463365","0.0-6.0-0.62","2854023","co39112","norming","","","","","","",""
"null","../img/tt/378tt.jpg","null","mooney1","image-keyboard-response","441","1466368","0.0-6.0-1.62","2854023","co39112","norming","","","","","","",""
"9340.074999999953","","","post_mooney1_questions","survey-likert","442","1475711","0.0-6.0-2.62","2854023","co39112","norming","","","{""curiosity"":5,""confidence"":2}","[0,1]","../img/tt/378tt.jpg","",""
"1694.0549999999348","","","recognition","survey-text","443","1477407","0.0-6.0-3.62","2854023","co39112","norming","","","{""guess"":""lama""}","","../img/tt/378tt.jpg","",""
"null","../img/gs/378gs.jpg","null","reveal","image-keyboard-response","444","1479409","0.0-6.0-4.62","2854023","co39112","norming","","","","","","",""
"null","../img/tt/378tt.jpg","null","mooney2","image-keyboard-response","445","1481411","0.0-6.0-5.62","2854023","co39112","norming","","","","","","",""
"3786.4150000000373","","","post_reveal_questions","survey-likert","446","1485199","0.0-6.0-6.62","2854023","co39112","norming","","","{""aha"":5}","[0]","../img/tt/378tt.jpg","",""
"null","<div style=""font-size:60px;""> </div>","null","fixation","html-keyboard-response","447","1485408","0.0-6.0-0.63","2854023","co39112","norming","","","","","","",""
"null","../img/tt/307tt.jpg","null","mooney1","image-keyboard-response","448","1488413","0.0-6.0-1.63","2854023","co39112","norming","","","","","","",""
"4583.420000000391","","","post_mooney1_questions","survey-likert","449","1492999","0.0-6.0-2.63","2854023","co39112","norming","","","{""curiosity"":6,""confidence"":0}","[0,1]","../img/tt/307tt.jpg","",""
"2661.9050000004936","","","recognition","survey-text","450","1495663","0.0-6.0-3.63","2854023","co39112","norming","","","{""guess"":""rups""}","","../img/tt/307tt.jpg","",""
"null","../img/gs/307gs.jpg","null","reveal","image-keyboard-response","451","1497669","0.0-6.0-4.63","2854023","co39112","norming","","","","","","",""
"null","../img/tt/307tt.jpg","null","mooney2","image-keyboard-response","452","1499674","0.0-6.0-5.63","2854023","co39112","norming","","","","","","",""
"2451.0799999998417","","","post_reveal_questions","survey-likert","453","1502127","0.0-6.0-6.63","2854023","co39112","norming","","","{""aha"":5}","[0]","../img/tt/307tt.jpg","",""
"null","<div style=""font-size:60px;""> </div>","null","fixation","html-keyboard-response","454","1502337","0.0-6.0-0.64","2854023","co39112","norming","","","","","","",""
"null","../img/tt/1127tt.jpg","null","mooney1","image-keyboard-response","455","1505342","0.0-6.0-1.64","2854023","co39112","norming","","","","","","",""
"7389.9900000002235","","","post_mooney1_questions","survey-likert","456","1512737","0.0-6.0-2.64","2854023","co39112","norming","","","{""curiosity"":4,""confidence"":4}","[0,1]","../img/tt/1127tt.jpg","",""
"7182.024999999907","","","recognition","survey-text","457","1519921","0.0-6.0-3.64","2854023","co39112","norming","","","{""guess"":""judo/karate""}","","../img/tt/1127tt.jpg","",""
"null","../img/gs/1127gs.jpg","null","reveal","image-keyboard-response","458","1521922","0.0-6.0-4.64","2854023","co39112","norming","","","","","","",""
"null","../img/tt/1127tt.jpg","null","mooney2","image-keyboard-response","459","1523930","0.0-6.0-5.64","2854023","co39112","norming","","","","","","",""
"3652.3149999997113","","","post_reveal_questions","survey-likert","460","1527584","0.0-6.0-6.64","2854023","co39112","norming","","","{""aha"":4}","[0]","../img/tt/1127tt.jpg","",""
"null","<div style=""font-size:60px;""> </div>","null","fixation","html-keyboard-response","461","1527786","0.0-6.0-0.65","2854023","co39112","norming","","","","","","",""
"null","../img/tt/111tt.jpg","null","mooney1","image-keyboard-response","462","1530788","0.0-6.0-1.65","2854023","co39112","norming","","","","","","",""
"4585.2949999999255","","","post_mooney1_questions","survey-likert","463","1535377","0.0-6.0-2.65","2854023","co39112","norming","","","{""curiosity"":3,""confidence"":5}","[0,1]","../img/tt/111tt.jpg","",""
"2238.3250000001863","","","recognition","survey-text","464","1537617","0.0-6.0-3.65","2854023","co39112","norming","","","{""guess"":""shower""}","","../img/tt/111tt.jpg","",""
"null","../img/gs/111gs.jpg","null","reveal","image-keyboard-response","465","1539618","0.0-6.0-4.65","2854023","co39112","norming","","","","","","",""
"null","../img/tt/111tt.jpg","null","mooney2","image-keyboard-response","466","1541620","0.0-6.0-5.65","2854023","co39112","norming","","","","","","",""
"1819.660000000149","","","post_reveal_questions","survey-likert","467","1543441","0.0-6.0-6.65","2854023","co39112","norming","","","{""aha"":0}","[0]","../img/tt/111tt.jpg","",""
"null","<div style=""font-size:60px;""> </div>","null","fixation","html-keyboard-response","468","1543644","0.0-6.0-0.66","2854023","co39112","norming","","","","","","",""
"null","../img/tt/1234tt.jpg","null","mooney1","image-keyboard-response","469","1546645","0.0-6.0-1.66","2854023","co39112","norming","","","","","","",""
"4080.4199999996927","","","post_mooney1_questions","survey-likert","470","1550729","0.0-6.0-2.66","2854023","co39112","norming","","","{""curiosity"":5,""confidence"":2}","[0,1]","../img/tt/1234tt.jpg","",""
"6165.954999999842","","","recognition","survey-text","471","1556897","0.0-6.0-3.66","2854023","co39112","norming","","","{""guess"":""mountain""}","","../img/tt/1234tt.jpg","",""
"null","../img/gs/1234gs.jpg","null","reveal","image-keyboard-response","472","1558907","0.0-6.0-4.66","2854023","co39112","norming","","","","","","",""
"null","../img/tt/1234tt.jpg","null","mooney2","image-keyboard-response","473","1560909","0.0-6.0-5.66","2854023","co39112","norming","","","","","","",""
"4593.40000000014","","","post_reveal_questions","survey-likert","474","1565499","0.0-6.0-6.66","2854023","co39112","norming","","","{""aha"":5}","[0]","../img/tt/1234tt.jpg","",""
"null","<div style=""font-size:60px;""> </div>","null","fixation","html-keyboard-response","475","1565700","0.0-6.0-0.67","2854023","co39112","norming","","","","","","",""
"null","../img/tt/108tt.jpg","null","mooney1","image-keyboard-response","476","1568704","0.0-6.0-1.67","2854023","co39112","norming","","","","","","",""
"4111.919999999693","","","post_mooney1_questions","survey-likert","477","1572819","0.0-6.0-2.67","2854023","co39112","norming","","","{""curiosity"":6,""confidence"":0}","[0,1]","../img/tt/108tt.jpg","",""
"2757.70999999973","","","recognition","survey-text","478","1575579","0.0-6.0-3.67","2854023","co39112","norming","","","{""guess"":""forest""}","","../img/tt/108tt.jpg","",""
"null","../img/gs/108gs.jpg","null","reveal","image-keyboard-response","479","1577586","0.0-6.0-4.67","2854023","co39112","norming","","","","","","",""
"null","../img/tt/108tt.jpg","null","mooney2","image-keyboard-response","480","1579588","0.0-6.0-5.67","2854023","co39112","norming","","","","","","",""
"2245.9699999997392","","","post_reveal_questions","survey-likert","481","1581835","0.0-6.0-6.67","2854023","co39112","norming","","","{""aha"":5}","[0]","../img/tt/108tt.jpg","",""
"null","<div style=""font-size:60px;""> </div>","null","fixation","html-keyboard-response","482","1582041","0.0-6.0-0.68","2854023","co39112","norming","","","","","","",""
"null","../img/tt/1366tt.jpg","null","mooney1","image-keyboard-response","483","1585044","0.0-6.0-1.68","2854023","co39112","norming","","","","","","",""
"5860.479999999981","","","post_mooney1_questions","survey-likert","484","1590907","0.0-6.0-2.68","2854023","co39112","norming","","","{""curiosity"":5,""confidence"":1}","[0,1]","../img/tt/1366tt.jpg","",""
"2334.04000000027","","","recognition","survey-text","485","1593243","0.0-6.0-3.68","2854023","co39112","norming","","","{""guess"":""burrito""}","","../img/tt/1366tt.jpg","",""
"null","../img/gs/1366gs.jpg","null","reveal","image-keyboard-response","486","1595249","0.0-6.0-4.68","2854023","co39112","norming","","","","","","",""
"null","../img/tt/1366tt.jpg","null","mooney2","image-keyboard-response","487","1597252","0.0-6.0-5.68","2854023","co39112","norming","","","","","","",""
"2516.3249999999534","","","post_reveal_questions","survey-likert","488","1599771","0.0-6.0-6.68","2854023","co39112","norming","","","{""aha"":1}","[0]","../img/tt/1366tt.jpg","",""
"null","<div style=""font-size:60px;""> </div>","null","fixation","html-keyboard-response","489","1599973","0.0-6.0-0.69","2854023","co39112","norming","","","","","","",""
"null","../img/tt/078tt.jpg","null","mooney1","image-keyboard-response","490","1602983","0.0-6.0-1.69","2854023","co39112","norming","","","","","","",""
"5664.810000000289","","","post_mooney1_questions","survey-likert","491","1608651","0.0-6.0-2.69","2854023","co39112","norming","","","{""curiosity"":4,""confidence"":6}","[0,1]","../img/tt/078tt.jpg","",""
"4781.799999999814","","","recognition","survey-text","492","1613435","0.0-6.0-3.69","2854023","co39112","norming","","","{""guess"":""grapes""}","","../img/tt/078tt.jpg","",""
"null","../img/gs/078gs.jpg","null","reveal","image-keyboard-response","493","1615437","0.0-6.0-4.69","2854023","co39112","norming","","","","","","",""
"null","../img/tt/078tt.jpg","null","mooney2","image-keyboard-response","494","1617447","0.0-6.0-5.69","2854023","co39112","norming","","","","","","",""
"2928.899999999907","","","post_reveal_questions","survey-likert","495","1620380","0.0-6.0-6.69","2854023","co39112","norming","","","{""aha"":0}","[0]","../img/tt/078tt.jpg","",""
"null","<div style=""font-size:60px;""> </div>","null","fixation","html-keyboard-response","496","1620587","0.0-6.0-0.70","2854023","co39112","norming","","","","","","",""
"null","../img/tt/1091tt.jpg","null","mooney1","image-keyboard-response","497","1623590","0.0-6.0-1.70","2854023","co39112","norming","","","","","","",""
"5276.04000000027","","","post_mooney1_questions","survey-likert","498","1628865","0.0-6.0-2.70","2854023","co39112","norming","","","{""curiosity"":2,""confidence"":5}","[0,1]","../img/tt/1091tt.jpg","",""
"2086.0200000000186","","","recognition","survey-text","499","1630953","0.0-6.0-3.70","2854023","co39112","norming","","","{""guess"":""horse""}","","../img/tt/1091tt.jpg","",""
"null","../img/gs/1091gs.jpg","null","reveal","image-keyboard-response","500","1632955","0.0-6.0-4.70","2854023","co39112","norming","","","","","","",""
"null","../img/tt/1091tt.jpg","null","mooney2","image-keyboard-response","501","1634959","0.0-6.0-5.70","2854023","co39112","norming","","","","","","",""
"2446.719999999972","","","post_reveal_questions","survey-likert","502","1637409","0.0-6.0-6.70","2854023","co39112","norming","","","{""aha"":0}","[0]","../img/tt/1091tt.jpg","",""
"null","<div style=""font-size:60px;""> </div>","null","fixation","html-keyboard-response","503","1637618","0.0-6.0-0.71","2854023","co39112","norming","","","","","","",""
"null","../img/tt/082tt.jpg","null","mooney1","image-keyboard-response","504","1640620","0.0-6.0-1.71","2854023","co39112","norming","","","","","","",""
"6969.374999999767","","","post_mooney1_questions","survey-likert","505","1647593","0.0-6.0-2.71","2854023","co39112","norming","","","{""curiosity"":4,""confidence"":0}","[0,1]","../img/tt/082tt.jpg","",""
"1726.1900000004098","","","recognition","survey-text","506","1649321","0.0-6.0-3.71","2854023","co39112","norming","","","{""guess"":""fence""}","","../img/tt/082tt.jpg","",""
"null","../img/gs/082gs.jpg","null","reveal","image-keyboard-response","507","1651322","0.0-6.0-4.71","2854023","co39112","norming","","","","","","",""
"null","../img/tt/082tt.jpg","null","mooney2","image-keyboard-response","508","1653325","0.0-6.0-5.71","2854023","co39112","norming","","","","","","",""
"2225.3349999999627","","","post_reveal_questions","survey-likert","509","1655553","0.0-6.0-6.71","2854023","co39112","norming","","","{""aha"":5}","[0]","../img/tt/082tt.jpg","",""
"null","<div style=""font-size:60px;""> </div>","null","fixation","html-keyboard-response","510","1655754","0.0-6.0-0.72","2854023","co39112","norming","","","","","","",""
"null","../img/tt/1146tt.jpg","null","mooney1","image-keyboard-response","511","1658761","0.0-6.0-1.72","2854023","co39112","norming","","","","","","",""
"8348.379999999888","","","post_mooney1_questions","survey-likert","512","1667113","0.0-6.0-2.72","2854023","co39112","norming","","","{""curiosity"":5,""confidence"":0}","[0,1]","../img/tt/1146tt.jpg","",""
"2317.8350000004284","","","recognition","survey-text","513","1669433","0.0-6.0-3.72","2854023","co39112","norming","","","{""guess"":""sport""}","","../img/tt/1146tt.jpg","",""
"null","../img/gs/1146gs.jpg","null","reveal","image-keyboard-response","514","1671435","0.0-6.0-4.72","2854023","co39112","norming","","","","","","",""
"null","../img/tt/1146tt.jpg","null","mooney2","image-keyboard-response","515","1673440","0.0-6.0-5.72","2854023","co39112","norming","","","","","","",""
"2221.3799999998882","","","post_reveal_questions","survey-likert","516","1675665","0.0-6.0-6.72","2854023","co39112","norming","","","{""aha"":2}","[0]","../img/tt/1146tt.jpg","",""
"null","<div style=""font-size:60px;""> </div>","null","fixation","html-keyboard-response","517","1675866","0.0-6.0-0.73","2854023","co39112","norming","","","","","","",""
"null","../img/tt/1211tt.jpg","null","mooney1","image-keyboard-response","518","1678877","0.0-6.0-1.73","2854023","co39112","norming","","","","","","",""
"5559.8300000000745","","","post_mooney1_questions","survey-likert","519","1684441","0.0-6.0-2.73","2854023","co39112","norming","","","{""curiosity"":4,""confidence"":1}","[0,1]","../img/tt/1211tt.jpg","",""
"2494.0150000001304","","","recognition","survey-text","520","1686936","0.0-6.0-3.73","2854023","co39112","norming","","","{""guess"":""surfers""}","","../img/tt/1211tt.jpg","",""
"null","../img/gs/1211gs.jpg","null","reveal","image-keyboard-response","521","1688938","0.0-6.0-4.73","2854023","co39112","norming","","","","","","",""
"null","../img/tt/1211tt.jpg","null","mooney2","image-keyboard-response","522","1690949","0.0-6.0-5.73","2854023","co39112","norming","","","","","","",""
"2302.0699999998324","","","post_reveal_questions","survey-likert","523","1693256","0.0-6.0-6.73","2854023","co39112","norming","","","{""aha"":5}","[0]","../img/tt/1211tt.jpg","",""
"null","<div style=""font-size:60px;""> </div>","null","fixation","html-keyboard-response","524","1693464","0.0-6.0-0.74","2854023","co39112","norming","","","","","","",""
"null","../img/tt/319tt.jpg","null","mooney1","image-keyboard-response","525","1696468","0.0-6.0-1.74","2854023","co39112","norming","","","","","","",""
"4106.155000000494","","","post_mooney1_questions","survey-likert","526","1700578","0.0-6.0-2.74","2854023","co39112","norming","","","{""curiosity"":2,""confidence"":6}","[0,1]","../img/tt/319tt.jpg","",""
"2052.7249999998603","","","recognition","survey-text","527","1702632","0.0-6.0-3.74","2854023","co39112","norming","","","{""guess"":""donkeys""}","","../img/tt/319tt.jpg","",""
"null","../img/gs/319gs.jpg","null","reveal","image-keyboard-response","528","1704635","0.0-6.0-4.74","2854023","co39112","norming","","","","","","",""
"null","../img/tt/319tt.jpg","null","mooney2","image-keyboard-response","529","1706637","0.0-6.0-5.74","2854023","co39112","norming","","","","","","",""
"3416.7099999999627","","","post_reveal_questions","survey-likert","530","1710056","0.0-6.0-6.74","2854023","co39112","norming","","","{""aha"":0}","[0]","../img/tt/319tt.jpg","",""
"null","<div style=""font-size:60px;""> </div>","null","fixation","html-keyboard-response","531","1710261","0.0-6.0-0.75","2854023","co39112","norming","","","","","","",""
"null","../img/tt/477tt.jpg","null","mooney1","image-keyboard-response","532","1713267","0.0-6.0-1.75","2854023","co39112","norming","","","","","","",""
"8265.229999999981","","","post_mooney1_questions","survey-likert","533","1721536","0.0-6.0-2.75","2854023","co39112","norming","","","{""curiosity"":5,""confidence"":1}","[0,1]","../img/tt/477tt.jpg","",""
"1398.1200000003446","","","recognition","survey-text","534","1722936","0.0-6.0-3.75","2854023","co39112","norming","","","{""guess"":""fish""}","","../img/tt/477tt.jpg","",""
"null","../img/gs/477gs.jpg","null","reveal","image-keyboard-response","535","1724937","0.0-6.0-4.75","2854023","co39112","norming","","","","","","",""
"null","../img/tt/477tt.jpg","null","mooney2","image-keyboard-response","536","1726940","0.0-6.0-5.75","2854023","co39112","norming","","","","","","",""
"2442.149999999907","","","post_reveal_questions","survey-likert","537","1729384","0.0-6.0-6.75","2854023","co39112","norming","","","{""aha"":5}","[0]","../img/tt/477tt.jpg","",""
"null","<div style=""font-size:60px;""> </div>","null","fixation","html-keyboard-response","538","1729589","0.0-6.0-0.76","2854023","co39112","norming","","","","","","",""
"null","../img/tt/515tt.jpg","null","mooney1","image-keyboard-response","539","1732591","0.0-6.0-1.76","2854023","co39112","norming","","","","","","",""
"4663.909999999683","","","post_mooney1_questions","survey-likert","540","1737256","0.0-6.0-2.76","2854023","co39112","norming","","","{""curiosity"":3,""confidence"":5}","[0,1]","../img/tt/515tt.jpg","",""
"1694.0500000000466","","","recognition","survey-text","541","1738952","0.0-6.0-3.76","2854023","co39112","norming","","","{""guess"":""bird""}","","../img/tt/515tt.jpg","",""
"null","../img/gs/515gs.jpg","null","reveal","image-keyboard-response","542","1740955","0.0-6.0-4.76","2854023","co39112","norming","","","","","","",""
"null","../img/tt/515tt.jpg","null","mooney2","image-keyboard-response","543","1742958","0.0-6.0-5.76","2854023","co39112","norming","","","","","","",""
"5103.945000000298","","","post_reveal_questions","survey-likert","544","1748069","0.0-6.0-6.76","2854023","co39112","norming","","","{""aha"":0}","[0]","../img/tt/515tt.jpg","",""
"null","<div style=""font-size:60px;""> </div>","null","fixation","html-keyboard-response","545","1748279","0.0-6.0-0.77","2854023","co39112","norming","","","","","","",""
"null","../img/tt/1024tt.jpg","null","mooney1","image-keyboard-response","546","1751290","0.0-6.0-1.77","2854023","co39112","norming","","","","","","",""
"6535.745000000112","","","post_mooney1_questions","survey-likert","547","1757829","0.0-6.0-2.77","2854023","co39112","norming","","","{""curiosity"":1,""confidence"":6}","[0,1]","../img/tt/1024tt.jpg","",""
"5749.794999999693","","","recognition","survey-text","548","1763581","0.0-6.0-3.77","2854023","co39112","norming","","","{""guess"":""tennis player""}","","../img/tt/1024tt.jpg","",""
"null","../img/gs/1024gs.jpg","null","reveal","image-keyboard-response","549","1765583","0.0-6.0-4.77","2854023","co39112","norming","","","","","","",""
"null","../img/tt/1024tt.jpg","null","mooney2","image-keyboard-response","550","1767585","0.0-6.0-5.77","2854023","co39112","norming","","","","","","",""
