"rt","stimulus","key_press","test_part","trial_type","trial_index","time_elapsed","internal_node_id","totalTime","subject","experiment_name","button_pressed","success","responses","question_order","currentStim","old","correct"
"7044.640000000072","Welcome to the experiment. This is an online experiment so please don't close the tab/window until we say goodbye.  Press any key to begin.","190","instructions","html-keyboard-response","0","7058","0.0-0.0","2921344","co39370","norming","","","","","","",""
"25134.744999999384","<div style='word-wrap: break-word; width: 900px'><h3>Please consider this information carefully before deciding whether to participate in this research</h3><ul style='text-align: left; font-size: .8em;'><li><b>Purpose of the research</b>: To examine how people process images.</li><li><b>What you will do in this research</b>:  Stimuli (images) will be presented on the computer and you will be asked different questions about them.</li><li><b>Time required</b>: Participation will take between 45 and 60 minutes to complete.</li><li><b>Risks</b>:  There are no anticipated risks associated with participating in this study. The effects of participating should be comparable to those you would experience from viewing a computer monitor for 30 minutes and using a mouse or keyboard.</li><li><b>Benefits</b>:  This study provides no benefits to you individually except for the credit. The study provides important information about the nature of perception and learning.</li><li><b>Confidentiality</b>:  Your participation in this study will remain confidential. No personally identifiable information will be associated with your data. Your de-identified data may be shared with other researchers and used in future projects.</li><li><b>Participation and withdrawal</b>:  Your participation in this study is completely voluntary and you may refuse to participate or you may choose to withdraw at any time without penalty.</li><li><b>How to contact the researchers</b>: If you have questions or concerns about your participation or payment, or want to request a summary of research findings, please contact Sander Van de Cruys (KU Leuven), at sander.vandecruys@kuleuven.be.</li></ul><p>The nature and purpose of this research have been sufficiently explained and I agree to participate in this study.  I understand that I am free to withdraw at any time without incurring any penalty.</p><p>Please consent by clicking the button below to continue. Otherwise, please exit the study at this time.</p></div>","","instructions","html-button-response","1","32193","0.0-1.0","2921344","co39370","norming","0","","","","","",""
"","","","instructions","fullscreen","2","41940","0.0-2.0","2921344","co39370","norming","","true","","","","",""
"35051.940000001196","","","sona","survey-html-form","3","76997","0.0-3.0","2921344","co39370","norming","","","[{""name"":""sonaid"",""value"":""39370""},{""name"":""debrief"",""value"":""yes""},{""name"":""datajoin"",""value"":""yes""}]","","","",""
"94764.25999999992","<div style='word-wrap: break-word; width: 900px'><h3>Instructions</h3><p>This experiment will have 3 parts. In the first part you will see a series of distorted images like the one below on the left. As you can see in the righthand image, the distorted images are derived from actual photographs. In what follows, you will <strong>briefly</strong> be presented with <strong>only</strong> the distorted image.</p> <div style='float: left; margin-right: 20px;'><img src='../img/018tt.jpg' height='250' width='250'></img></div><div style='float: right; margin-left: 20px;'><img src='../img/018gs.jpg' height='250' width='250'></img></div><p>Subsequently you will be asked a few questions about the image: One question on how <strong>curious</strong> you are about the solution and one on how <strong>confident</strong> you are that you know the solution.</p>Next, we ask you to make a guess on what is in the image. Note that it is OK to name just the <strong>basic level category</strong>. For example when you see a parrot in the image, 'parrot' will obviously be a correct answer but also correct is 'bird'. However, 'animal' will <strong>not</strong> be counted as a correct response. For the example above, 'rose' would be correct or 'flower', but not 'plant'. When soccer players are depicted, 'soccer', 'football', 'soccer players' will be correct, but not 'humans', 'outdoors', or 'sports'. You do not need to describe the image in full, just name the main object in it <strong>in one or two words</strong>. All images depict objects from one of the following broad level categories: animals, inanimate objects, plants, sports, vehicles, and food. Recognizing means knowing <strong>more</strong> than these broad labels for a given image. But we always encourage you to <strong>make a guess</strong> if you can. Note that you are allowed to use <strong>Dutch and English</strong> in your answers, whatever comes easiest for you.</p><p>Press any key to continue.</p></div>","32","instructions","html-keyboard-response","4","171755","0.0-4.0","2921344","co39370","norming","","","","","","",""
"80396.01000000039","<div style='word-wrap: break-word; width: 900px'><h3>Instructions</h3> <p>Next, the solution image will be revealed to you and you'll be asked to indicate how strong your <strong>aha-experience</strong> was after seeing the solution. This describes the positive feeling of the 'click' you sometimes experience, when the pieces of the 'puzzle' fall together and you suddenly have 'insight' in the image.</p><img src='aha.jpg' height='188' width='250'></img><p>Note that there are no right or wrong answers. We are interested in what <strong>you</strong> see in the image and how <strong>you</strong> feel about it.</p><p>Press any key to start the experiment.</p></div>","32","instructions","html-keyboard-response","5","252158","0.0-5.0","2921344","co39370","norming","","","","","","",""
"null","<div style=""font-size:60px;""> </div>","null","fixation","html-keyboard-response","6","252360","0.0-6.0-0.0","2921344","co39370","norming","","","","","","",""
"null","../img/tt/001tt.jpg","null","mooney1","image-keyboard-response","7","255363","0.0-6.0-1.0","2921344","co39370","norming","","","","","","",""
"11368.48000000097","","","post_mooney1_questions","survey-likert","8","266735","0.0-6.0-2.0","2921344","co39370","norming","","","{""curiosity"":3,""confidence"":1}","[0,1]","../img/tt/001tt.jpg","",""
"6077.410000001662","","","recognition","survey-text","9","272814","0.0-6.0-3.0","2921344","co39370","norming","","","{""guess"":""flower""}","","../img/tt/001tt.jpg","",""
"null","../img/gs/001gs.jpg","null","reveal","image-keyboard-response","10","274816","0.0-6.0-4.0","2921344","co39370","norming","","","","","","",""
"null","../img/tt/001tt.jpg","null","mooney2","image-keyboard-response","11","276825","0.0-6.0-5.0","2921344","co39370","norming","","","","","","",""
"6170.954999997804","","","post_reveal_questions","survey-likert","12","282998","0.0-6.0-6.0","2921344","co39370","norming","","","{""aha"":4}","[0]","../img/tt/001tt.jpg","",""
"null","<div style=""font-size:60px;""> </div>","null","fixation","html-keyboard-response","13","283206","0.0-6.0-0.1","2921344","co39370","norming","","","","","","",""
"null","../img/tt/082tt.jpg","null","mooney1","image-keyboard-response","14","286208","0.0-6.0-1.1","2921344","co39370","norming","","","","","","",""
"6156.095000002126","","","post_mooney1_questions","survey-likert","15","292366","0.0-6.0-2.1","2921344","co39370","norming","","","{""curiosity"":4,""confidence"":2}","[0,1]","../img/tt/082tt.jpg","",""
"7358.02500000142","","","recognition","survey-text","16","299726","0.0-6.0-3.1","2921344","co39370","norming","","","{""guess"":""werkende man""}","","../img/tt/082tt.jpg","",""
"null","../img/gs/082gs.jpg","null","reveal","image-keyboard-response","17","301734","0.0-6.0-4.1","2921344","co39370","norming","","","","","","",""
"null","../img/tt/082tt.jpg","null","mooney2","image-keyboard-response","18","303736","0.0-6.0-5.1","2921344","co39370","norming","","","","","","",""
"3268.049999998766","","","post_reveal_questions","survey-likert","19","307006","0.0-6.0-6.1","2921344","co39370","norming","","","{""aha"":4}","[0]","../img/tt/082tt.jpg","",""
"null","<div style=""font-size:60px;""> </div>","null","fixation","html-keyboard-response","20","307209","0.0-6.0-0.2","2921344","co39370","norming","","","","","","",""
"null","../img/tt/584tt.jpg","null","mooney1","image-keyboard-response","21","310219","0.0-6.0-1.2","2921344","co39370","norming","","","","","","",""
"5344.554999999644","","","post_mooney1_questions","survey-likert","22","315566","0.0-6.0-2.2","2921344","co39370","norming","","","{""curiosity"":2,""confidence"":4}","[0,1]","../img/tt/584tt.jpg","",""
"6990.254999996978","","","recognition","survey-text","23","322558","0.0-6.0-3.2","2921344","co39370","norming","","","{""guess"":""werkgereedschap""}","","../img/tt/584tt.jpg","",""
"null","../img/gs/584gs.jpg","null","reveal","image-keyboard-response","24","324561","0.0-6.0-4.2","2921344","co39370","norming","","","","","","",""
"null","../img/tt/584tt.jpg","null","mooney2","image-keyboard-response","25","326563","0.0-6.0-5.2","2921344","co39370","norming","","","","","","",""
"3896.6749999999884","","","post_reveal_questions","survey-likert","26","330462","0.0-6.0-6.2","2921344","co39370","norming","","","{""aha"":1}","[0]","../img/tt/584tt.jpg","",""
"null","<div style=""font-size:60px;""> </div>","null","fixation","html-keyboard-response","27","330671","0.0-6.0-0.3","2921344","co39370","norming","","","","","","",""
"null","../img/tt/140tt.jpg","null","mooney1","image-keyboard-response","28","333683","0.0-6.0-1.3","2921344","co39370","norming","","","","","","",""
"5703.81499999715","","","post_mooney1_questions","survey-likert","29","339390","0.0-6.0-2.3","2921344","co39370","norming","","","{""curiosity"":1,""confidence"":5}","[0,1]","../img/tt/140tt.jpg","",""
"2566.0699999970966","","","recognition","survey-text","30","341958","0.0-6.0-3.3","2921344","co39370","norming","","","{""guess"":""vorken""}","","../img/tt/140tt.jpg","",""
"null","../img/gs/140gs.jpg","null","reveal","image-keyboard-response","31","343965","0.0-6.0-4.3","2921344","co39370","norming","","","","","","",""
"null","../img/tt/140tt.jpg","null","mooney2","image-keyboard-response","32","345966","0.0-6.0-5.3","2921344","co39370","norming","","","","","","",""
"2637.640000000829","","","post_reveal_questions","survey-likert","33","348606","0.0-6.0-6.3","2921344","co39370","norming","","","{""aha"":0}","[0]","../img/tt/140tt.jpg","",""
"null","<div style=""font-size:60px;""> </div>","null","fixation","html-keyboard-response","34","348813","0.0-6.0-0.4","2921344","co39370","norming","","","","","","",""
"null","../img/tt/567tt.jpg","null","mooney1","image-keyboard-response","35","351817","0.0-6.0-1.4","2921344","co39370","norming","","","","","","",""
"9065.879999998258","","","post_mooney1_questions","survey-likert","36","360886","0.0-6.0-2.4","2921344","co39370","norming","","","{""curiosity"":1,""confidence"":5}","[0,1]","../img/tt/567tt.jpg","",""
"3934.274999999616","","","recognition","survey-text","37","364822","0.0-6.0-3.4","2921344","co39370","norming","","","{""guess"":""broodrooster""}","","../img/tt/567tt.jpg","",""
"null","../img/gs/567gs.jpg","null","reveal","image-keyboard-response","38","366829","0.0-6.0-4.4","2921344","co39370","norming","","","","","","",""
"null","../img/tt/567tt.jpg","null","mooney2","image-keyboard-response","39","368840","0.0-6.0-5.4","2921344","co39370","norming","","","","","","",""
"2845.2500000020955","","","post_reveal_questions","survey-likert","40","371690","0.0-6.0-6.4","2921344","co39370","norming","","","{""aha"":0}","[0]","../img/tt/567tt.jpg","",""
"null","<div style=""font-size:60px;""> </div>","null","fixation","html-keyboard-response","41","371898","0.0-6.0-0.5","2921344","co39370","norming","","","","","","",""
"null","../img/tt/091tt.jpg","null","mooney1","image-keyboard-response","42","374903","0.0-6.0-1.5","2921344","co39370","norming","","","","","","",""
"7863.695000000007","","","post_mooney1_questions","survey-likert","43","382770","0.0-6.0-2.5","2921344","co39370","norming","","","{""curiosity"":4,""confidence"":0}","[0,1]","../img/tt/091tt.jpg","",""
"4246.044999999867","","","recognition","survey-text","44","387018","0.0-6.0-3.5","2921344","co39370","norming","","","{""guess"":""krokodil""}","","../img/tt/091tt.jpg","",""
"null","../img/gs/091gs.jpg","null","reveal","image-keyboard-response","45","389027","0.0-6.0-4.5","2921344","co39370","norming","","","","","","",""
"null","../img/tt/091tt.jpg","null","mooney2","image-keyboard-response","46","391037","0.0-6.0-5.5","2921344","co39370","norming","","","","","","",""
"3027.7399999977206","","","post_reveal_questions","survey-likert","47","394066","0.0-6.0-6.5","2921344","co39370","norming","","","{""aha"":4}","[0]","../img/tt/091tt.jpg","",""
"null","<div style=""font-size:60px;""> </div>","null","fixation","html-keyboard-response","48","394267","0.0-6.0-0.6","2921344","co39370","norming","","","","","","",""
"null","../img/tt/1156tt.jpg","null","mooney1","image-keyboard-response","49","397279","0.0-6.0-1.6","2921344","co39370","norming","","","","","","",""
"4536.08499999973","","","post_mooney1_questions","survey-likert","50","401818","0.0-6.0-2.6","2921344","co39370","norming","","","{""curiosity"":5,""confidence"":1}","[0,1]","../img/tt/1156tt.jpg","",""
"5485.744999998133","","","recognition","survey-text","51","407305","0.0-6.0-3.6","2921344","co39370","norming","","","{""guess"":""zonnende man""}","","../img/tt/1156tt.jpg","",""
"null","../img/gs/1156gs.jpg","null","reveal","image-keyboard-response","52","409314","0.0-6.0-4.6","2921344","co39370","norming","","","","","","",""
"null","../img/tt/1156tt.jpg","null","mooney2","image-keyboard-response","53","411322","0.0-6.0-5.6","2921344","co39370","norming","","","","","","",""
"3549.269999999553","","","post_reveal_questions","survey-likert","54","414874","0.0-6.0-6.6","2921344","co39370","norming","","","{""aha"":2}","[0]","../img/tt/1156tt.jpg","",""
"null","<div style=""font-size:60px;""> </div>","null","fixation","html-keyboard-response","55","415079","0.0-6.0-0.7","2921344","co39370","norming","","","","","","",""
"null","../img/tt/1235tt.jpg","null","mooney1","image-keyboard-response","56","418082","0.0-6.0-1.7","2921344","co39370","norming","","","","","","",""
"8549.44500000053","","","post_mooney1_questions","survey-likert","57","426634","0.0-6.0-2.7","2921344","co39370","norming","","","{""curiosity"":4,""confidence"":2}","[0,1]","../img/tt/1235tt.jpg","",""
"13485.915000001085","","","recognition","survey-text","58","440114","0.0-6.0-3.7","2921344","co39370","norming","","","{""guess"":""wandelend paard""}","","../img/tt/1235tt.jpg","",""
"null","../img/gs/1235gs.jpg","null","reveal","image-keyboard-response","59","442116","0.0-6.0-4.7","2921344","co39370","norming","","","","","","",""
"null","../img/tt/1235tt.jpg","null","mooney2","image-keyboard-response","60","444118","0.0-6.0-5.7","2921344","co39370","norming","","","","","","",""
"2610.7349999984144","","","post_reveal_questions","survey-likert","61","446731","0.0-6.0-6.7","2921344","co39370","norming","","","{""aha"":5}","[0]","../img/tt/1235tt.jpg","",""
"null","<div style=""font-size:60px;""> </div>","null","fixation","html-keyboard-response","62","446937","0.0-6.0-0.8","2921344","co39370","norming","","","","","","",""
"null","../img/tt/1148tt.jpg","null","mooney1","image-keyboard-response","63","449940","0.0-6.0-1.8","2921344","co39370","norming","","","","","","",""
"7252.744999997958","","","post_mooney1_questions","survey-likert","64","457195","0.0-6.0-2.8","2921344","co39370","norming","","","{""curiosity"":2,""confidence"":5}","[0,1]","../img/tt/1148tt.jpg","",""
"9270.100000001548","","","recognition","survey-text","65","466467","0.0-6.0-3.8","2921344","co39370","norming","","","{""guess"":""kajakende jongeren""}","","../img/tt/1148tt.jpg","",""
"null","../img/gs/1148gs.jpg","null","reveal","image-keyboard-response","66","468468","0.0-6.0-4.8","2921344","co39370","norming","","","","","","",""
"null","../img/tt/1148tt.jpg","null","mooney2","image-keyboard-response","67","470470","0.0-6.0-5.8","2921344","co39370","norming","","","","","","",""
"2882.499999999709","","","post_reveal_questions","survey-likert","68","473355","0.0-6.0-6.8","2921344","co39370","norming","","","{""aha"":4}","[0]","../img/tt/1148tt.jpg","",""
"null","<div style=""font-size:60px;""> </div>","null","fixation","html-keyboard-response","69","473557","0.0-6.0-0.9","2921344","co39370","norming","","","","","","",""
"null","../img/tt/1084tt.jpg","null","mooney1","image-keyboard-response","70","476566","0.0-6.0-1.9","2921344","co39370","norming","","","","","","",""
"3906.054999999469","","","post_mooney1_questions","survey-likert","71","480475","0.0-6.0-2.9","2921344","co39370","norming","","","{""curiosity"":4,""confidence"":1}","[0,1]","../img/tt/1084tt.jpg","",""
"6654.0549999990035","","","recognition","survey-text","72","487130","0.0-6.0-3.9","2921344","co39370","norming","","","{""guess"":""liggende kat""}","","../img/tt/1084tt.jpg","",""
"null","../img/gs/1084gs.jpg","null","reveal","image-keyboard-response","73","489131","0.0-6.0-4.9","2921344","co39370","norming","","","","","","",""
"null","../img/tt/1084tt.jpg","null","mooney2","image-keyboard-response","74","491144","0.0-6.0-5.9","2921344","co39370","norming","","","","","","",""
"2241.5499999988824","","","post_reveal_questions","survey-likert","75","493386","0.0-6.0-6.9","2921344","co39370","norming","","","{""aha"":4}","[0]","../img/tt/1084tt.jpg","",""
"null","<div style=""font-size:60px;""> </div>","null","fixation","html-keyboard-response","76","493588","0.0-6.0-0.10","2921344","co39370","norming","","","","","","",""
"null","../img/tt/1186tt.jpg","null","mooney1","image-keyboard-response","77","496591","0.0-6.0-1.10","2921344","co39370","norming","","","","","","",""
"7512.204999999085","","","post_mooney1_questions","survey-likert","78","504106","0.0-6.0-2.10","2921344","co39370","norming","","","{""curiosity"":2,""confidence"":4}","[0,1]","../img/tt/1186tt.jpg","",""
"5789.199999999255","","","recognition","survey-text","79","509898","0.0-6.0-3.10","2921344","co39370","norming","","","{""guess"":""wandelende man""}","","../img/tt/1186tt.jpg","",""
"null","../img/gs/1186gs.jpg","null","reveal","image-keyboard-response","80","511903","0.0-6.0-4.10","2921344","co39370","norming","","","","","","",""
"null","../img/tt/1186tt.jpg","null","mooney2","image-keyboard-response","81","513905","0.0-6.0-5.10","2921344","co39370","norming","","","","","","",""
"2798.559999999241","","","post_reveal_questions","survey-likert","82","516706","0.0-6.0-6.10","2921344","co39370","norming","","","{""aha"":2}","[0]","../img/tt/1186tt.jpg","",""
"null","<div style=""font-size:60px;""> </div>","null","fixation","html-keyboard-response","83","516916","0.0-6.0-0.11","2921344","co39370","norming","","","","","","",""
"null","../img/tt/1262tt.jpg","null","mooney1","image-keyboard-response","84","519924","0.0-6.0-1.11","2921344","co39370","norming","","","","","","",""
"4284.024999997229","","","post_mooney1_questions","survey-likert","85","524210","0.0-6.0-2.11","2921344","co39370","norming","","","{""curiosity"":3,""confidence"":3}","[0,1]","../img/tt/1262tt.jpg","",""
"6909.950000001118","","","recognition","survey-text","86","531122","0.0-6.0-3.11","2921344","co39370","norming","","","{""guess"":""etende vogel""}","","../img/tt/1262tt.jpg","",""
"null","../img/gs/1262gs.jpg","null","reveal","image-keyboard-response","87","533123","0.0-6.0-4.11","2921344","co39370","norming","","","","","","",""
"null","../img/tt/1262tt.jpg","null","mooney2","image-keyboard-response","88","535132","0.0-6.0-5.11","2921344","co39370","norming","","","","","","",""
"2349.229999999865","","","post_reveal_questions","survey-likert","89","537482","0.0-6.0-6.11","2921344","co39370","norming","","","{""aha"":4}","[0]","../img/tt/1262tt.jpg","",""
"null","<div style=""font-size:60px;""> </div>","null","fixation","html-keyboard-response","90","537683","0.0-6.0-0.12","2921344","co39370","norming","","","","","","",""
"null","../img/tt/1004tt.jpg","null","mooney1","image-keyboard-response","91","540692","0.0-6.0-1.12","2921344","co39370","norming","","","","","","",""
"8525.404999996768","","","post_mooney1_questions","survey-likert","92","549218","0.0-6.0-2.12","2921344","co39370","norming","","","{""curiosity"":5,""confidence"":0}","[0,1]","../img/tt/1004tt.jpg","",""
"5334.115000001388","","","recognition","survey-text","93","554547","0.0-6.0-3.12","2921344","co39370","norming","","","{""guess"":""leeuw""}","","../img/tt/1004tt.jpg","",""
"null","../img/gs/1004gs.jpg","null","reveal","image-keyboard-response","94","556554","0.0-6.0-4.12","2921344","co39370","norming","","","","","","",""
"null","../img/tt/1004tt.jpg","null","mooney2","image-keyboard-response","95","558556","0.0-6.0-5.12","2921344","co39370","norming","","","","","","",""
"2228.24000000034","","","post_reveal_questions","survey-likert","96","560787","0.0-6.0-6.12","2921344","co39370","norming","","","{""aha"":5}","[0]","../img/tt/1004tt.jpg","",""
"null","<div style=""font-size:60px;""> </div>","null","fixation","html-keyboard-response","97","560988","0.0-6.0-0.13","2921344","co39370","norming","","","","","","",""
"null","../img/tt/1290tt.jpg","null","mooney1","image-keyboard-response","98","563994","0.0-6.0-1.13","2921344","co39370","norming","","","","","","",""
"8197.73499999789","","","post_mooney1_questions","survey-likert","99","572195","0.0-6.0-2.13","2921344","co39370","norming","","","{""curiosity"":4,""confidence"":2}","[0,1]","../img/tt/1290tt.jpg","",""
"11621.854999997537","","","recognition","survey-text","100","583818","0.0-6.0-3.13","2921344","co39370","norming","","","{""guess"":""ski lift""}","","../img/tt/1290tt.jpg","",""
"null","../img/gs/1290gs.jpg","null","reveal","image-keyboard-response","101","585823","0.0-6.0-4.13","2921344","co39370","norming","","","","","","",""
"null","../img/tt/1290tt.jpg","null","mooney2","image-keyboard-response","102","587831","0.0-6.0-5.13","2921344","co39370","norming","","","","","","",""
"2569.0600000015693","","","post_reveal_questions","survey-likert","103","590402","0.0-6.0-6.13","2921344","co39370","norming","","","{""aha"":1}","[0]","../img/tt/1290tt.jpg","",""
"null","<div style=""font-size:60px;""> </div>","null","fixation","html-keyboard-response","104","590604","0.0-6.0-0.14","2921344","co39370","norming","","","","","","",""
"null","../img/tt/1006tt.jpg","null","mooney1","image-keyboard-response","105","593610","0.0-6.0-1.14","2921344","co39370","norming","","","","","","",""
"4829.280000001774","","","post_mooney1_questions","survey-likert","106","598442","0.0-6.0-2.14","2921344","co39370","norming","","","{""curiosity"":1,""confidence"":6}","[0,1]","../img/tt/1006tt.jpg","",""
"7830.425000000047","","","recognition","survey-text","107","606274","0.0-6.0-3.14","2921344","co39370","norming","","","{""guess"":""kudde schapen""}","","../img/tt/1006tt.jpg","",""
"null","../img/gs/1006gs.jpg","null","reveal","image-keyboard-response","108","608276","0.0-6.0-4.14","2921344","co39370","norming","","","","","","",""
"null","../img/tt/1006tt.jpg","null","mooney2","image-keyboard-response","109","610278","0.0-6.0-5.14","2921344","co39370","norming","","","","","","",""
"2466.455000001588","","","post_reveal_questions","survey-likert","110","612747","0.0-6.0-6.14","2921344","co39370","norming","","","{""aha"":1}","[0]","../img/tt/1006tt.jpg","",""
"null","<div style=""font-size:60px;""> </div>","null","fixation","html-keyboard-response","111","612956","0.0-6.0-0.15","2921344","co39370","norming","","","","","","",""
"null","../img/tt/1191tt.jpg","null","mooney1","image-keyboard-response","112","615959","0.0-6.0-1.15","2921344","co39370","norming","","","","","","",""
"3960.435000000871","","","post_mooney1_questions","survey-likert","113","619922","0.0-6.0-2.15","2921344","co39370","norming","","","{""curiosity"":4,""confidence"":2}","[0,1]","../img/tt/1191tt.jpg","",""
"4102.159999998519","","","recognition","survey-text","114","624026","0.0-6.0-3.15","2921344","co39370","norming","","","{""guess"":""dansende koppels""}","","../img/tt/1191tt.jpg","",""
"null","../img/gs/1191gs.jpg","null","reveal","image-keyboard-response","115","626037","0.0-6.0-4.15","2921344","co39370","norming","","","","","","",""
"null","../img/tt/1191tt.jpg","null","mooney2","image-keyboard-response","116","628044","0.0-6.0-5.15","2921344","co39370","norming","","","","","","",""
"4019.975000002887","","","post_reveal_questions","survey-likert","117","632066","0.0-6.0-6.15","2921344","co39370","norming","","","{""aha"":4}","[0]","../img/tt/1191tt.jpg","",""
"null","<div style=""font-size:60px;""> </div>","null","fixation","html-keyboard-response","118","632268","0.0-6.0-0.16","2921344","co39370","norming","","","","","","",""
"null","../img/tt/060tt.jpg","null","mooney1","image-keyboard-response","119","635274","0.0-6.0-1.16","2921344","co39370","norming","","","","","","",""
"5237.63500000129","","","post_mooney1_questions","survey-likert","120","640514","0.0-6.0-2.16","2921344","co39370","norming","","","{""curiosity"":1,""confidence"":4}","[0,1]","../img/tt/060tt.jpg","",""
"3254.0349999980535","","","recognition","survey-text","121","643770","0.0-6.0-3.16","2921344","co39370","norming","","","{""guess"":""hotdog""}","","../img/tt/060tt.jpg","",""
"null","../img/gs/060gs.jpg","null","reveal","image-keyboard-response","122","645773","0.0-6.0-4.16","2921344","co39370","norming","","","","","","",""
"null","../img/tt/060tt.jpg","null","mooney2","image-keyboard-response","123","647776","0.0-6.0-5.16","2921344","co39370","norming","","","","","","",""
"2879.965000000084","","","post_reveal_questions","survey-likert","124","650658","0.0-6.0-6.16","2921344","co39370","norming","","","{""aha"":4}","[0]","../img/tt/060tt.jpg","",""
"null","<div style=""font-size:60px;""> </div>","null","fixation","html-keyboard-response","125","650859","0.0-6.0-0.17","2921344","co39370","norming","","","","","","",""
"null","../img/tt/222tt.jpg","null","mooney1","image-keyboard-response","126","653871","0.0-6.0-1.17","2921344","co39370","norming","","","","","","",""
"5536.550000000745","","","post_mooney1_questions","survey-likert","127","659410","0.0-6.0-2.17","2921344","co39370","norming","","","{""curiosity"":5,""confidence"":1}","[0,1]","../img/tt/222tt.jpg","",""
"5046.095000001602","","","recognition","survey-text","128","664458","0.0-6.0-3.17","2921344","co39370","norming","","","{""guess"":""""}","","../img/tt/222tt.jpg","",""
"null","../img/gs/222gs.jpg","null","reveal","image-keyboard-response","129","666462","0.0-6.0-4.17","2921344","co39370","norming","","","","","","",""
"null","../img/tt/222tt.jpg","null","mooney2","image-keyboard-response","130","668467","0.0-6.0-5.17","2921344","co39370","norming","","","","","","",""
"2468.7250000024214","","","post_reveal_questions","survey-likert","131","670938","0.0-6.0-6.17","2921344","co39370","norming","","","{""aha"":5}","[0]","../img/tt/222tt.jpg","",""
"null","<div style=""font-size:60px;""> </div>","null","fixation","html-keyboard-response","132","671143","0.0-6.0-0.18","2921344","co39370","norming","","","","","","",""
"null","../img/tt/515tt.jpg","null","mooney1","image-keyboard-response","133","674153","0.0-6.0-1.18","2921344","co39370","norming","","","","","","",""
"4918.759999996866","","","post_mooney1_questions","survey-likert","134","679074","0.0-6.0-2.18","2921344","co39370","norming","","","{""curiosity"":2,""confidence"":4}","[0,1]","../img/tt/515tt.jpg","",""
"4214.335000000661","","","recognition","survey-text","135","683290","0.0-6.0-3.18","2921344","co39370","norming","","","{""guess"":""vogel""}","","../img/tt/515tt.jpg","",""
"null","../img/gs/515gs.jpg","null","reveal","image-keyboard-response","136","685298","0.0-6.0-4.18","2921344","co39370","norming","","","","","","",""
"null","../img/tt/515tt.jpg","null","mooney2","image-keyboard-response","137","687309","0.0-6.0-5.18","2921344","co39370","norming","","","","","","",""
"5835.009999998962","","","post_reveal_questions","survey-likert","138","693146","0.0-6.0-6.18","2921344","co39370","norming","","","{""aha"":2}","[0]","../img/tt/515tt.jpg","",""
"null","<div style=""font-size:60px;""> </div>","null","fixation","html-keyboard-response","139","693355","0.0-6.0-0.19","2921344","co39370","norming","","","","","","",""
"null","../img/tt/1275tt.jpg","null","mooney1","image-keyboard-response","140","696368","0.0-6.0-1.19","2921344","co39370","norming","","","","","","",""
"3847.8399999985704","","","post_mooney1_questions","survey-likert","141","700218","0.0-6.0-2.19","2921344","co39370","norming","","","{""curiosity"":3,""confidence"":3}","[0,1]","../img/tt/1275tt.jpg","",""
"4230.039999998524","","","recognition","survey-text","142","704450","0.0-6.0-3.19","2921344","co39370","norming","","","{""guess"":""tijger""}","","../img/tt/1275tt.jpg","",""
"null","../img/gs/1275gs.jpg","null","reveal","image-keyboard-response","143","706454","0.0-6.0-4.19","2921344","co39370","norming","","","","","","",""
"null","../img/tt/1275tt.jpg","null","mooney2","image-keyboard-response","144","708456","0.0-6.0-5.19","2921344","co39370","norming","","","","","","",""
"2648.284999999334","","","post_reveal_questions","survey-likert","145","711106","0.0-6.0-6.19","2921344","co39370","norming","","","{""aha"":5}","[0]","../img/tt/1275tt.jpg","",""
"null","<div style=""font-size:60px;""> </div>","null","fixation","html-keyboard-response","146","711307","0.0-6.0-0.20","2921344","co39370","norming","","","","","","",""
"null","../img/tt/1362tt.jpg","null","mooney1","image-keyboard-response","147","714316","0.0-6.0-1.20","2921344","co39370","norming","","","","","","",""
"5619.630000001052","","","post_mooney1_questions","survey-likert","148","719938","0.0-6.0-2.20","2921344","co39370","norming","","","{""curiosity"":4,""confidence"":1}","[0,1]","../img/tt/1362tt.jpg","",""
"3798.060000000987","","","recognition","survey-text","149","723738","0.0-6.0-3.20","2921344","co39370","norming","","","{""guess"":""draaitafel""}","","../img/tt/1362tt.jpg","",""
"null","../img/gs/1362gs.jpg","null","reveal","image-keyboard-response","150","725741","0.0-6.0-4.20","2921344","co39370","norming","","","","","","",""
"null","../img/tt/1362tt.jpg","null","mooney2","image-keyboard-response","151","727743","0.0-6.0-5.20","2921344","co39370","norming","","","","","","",""
"3744.2699999992037","","","post_reveal_questions","survey-likert","152","731490","0.0-6.0-6.20","2921344","co39370","norming","","","{""aha"":5}","[0]","../img/tt/1362tt.jpg","",""
"null","<div style=""font-size:60px;""> </div>","null","fixation","html-keyboard-response","153","731691","0.0-6.0-0.21","2921344","co39370","norming","","","","","","",""
"null","../img/tt/112tt.jpg","null","mooney1","image-keyboard-response","154","734697","0.0-6.0-1.21","2921344","co39370","norming","","","","","","",""
"4400.005000003148","","","post_mooney1_questions","survey-likert","155","739100","0.0-6.0-2.21","2921344","co39370","norming","","","{""curiosity"":5,""confidence"":0}","[0,1]","../img/tt/112tt.jpg","",""
"1086.5099999973318","","","recognition","survey-text","156","740188","0.0-6.0-3.21","2921344","co39370","norming","","","{""guess"":""""}","","../img/tt/112tt.jpg","",""
"null","../img/gs/112gs.jpg","null","reveal","image-keyboard-response","157","742190","0.0-6.0-4.21","2921344","co39370","norming","","","","","","",""
"null","../img/tt/112tt.jpg","null","mooney2","image-keyboard-response","158","744193","0.0-6.0-5.21","2921344","co39370","norming","","","","","","",""
"2056.909999999334","","","post_reveal_questions","survey-likert","159","746252","0.0-6.0-6.21","2921344","co39370","norming","","","{""aha"":4}","[0]","../img/tt/112tt.jpg","",""
"null","<div style=""font-size:60px;""> </div>","null","fixation","html-keyboard-response","160","746457","0.0-6.0-0.22","2921344","co39370","norming","","","","","","",""
"null","../img/tt/534tt.jpg","null","mooney1","image-keyboard-response","161","749464","0.0-6.0-1.22","2921344","co39370","norming","","","","","","",""
"4617.74499999953","","","post_mooney1_questions","survey-likert","162","754084","0.0-6.0-2.22","2921344","co39370","norming","","","{""curiosity"":2,""confidence"":4}","[0,1]","../img/tt/534tt.jpg","",""
"7766.214999999618","","","recognition","survey-text","163","761852","0.0-6.0-3.22","2921344","co39370","norming","","","{""guess"":""cactus""}","","../img/tt/534tt.jpg","",""
"null","../img/gs/534gs.jpg","null","reveal","image-keyboard-response","164","763863","0.0-6.0-4.22","2921344","co39370","norming","","","","","","",""
"null","../img/tt/534tt.jpg","null","mooney2","image-keyboard-response","165","765871","0.0-6.0-5.22","2921344","co39370","norming","","","","","","",""
"3378.5500000012107","","","post_reveal_questions","survey-likert","166","769252","0.0-6.0-6.22","2921344","co39370","norming","","","{""aha"":3}","[0]","../img/tt/534tt.jpg","",""
"null","<div style=""font-size:60px;""> </div>","null","fixation","html-keyboard-response","167","769459","0.0-6.0-0.23","2921344","co39370","norming","","","","","","",""
"null","../img/tt/084tt.jpg","null","mooney1","image-keyboard-response","168","772462","0.0-6.0-1.23","2921344","co39370","norming","","","","","","",""
"3723.440000001574","","","post_mooney1_questions","survey-likert","169","776188","0.0-6.0-2.23","2921344","co39370","norming","","","{""curiosity"":2,""confidence"":5}","[0,1]","../img/tt/084tt.jpg","",""
"3502.3599999987055","","","recognition","survey-text","170","779692","0.0-6.0-3.23","2921344","co39370","norming","","","{""guess"":""eend ""}","","../img/tt/084tt.jpg","",""
"null","../img/gs/084gs.jpg","null","reveal","image-keyboard-response","171","781699","0.0-6.0-4.23","2921344","co39370","norming","","","","","","",""
"null","../img/tt/084tt.jpg","null","mooney2","image-keyboard-response","172","783704","0.0-6.0-5.23","2921344","co39370","norming","","","","","","",""
"2543.7099999981","","","post_reveal_questions","survey-likert","173","786252","0.0-6.0-6.23","2921344","co39370","norming","","","{""aha"":2}","[0]","../img/tt/084tt.jpg","",""
"null","<div style=""font-size:60px;""> </div>","null","fixation","html-keyboard-response","174","786454","0.0-6.0-0.24","2921344","co39370","norming","","","","","","",""
"null","../img/tt/270tt.jpg","null","mooney1","image-keyboard-response","175","789462","0.0-6.0-1.24","2921344","co39370","norming","","","","","","",""
"4187.334999998682","","","post_mooney1_questions","survey-likert","176","793652","0.0-6.0-2.24","2921344","co39370","norming","","","{""curiosity"":1,""confidence"":6}","[0,1]","../img/tt/270tt.jpg","",""
"2189.910000000964","","","recognition","survey-text","177","795838","0.0-6.0-3.24","2921344","co39370","norming","","","{""guess"":""hert""}","","../img/tt/270tt.jpg","",""
"null","../img/gs/270gs.jpg","null","reveal","image-keyboard-response","178","797840","0.0-6.0-4.24","2921344","co39370","norming","","","","","","",""
"null","../img/tt/270tt.jpg","null","mooney2","image-keyboard-response","179","799847","0.0-6.0-5.24","2921344","co39370","norming","","","","","","",""
"3572.59000000346","","","post_reveal_questions","survey-likert","180","803422","0.0-6.0-6.24","2921344","co39370","norming","","","{""aha"":2}","[0]","../img/tt/270tt.jpg","",""
"null","<div style=""font-size:60px;""> </div>","null","fixation","html-keyboard-response","181","803624","0.0-6.0-0.25","2921344","co39370","norming","","","","","","",""
"null","../img/tt/1033tt.jpg","null","mooney1","image-keyboard-response","182","806635","0.0-6.0-1.25","2921344","co39370","norming","","","","","","",""
"3936.2000000001863","","","post_mooney1_questions","survey-likert","183","810575","0.0-6.0-2.25","2921344","co39370","norming","","","{""curiosity"":2,""confidence"":5}","[0,1]","../img/tt/1033tt.jpg","",""
"3526.020000001183","","","recognition","survey-text","184","814102","0.0-6.0-3.25","2921344","co39370","norming","","","{""guess"":""hockey speler""}","","../img/tt/1033tt.jpg","",""
"null","../img/gs/1033gs.jpg","null","reveal","image-keyboard-response","185","816104","0.0-6.0-4.25","2921344","co39370","norming","","","","","","",""
"null","../img/tt/1033tt.jpg","null","mooney2","image-keyboard-response","186","818107","0.0-6.0-5.25","2921344","co39370","norming","","","","","","",""
"4320.560000000172","","","post_reveal_questions","survey-likert","187","822430","0.0-6.0-6.25","2921344","co39370","norming","","","{""aha"":3}","[0]","../img/tt/1033tt.jpg","",""
"null","<div style=""font-size:60px;""> </div>","null","fixation","html-keyboard-response","188","822637","0.0-6.0-0.26","2921344","co39370","norming","","","","","","",""
"null","../img/tt/1239tt.jpg","null","mooney1","image-keyboard-response","189","825639","0.0-6.0-1.26","2921344","co39370","norming","","","","","","",""
"5124.035000000731","","","post_mooney1_questions","survey-likert","190","830766","0.0-6.0-2.26","2921344","co39370","norming","","","{""curiosity"":2,""confidence"":4}","[0,1]","../img/tt/1239tt.jpg","",""
"3493.8750000001164","","","recognition","survey-text","191","834262","0.0-6.0-3.26","2921344","co39370","norming","","","{""guess"":""hond""}","","../img/tt/1239tt.jpg","",""
"null","../img/gs/1239gs.jpg","null","reveal","image-keyboard-response","192","836268","0.0-6.0-4.26","2921344","co39370","norming","","","","","","",""
"null","../img/tt/1239tt.jpg","null","mooney2","image-keyboard-response","193","838270","0.0-6.0-5.26","2921344","co39370","norming","","","","","","",""
"3237.715000002994","","","post_reveal_questions","survey-likert","194","841510","0.0-6.0-6.26","2921344","co39370","norming","","","{""aha"":2}","[0]","../img/tt/1239tt.jpg","",""
"null","<div style=""font-size:60px;""> </div>","null","fixation","html-keyboard-response","195","841712","0.0-6.0-0.27","2921344","co39370","norming","","","","","","",""
"null","../img/tt/436tt.jpg","null","mooney1","image-keyboard-response","196","844714","0.0-6.0-1.27","2921344","co39370","norming","","","","","","",""
"3841.475000001141","","","post_mooney1_questions","survey-likert","197","848558","0.0-6.0-2.27","2921344","co39370","norming","","","{""curiosity"":5,""confidence"":1}","[0,1]","../img/tt/436tt.jpg","",""
"3197.959999997751","","","recognition","survey-text","198","851758","0.0-6.0-3.27","2921344","co39370","norming","","","{""guess"":""spin""}","","../img/tt/436tt.jpg","",""
"null","../img/gs/436gs.jpg","null","reveal","image-keyboard-response","199","853765","0.0-6.0-4.27","2921344","co39370","norming","","","","","","",""
"null","../img/tt/436tt.jpg","null","mooney2","image-keyboard-response","200","855776","0.0-6.0-5.27","2921344","co39370","norming","","","","","","",""
"3205.740000001155","","","post_reveal_questions","survey-likert","201","858984","0.0-6.0-6.27","2921344","co39370","norming","","","{""aha"":4}","[0]","../img/tt/436tt.jpg","",""
"null","<div style=""font-size:60px;""> </div>","null","fixation","html-keyboard-response","202","859185","0.0-6.0-0.28","2921344","co39370","norming","","","","","","",""
"null","../img/tt/1126tt.jpg","null","mooney1","image-keyboard-response","203","862186","0.0-6.0-1.28","2921344","co39370","norming","","","","","","",""
"3827.310000000638","","","post_mooney1_questions","survey-likert","204","866016","0.0-6.0-2.28","2921344","co39370","norming","","","{""curiosity"":1,""confidence"":6}","[0,1]","../img/tt/1126tt.jpg","",""
"3310.169999997015","","","recognition","survey-text","205","869328","0.0-6.0-3.28","2921344","co39370","norming","","","{""guess"":""muurklimmer""}","","../img/tt/1126tt.jpg","",""
"null","../img/gs/1126gs.jpg","null","reveal","image-keyboard-response","206","871335","0.0-6.0-4.28","2921344","co39370","norming","","","","","","",""
"null","../img/tt/1126tt.jpg","null","mooney2","image-keyboard-response","207","873338","0.0-6.0-5.28","2921344","co39370","norming","","","","","","",""
"1955.5900000013644","","","post_reveal_questions","survey-likert","208","875296","0.0-6.0-6.28","2921344","co39370","norming","","","{""aha"":4}","[0]","../img/tt/1126tt.jpg","",""
"null","<div style=""font-size:60px;""> </div>","null","fixation","html-keyboard-response","209","875498","0.0-6.0-0.29","2921344","co39370","norming","","","","","","",""
"null","../img/tt/1279tt.jpg","null","mooney1","image-keyboard-response","210","878509","0.0-6.0-1.29","2921344","co39370","norming","","","","","","",""
"4376.170000003185","","","post_mooney1_questions","survey-likert","211","882888","0.0-6.0-2.29","2921344","co39370","norming","","","{""curiosity"":2,""confidence"":4}","[0,1]","../img/tt/1279tt.jpg","",""
"2294.1099999989383","","","recognition","survey-text","212","885184","0.0-6.0-3.29","2921344","co39370","norming","","","{""guess"":""hond""}","","../img/tt/1279tt.jpg","",""
"null","../img/gs/1279gs.jpg","null","reveal","image-keyboard-response","213","887186","0.0-6.0-4.29","2921344","co39370","norming","","","","","","",""
"null","../img/tt/1279tt.jpg","null","mooney2","image-keyboard-response","214","889187","0.0-6.0-5.29","2921344","co39370","norming","","","","","","",""
"3018.9900000005728","","","post_reveal_questions","survey-likert","215","892208","0.0-6.0-6.29","2921344","co39370","norming","","","{""aha"":3}","[0]","../img/tt/1279tt.jpg","",""
"null","<div style=""font-size:60px;""> </div>","null","fixation","html-keyboard-response","216","892409","0.0-6.0-0.30","2921344","co39370","norming","","","","","","",""
"null","../img/tt/1363tt.jpg","null","mooney1","image-keyboard-response","217","895417","0.0-6.0-1.30","2921344","co39370","norming","","","","","","",""
"3971.6899999984307","","","post_mooney1_questions","survey-likert","218","899392","0.0-6.0-2.30","2921344","co39370","norming","","","{""curiosity"":3,""confidence"":3}","[0,1]","../img/tt/1363tt.jpg","",""
"5606.2200000014855","","","recognition","survey-text","219","905000","0.0-6.0-3.30","2921344","co39370","norming","","","{""guess"":""stijkijzer""}","","../img/tt/1363tt.jpg","",""
"null","../img/gs/1363gs.jpg","null","reveal","image-keyboard-response","220","907006","0.0-6.0-4.30","2921344","co39370","norming","","","","","","",""
"null","../img/tt/1363tt.jpg","null","mooney2","image-keyboard-response","221","909009","0.0-6.0-5.30","2921344","co39370","norming","","","","","","",""
"2564.8049999981886","","","post_reveal_questions","survey-likert","222","911576","0.0-6.0-6.30","2921344","co39370","norming","","","{""aha"":4}","[0]","../img/tt/1363tt.jpg","",""
"null","<div style=""font-size:60px;""> </div>","null","fixation","html-keyboard-response","223","911779","0.0-6.0-0.31","2921344","co39370","norming","","","","","","",""
"null","../img/tt/552tt.jpg","null","mooney1","image-keyboard-response","224","914787","0.0-6.0-1.31","2921344","co39370","norming","","","","","","",""
"4066.790000000852","","","post_mooney1_questions","survey-likert","225","918852","0.0-6.0-2.31","2921344","co39370","norming","","","{""curiosity"":5,""confidence"":0}","[0,1]","../img/tt/552tt.jpg","",""
"5453.214999997639","","","recognition","survey-text","226","924308","0.0-6.0-3.31","2921344","co39370","norming","","","{""guess"":""""}","","../img/tt/552tt.jpg","",""
"null","../img/gs/552gs.jpg","null","reveal","image-keyboard-response","227","926314","0.0-6.0-4.31","2921344","co39370","norming","","","","","","",""
"null","../img/tt/552tt.jpg","null","mooney2","image-keyboard-response","228","928322","0.0-6.0-5.31","2921344","co39370","norming","","","","","","",""
"1921.3400000007823","","","post_reveal_questions","survey-likert","229","930244","0.0-6.0-6.31","2921344","co39370","norming","","","{""aha"":6}","[0]","../img/tt/552tt.jpg","",""
"null","<div style=""font-size:60px;""> </div>","null","fixation","html-keyboard-response","230","930452","0.0-6.0-0.32","2921344","co39370","norming","","","","","","",""
"null","../img/tt/1078tt.jpg","null","mooney1","image-keyboard-response","231","933454","0.0-6.0-1.32","2921344","co39370","norming","","","","","","",""
"5732.8249999991385","","","post_mooney1_questions","survey-likert","232","939188","0.0-6.0-2.32","2921344","co39370","norming","","","{""curiosity"":4,""confidence"":2}","[0,1]","../img/tt/1078tt.jpg","",""
"5326.035000001895","","","recognition","survey-text","233","944516","0.0-6.0-3.32","2921344","co39370","norming","","","{""guess"":""winkelende vrouw""}","","../img/tt/1078tt.jpg","",""
"null","../img/gs/1078gs.jpg","null","reveal","image-keyboard-response","234","946518","0.0-6.0-4.32","2921344","co39370","norming","","","","","","",""
"null","../img/tt/1078tt.jpg","null","mooney2","image-keyboard-response","235","948525","0.0-6.0-5.32","2921344","co39370","norming","","","","","","",""
"4476.885000000126","","","post_reveal_questions","survey-likert","236","953004","0.0-6.0-6.32","2921344","co39370","norming","","","{""aha"":5}","[0]","../img/tt/1078tt.jpg","",""
"null","<div style=""font-size:60px;""> </div>","null","fixation","html-keyboard-response","237","953211","0.0-6.0-0.33","2921344","co39370","norming","","","","","","",""
"null","../img/tt/1154tt.jpg","null","mooney1","image-keyboard-response","238","956218","0.0-6.0-1.33","2921344","co39370","norming","","","","","","",""
"2767.4499999993714","","","post_mooney1_questions","survey-likert","239","958989","0.0-6.0-2.33","2921344","co39370","norming","","","{""curiosity"":4,""confidence"":1}","[0,1]","../img/tt/1154tt.jpg","",""
"3294.2149999981048","","","recognition","survey-text","240","962284","0.0-6.0-3.33","2921344","co39370","norming","","","{""guess"":""honden""}","","../img/tt/1154tt.jpg","",""
"null","../img/gs/1154gs.jpg","null","reveal","image-keyboard-response","241","964289","0.0-6.0-4.33","2921344","co39370","norming","","","","","","",""
"null","../img/tt/1154tt.jpg","null","mooney2","image-keyboard-response","242","966293","0.0-6.0-5.33","2921344","co39370","norming","","","","","","",""
"3016.8899999989662","","","post_reveal_questions","survey-likert","243","969311","0.0-6.0-6.33","2921344","co39370","norming","","","{""aha"":5}","[0]","../img/tt/1154tt.jpg","",""
"null","<div style=""font-size:60px;""> </div>","null","fixation","html-keyboard-response","244","969520","0.0-6.0-0.34","2921344","co39370","norming","","","","","","",""
"null","../img/tt/524tt.jpg","null","mooney1","image-keyboard-response","245","972527","0.0-6.0-1.34","2921344","co39370","norming","","","","","","",""
"3962.325000000419","","","post_mooney1_questions","survey-likert","246","976493","0.0-6.0-2.34","2921344","co39370","norming","","","{""curiosity"":5,""confidence"":3}","[0,1]","../img/tt/524tt.jpg","",""
"2966.0899999981048","","","recognition","survey-text","247","979459","0.0-6.0-3.34","2921344","co39370","norming","","","{""guess"":""miereneter""}","","../img/tt/524tt.jpg","",""
"null","../img/gs/524gs.jpg","null","reveal","image-keyboard-response","248","981469","0.0-6.0-4.34","2921344","co39370","norming","","","","","","",""
"null","../img/tt/524tt.jpg","null","mooney2","image-keyboard-response","249","983470","0.0-6.0-5.34","2921344","co39370","norming","","","","","","",""
"2210.1900000016904","","","post_reveal_questions","survey-likert","250","985683","0.0-6.0-6.34","2921344","co39370","norming","","","{""aha"":4}","[0]","../img/tt/524tt.jpg","",""
"null","<div style=""font-size:60px;""> </div>","null","fixation","html-keyboard-response","251","985889","0.0-6.0-0.35","2921344","co39370","norming","","","","","","",""
"null","../img/tt/020tt.jpg","null","mooney1","image-keyboard-response","252","988894","0.0-6.0-1.35","2921344","co39370","norming","","","","","","",""
"3705.855000000098","","","post_mooney1_questions","survey-likert","253","992603","0.0-6.0-2.35","2921344","co39370","norming","","","{""curiosity"":4,""confidence"":2}","[0,1]","../img/tt/020tt.jpg","",""
"5126.080000001821","","","recognition","survey-text","254","997731","0.0-6.0-3.35","2921344","co39370","norming","","","{""guess"":""hondje""}","","../img/tt/020tt.jpg","",""
"null","../img/gs/020gs.jpg","null","reveal","image-keyboard-response","255","999742","0.0-6.0-4.35","2921344","co39370","norming","","","","","","",""
"null","../img/tt/020tt.jpg","null","mooney2","image-keyboard-response","256","1001747","0.0-6.0-5.35","2921344","co39370","norming","","","","","","",""
"2853.865000000922","","","post_reveal_questions","survey-likert","257","1004603","0.0-6.0-6.35","2921344","co39370","norming","","","{""aha"":6}","[0]","../img/tt/020tt.jpg","",""
"null","<div style=""font-size:60px;""> </div>","null","fixation","html-keyboard-response","258","1004806","0.0-6.0-0.36","2921344","co39370","norming","","","","","","",""
"null","../img/tt/098tt.jpg","null","mooney1","image-keyboard-response","259","1007809","0.0-6.0-1.36","2921344","co39370","norming","","","","","","",""
"2375.2450000029057","","","post_mooney1_questions","survey-likert","260","1010187","0.0-6.0-2.36","2921344","co39370","norming","","","{""curiosity"":4,""confidence"":2}","[0,1]","../img/tt/098tt.jpg","",""
"1941.4899999974295","","","recognition","survey-text","261","1012131","0.0-6.0-3.36","2921344","co39370","norming","","","{""guess"":""uil""}","","../img/tt/098tt.jpg","",""
"null","../img/gs/098gs.jpg","null","reveal","image-keyboard-response","262","1014133","0.0-6.0-4.36","2921344","co39370","norming","","","","","","",""
"null","../img/tt/098tt.jpg","null","mooney2","image-keyboard-response","263","1016139","0.0-6.0-5.36","2921344","co39370","norming","","","","","","",""
"1549.7400000022026","","","post_reveal_questions","survey-likert","264","1017691","0.0-6.0-6.36","2921344","co39370","norming","","","{""aha"":5}","[0]","../img/tt/098tt.jpg","",""
"null","<div style=""font-size:60px;""> </div>","null","fixation","html-keyboard-response","265","1017898","0.0-6.0-0.37","2921344","co39370","norming","","","","","","",""
"null","../img/tt/1190tt.jpg","null","mooney1","image-keyboard-response","266","1020909","0.0-6.0-1.37","2921344","co39370","norming","","","","","","",""
"3035.4999999981374","","","post_mooney1_questions","survey-likert","267","1023947","0.0-6.0-2.37","2921344","co39370","norming","","","{""curiosity"":5,""confidence"":0}","[0,1]","../img/tt/1190tt.jpg","",""
"4542.294999999343","","","recognition","survey-text","268","1028491","0.0-6.0-3.37","2921344","co39370","norming","","","{""guess"":""beren""}","","../img/tt/1190tt.jpg","",""
"null","../img/gs/1190gs.jpg","null","reveal","image-keyboard-response","269","1030496","0.0-6.0-4.37","2921344","co39370","norming","","","","","","",""
"null","../img/tt/1190tt.jpg","null","mooney2","image-keyboard-response","270","1032506","0.0-6.0-5.37","2921344","co39370","norming","","","","","","",""
"2334.8950000000186","","","post_reveal_questions","survey-likert","271","1034843","0.0-6.0-6.37","2921344","co39370","norming","","","{""aha"":5}","[0]","../img/tt/1190tt.jpg","",""
"null","<div style=""font-size:60px;""> </div>","null","fixation","html-keyboard-response","272","1035046","0.0-6.0-0.38","2921344","co39370","norming","","","","","","",""
"null","../img/tt/590tt.jpg","null","mooney1","image-keyboard-response","273","1038064","0.0-6.0-1.38","2921344","co39370","norming","","","","","","",""
"2867.1699999977136","","","post_mooney1_questions","survey-likert","274","1040934","0.0-6.0-2.38","2921344","co39370","norming","","","{""curiosity"":4,""confidence"":2}","[0,1]","../img/tt/590tt.jpg","",""
"3542.1299999980256","","","recognition","survey-text","275","1044477","0.0-6.0-3.38","2921344","co39370","norming","","","{""guess"":""schoolbank""}","","../img/tt/590tt.jpg","",""
"null","../img/gs/590gs.jpg","null","reveal","image-keyboard-response","276","1046486","0.0-6.0-4.38","2921344","co39370","norming","","","","","","",""
"null","../img/tt/590tt.jpg","null","mooney2","image-keyboard-response","277","1048489","0.0-6.0-5.38","2921344","co39370","norming","","","","","","",""
"2569.859999999637","","","post_reveal_questions","survey-likert","278","1051061","0.0-6.0-6.38","2921344","co39370","norming","","","{""aha"":5}","[0]","../img/tt/590tt.jpg","",""
"null","<div style=""font-size:60px;""> </div>","null","fixation","html-keyboard-response","279","1051267","0.0-6.0-0.39","2921344","co39370","norming","","","","","","",""
"null","../img/tt/1130tt.jpg","null","mooney1","image-keyboard-response","280","1054270","0.0-6.0-1.39","2921344","co39370","norming","","","","","","",""
"4060.610000000568","","","post_mooney1_questions","survey-likert","281","1058334","0.0-6.0-2.39","2921344","co39370","norming","","","{""curiosity"":2,""confidence"":6}","[0,1]","../img/tt/1130tt.jpg","",""
"2662.0449999973644","","","recognition","survey-text","282","1060998","0.0-6.0-3.39","2921344","co39370","norming","","","{""guess"":""fietser""}","","../img/tt/1130tt.jpg","",""
"null","../img/gs/1130gs.jpg","null","reveal","image-keyboard-response","283","1063001","0.0-6.0-4.39","2921344","co39370","norming","","","","","","",""
"null","../img/tt/1130tt.jpg","null","mooney2","image-keyboard-response","284","1065003","0.0-6.0-5.39","2921344","co39370","norming","","","","","","",""
"2863.4549999989104","","","post_reveal_questions","survey-likert","285","1067869","0.0-6.0-6.39","2921344","co39370","norming","","","{""aha"":3}","[0]","../img/tt/1130tt.jpg","",""
"null","<div style=""font-size:60px;""> </div>","null","fixation","html-keyboard-response","286","1068072","0.0-6.0-0.40","2921344","co39370","norming","","","","","","",""
"null","../img/tt/055tt.jpg","null","mooney1","image-keyboard-response","287","1071080","0.0-6.0-1.40","2921344","co39370","norming","","","","","","",""
"3684.9799999981187","","","post_mooney1_questions","survey-likert","288","1074766","0.0-6.0-2.40","2921344","co39370","norming","","","{""curiosity"":4,""confidence"":2}","[0,1]","../img/tt/055tt.jpg","",""
"4078.099999998929","","","recognition","survey-text","289","1078845","0.0-6.0-3.40","2921344","co39370","norming","","","{""guess"":""zadel paard""}","","../img/tt/055tt.jpg","",""
"null","../img/gs/055gs.jpg","null","reveal","image-keyboard-response","290","1080847","0.0-6.0-4.40","2921344","co39370","norming","","","","","","",""
"null","../img/tt/055tt.jpg","null","mooney2","image-keyboard-response","291","1082855","0.0-6.0-5.40","2921344","co39370","norming","","","","","","",""
"3451.654999997234","","","post_reveal_questions","survey-likert","292","1086309","0.0-6.0-6.40","2921344","co39370","norming","","","{""aha"":1}","[0]","../img/tt/055tt.jpg","",""
"null","<div style=""font-size:60px;""> </div>","null","fixation","html-keyboard-response","293","1086512","0.0-6.0-0.41","2921344","co39370","norming","","","","","","",""
"null","../img/tt/507tt.jpg","null","mooney1","image-keyboard-response","294","1089516","0.0-6.0-1.41","2921344","co39370","norming","","","","","","",""
"3790.444999998668","","","post_mooney1_questions","survey-likert","295","1093310","0.0-6.0-2.41","2921344","co39370","norming","","","{""curiosity"":5,""confidence"":4}","[0,1]","../img/tt/507tt.jpg","",""
"8366.214999998221","","","recognition","survey-text","296","1101675","0.0-6.0-3.41","2921344","co39370","norming","","","{""guess"":""sportende vrouw""}","","../img/tt/507tt.jpg","",""
"null","../img/gs/507gs.jpg","null","reveal","image-keyboard-response","297","1103681","0.0-6.0-4.41","2921344","co39370","norming","","","","","","",""
"null","../img/tt/507tt.jpg","null","mooney2","image-keyboard-response","298","1105685","0.0-6.0-5.41","2921344","co39370","norming","","","","","","",""
"3171.160000001779","","","post_reveal_questions","survey-likert","299","1108859","0.0-6.0-6.41","2921344","co39370","norming","","","{""aha"":4}","[0]","../img/tt/507tt.jpg","",""
"null","<div style=""font-size:60px;""> </div>","null","fixation","html-keyboard-response","300","1109065","0.0-6.0-0.42","2921344","co39370","norming","","","","","","",""
"null","../img/tt/1199tt.jpg","null","mooney1","image-keyboard-response","301","1112071","0.0-6.0-1.42","2921344","co39370","norming","","","","","","",""
"2633.0400000007357","","","post_mooney1_questions","survey-likert","302","1114707","0.0-6.0-2.42","2921344","co39370","norming","","","{""curiosity"":4,""confidence"":2}","[0,1]","../img/tt/1199tt.jpg","",""
"4510.389999999432","","","recognition","survey-text","303","1119219","0.0-6.0-3.42","2921344","co39370","norming","","","{""guess"":""jongetje""}","","../img/tt/1199tt.jpg","",""
"null","../img/gs/1199gs.jpg","null","reveal","image-keyboard-response","304","1121224","0.0-6.0-4.42","2921344","co39370","norming","","","","","","",""
"null","../img/tt/1199tt.jpg","null","mooney2","image-keyboard-response","305","1123229","0.0-6.0-5.42","2921344","co39370","norming","","","","","","",""
"1945.8400000003166","","","post_reveal_questions","survey-likert","306","1125179","0.0-6.0-6.42","2921344","co39370","norming","","","{""aha"":4}","[0]","../img/tt/1199tt.jpg","",""
"null","<div style=""font-size:60px;""> </div>","null","fixation","html-keyboard-response","307","1125380","0.0-6.0-0.43","2921344","co39370","norming","","","","","","",""
"null","../img/tt/1353tt.jpg","null","mooney1","image-keyboard-response","308","1128390","0.0-6.0-1.43","2921344","co39370","norming","","","","","","",""
"3291.7550000019837","","","post_mooney1_questions","survey-likert","309","1131683","0.0-6.0-2.43","2921344","co39370","norming","","","{""curiosity"":5,""confidence"":0}","[0,1]","../img/tt/1353tt.jpg","",""
"1245.9449999986682","","","recognition","survey-text","310","1132931","0.0-6.0-3.43","2921344","co39370","norming","","","{""guess"":""""}","","../img/tt/1353tt.jpg","",""
"null","../img/gs/1353gs.jpg","null","reveal","image-keyboard-response","311","1134939","0.0-6.0-4.43","2921344","co39370","norming","","","","","","",""
"null","../img/tt/1353tt.jpg","null","mooney2","image-keyboard-response","312","1136949","0.0-6.0-5.43","2921344","co39370","norming","","","","","","",""
"4146.334999997634","","","post_reveal_questions","survey-likert","313","1141098","0.0-6.0-6.43","2921344","co39370","norming","","","{""aha"":5}","[0]","../img/tt/1353tt.jpg","",""
"null","<div style=""font-size:60px;""> </div>","null","fixation","html-keyboard-response","314","1141308","0.0-6.0-0.44","2921344","co39370","norming","","","","","","",""
"null","../img/tt/598tt.jpg","null","mooney1","image-keyboard-response","315","1144318","0.0-6.0-1.44","2921344","co39370","norming","","","","","","",""
"3473.9950000003446","","","post_mooney1_questions","survey-likert","316","1147795","0.0-6.0-2.44","2921344","co39370","norming","","","{""curiosity"":5,""confidence"":0}","[0,1]","../img/tt/598tt.jpg","",""
"1998.1249999983702","","","recognition","survey-text","317","1149795","0.0-6.0-3.44","2921344","co39370","norming","","","{""guess"":""zak""}","","../img/tt/598tt.jpg","",""
"null","../img/gs/598gs.jpg","null","reveal","image-keyboard-response","318","1151802","0.0-6.0-4.44","2921344","co39370","norming","","","","","","",""
"null","../img/tt/598tt.jpg","null","mooney2","image-keyboard-response","319","1153809","0.0-6.0-5.44","2921344","co39370","norming","","","","","","",""
"2151.514999997802","","","post_reveal_questions","survey-likert","320","1155963","0.0-6.0-6.44","2921344","co39370","norming","","","{""aha"":5}","[0]","../img/tt/598tt.jpg","",""
"null","<div style=""font-size:60px;""> </div>","null","fixation","html-keyboard-response","321","1156174","0.0-6.0-0.45","2921344","co39370","norming","","","","","","",""
"null","../img/tt/1096tt.jpg","null","mooney1","image-keyboard-response","322","1159186","0.0-6.0-1.45","2921344","co39370","norming","","","","","","",""
"2844.9900000013877","","","post_mooney1_questions","survey-likert","323","1162033","0.0-6.0-2.45","2921344","co39370","norming","","","{""curiosity"":5,""confidence"":1}","[0,1]","../img/tt/1096tt.jpg","",""
"2622.1350000014063","","","recognition","survey-text","324","1164656","0.0-6.0-3.45","2921344","co39370","norming","","","{""guess"":""danseres""}","","../img/tt/1096tt.jpg","",""
"null","../img/gs/1096gs.jpg","null","reveal","image-keyboard-response","325","1166664","0.0-6.0-4.45","2921344","co39370","norming","","","","","","",""
"null","../img/tt/1096tt.jpg","null","mooney2","image-keyboard-response","326","1168669","0.0-6.0-5.45","2921344","co39370","norming","","","","","","",""
"2281.1150000016205","","","post_reveal_questions","survey-likert","327","1170953","0.0-6.0-6.45","2921344","co39370","norming","","","{""aha"":4}","[0]","../img/tt/1096tt.jpg","",""
"null","<div style=""font-size:60px;""> </div>","null","fixation","html-keyboard-response","328","1171155","0.0-6.0-0.46","2921344","co39370","norming","","","","","","",""
"null","../img/tt/010tt.jpg","null","mooney1","image-keyboard-response","329","1174157","0.0-6.0-1.46","2921344","co39370","norming","","","","","","",""
"2248.6800000006333","","","post_mooney1_questions","survey-likert","330","1176409","0.0-6.0-2.46","2921344","co39370","norming","","","{""curiosity"":5,""confidence"":1}","[0,1]","../img/tt/010tt.jpg","",""
"3093.919999999227","","","recognition","survey-text","331","1179504","0.0-6.0-3.46","2921344","co39370","norming","","","{""guess"":""trofee""}","","../img/tt/010tt.jpg","",""
"null","../img/gs/010gs.jpg","null","reveal","image-keyboard-response","332","1181511","0.0-6.0-4.46","2921344","co39370","norming","","","","","","",""
"null","../img/tt/010tt.jpg","null","mooney2","image-keyboard-response","333","1183521","0.0-6.0-5.46","2921344","co39370","norming","","","","","","",""
"1764.4299999992363","","","post_reveal_questions","survey-likert","334","1185289","0.0-6.0-6.46","2921344","co39370","norming","","","{""aha"":4}","[0]","../img/tt/010tt.jpg","",""
"null","<div style=""font-size:60px;""> </div>","null","fixation","html-keyboard-response","335","1185496","0.0-6.0-0.47","2921344","co39370","norming","","","","","","",""
"null","../img/tt/418tt.jpg","null","mooney1","image-keyboard-response","336","1188499","0.0-6.0-1.47","2921344","co39370","norming","","","","","","",""
"4707.010000001872","","","post_mooney1_questions","survey-likert","337","1193209","0.0-6.0-2.47","2921344","co39370","norming","","","{""curiosity"":5,""confidence"":0}","[0,1]","../img/tt/418tt.jpg","",""
"661.7299999999814","","","recognition","survey-text","338","1193872","0.0-6.0-3.47","2921344","co39370","norming","","","{""guess"":""""}","","../img/tt/418tt.jpg","",""
"null","../img/gs/418gs.jpg","null","reveal","image-keyboard-response","339","1195874","0.0-6.0-4.47","2921344","co39370","norming","","","","","","",""
"null","../img/tt/418tt.jpg","null","mooney2","image-keyboard-response","340","1197885","0.0-6.0-5.47","2921344","co39370","norming","","","","","","",""
"3376.4249999984168","","","post_reveal_questions","survey-likert","341","1201265","0.0-6.0-6.47","2921344","co39370","norming","","","{""aha"":5}","[0]","../img/tt/418tt.jpg","",""
"null","<div style=""font-size:60px;""> </div>","null","fixation","html-keyboard-response","342","1201466","0.0-6.0-0.48","2921344","co39370","norming","","","","","","",""
"null","../img/tt/013tt.jpg","null","mooney1","image-keyboard-response","343","1204471","0.0-6.0-1.48","2921344","co39370","norming","","","","","","",""
"4574.394999999786","","","post_mooney1_questions","survey-likert","344","1209049","0.0-6.0-2.48","2921344","co39370","norming","","","{""curiosity"":5,""confidence"":0}","[0,1]","../img/tt/013tt.jpg","",""
"4117.7200000020675","","","recognition","survey-text","345","1213169","0.0-6.0-3.48","2921344","co39370","norming","","","{""guess"":""stal""}","","../img/tt/013tt.jpg","",""
"null","../img/gs/013gs.jpg","null","reveal","image-keyboard-response","346","1215178","0.0-6.0-4.48","2921344","co39370","norming","","","","","","",""
"null","../img/tt/013tt.jpg","null","mooney2","image-keyboard-response","347","1217185","0.0-6.0-5.48","2921344","co39370","norming","","","","","","",""
"3534.529999997001","","","post_reveal_questions","survey-likert","348","1220721","0.0-6.0-6.48","2921344","co39370","norming","","","{""aha"":5}","[0]","../img/tt/013tt.jpg","",""
"null","<div style=""font-size:60px;""> </div>","null","fixation","html-keyboard-response","349","1220924","0.0-6.0-0.49","2921344","co39370","norming","","","","","","",""
"null","../img/tt/315tt.jpg","null","mooney1","image-keyboard-response","350","1223925","0.0-6.0-1.49","2921344","co39370","norming","","","","","","",""
"4033.3400000017136","","","post_mooney1_questions","survey-likert","351","1227961","0.0-6.0-2.49","2921344","co39370","norming","","","{""curiosity"":3,""confidence"":5}","[0,1]","../img/tt/315tt.jpg","",""
"6893.764999996871","","","recognition","survey-text","352","1234857","0.0-6.0-3.49","2921344","co39370","norming","","","{""guess"":""katten kop""}","","../img/tt/315tt.jpg","",""
"null","../img/gs/315gs.jpg","null","reveal","image-keyboard-response","353","1236866","0.0-6.0-4.49","2921344","co39370","norming","","","","","","",""
"null","../img/tt/315tt.jpg","null","mooney2","image-keyboard-response","354","1238869","0.0-6.0-5.49","2921344","co39370","norming","","","","","","",""
"3985.4100000010803","","","post_reveal_questions","survey-likert","355","1242857","0.0-6.0-6.49","2921344","co39370","norming","","","{""aha"":0}","[0]","../img/tt/315tt.jpg","",""
"null","<div style=""font-size:60px;""> </div>","null","fixation","html-keyboard-response","356","1243059","0.0-6.0-0.50","2921344","co39370","norming","","","","","","",""
"null","../img/tt/1122tt.jpg","null","mooney1","image-keyboard-response","357","1246069","0.0-6.0-1.50","2921344","co39370","norming","","","","","","",""
"4632.334999998566","","","post_mooney1_questions","survey-likert","358","1250705","0.0-6.0-2.50","2921344","co39370","norming","","","{""curiosity"":3,""confidence"":3}","[0,1]","../img/tt/1122tt.jpg","",""
"3150.3899999989662","","","recognition","survey-text","359","1253857","0.0-6.0-3.50","2921344","co39370","norming","","","{""guess"":""druk verkeer""}","","../img/tt/1122tt.jpg","",""
"null","../img/gs/1122gs.jpg","null","reveal","image-keyboard-response","360","1255859","0.0-6.0-4.50","2921344","co39370","norming","","","","","","",""
"null","../img/tt/1122tt.jpg","null","mooney2","image-keyboard-response","361","1257869","0.0-6.0-5.50","2921344","co39370","norming","","","","","","",""
"4121.334999999963","","","post_reveal_questions","survey-likert","362","1261993","0.0-6.0-6.50","2921344","co39370","norming","","","{""aha"":3}","[0]","../img/tt/1122tt.jpg","",""
"null","<div style=""font-size:60px;""> </div>","null","fixation","html-keyboard-response","363","1262197","0.0-6.0-0.51","2921344","co39370","norming","","","","","","",""
"null","../img/tt/081tt.jpg","null","mooney1","image-keyboard-response","364","1265200","0.0-6.0-1.51","2921344","co39370","norming","","","","","","",""
"3152.3400000005495","","","post_mooney1_questions","survey-likert","365","1268353","0.0-6.0-2.51","2921344","co39370","norming","","","{""curiosity"":4,""confidence"":2}","[0,1]","../img/tt/081tt.jpg","",""
"2478.0900000005495","","","recognition","survey-text","366","1270833","0.0-6.0-3.51","2921344","co39370","norming","","","{""guess"":""kikker""}","","../img/tt/081tt.jpg","",""
"null","../img/gs/081gs.jpg","null","reveal","image-keyboard-response","367","1272836","0.0-6.0-4.51","2921344","co39370","norming","","","","","","",""
"null","../img/tt/081tt.jpg","null","mooney2","image-keyboard-response","368","1274838","0.0-6.0-5.51","2921344","co39370","norming","","","","","","",""
"2968.634999997448","","","post_reveal_questions","survey-likert","369","1277809","0.0-6.0-6.51","2921344","co39370","norming","","","{""aha"":1}","[0]","../img/tt/081tt.jpg","",""
"null","<div style=""font-size:60px;""> </div>","null","fixation","html-keyboard-response","370","1278014","0.0-6.0-0.52","2921344","co39370","norming","","","","","","",""
"null","../img/tt/1270tt.jpg","null","mooney1","image-keyboard-response","371","1281026","0.0-6.0-1.52","2921344","co39370","norming","","","","","","",""
"2816.7749999992084","","","post_mooney1_questions","survey-likert","372","1283844","0.0-6.0-2.52","2921344","co39370","norming","","","{""curiosity"":5,""confidence"":0}","[0,1]","../img/tt/1270tt.jpg","",""
"5686.004999999655","","","recognition","survey-text","373","1289531","0.0-6.0-3.52","2921344","co39370","norming","","","{""guess"":""man""}","","../img/tt/1270tt.jpg","",""
"null","../img/gs/1270gs.jpg","null","reveal","image-keyboard-response","374","1291537","0.0-6.0-4.52","2921344","co39370","norming","","","","","","",""
"null","../img/tt/1270tt.jpg","null","mooney2","image-keyboard-response","375","1293545","0.0-6.0-5.52","2921344","co39370","norming","","","","","","",""
"2271.9400000025053","","","post_reveal_questions","survey-likert","376","1295820","0.0-6.0-6.52","2921344","co39370","norming","","","{""aha"":4}","[0]","../img/tt/1270tt.jpg","",""
"null","<div style=""font-size:60px;""> </div>","null","fixation","html-keyboard-response","377","1296023","0.0-6.0-0.53","2921344","co39370","norming","","","","","","",""
"null","../img/tt/1024tt.jpg","null","mooney1","image-keyboard-response","378","1299032","0.0-6.0-1.53","2921344","co39370","norming","","","","","","",""
"3296.770000000717","","","post_mooney1_questions","survey-likert","379","1302332","0.0-6.0-2.53","2921344","co39370","norming","","","{""curiosity"":5,""confidence"":2}","[0,1]","../img/tt/1024tt.jpg","",""
"5637.974999997765","","","recognition","survey-text","380","1307971","0.0-6.0-3.53","2921344","co39370","norming","","","{""guess"":""courreur""}","","../img/tt/1024tt.jpg","",""
"null","../img/gs/1024gs.jpg","null","reveal","image-keyboard-response","381","1309973","0.0-6.0-4.53","2921344","co39370","norming","","","","","","",""
"null","../img/tt/1024tt.jpg","null","mooney2","image-keyboard-response","382","1311977","0.0-6.0-5.53","2921344","co39370","norming","","","","","","",""
"1817.2000000011176","","","post_reveal_questions","survey-likert","383","1313795","0.0-6.0-6.53","2921344","co39370","norming","","","{""aha"":5}","[0]","../img/tt/1024tt.jpg","",""
"null","<div style=""font-size:60px;""> </div>","null","fixation","html-keyboard-response","384","1314000","0.0-6.0-0.54","2921344","co39370","norming","","","","","","",""
"null","../img/tt/380tt.jpg","null","mooney1","image-keyboard-response","385","1317009","0.0-6.0-1.54","2921344","co39370","norming","","","","","","",""
"3719.0149999987334","","","post_mooney1_questions","survey-likert","386","1320732","0.0-6.0-2.54","2921344","co39370","norming","","","{""curiosity"":4,""confidence"":1}","[0,1]","../img/tt/380tt.jpg","",""
"6901.979999998584","","","recognition","survey-text","387","1327635","0.0-6.0-3.54","2921344","co39370","norming","","","{""guess"":""slak""}","","../img/tt/380tt.jpg","",""
"null","../img/gs/380gs.jpg","null","reveal","image-keyboard-response","388","1329646","0.0-6.0-4.54","2921344","co39370","norming","","","","","","",""
"null","../img/tt/380tt.jpg","null","mooney2","image-keyboard-response","389","1331652","0.0-6.0-5.54","2921344","co39370","norming","","","","","","",""
"4932.965000000084","","","post_reveal_questions","survey-likert","390","1336587","0.0-6.0-6.54","2921344","co39370","norming","","","{""aha"":4}","[0]","../img/tt/380tt.jpg","",""
"null","<div style=""font-size:60px;""> </div>","null","fixation","html-keyboard-response","391","1336788","0.0-6.0-0.55","2921344","co39370","norming","","","","","","",""
"null","../img/tt/1143tt.jpg","null","mooney1","image-keyboard-response","392","1339798","0.0-6.0-1.55","2921344","co39370","norming","","","","","","",""
"4138.974999997998","","","post_mooney1_questions","survey-likert","393","1343934","0.0-6.0-2.55","2921344","co39370","norming","","","{""curiosity"":4,""confidence"":4}","[0,1]","../img/tt/1143tt.jpg","",""
"7357.87500000163","","","recognition","survey-text","394","1351294","0.0-6.0-3.55","2921344","co39370","norming","","","{""guess"":""hometrainers""}","","../img/tt/1143tt.jpg","",""
"null","../img/gs/1143gs.jpg","null","reveal","image-keyboard-response","395","1353295","0.0-6.0-4.55","2921344","co39370","norming","","","","","","",""
"null","../img/tt/1143tt.jpg","null","mooney2","image-keyboard-response","396","1355300","0.0-6.0-5.55","2921344","co39370","norming","","","","","","",""
"2863.359999999404","","","post_reveal_questions","survey-likert","397","1358166","0.0-6.0-6.55","2921344","co39370","norming","","","{""aha"":1}","[0]","../img/tt/1143tt.jpg","",""
"null","<div style=""font-size:60px;""> </div>","null","fixation","html-keyboard-response","398","1358373","0.0-6.0-0.56","2921344","co39370","norming","","","","","","",""
"null","../img/tt/1268tt.jpg","null","mooney1","image-keyboard-response","399","1361384","0.0-6.0-1.56","2921344","co39370","norming","","","","","","",""
"3419.4449999995995","","","post_mooney1_questions","survey-likert","400","1364806","0.0-6.0-2.56","2921344","co39370","norming","","","{""curiosity"":5,""confidence"":2}","[0,1]","../img/tt/1268tt.jpg","",""
"4054.0749999999534","","","recognition","survey-text","401","1368862","0.0-6.0-3.56","2921344","co39370","norming","","","{""guess"":""luipaard""}","","../img/tt/1268tt.jpg","",""
"null","../img/gs/1268gs.jpg","null","reveal","image-keyboard-response","402","1370868","0.0-6.0-4.56","2921344","co39370","norming","","","","","","",""
"null","../img/tt/1268tt.jpg","null","mooney2","image-keyboard-response","403","1372872","0.0-6.0-5.56","2921344","co39370","norming","","","","","","",""
"1627.47999999905","","","post_reveal_questions","survey-likert","404","1374502","0.0-6.0-6.56","2921344","co39370","norming","","","{""aha"":5}","[0]","../img/tt/1268tt.jpg","",""
"null","<div style=""font-size:60px;""> </div>","null","fixation","html-keyboard-response","405","1374705","0.0-6.0-0.57","2921344","co39370","norming","","","","","","",""
"null","../img/tt/1278tt.jpg","null","mooney1","image-keyboard-response","406","1377711","0.0-6.0-1.57","2921344","co39370","norming","","","","","","",""
"5339.645000000019","","","post_mooney1_questions","survey-likert","407","1383054","0.0-6.0-2.57","2921344","co39370","norming","","","{""curiosity"":4,""confidence"":1}","[0,1]","../img/tt/1278tt.jpg","",""
"2278.050000000745","","","recognition","survey-text","408","1385334","0.0-6.0-3.57","2921344","co39370","norming","","","{""guess"":""man""}","","../img/tt/1278tt.jpg","",""
"null","../img/gs/1278gs.jpg","null","reveal","image-keyboard-response","409","1387345","0.0-6.0-4.57","2921344","co39370","norming","","","","","","",""
"null","../img/tt/1278tt.jpg","null","mooney2","image-keyboard-response","410","1389347","0.0-6.0-5.57","2921344","co39370","norming","","","","","","",""
"1607.864999998128","","","post_reveal_questions","survey-likert","411","1390958","0.0-6.0-6.57","2921344","co39370","norming","","","{""aha"":5}","[0]","../img/tt/1278tt.jpg","",""
"null","<div style=""font-size:60px;""> </div>","null","fixation","html-keyboard-response","412","1391165","0.0-6.0-0.58","2921344","co39370","norming","","","","","","",""
"null","../img/tt/1202tt.jpg","null","mooney1","image-keyboard-response","413","1394168","0.0-6.0-1.58","2921344","co39370","norming","","","","","","",""
"2723.070000000065","","","post_mooney1_questions","survey-likert","414","1396894","0.0-6.0-2.58","2921344","co39370","norming","","","{""curiosity"":4,""confidence"":2}","[0,1]","../img/tt/1202tt.jpg","",""
"2518.1000000012573","","","recognition","survey-text","415","1399414","0.0-6.0-3.58","2921344","co39370","norming","","","{""guess"":""boerin""}","","../img/tt/1202tt.jpg","",""
"null","../img/gs/1202gs.jpg","null","reveal","image-keyboard-response","416","1401420","0.0-6.0-4.58","2921344","co39370","norming","","","","","","",""
"null","../img/tt/1202tt.jpg","null","mooney2","image-keyboard-response","417","1403430","0.0-6.0-5.58","2921344","co39370","norming","","","","","","",""
"2997.100000000559","","","post_reveal_questions","survey-likert","418","1406429","0.0-6.0-6.58","2921344","co39370","norming","","","{""aha"":5}","[0]","../img/tt/1202tt.jpg","",""
"null","<div style=""font-size:60px;""> </div>","null","fixation","html-keyboard-response","419","1406640","0.0-6.0-0.59","2921344","co39370","norming","","","","","","",""
"null","../img/tt/1159tt.jpg","null","mooney1","image-keyboard-response","420","1409648","0.0-6.0-1.59","2921344","co39370","norming","","","","","","",""
"2762.5700000026263","","","post_mooney1_questions","survey-likert","421","1412413","0.0-6.0-2.59","2921344","co39370","norming","","","{""curiosity"":5,""confidence"":2}","[0,1]","../img/tt/1159tt.jpg","",""
"2374.3099999993574","","","recognition","survey-text","422","1414789","0.0-6.0-3.59","2921344","co39370","norming","","","{""guess"":""werkman""}","","../img/tt/1159tt.jpg","",""
"null","../img/gs/1159gs.jpg","null","reveal","image-keyboard-response","423","1416798","0.0-6.0-4.59","2921344","co39370","norming","","","","","","",""
"null","../img/tt/1159tt.jpg","null","mooney2","image-keyboard-response","424","1418807","0.0-6.0-5.59","2921344","co39370","norming","","","","","","",""
"2011.8650000002235","","","post_reveal_questions","survey-likert","425","1420821","0.0-6.0-6.59","2921344","co39370","norming","","","{""aha"":5}","[0]","../img/tt/1159tt.jpg","",""
"null","<div style=""font-size:60px;""> </div>","null","fixation","html-keyboard-response","426","1421026","0.0-6.0-0.60","2921344","co39370","norming","","","","","","",""
"null","../img/tt/019tt.jpg","null","mooney1","image-keyboard-response","427","1424029","0.0-6.0-1.60","2921344","co39370","norming","","","","","","",""
"5108.904999997234","","","post_mooney1_questions","survey-likert","428","1429141","0.0-6.0-2.60","2921344","co39370","norming","","","{""curiosity"":1,""confidence"":5}","[0,1]","../img/tt/019tt.jpg","",""
"7286.30999999959","","","recognition","survey-text","429","1436429","0.0-6.0-3.60","2921344","co39370","norming","","","{""guess"":""gereedschapstang""}","","../img/tt/019tt.jpg","",""
"null","../img/gs/019gs.jpg","null","reveal","image-keyboard-response","430","1438434","0.0-6.0-4.60","2921344","co39370","norming","","","","","","",""
"null","../img/tt/019tt.jpg","null","mooney2","image-keyboard-response","431","1440446","0.0-6.0-5.60","2921344","co39370","norming","","","","","","",""
"2901.0699999998324","","","post_reveal_questions","survey-likert","432","1443349","0.0-6.0-6.60","2921344","co39370","norming","","","{""aha"":1}","[0]","../img/tt/019tt.jpg","",""
"null","<div style=""font-size:60px;""> </div>","null","fixation","html-keyboard-response","433","1443556","0.0-6.0-0.61","2921344","co39370","norming","","","","","","",""
"null","../img/tt/522tt.jpg","null","mooney1","image-keyboard-response","434","1446561","0.0-6.0-1.61","2921344","co39370","norming","","","","","","",""
"4169.259999998612","","","post_mooney1_questions","survey-likert","435","1450733","0.0-6.0-2.61","2921344","co39370","norming","","","{""curiosity"":5,""confidence"":2}","[0,1]","../img/tt/522tt.jpg","",""
"3766.0800000012387","","","recognition","survey-text","436","1454501","0.0-6.0-3.61","2921344","co39370","norming","","","{""guess"":""legomannetje""}","","../img/tt/522tt.jpg","",""
"null","../img/gs/522gs.jpg","null","reveal","image-keyboard-response","437","1456506","0.0-6.0-4.61","2921344","co39370","norming","","","","","","",""
"null","../img/tt/522tt.jpg","null","mooney2","image-keyboard-response","438","1458509","0.0-6.0-5.61","2921344","co39370","norming","","","","","","",""
"1876.734999998007","","","post_reveal_questions","survey-likert","439","1460389","0.0-6.0-6.61","2921344","co39370","norming","","","{""aha"":5}","[0]","../img/tt/522tt.jpg","",""
"null","<div style=""font-size:60px;""> </div>","null","fixation","html-keyboard-response","440","1460594","0.0-6.0-0.62","2921344","co39370","norming","","","","","","",""
"null","../img/tt/1200tt.jpg","null","mooney1","image-keyboard-response","441","1463598","0.0-6.0-1.62","2921344","co39370","norming","","","","","","",""
"2901.029999997234","","","post_mooney1_questions","survey-likert","442","1466502","0.0-6.0-2.62","2921344","co39370","norming","","","{""curiosity"":4,""confidence"":3}","[0,1]","../img/tt/1200tt.jpg","",""
"1870.2049999991432","","","recognition","survey-text","443","1468374","0.0-6.0-3.62","2921344","co39370","norming","","","{""guess"":""krab""}","","../img/tt/1200tt.jpg","",""
"null","../img/gs/1200gs.jpg","null","reveal","image-keyboard-response","444","1470375","0.0-6.0-4.62","2921344","co39370","norming","","","","","","",""
"null","../img/tt/1200tt.jpg","null","mooney2","image-keyboard-response","445","1472378","0.0-6.0-5.62","2921344","co39370","norming","","","","","","",""
"3080.9449999979697","","","post_reveal_questions","survey-likert","446","1475462","0.0-6.0-6.62","2921344","co39370","norming","","","{""aha"":4}","[0]","../img/tt/1200tt.jpg","",""
"null","<div style=""font-size:60px;""> </div>","null","fixation","html-keyboard-response","447","1475668","0.0-6.0-0.63","2921344","co39370","norming","","","","","","",""
"null","../img/tt/123tt.jpg","null","mooney1","image-keyboard-response","448","1478678","0.0-6.0-1.63","2921344","co39370","norming","","","","","","",""
"2589.3649999999907","","","post_mooney1_questions","survey-likert","449","1481270","0.0-6.0-2.63","2921344","co39370","norming","","","{""curiosity"":5,""confidence"":2}","[0,1]","../img/tt/123tt.jpg","",""
"3997.98499999824","","","recognition","survey-text","450","1485270","0.0-6.0-3.63","2921344","co39370","norming","","","{""guess"":""schoolrugzak""}","","../img/tt/123tt.jpg","",""
"null","../img/gs/123gs.jpg","null","reveal","image-keyboard-response","451","1487278","0.0-6.0-4.63","2921344","co39370","norming","","","","","","",""
"null","../img/tt/123tt.jpg","null","mooney2","image-keyboard-response","452","1489289","0.0-6.0-5.63","2921344","co39370","norming","","","","","","",""
"2489.229999999283","","","post_reveal_questions","survey-likert","453","1491782","0.0-6.0-6.63","2921344","co39370","norming","","","{""aha"":3}","[0]","../img/tt/123tt.jpg","",""
"null","<div style=""font-size:60px;""> </div>","null","fixation","html-keyboard-response","454","1491990","0.0-6.0-0.64","2921344","co39370","norming","","","","","","",""
"null","../img/tt/194tt.jpg","null","mooney1","image-keyboard-response","455","1494997","0.0-6.0-1.64","2921344","co39370","norming","","","","","","",""
"4238.2050000014715","","","post_mooney1_questions","survey-likert","456","1499238","0.0-6.0-2.64","2921344","co39370","norming","","","{""curiosity"":4,""confidence"":3}","[0,1]","../img/tt/194tt.jpg","",""
"6805.9800000011455","","","recognition","survey-text","457","1506046","0.0-6.0-3.64","2921344","co39370","norming","","","{""guess"":""verstopt meisje""}","","../img/tt/194tt.jpg","",""
"null","../img/gs/194gs.jpg","null","reveal","image-keyboard-response","458","1508055","0.0-6.0-4.64","2921344","co39370","norming","","","","","","",""
"null","../img/tt/194tt.jpg","null","mooney2","image-keyboard-response","459","1510058","0.0-6.0-5.64","2921344","co39370","norming","","","","","","",""
"1993.9049999993294","","","post_reveal_questions","survey-likert","460","1512054","0.0-6.0-6.64","2921344","co39370","norming","","","{""aha"":4}","[0]","../img/tt/194tt.jpg","",""
"null","<div style=""font-size:60px;""> </div>","null","fixation","html-keyboard-response","461","1512257","0.0-6.0-0.65","2921344","co39370","norming","","","","","","",""
"null","../img/tt/1247tt.jpg","null","mooney1","image-keyboard-response","462","1515260","0.0-6.0-1.65","2921344","co39370","norming","","","","","","",""
"4486.775000001071","","","post_mooney1_questions","survey-likert","463","1519750","0.0-6.0-2.65","2921344","co39370","norming","","","{""curiosity"":2,""confidence"":5}","[0,1]","../img/tt/1247tt.jpg","",""
"7701.994999999413","","","recognition","survey-text","464","1527453","0.0-6.0-3.65","2921344","co39370","norming","","","{""guess"":""leeuwenkop""}","","../img/tt/1247tt.jpg","",""
"null","../img/gs/1247gs.jpg","null","reveal","image-keyboard-response","465","1529458","0.0-6.0-4.65","2921344","co39370","norming","","","","","","",""
"null","../img/tt/1247tt.jpg","null","mooney2","image-keyboard-response","466","1531462","0.0-6.0-5.65","2921344","co39370","norming","","","","","","",""
"2396.3399999991525","","","post_reveal_questions","survey-likert","467","1533861","0.0-6.0-6.65","2921344","co39370","norming","","","{""aha"":3}","[0]","../img/tt/1247tt.jpg","",""
"null","<div style=""font-size:60px;""> </div>","null","fixation","html-keyboard-response","468","1534063","0.0-6.0-0.66","2921344","co39370","norming","","","","","","",""
"null","../img/tt/468tt.jpg","null","mooney1","image-keyboard-response","469","1537075","0.0-6.0-1.66","2921344","co39370","norming","","","","","","",""
"3310.235000000801","","","post_mooney1_questions","survey-likert","470","1540389","0.0-6.0-2.66","2921344","co39370","norming","","","{""curiosity"":2,""confidence"":6}","[0,1]","../img/tt/468tt.jpg","",""
"3765.89999999851","","","recognition","survey-text","471","1544157","0.0-6.0-3.66","2921344","co39370","norming","","","{""guess"":""viool""}","","../img/tt/468tt.jpg","",""
"null","../img/gs/468gs.jpg","null","reveal","image-keyboard-response","472","1546159","0.0-6.0-4.66","2921344","co39370","norming","","","","","","",""
"null","../img/tt/468tt.jpg","null","mooney2","image-keyboard-response","473","1548169","0.0-6.0-5.66","2921344","co39370","norming","","","","","","",""
"3296.3200000012293","","","post_reveal_questions","survey-likert","474","1551469","0.0-6.0-6.66","2921344","co39370","norming","","","{""aha"":0}","[0]","../img/tt/468tt.jpg","",""
"null","<div style=""font-size:60px;""> </div>","null","fixation","html-keyboard-response","475","1551674","0.0-6.0-0.67","2921344","co39370","norming","","","","","","",""
"null","../img/tt/1226tt.jpg","null","mooney1","image-keyboard-response","476","1554680","0.0-6.0-1.67","2921344","co39370","norming","","","","","","",""
"3569.1750000005122","","","post_mooney1_questions","survey-likert","477","1558253","0.0-6.0-2.67","2921344","co39370","norming","","","{""curiosity"":5,""confidence"":1}","[0,1]","../img/tt/1226tt.jpg","",""
"5005.994999999646","","","recognition","survey-text","478","1563261","0.0-6.0-3.67","2921344","co39370","norming","","","{""guess"":""verdachte jongen""}","","../img/tt/1226tt.jpg","",""
"null","../img/gs/1226gs.jpg","null","reveal","image-keyboard-response","479","1565262","0.0-6.0-4.67","2921344","co39370","norming","","","","","","",""
"null","../img/tt/1226tt.jpg","null","mooney2","image-keyboard-response","480","1567274","0.0-6.0-5.67","2921344","co39370","norming","","","","","","",""
"2936.0550000020303","","","post_reveal_questions","survey-likert","481","1570213","0.0-6.0-6.67","2921344","co39370","norming","","","{""aha"":4}","[0]","../img/tt/1226tt.jpg","",""
"null","<div style=""font-size:60px;""> </div>","null","fixation","html-keyboard-response","482","1570418","0.0-6.0-0.68","2921344","co39370","norming","","","","","","",""
"null","../img/tt/517tt.jpg","null","mooney1","image-keyboard-response","483","1573428","0.0-6.0-1.68","2921344","co39370","norming","","","","","","",""
"3924.995000001043","","","post_mooney1_questions","survey-likert","484","1577357","0.0-6.0-2.68","2921344","co39370","norming","","","{""curiosity"":5,""confidence"":2}","[0,1]","../img/tt/517tt.jpg","",""
"3006.0699999993667","","","recognition","survey-text","485","1580365","0.0-6.0-3.68","2921344","co39370","norming","","","{""guess"":""luiaard""}","","../img/tt/517tt.jpg","",""
"null","../img/gs/517gs.jpg","null","reveal","image-keyboard-response","486","1582366","0.0-6.0-4.68","2921344","co39370","norming","","","","","","",""
"null","../img/tt/517tt.jpg","null","mooney2","image-keyboard-response","487","1584371","0.0-6.0-5.68","2921344","co39370","norming","","","","","","",""
"2009.7600000009406","","","post_reveal_questions","survey-likert","488","1586384","0.0-6.0-6.68","2921344","co39370","norming","","","{""aha"":4}","[0]","../img/tt/517tt.jpg","",""
"null","<div style=""font-size:60px;""> </div>","null","fixation","html-keyboard-response","489","1586592","0.0-6.0-0.69","2921344","co39370","norming","","","","","","",""
"null","../img/tt/378tt.jpg","null","mooney1","image-keyboard-response","490","1589603","0.0-6.0-1.69","2921344","co39370","norming","","","","","","",""
"4729.1899999980815","","","post_mooney1_questions","survey-likert","491","1594336","0.0-6.0-2.69","2921344","co39370","norming","","","{""curiosity"":4,""confidence"":0}","[0,1]","../img/tt/378tt.jpg","",""
"5710.145000000717","","","recognition","survey-text","492","1600048","0.0-6.0-3.69","2921344","co39370","norming","","","{""guess"":""kindje""}","","../img/tt/378tt.jpg","",""
"null","../img/gs/378gs.jpg","null","reveal","image-keyboard-response","493","1602052","0.0-6.0-4.69","2921344","co39370","norming","","","","","","",""
"null","../img/tt/378tt.jpg","null","mooney2","image-keyboard-response","494","1604057","0.0-6.0-5.69","2921344","co39370","norming","","","","","","",""
"2532.1899999980815","","","post_reveal_questions","survey-likert","495","1606592","0.0-6.0-6.69","2921344","co39370","norming","","","{""aha"":4}","[0]","../img/tt/378tt.jpg","",""
"null","<div style=""font-size:60px;""> </div>","null","fixation","html-keyboard-response","496","1606803","0.0-6.0-0.70","2921344","co39370","norming","","","","","","",""
"null","../img/tt/1181tt.jpg","null","mooney1","image-keyboard-response","497","1609812","0.0-6.0-1.70","2921344","co39370","norming","","","","","","",""
"3112.7799999993294","","","post_mooney1_questions","survey-likert","498","1612928","0.0-6.0-2.70","2921344","co39370","norming","","","{""curiosity"":4,""confidence"":2}","[0,1]","../img/tt/1181tt.jpg","",""
"3318.074999999255","","","recognition","survey-text","499","1616248","0.0-6.0-3.70","2921344","co39370","norming","","","{""guess"":""boyband""}","","../img/tt/1181tt.jpg","",""
"null","../img/gs/1181gs.jpg","null","reveal","image-keyboard-response","500","1618250","0.0-6.0-4.70","2921344","co39370","norming","","","","","","",""
"null","../img/tt/1181tt.jpg","null","mooney2","image-keyboard-response","501","1620252","0.0-6.0-5.70","2921344","co39370","norming","","","","","","",""
"2545.3999999989755","","","post_reveal_questions","survey-likert","502","1622800","0.0-6.0-6.70","2921344","co39370","norming","","","{""aha"":4}","[0]","../img/tt/1181tt.jpg","",""
"null","<div style=""font-size:60px;""> </div>","null","fixation","html-keyboard-response","503","1623012","0.0-6.0-0.71","2921344","co39370","norming","","","","","","",""
"null","../img/tt/111tt.jpg","null","mooney1","image-keyboard-response","504","1626022","0.0-6.0-1.71","2921344","co39370","norming","","","","","","",""
"2774.7350000026636","","","post_mooney1_questions","survey-likert","505","1628800","0.0-6.0-2.71","2921344","co39370","norming","","","{""curiosity"":4,""confidence"":2}","[0,1]","../img/tt/111tt.jpg","",""
"5414.079999998445","","","recognition","survey-text","506","1634216","0.0-6.0-3.71","2921344","co39370","norming","","","{""guess"":""ouderwetse telefoon""}","","../img/tt/111tt.jpg","",""
"null","../img/gs/111gs.jpg","null","reveal","image-keyboard-response","507","1636218","0.0-6.0-4.71","2921344","co39370","norming","","","","","","",""
"null","../img/tt/111tt.jpg","null","mooney2","image-keyboard-response","508","1638221","0.0-6.0-5.71","2921344","co39370","norming","","","","","","",""
"2391.9700000004377","","","post_reveal_questions","survey-likert","509","1640616","0.0-6.0-6.71","2921344","co39370","norming","","","{""aha"":4}","[0]","../img/tt/111tt.jpg","",""
"null","<div style=""font-size:60px;""> </div>","null","fixation","html-keyboard-response","510","1640818","0.0-6.0-0.72","2921344","co39370","norming","","","","","","",""
"null","../img/tt/438tt.jpg","null","mooney1","image-keyboard-response","511","1643825","0.0-6.0-1.72","2921344","co39370","norming","","","","","","",""
"2794.1549999995623","","","post_mooney1_questions","survey-likert","512","1646621","0.0-6.0-2.72","2921344","co39370","norming","","","{""curiosity"":5,""confidence"":3}","[0,1]","../img/tt/438tt.jpg","",""
"2590.1999999987893","","","recognition","survey-text","513","1649213","0.0-6.0-3.72","2921344","co39370","norming","","","{""guess"":""slangenkop""}","","../img/tt/438tt.jpg","",""
"null","../img/gs/438gs.jpg","null","reveal","image-keyboard-response","514","1651221","0.0-6.0-4.72","2921344","co39370","norming","","","","","","",""
"null","../img/tt/438tt.jpg","null","mooney2","image-keyboard-response","515","1653226","0.0-6.0-5.72","2921344","co39370","norming","","","","","","",""
"2457.2450000015087","","","post_reveal_questions","survey-likert","516","1655685","0.0-6.0-6.72","2921344","co39370","norming","","","{""aha"":4}","[0]","../img/tt/438tt.jpg","",""
"null","<div style=""font-size:60px;""> </div>","null","fixation","html-keyboard-response","517","1655893","0.0-6.0-0.73","2921344","co39370","norming","","","","","","",""
"null","../img/tt/1046tt.jpg","null","mooney1","image-keyboard-response","518","1658903","0.0-6.0-1.73","2921344","co39370","norming","","","","","","",""
"3099.1849999991246","","","post_mooney1_questions","survey-likert","519","1662005","0.0-6.0-2.73","2921344","co39370","norming","","","{""curiosity"":5,""confidence"":3}","[0,1]","../img/tt/1046tt.jpg","",""
"6685.9199999999255","","","recognition","survey-text","520","1668693","0.0-6.0-3.73","2921344","co39370","norming","","","{""guess"":""dierentuin""}","","../img/tt/1046tt.jpg","",""
"null","../img/gs/1046gs.jpg","null","reveal","image-keyboard-response","521","1670702","0.0-6.0-4.73","2921344","co39370","norming","","","","","","",""
"null","../img/tt/1046tt.jpg","null","mooney2","image-keyboard-response","522","1672713","0.0-6.0-5.73","2921344","co39370","norming","","","","","","",""
"1792.630000000121","","","post_reveal_questions","survey-likert","523","1674509","0.0-6.0-6.73","2921344","co39370","norming","","","{""aha"":4}","[0]","../img/tt/1046tt.jpg","",""
"null","<div style=""font-size:60px;""> </div>","null","fixation","html-keyboard-response","524","1674717","0.0-6.0-0.74","2921344","co39370","norming","","","","","","",""
"null","../img/tt/406tt.jpg","null","mooney1","image-keyboard-response","525","1677728","0.0-6.0-1.74","2921344","co39370","norming","","","","","","",""
"3257.4700000006706","","","post_mooney1_questions","survey-likert","526","1680989","0.0-6.0-2.74","2921344","co39370","norming","","","{""curiosity"":5,""confidence"":2}","[0,1]","../img/tt/406tt.jpg","",""
"7373.93499999959","","","recognition","survey-text","527","1688365","0.0-6.0-3.74","2921344","co39370","norming","","","{""guess"":""uitgesneden pompoen""}","","../img/tt/406tt.jpg","",""
"null","../img/gs/406gs.jpg","null","reveal","image-keyboard-response","528","1690366","0.0-6.0-4.74","2921344","co39370","norming","","","","","","",""
"null","../img/tt/406tt.jpg","null","mooney2","image-keyboard-response","529","1692374","0.0-6.0-5.74","2921344","co39370","norming","","","","","","",""
"2083.9500000001863","","","post_reveal_questions","survey-likert","530","1694461","0.0-6.0-6.74","2921344","co39370","norming","","","{""aha"":4}","[0]","../img/tt/406tt.jpg","",""
"null","<div style=""font-size:60px;""> </div>","null","fixation","html-keyboard-response","531","1694663","0.0-6.0-0.75","2921344","co39370","norming","","","","","","",""
"null","../img/tt/549tt.jpg","null","mooney1","image-keyboard-response","532","1697667","0.0-6.0-1.75","2921344","co39370","norming","","","","","","",""
"5037.939999998314","","","post_mooney1_questions","survey-likert","533","1702709","0.0-6.0-2.75","2921344","co39370","norming","","","{""curiosity"":4,""confidence"":0}","[0,1]","../img/tt/549tt.jpg","",""
"8350.020000001648","","","recognition","survey-text","534","1711063","0.0-6.0-3.75","2921344","co39370","norming","","","{""guess"":""poot vogel""}","","../img/tt/549tt.jpg","",""
"null","../img/gs/549gs.jpg","null","reveal","image-keyboard-response","535","1713067","0.0-6.0-4.75","2921344","co39370","norming","","","","","","",""
"null","../img/tt/549tt.jpg","null","mooney2","image-keyboard-response","536","1715070","0.0-6.0-5.75","2921344","co39370","norming","","","","","","",""
"2487.9849999998696","","","post_reveal_questions","survey-likert","537","1717560","0.0-6.0-6.75","2921344","co39370","norming","","","{""aha"":4}","[0]","../img/tt/549tt.jpg","",""
"null","<div style=""font-size:60px;""> </div>","null","fixation","html-keyboard-response","538","1717761","0.0-6.0-0.76","2921344","co39370","norming","","","","","","",""
"null","../img/tt/442tt.jpg","null","mooney1","image-keyboard-response","539","1720768","0.0-6.0-1.76","2921344","co39370","norming","","","","","","",""
"2628.1150000032503","","","post_mooney1_questions","survey-likert","540","1723399","0.0-6.0-2.76","2921344","co39370","norming","","","{""curiosity"":5,""confidence"":2}","[0,1]","../img/tt/442tt.jpg","",""
"1798.1499999987427","","","recognition","survey-text","541","1725199","0.0-6.0-3.76","2921344","co39370","norming","","","{""guess"":""vis""}","","../img/tt/442tt.jpg","",""
"null","../img/gs/442gs.jpg","null","reveal","image-keyboard-response","542","1727204","0.0-6.0-4.76","2921344","co39370","norming","","","","","","",""
"null","../img/tt/442tt.jpg","null","mooney2","image-keyboard-response","543","1729210","0.0-6.0-5.76","2921344","co39370","norming","","","","","","",""
"3012.4949999989476","","","post_reveal_questions","survey-likert","544","1732223","0.0-6.0-6.76","2921344","co39370","norming","","","{""aha"":4}","[0]","../img/tt/442tt.jpg","",""
"null","<div style=""font-size:60px;""> </div>","null","fixation","html-keyboard-response","545","1732434","0.0-6.0-0.77","2921344","co39370","norming","","","","","","",""
"null","../img/tt/184tt.jpg","null","mooney1","image-keyboard-response","546","1735438","0.0-6.0-1.77","2921344","co39370","norming","","","","","","",""
"3885.4050000009593","","","post_mooney1_questions","survey-likert","547","1739328","0.0-6.0-2.77","2921344","co39370","norming","","","{""curiosity"":4,""confidence"":2}","[0,1]","../img/tt/184tt.jpg","",""
"2045.97999999905","","","recognition","survey-text","548","1741375","0.0-6.0-3.77","2921344","co39370","norming","","","{""guess"":""muis""}","","../img/tt/184tt.jpg","",""
"null","../img/gs/184gs.jpg","null","reveal","image-keyboard-response","549","1743378","0.0-6.0-4.77","2921344","co39370","norming","","","","","","",""
"null","../img/tt/184tt.jpg","null","mooney2","image-keyboard-response","550","1745389","0.0-6.0-5.77","2921344","co39370","norming","","","","","","",""
