"rt","stimulus","key_press","test_part","trial_type","trial_index","time_elapsed","internal_node_id","totalTime","subject","experiment_name","button_pressed","success","responses","question_order","currentStim","old","correct"
"15228.280000000013","Welcome to the experiment. This is an online experiment so please don't close the tab/window until we say goodbye.  Press any key to begin.","13","instructions","html-keyboard-response","0","15230","0.0-0.0","2856336","co39331","norming","","","","","","",""
"5301.919999999996","<div style='word-wrap: break-word; width: 900px'><h3>Please consider this information carefully before deciding whether to participate in this research</h3><ul style='text-align: left; font-size: .8em;'><li><b>Purpose of the research</b>: To examine how people process images.</li><li><b>What you will do in this research</b>:  Stimuli (images) will be presented on the computer and you will be asked different questions about them.</li><li><b>Time required</b>: Participation will take between 45 and 60 minutes to complete.</li><li><b>Risks</b>:  There are no anticipated risks associated with participating in this study. The effects of participating should be comparable to those you would experience from viewing a computer monitor for 30 minutes and using a mouse or keyboard.</li><li><b>Benefits</b>:  This study provides no benefits to you individually except for the credit. The study provides important information about the nature of perception and learning.</li><li><b>Confidentiality</b>:  Your participation in this study will remain confidential. No personally identifiable information will be associated with your data. Your de-identified data may be shared with other researchers and used in future projects.</li><li><b>Participation and withdrawal</b>:  Your participation in this study is completely voluntary and you may refuse to participate or you may choose to withdraw at any time without penalty.</li><li><b>How to contact the researchers</b>: If you have questions or concerns about your participation or payment, or want to request a summary of research findings, please contact Sander Van de Cruys (KU Leuven), at sander.vandecruys@kuleuven.be.</li></ul><p>The nature and purpose of this research have been sufficiently explained and I agree to participate in this study.  I understand that I am free to withdraw at any time without incurring any penalty.</p><p>Please consent by clicking the button below to continue. Otherwise, please exit the study at this time.</p></div>","","instructions","html-button-response","1","20533","0.0-1.0","2856336","co39331","norming","0","","","","","",""
"","","","instructions","fullscreen","2","25774","0.0-2.0","2856336","co39331","norming","","true","","","","",""
"31445.73500000001","","","sona","survey-html-form","3","57221","0.0-3.0","2856336","co39331","norming","","","[{""name"":""sonaid"",""value"":""39331""},{""name"":""debrief"",""value"":""yes""},{""name"":""datajoin"",""value"":""yes""}]","","","",""
"34646.64500000004","<div style='word-wrap: break-word; width: 900px'><h3>Instructions</h3><p>This experiment will have 3 parts. In the first part you will see a series of distorted images like the one below on the left. As you can see in the righthand image, the distorted images are derived from actual photographs. In what follows, you will <strong>briefly</strong> be presented with <strong>only</strong> the distorted image.</p> <div style='float: left; margin-right: 20px;'><img src='../img/018tt.jpg' height='250' width='250'></img></div><div style='float: right; margin-left: 20px;'><img src='../img/018gs.jpg' height='250' width='250'></img></div><p>Subsequently you will be asked a few questions about the image: One question on how <strong>curious</strong> you are about the solution and one on how <strong>confident</strong> you are that you know the solution.</p>Next, we ask you to make a guess on what is in the image. Note that it is OK to name just the <strong>basic level category</strong>. For example when you see a parrot in the image, 'parrot' will obviously be a correct answer but also correct is 'bird'. However, 'animal' will <strong>not</strong> be counted as a correct response. For the example above, 'rose' would be correct or 'flower', but not 'plant'. When soccer players are depicted, 'soccer', 'football', 'soccer players' will be correct, but not 'humans', 'outdoors', or 'sports'. You do not need to describe the image in full, just name the main object in it <strong>in one or two words</strong>. All images depict objects from one of the following broad level categories: animals, inanimate objects, plants, sports, vehicles, and food. Recognizing means knowing <strong>more</strong> than these broad labels for a given image. But we always encourage you to <strong>make a guess</strong> if you can. Note that you are allowed to use <strong>Dutch and English</strong> in your answers, whatever comes easiest for you.</p><p>Press any key to continue.</p></div>","32","instructions","html-keyboard-response","4","91868","0.0-4.0","2856336","co39331","norming","","","","","","",""
"54366.95999999996","<div style='word-wrap: break-word; width: 900px'><h3>Instructions</h3> <p>Next, the solution image will be revealed to you and you'll be asked to indicate how strong your <strong>aha-experience</strong> was after seeing the solution. This describes the positive feeling of the 'click' you sometimes experience, when the pieces of the 'puzzle' fall together and you suddenly have 'insight' in the image.</p><img src='aha.jpg' height='188' width='250'></img><p>Note that there are no right or wrong answers. We are interested in what <strong>you</strong> see in the image and how <strong>you</strong> feel about it.</p><p>Press any key to start the experiment.</p></div>","190","instructions","html-keyboard-response","5","146236","0.0-5.0","2856336","co39331","norming","","","","","","",""
"null","<div style=""font-size:60px;""> </div>","null","fixation","html-keyboard-response","6","146444","0.0-6.0-0.0","2856336","co39331","norming","","","","","","",""
"null","../img/tt/1125tt.jpg","null","mooney1","image-keyboard-response","7","149449","0.0-6.0-1.0","2856336","co39331","norming","","","","","","",""
"8114.6600000000035","","","post_mooney1_questions","survey-likert","8","157590","0.0-6.0-2.0","2856336","co39331","norming","","","{""curiosity"":5,""confidence"":4}","[0,1]","../img/tt/1125tt.jpg","",""
"11197.530000000028","","","recognition","survey-text","9","168789","0.0-6.0-3.0","2856336","co39331","norming","","","{""guess"":""wood""}","","../img/tt/1125tt.jpg","",""
"null","../img/gs/1125gs.jpg","null","reveal","image-keyboard-response","10","170792","0.0-6.0-4.0","2856336","co39331","norming","","","","","","",""
"null","../img/tt/1125tt.jpg","null","mooney2","image-keyboard-response","11","172797","0.0-6.0-5.0","2856336","co39331","norming","","","","","","",""
"5935.1750000000175","","","post_reveal_questions","survey-likert","12","178733","0.0-6.0-6.0","2856336","co39331","norming","","","{""aha"":4}","[0]","../img/tt/1125tt.jpg","",""
"null","<div style=""font-size:60px;""> </div>","null","fixation","html-keyboard-response","13","178935","0.0-6.0-0.1","2856336","co39331","norming","","","","","","",""
"null","../img/tt/1224tt.jpg","null","mooney1","image-keyboard-response","14","181936","0.0-6.0-1.1","2856336","co39331","norming","","","","","","",""
"8163.329999999958","","","post_mooney1_questions","survey-likert","15","190102","0.0-6.0-2.1","2856336","co39331","norming","","","{""curiosity"":5,""confidence"":3}","[0,1]","../img/tt/1224tt.jpg","",""
"17070.004999999976","","","recognition","survey-text","16","207174","0.0-6.0-3.1","2856336","co39331","norming","","","{""guess"":""setting person""}","","../img/tt/1224tt.jpg","",""
"null","../img/gs/1224gs.jpg","null","reveal","image-keyboard-response","17","209178","0.0-6.0-4.1","2856336","co39331","norming","","","","","","",""
"null","../img/tt/1224tt.jpg","null","mooney2","image-keyboard-response","18","211179","0.0-6.0-5.1","2856336","co39331","norming","","","","","","",""
"2680.600000000035","","","post_reveal_questions","survey-likert","19","213910","0.0-6.0-6.1","2856336","co39331","norming","","","{""aha"":5}","[0]","../img/tt/1224tt.jpg","",""
"null","<div style=""font-size:60px;""> </div>","null","fixation","html-keyboard-response","20","214115","0.0-6.0-0.2","2856336","co39331","norming","","","","","","",""
"null","../img/tt/435tt.jpg","null","mooney1","image-keyboard-response","21","217127","0.0-6.0-1.2","2856336","co39331","norming","","","","","","",""
"5268.160000000033","","","post_mooney1_questions","survey-likert","22","222398","0.0-6.0-2.2","2856336","co39331","norming","","","{""curiosity"":5,""confidence"":2}","[0,1]","../img/tt/435tt.jpg","",""
"2133.7850000000035","","","recognition","survey-text","23","224534","0.0-6.0-3.2","2856336","co39331","norming","","","{""guess"":""box""}","","../img/tt/435tt.jpg","",""
"null","../img/gs/435gs.jpg","null","reveal","image-keyboard-response","24","226540","0.0-6.0-4.2","2856336","co39331","norming","","","","","","",""
"null","../img/tt/435tt.jpg","null","mooney2","image-keyboard-response","25","228544","0.0-6.0-5.2","2856336","co39331","norming","","","","","","",""
"4428.9250000000175","","","post_reveal_questions","survey-likert","26","232974","0.0-6.0-6.2","2856336","co39331","norming","","","{""aha"":5}","[0]","../img/tt/435tt.jpg","",""
"null","<div style=""font-size:60px;""> </div>","null","fixation","html-keyboard-response","27","233176","0.0-6.0-0.3","2856336","co39331","norming","","","","","","",""
"null","../img/tt/1232tt.jpg","null","mooney1","image-keyboard-response","28","236178","0.0-6.0-1.3","2856336","co39331","norming","","","","","","",""
"5491.179999999993","","","post_mooney1_questions","survey-likert","29","241670","0.0-6.0-2.3","2856336","co39331","norming","","","{""curiosity"":4,""confidence"":3}","[0,1]","../img/tt/1232tt.jpg","",""
"2126.1399999999558","","","recognition","survey-text","30","243798","0.0-6.0-3.3","2856336","co39331","norming","","","{""guess"":""bird""}","","../img/tt/1232tt.jpg","",""
"null","../img/gs/1232gs.jpg","null","reveal","image-keyboard-response","31","245799","0.0-6.0-4.3","2856336","co39331","norming","","","","","","",""
"null","../img/tt/1232tt.jpg","null","mooney2","image-keyboard-response","32","247810","0.0-6.0-5.3","2856336","co39331","norming","","","","","","",""
"3337.654999999999","","","post_reveal_questions","survey-likert","33","251150","0.0-6.0-6.3","2856336","co39331","norming","","","{""aha"":2}","[0]","../img/tt/1232tt.jpg","",""
"null","<div style=""font-size:60px;""> </div>","null","fixation","html-keyboard-response","34","251354","0.0-6.0-0.4","2856336","co39331","norming","","","","","","",""
"null","../img/tt/1122tt.jpg","null","mooney1","image-keyboard-response","35","254359","0.0-6.0-1.4","2856336","co39331","norming","","","","","","",""
"7613.719999999972","","","post_mooney1_questions","survey-likert","36","261974","0.0-6.0-2.4","2856336","co39331","norming","","","{""curiosity"":5,""confidence"":1}","[0,1]","../img/tt/1122tt.jpg","",""
"7573.8300000000745","","","recognition","survey-text","37","269549","0.0-6.0-3.4","2856336","co39331","norming","","","{""guess"":""street""}","","../img/tt/1122tt.jpg","",""
"null","../img/gs/1122gs.jpg","null","reveal","image-keyboard-response","38","271560","0.0-6.0-4.4","2856336","co39331","norming","","","","","","",""
"null","../img/tt/1122tt.jpg","null","mooney2","image-keyboard-response","39","273639","0.0-6.0-5.4","2856336","co39331","norming","","","","","","",""
"4129.094999999972","","","post_reveal_questions","survey-likert","40","277769","0.0-6.0-6.4","2856336","co39331","norming","","","{""aha"":4}","[0]","../img/tt/1122tt.jpg","",""
"null","<div style=""font-size:60px;""> </div>","null","fixation","html-keyboard-response","41","277973","0.0-6.0-0.5","2856336","co39331","norming","","","","","","",""
"null","../img/tt/436tt.jpg","null","mooney1","image-keyboard-response","42","280983","0.0-6.0-1.5","2856336","co39331","norming","","","","","","",""
"8015.484999999928","","","post_mooney1_questions","survey-likert","43","289001","0.0-6.0-2.5","2856336","co39331","norming","","","{""curiosity"":5,""confidence"":0}","[0,1]","../img/tt/436tt.jpg","",""
"2950.0999999999767","","","recognition","survey-text","44","291953","0.0-6.0-3.5","2856336","co39331","norming","","","{""guess"":""?""}","","../img/tt/436tt.jpg","",""
"null","../img/gs/436gs.jpg","null","reveal","image-keyboard-response","45","293958","0.0-6.0-4.5","2856336","co39331","norming","","","","","","",""
"null","../img/tt/436tt.jpg","null","mooney2","image-keyboard-response","46","295961","0.0-6.0-5.5","2856336","co39331","norming","","","","","","",""
"2493.445000000065","","","post_reveal_questions","survey-likert","47","298457","0.0-6.0-6.5","2856336","co39331","norming","","","{""aha"":5}","[0]","../img/tt/436tt.jpg","",""
"null","<div style=""font-size:60px;""> </div>","null","fixation","html-keyboard-response","48","298666","0.0-6.0-0.6","2856336","co39331","norming","","","","","","",""
"null","../img/tt/1236tt.jpg","null","mooney1","image-keyboard-response","49","301674","0.0-6.0-1.6","2856336","co39331","norming","","","","","","",""
"9492.355000000098","","","post_mooney1_questions","survey-likert","50","311169","0.0-6.0-2.6","2856336","co39331","norming","","","{""curiosity"":5,""confidence"":1}","[0,1]","../img/tt/1236tt.jpg","",""
"2981.795000000042","","","recognition","survey-text","51","314152","0.0-6.0-3.6","2856336","co39331","norming","","","{""guess"":""pool""}","","../img/tt/1236tt.jpg","",""
"null","../img/gs/1236gs.jpg","null","reveal","image-keyboard-response","52","316158","0.0-6.0-4.6","2856336","co39331","norming","","","","","","",""
"null","../img/tt/1236tt.jpg","null","mooney2","image-keyboard-response","53","318160","0.0-6.0-5.6","2856336","co39331","norming","","","","","","",""
"2270.9500000000116","","","post_reveal_questions","survey-likert","54","320433","0.0-6.0-6.6","2856336","co39331","norming","","","{""aha"":5}","[0]","../img/tt/1236tt.jpg","",""
"null","<div style=""font-size:60px;""> </div>","null","fixation","html-keyboard-response","55","320634","0.0-6.0-0.7","2856336","co39331","norming","","","","","","",""
"null","../img/tt/1262tt.jpg","null","mooney1","image-keyboard-response","56","323646","0.0-6.0-1.7","2856336","co39331","norming","","","","","","",""
"7432.289999999921","","","post_mooney1_questions","survey-likert","57","331081","0.0-6.0-2.7","2856336","co39331","norming","","","{""curiosity"":5,""confidence"":1}","[0,1]","../img/tt/1262tt.jpg","",""
"4118.1699999999255","","","recognition","survey-text","58","335251","0.0-6.0-3.7","2856336","co39331","norming","","","{""guess"":""one animal""}","","../img/tt/1262tt.jpg","",""
"null","../img/gs/1262gs.jpg","null","reveal","image-keyboard-response","59","337256","0.0-6.0-4.7","2856336","co39331","norming","","","","","","",""
"null","../img/tt/1262tt.jpg","null","mooney2","image-keyboard-response","60","339266","0.0-6.0-5.7","2856336","co39331","norming","","","","","","",""
"6382.645000000019","","","post_reveal_questions","survey-likert","61","345651","0.0-6.0-6.7","2856336","co39331","norming","","","{""aha"":3}","[0]","../img/tt/1262tt.jpg","",""
"null","<div style=""font-size:60px;""> </div>","null","fixation","html-keyboard-response","62","345855","0.0-6.0-0.8","2856336","co39331","norming","","","","","","",""
"null","../img/tt/1128tt.jpg","null","mooney1","image-keyboard-response","63","348862","0.0-6.0-1.8","2856336","co39331","norming","","","","","","",""
"4787.410000000033","","","post_mooney1_questions","survey-likert","64","353651","0.0-6.0-2.8","2856336","co39331","norming","","","{""curiosity"":5,""confidence"":2}","[0,1]","../img/tt/1128tt.jpg","",""
"2430.04999999993","","","recognition","survey-text","65","356083","0.0-6.0-3.8","2856336","co39331","norming","","","{""guess"":""panda""}","","../img/tt/1128tt.jpg","",""
"null","../img/gs/1128gs.jpg","null","reveal","image-keyboard-response","66","358085","0.0-6.0-4.8","2856336","co39331","norming","","","","","","",""
"null","../img/tt/1128tt.jpg","null","mooney2","image-keyboard-response","67","360088","0.0-6.0-5.8","2856336","co39331","norming","","","","","","",""
"3064.664999999979","","","post_reveal_questions","survey-likert","68","363155","0.0-6.0-6.8","2856336","co39331","norming","","","{""aha"":5}","[0]","../img/tt/1128tt.jpg","",""
"null","<div style=""font-size:60px;""> </div>","null","fixation","html-keyboard-response","69","363366","0.0-6.0-0.9","2856336","co39331","norming","","","","","","",""
"null","../img/tt/318tt.jpg","null","mooney1","image-keyboard-response","70","366368","0.0-6.0-1.9","2856336","co39331","norming","","","","","","",""
"7072.145000000019","","","post_mooney1_questions","survey-likert","71","373443","0.0-6.0-2.9","2856336","co39331","norming","","","{""curiosity"":5,""confidence"":0}","[0,1]","../img/tt/318tt.jpg","",""
"2030.1300000000047","","","recognition","survey-text","72","375475","0.0-6.0-3.9","2856336","co39331","norming","","","{""guess"":""auto""}","","../img/tt/318tt.jpg","",""
"null","../img/gs/318gs.jpg","null","reveal","image-keyboard-response","73","377477","0.0-6.0-4.9","2856336","co39331","norming","","","","","","",""
"null","../img/tt/318tt.jpg","null","mooney2","image-keyboard-response","74","379478","0.0-6.0-5.9","2856336","co39331","norming","","","","","","",""
"1842.390000000014","","","post_reveal_questions","survey-likert","75","381323","0.0-6.0-6.9","2856336","co39331","norming","","","{""aha"":4}","[0]","../img/tt/318tt.jpg","",""
"null","<div style=""font-size:60px;""> </div>","null","fixation","html-keyboard-response","76","381524","0.0-6.0-0.10","2856336","co39331","norming","","","","","","",""
"null","../img/tt/1366tt.jpg","null","mooney1","image-keyboard-response","77","384531","0.0-6.0-1.10","2856336","co39331","norming","","","","","","",""
"5647.585000000021","","","post_mooney1_questions","survey-likert","78","390179","0.0-6.0-2.10","2856336","co39331","norming","","","{""curiosity"":4,""confidence"":2}","[0,1]","../img/tt/1366tt.jpg","",""
"4445.215000000084","","","recognition","survey-text","79","394681","0.0-6.0-3.10","2856336","co39331","norming","","","{""guess"":""some flowers""}","","../img/tt/1366tt.jpg","",""
"null","../img/gs/1366gs.jpg","null","reveal","image-keyboard-response","80","396687","0.0-6.0-4.10","2856336","co39331","norming","","","","","","",""
"null","../img/tt/1366tt.jpg","null","mooney2","image-keyboard-response","81","398694","0.0-6.0-5.10","2856336","co39331","norming","","","","","","",""
"3170.054999999935","","","post_reveal_questions","survey-likert","82","401865","0.0-6.0-6.10","2856336","co39331","norming","","","{""aha"":3}","[0]","../img/tt/1366tt.jpg","",""
"null","<div style=""font-size:60px;""> </div>","null","fixation","html-keyboard-response","83","402071","0.0-6.0-0.11","2856336","co39331","norming","","","","","","",""
"null","../img/tt/380tt.jpg","null","mooney1","image-keyboard-response","84","405083","0.0-6.0-1.11","2856336","co39331","norming","","","","","","",""
"3947.874999999942","","","post_mooney1_questions","survey-likert","85","409034","0.0-6.0-2.11","2856336","co39331","norming","","","{""curiosity"":5,""confidence"":3}","[0,1]","../img/tt/380tt.jpg","",""
"2174.3700000000536","","","recognition","survey-text","86","411210","0.0-6.0-3.11","2856336","co39331","norming","","","{""guess"":""?""}","","../img/tt/380tt.jpg","",""
"null","../img/gs/380gs.jpg","null","reveal","image-keyboard-response","87","413211","0.0-6.0-4.11","2856336","co39331","norming","","","","","","",""
"null","../img/tt/380tt.jpg","null","mooney2","image-keyboard-response","88","415218","0.0-6.0-5.11","2856336","co39331","norming","","","","","","",""
"1988.9099999999162","","","post_reveal_questions","survey-likert","89","417209","0.0-6.0-6.11","2856336","co39331","norming","","","{""aha"":2}","[0]","../img/tt/380tt.jpg","",""
"null","<div style=""font-size:60px;""> </div>","null","fixation","html-keyboard-response","90","417413","0.0-6.0-0.12","2856336","co39331","norming","","","","","","",""
"null","../img/tt/1053tt.jpg","null","mooney1","image-keyboard-response","91","420424","0.0-6.0-1.12","2856336","co39331","norming","","","","","","",""
"5872.340000000026","","","post_mooney1_questions","survey-likert","92","426297","0.0-6.0-2.12","2856336","co39331","norming","","","{""curiosity"":5,""confidence"":1}","[0,1]","../img/tt/1053tt.jpg","",""
"2094.164999999979","","","recognition","survey-text","93","428393","0.0-6.0-3.12","2856336","co39331","norming","","","{""guess"":""?""}","","../img/tt/1053tt.jpg","",""
"null","../img/gs/1053gs.jpg","null","reveal","image-keyboard-response","94","430395","0.0-6.0-4.12","2856336","co39331","norming","","","","","","",""
"null","../img/tt/1053tt.jpg","null","mooney2","image-keyboard-response","95","432405","0.0-6.0-5.12","2856336","co39331","norming","","","","","","",""
"2018.0350000000908","","","post_reveal_questions","survey-likert","96","434425","0.0-6.0-6.12","2856336","co39331","norming","","","{""aha"":3}","[0]","../img/tt/1053tt.jpg","",""
"null","<div style=""font-size:60px;""> </div>","null","fixation","html-keyboard-response","97","434630","0.0-6.0-0.13","2856336","co39331","norming","","","","","","",""
"null","../img/tt/296tt.jpg","null","mooney1","image-keyboard-response","98","437633","0.0-6.0-1.13","2856336","co39331","norming","","","","","","",""
"4541.60500000004","","","post_mooney1_questions","survey-likert","99","442178","0.0-6.0-2.13","2856336","co39331","norming","","","{""curiosity"":5,""confidence"":3}","[0,1]","../img/tt/296tt.jpg","",""
"4453.824999999953","","","recognition","survey-text","100","446633","0.0-6.0-3.13","2856336","co39331","norming","","","{""guess"":""kapsalon""}","","../img/tt/296tt.jpg","",""
"null","../img/gs/296gs.jpg","null","reveal","image-keyboard-response","101","448634","0.0-6.0-4.13","2856336","co39331","norming","","","","","","",""
"null","../img/tt/296tt.jpg","null","mooney2","image-keyboard-response","102","450642","0.0-6.0-5.13","2856336","co39331","norming","","","","","","",""
"2829.015000000014","","","post_reveal_questions","survey-likert","103","453473","0.0-6.0-6.13","2856336","co39331","norming","","","{""aha"":5}","[0]","../img/tt/296tt.jpg","",""
"null","<div style=""font-size:60px;""> </div>","null","fixation","html-keyboard-response","104","453682","0.0-6.0-0.14","2856336","co39331","norming","","","","","","",""
"null","../img/tt/1116tt.jpg","null","mooney1","image-keyboard-response","105","456722","0.0-6.0-1.14","2856336","co39331","norming","","","","","","",""
"5075.869999999995","","","post_mooney1_questions","survey-likert","106","461800","0.0-6.0-2.14","2856336","co39331","norming","","","{""curiosity"":4,""confidence"":3}","[0,1]","../img/tt/1116tt.jpg","",""
"2638.3800000000047","","","recognition","survey-text","107","464440","0.0-6.0-3.14","2856336","co39331","norming","","","{""guess"":""boats""}","","../img/tt/1116tt.jpg","",""
"null","../img/gs/1116gs.jpg","null","reveal","image-keyboard-response","108","466444","0.0-6.0-4.14","2856336","co39331","norming","","","","","","",""
"null","../img/tt/1116tt.jpg","null","mooney2","image-keyboard-response","109","468454","0.0-6.0-5.14","2856336","co39331","norming","","","","","","",""
"3943.7550000000047","","","post_reveal_questions","survey-likert","110","472400","0.0-6.0-6.14","2856336","co39331","norming","","","{""aha"":4}","[0]","../img/tt/1116tt.jpg","",""
"null","<div style=""font-size:60px;""> </div>","null","fixation","html-keyboard-response","111","472608","0.0-6.0-0.15","2856336","co39331","norming","","","","","","",""
"null","../img/tt/1084tt.jpg","null","mooney1","image-keyboard-response","112","475611","0.0-6.0-1.15","2856336","co39331","norming","","","","","","",""
"6826.734999999986","","","post_mooney1_questions","survey-likert","113","482440","0.0-6.0-2.15","2856336","co39331","norming","","","{""curiosity"":5,""confidence"":2}","[0,1]","../img/tt/1084tt.jpg","",""
"3454.0100000000093","","","recognition","survey-text","114","485896","0.0-6.0-3.15","2856336","co39331","norming","","","{""guess"":""cats cake""}","","../img/tt/1084tt.jpg","",""
"null","../img/gs/1084gs.jpg","null","reveal","image-keyboard-response","115","487900","0.0-6.0-4.15","2856336","co39331","norming","","","","","","",""
"null","../img/tt/1084tt.jpg","null","mooney2","image-keyboard-response","116","489902","0.0-6.0-5.15","2856336","co39331","norming","","","","","","",""
"3137.4100000000326","","","post_reveal_questions","survey-likert","117","493040","0.0-6.0-6.15","2856336","co39331","norming","","","{""aha"":3}","[0]","../img/tt/1084tt.jpg","",""
"null","<div style=""font-size:60px;""> </div>","null","fixation","html-keyboard-response","118","493244","0.0-6.0-0.16","2856336","co39331","norming","","","","","","",""
"null","../img/tt/300tt.jpg","null","mooney1","image-keyboard-response","119","496257","0.0-6.0-1.16","2856336","co39331","norming","","","","","","",""
"4045","","","post_mooney1_questions","survey-likert","120","500304","0.0-6.0-2.16","2856336","co39331","norming","","","{""curiosity"":5,""confidence"":3}","[0,1]","../img/tt/300tt.jpg","",""
"2310.100000000035","","","recognition","survey-text","121","502616","0.0-6.0-3.16","2856336","co39331","norming","","","{""guess"":""women""}","","../img/tt/300tt.jpg","",""
"null","../img/gs/300gs.jpg","null","reveal","image-keyboard-response","122","504617","0.0-6.0-4.16","2856336","co39331","norming","","","","","","",""
"null","../img/tt/300tt.jpg","null","mooney2","image-keyboard-response","123","506626","0.0-6.0-5.16","2856336","co39331","norming","","","","","","",""
"3043.3550000000396","","","post_reveal_questions","survey-likert","124","509672","0.0-6.0-6.16","2856336","co39331","norming","","","{""aha"":4}","[0]","../img/tt/300tt.jpg","",""
"null","<div style=""font-size:60px;""> </div>","null","fixation","html-keyboard-response","125","509875","0.0-6.0-0.17","2856336","co39331","norming","","","","","","",""
"null","../img/tt/1251tt.jpg","null","mooney1","image-keyboard-response","126","512879","0.0-6.0-1.17","2856336","co39331","norming","","","","","","",""
"4800.735000000044","","","post_mooney1_questions","survey-likert","127","517680","0.0-6.0-2.17","2856336","co39331","norming","","","{""curiosity"":5,""confidence"":0}","[0,1]","../img/tt/1251tt.jpg","",""
"2214.0299999999697","","","recognition","survey-text","128","519896","0.0-6.0-3.17","2856336","co39331","norming","","","{""guess"":"".""}","","../img/tt/1251tt.jpg","",""
"null","../img/gs/1251gs.jpg","null","reveal","image-keyboard-response","129","521901","0.0-6.0-4.17","2856336","co39331","norming","","","","","","",""
"null","../img/tt/1251tt.jpg","null","mooney2","image-keyboard-response","130","523904","0.0-6.0-5.17","2856336","co39331","norming","","","","","","",""
"2390.000000000058","","","post_reveal_questions","survey-likert","131","526296","0.0-6.0-6.17","2856336","co39331","norming","","","{""aha"":3}","[0]","../img/tt/1251tt.jpg","",""
"null","<div style=""font-size:60px;""> </div>","null","fixation","html-keyboard-response","132","526501","0.0-6.0-0.18","2856336","co39331","norming","","","","","","",""
"null","../img/tt/105tt.jpg","null","mooney1","image-keyboard-response","133","529508","0.0-6.0-1.18","2856336","co39331","norming","","","","","","",""
"5041.699999999953","","","post_mooney1_questions","survey-likert","134","534552","0.0-6.0-2.18","2856336","co39331","norming","","","{""curiosity"":6,""confidence"":0}","[0,1]","../img/tt/105tt.jpg","",""
"1790.339999999851","","","recognition","survey-text","135","536344","0.0-6.0-3.18","2856336","co39331","norming","","","{""guess"":""?""}","","../img/tt/105tt.jpg","",""
"null","../img/gs/105gs.jpg","null","reveal","image-keyboard-response","136","538349","0.0-6.0-4.18","2856336","co39331","norming","","","","","","",""
"null","../img/tt/105tt.jpg","null","mooney2","image-keyboard-response","137","540356","0.0-6.0-5.18","2856336","co39331","norming","","","","","","",""
"3801.394999999902","","","post_reveal_questions","survey-likert","138","544160","0.0-6.0-6.18","2856336","co39331","norming","","","{""aha"":3}","[0]","../img/tt/105tt.jpg","",""
"null","<div style=""font-size:60px;""> </div>","null","fixation","html-keyboard-response","139","544365","0.0-6.0-0.19","2856336","co39331","norming","","","","","","",""
"null","../img/tt/194tt.jpg","null","mooney1","image-keyboard-response","140","547373","0.0-6.0-1.19","2856336","co39331","norming","","","","","","",""
"6175.525000000023","","","post_mooney1_questions","survey-likert","141","553552","0.0-6.0-2.19","2856336","co39331","norming","","","{""curiosity"":5,""confidence"":1}","[0,1]","../img/tt/194tt.jpg","",""
"5878.2949999999255","","","recognition","survey-text","142","559432","0.0-6.0-3.19","2856336","co39331","norming","","","{""guess"":""women banc""}","","../img/tt/194tt.jpg","",""
"null","../img/gs/194gs.jpg","null","reveal","image-keyboard-response","143","561433","0.0-6.0-4.19","2856336","co39331","norming","","","","","","",""
"null","../img/tt/194tt.jpg","null","mooney2","image-keyboard-response","144","563435","0.0-6.0-5.19","2856336","co39331","norming","","","","","","",""
"3610.0350000000326","","","post_reveal_questions","survey-likert","145","567048","0.0-6.0-6.19","2856336","co39331","norming","","","{""aha"":4}","[0]","../img/tt/194tt.jpg","",""
"null","<div style=""font-size:60px;""> </div>","null","fixation","html-keyboard-response","146","567257","0.0-6.0-0.20","2856336","co39331","norming","","","","","","",""
"null","../img/tt/1186tt.jpg","null","mooney1","image-keyboard-response","147","570262","0.0-6.0-1.20","2856336","co39331","norming","","","","","","",""
"6462.880000000005","","","post_mooney1_questions","survey-likert","148","576728","0.0-6.0-2.20","2856336","co39331","norming","","","{""curiosity"":5,""confidence"":2}","[0,1]","../img/tt/1186tt.jpg","",""
"4462","","","recognition","survey-text","149","581186","0.0-6.0-3.20","2856336","co39331","norming","","","{""guess"":""walking person""}","","../img/tt/1186tt.jpg","",""
"null","../img/gs/1186gs.jpg","null","reveal","image-keyboard-response","150","583190","0.0-6.0-4.20","2856336","co39331","norming","","","","","","",""
"null","../img/tt/1186tt.jpg","null","mooney2","image-keyboard-response","151","585194","0.0-6.0-5.20","2856336","co39331","norming","","","","","","",""
"3862.1750000000466","","","post_reveal_questions","survey-likert","152","589058","0.0-6.0-6.20","2856336","co39331","norming","","","{""aha"":5}","[0]","../img/tt/1186tt.jpg","",""
"null","<div style=""font-size:60px;""> </div>","null","fixation","html-keyboard-response","153","589259","0.0-6.0-0.21","2856336","co39331","norming","","","","","","",""
"null","../img/tt/1118tt.jpg","null","mooney1","image-keyboard-response","154","592268","0.0-6.0-1.21","2856336","co39331","norming","","","","","","",""
"3835.430000000051","","","post_mooney1_questions","survey-likert","155","596106","0.0-6.0-2.21","2856336","co39331","norming","","","{""curiosity"":5,""confidence"":0}","[0,1]","../img/tt/1118tt.jpg","",""
"2150.194999999949","","","recognition","survey-text","156","598258","0.0-6.0-3.21","2856336","co39331","norming","","","{""guess"":""eating""}","","../img/tt/1118tt.jpg","",""
"null","../img/gs/1118gs.jpg","null","reveal","image-keyboard-response","157","600260","0.0-6.0-4.21","2856336","co39331","norming","","","","","","",""
"null","../img/tt/1118tt.jpg","null","mooney2","image-keyboard-response","158","602270","0.0-6.0-5.21","2856336","co39331","norming","","","","","","",""
"2889.679999999935","","","post_reveal_questions","survey-likert","159","605162","0.0-6.0-6.21","2856336","co39331","norming","","","{""aha"":4}","[0]","../img/tt/1118tt.jpg","",""
"null","<div style=""font-size:60px;""> </div>","null","fixation","html-keyboard-response","160","605372","0.0-6.0-0.22","2856336","co39331","norming","","","","","","",""
"null","../img/tt/507tt.jpg","null","mooney1","image-keyboard-response","161","608377","0.0-6.0-1.22","2856336","co39331","norming","","","","","","",""
"3558.304999999935","","","post_mooney1_questions","survey-likert","162","611938","0.0-6.0-2.22","2856336","co39331","norming","","","{""curiosity"":5,""confidence"":1}","[0,1]","../img/tt/507tt.jpg","",""
"5198.334999999963","","","recognition","survey-text","163","617138","0.0-6.0-3.22","2856336","co39331","norming","","","{""guess"":""dancing person""}","","../img/tt/507tt.jpg","",""
"null","../img/gs/507gs.jpg","null","reveal","image-keyboard-response","164","619147","0.0-6.0-4.22","2856336","co39331","norming","","","","","","",""
"null","../img/tt/507tt.jpg","null","mooney2","image-keyboard-response","165","621157","0.0-6.0-5.22","2856336","co39331","norming","","","","","","",""
"2970.7399999999907","","","post_reveal_questions","survey-likert","166","624130","0.0-6.0-6.22","2856336","co39331","norming","","","{""aha"":4}","[0]","../img/tt/507tt.jpg","",""
"null","<div style=""font-size:60px;""> </div>","null","fixation","html-keyboard-response","167","624340","0.0-6.0-0.23","2856336","co39331","norming","","","","","","",""
"null","../img/tt/1097tt.jpg","null","mooney1","image-keyboard-response","168","627345","0.0-6.0-1.23","2856336","co39331","norming","","","","","","",""
"5990.355000000098","","","post_mooney1_questions","survey-likert","169","633338","0.0-6.0-2.23","2856336","co39331","norming","","","{""curiosity"":5,""confidence"":0}","[0,1]","../img/tt/1097tt.jpg","",""
"4486.149999999907","","","recognition","survey-text","170","637825","0.0-6.0-3.23","2856336","co39331","norming","","","{""guess"":""person""}","","../img/tt/1097tt.jpg","",""
"null","../img/gs/1097gs.jpg","null","reveal","image-keyboard-response","171","639834","0.0-6.0-4.23","2856336","co39331","norming","","","","","","",""
"null","../img/tt/1097tt.jpg","null","mooney2","image-keyboard-response","172","641837","0.0-6.0-5.23","2856336","co39331","norming","","","","","","",""
"2321.3399999999674","","","post_reveal_questions","survey-likert","173","644161","0.0-6.0-6.23","2856336","co39331","norming","","","{""aha"":3}","[0]","../img/tt/1097tt.jpg","",""
"null","<div style=""font-size:60px;""> </div>","null","fixation","html-keyboard-response","174","644369","0.0-6.0-0.24","2856336","co39331","norming","","","","","","",""
"null","../img/tt/1307tt.jpg","null","mooney1","image-keyboard-response","175","647374","0.0-6.0-1.24","2856336","co39331","norming","","","","","","",""
"6432.164999999921","","","post_mooney1_questions","survey-likert","176","653809","0.0-6.0-2.24","2856336","co39331","norming","","","{""curiosity"":5,""confidence"":2}","[0,1]","../img/tt/1307tt.jpg","",""
"6590.094999999972","","","recognition","survey-text","177","660401","0.0-6.0-3.24","2856336","co39331","norming","","","{""guess"":""actraction""}","","../img/tt/1307tt.jpg","",""
"null","../img/gs/1307gs.jpg","null","reveal","image-keyboard-response","178","662408","0.0-6.0-4.24","2856336","co39331","norming","","","","","","",""
"null","../img/tt/1307tt.jpg","null","mooney2","image-keyboard-response","179","664416","0.0-6.0-5.24","2856336","co39331","norming","","","","","","",""
"3094.2600000000093","","","post_reveal_questions","survey-likert","180","667513","0.0-6.0-6.24","2856336","co39331","norming","","","{""aha"":3}","[0]","../img/tt/1307tt.jpg","",""
"null","<div style=""font-size:60px;""> </div>","null","fixation","html-keyboard-response","181","667715","0.0-6.0-0.25","2856336","co39331","norming","","","","","","",""
"null","../img/tt/222tt.jpg","null","mooney1","image-keyboard-response","182","670718","0.0-6.0-1.25","2856336","co39331","norming","","","","","","",""
"4624.2200000000885","","","post_mooney1_questions","survey-likert","183","675345","0.0-6.0-2.25","2856336","co39331","norming","","","{""curiosity"":5,""confidence"":1}","[0,1]","../img/tt/222tt.jpg","",""
"1918.1149999999907","","","recognition","survey-text","184","677265","0.0-6.0-3.25","2856336","co39331","norming","","","{""guess"":""dinner""}","","../img/tt/222tt.jpg","",""
"null","../img/gs/222gs.jpg","null","reveal","image-keyboard-response","185","679273","0.0-6.0-4.25","2856336","co39331","norming","","","","","","",""
"null","../img/tt/222tt.jpg","null","mooney2","image-keyboard-response","186","681281","0.0-6.0-5.25","2856336","co39331","norming","","","","","","",""
"4734.214999999967","","","post_reveal_questions","survey-likert","187","686017","0.0-6.0-6.25","2856336","co39331","norming","","","{""aha"":1}","[0]","../img/tt/222tt.jpg","",""
"null","<div style=""font-size:60px;""> </div>","null","fixation","html-keyboard-response","188","686218","0.0-6.0-0.26","2856336","co39331","norming","","","","","","",""
"null","../img/tt/055tt.jpg","null","mooney1","image-keyboard-response","189","689226","0.0-6.0-1.26","2856336","co39331","norming","","","","","","",""
"5179.914999999921","","","post_mooney1_questions","survey-likert","190","694409","0.0-6.0-2.26","2856336","co39331","norming","","","{""curiosity"":4,""confidence"":0}","[0,1]","../img/tt/055tt.jpg","",""
"2454.1500000001397","","","recognition","survey-text","191","696864","0.0-6.0-3.26","2856336","co39331","norming","","","{""guess"":""idk""}","","../img/tt/055tt.jpg","",""
"null","../img/gs/055gs.jpg","null","reveal","image-keyboard-response","192","698883","0.0-6.0-4.26","2856336","co39331","norming","","","","","","",""
"null","../img/tt/055tt.jpg","null","mooney2","image-keyboard-response","193","700885","0.0-6.0-5.26","2856336","co39331","norming","","","","","","",""
"3250.0350000000326","","","post_reveal_questions","survey-likert","194","704136","0.0-6.0-6.26","2856336","co39331","norming","","","{""aha"":3}","[0]","../img/tt/055tt.jpg","",""
"null","<div style=""font-size:60px;""> </div>","null","fixation","html-keyboard-response","195","704345","0.0-6.0-0.27","2856336","co39331","norming","","","","","","",""
"null","../img/tt/1276tt.jpg","null","mooney1","image-keyboard-response","196","707354","0.0-6.0-1.27","2856336","co39331","norming","","","","","","",""
"5979.144999999902","","","post_mooney1_questions","survey-likert","197","713336","0.0-6.0-2.27","2856336","co39331","norming","","","{""curiosity"":5,""confidence"":0}","[0,1]","../img/tt/1276tt.jpg","",""
"2238.1849999999395","","","recognition","survey-text","198","715576","0.0-6.0-3.27","2856336","co39331","norming","","","{""guess"":""idk""}","","../img/tt/1276tt.jpg","",""
"null","../img/gs/1276gs.jpg","null","reveal","image-keyboard-response","199","717578","0.0-6.0-4.27","2856336","co39331","norming","","","","","","",""
"null","../img/tt/1276tt.jpg","null","mooney2","image-keyboard-response","200","719587","0.0-6.0-5.27","2856336","co39331","norming","","","","","","",""
"1811.1550000001444","","","post_reveal_questions","survey-likert","201","721400","0.0-6.0-6.27","2856336","co39331","norming","","","{""aha"":3}","[0]","../img/tt/1276tt.jpg","",""
"null","<div style=""font-size:60px;""> </div>","null","fixation","html-keyboard-response","202","721608","0.0-6.0-0.28","2856336","co39331","norming","","","","","","",""
"null","../img/tt/270tt.jpg","null","mooney1","image-keyboard-response","203","724615","0.0-6.0-1.28","2856336","co39331","norming","","","","","","",""
"4478.935000000056","","","post_mooney1_questions","survey-likert","204","729096","0.0-6.0-2.28","2856336","co39331","norming","","","{""curiosity"":4,""confidence"":0}","[0,1]","../img/tt/270tt.jpg","",""
"3358.125","","","recognition","survey-text","205","732456","0.0-6.0-3.28","2856336","co39331","norming","","","{""guess"":""persons""}","","../img/tt/270tt.jpg","",""
"null","../img/gs/270gs.jpg","null","reveal","image-keyboard-response","206","734461","0.0-6.0-4.28","2856336","co39331","norming","","","","","","",""
"null","../img/tt/270tt.jpg","null","mooney2","image-keyboard-response","207","736472","0.0-6.0-5.28","2856336","co39331","norming","","","","","","",""
"3405.579999999958","","","post_reveal_questions","survey-likert","208","739880","0.0-6.0-6.28","2856336","co39331","norming","","","{""aha"":4}","[0]","../img/tt/270tt.jpg","",""
"null","<div style=""font-size:60px;""> </div>","null","fixation","html-keyboard-response","209","740081","0.0-6.0-0.29","2856336","co39331","norming","","","","","","",""
"null","../img/tt/522tt.jpg","null","mooney1","image-keyboard-response","210","743093","0.0-6.0-1.29","2856336","co39331","norming","","","","","","",""
"4312.375","","","post_mooney1_questions","survey-likert","211","747408","0.0-6.0-2.29","2856336","co39331","norming","","","{""curiosity"":5,""confidence"":1}","[0,1]","../img/tt/522tt.jpg","",""
"2310.125","","","recognition","survey-text","212","749720","0.0-6.0-3.29","2856336","co39331","norming","","","{""guess"":""animals""}","","../img/tt/522tt.jpg","",""
"null","../img/gs/522gs.jpg","null","reveal","image-keyboard-response","213","751722","0.0-6.0-4.29","2856336","co39331","norming","","","","","","",""
"null","../img/tt/522tt.jpg","null","mooney2","image-keyboard-response","214","753726","0.0-6.0-5.29","2856336","co39331","norming","","","","","","",""
"3431.5999999999767","","","post_reveal_questions","survey-likert","215","757160","0.0-6.0-6.29","2856336","co39331","norming","","","{""aha"":3}","[0]","../img/tt/522tt.jpg","",""
"null","<div style=""font-size:60px;""> </div>","null","fixation","html-keyboard-response","216","757367","0.0-6.0-0.30","2856336","co39331","norming","","","","","","",""
"null","../img/tt/1091tt.jpg","null","mooney1","image-keyboard-response","217","760371","0.0-6.0-1.30","2856336","co39331","norming","","","","","","",""
"4522.790000000037","","","post_mooney1_questions","survey-likert","218","764896","0.0-6.0-2.30","2856336","co39331","norming","","","{""curiosity"":3,""confidence"":2}","[0,1]","../img/tt/1091tt.jpg","",""
"2342.274999999907","","","recognition","survey-text","219","767240","0.0-6.0-3.30","2856336","co39331","norming","","","{""guess"":""hors""}","","../img/tt/1091tt.jpg","",""
"null","../img/gs/1091gs.jpg","null","reveal","image-keyboard-response","220","769242","0.0-6.0-4.30","2856336","co39331","norming","","","","","","",""
"null","../img/tt/1091tt.jpg","null","mooney2","image-keyboard-response","221","771252","0.0-6.0-5.30","2856336","co39331","norming","","","","","","",""
"2937.0650000000605","","","post_reveal_questions","survey-likert","222","774192","0.0-6.0-6.30","2856336","co39331","norming","","","{""aha"":3}","[0]","../img/tt/1091tt.jpg","",""
"null","<div style=""font-size:60px;""> </div>","null","fixation","html-keyboard-response","223","774394","0.0-6.0-0.31","2856336","co39331","norming","","","","","","",""
"null","../img/tt/567tt.jpg","null","mooney1","image-keyboard-response","224","777406","0.0-6.0-1.31","2856336","co39331","norming","","","","","","",""
"4087.4499999999534","","","post_mooney1_questions","survey-likert","225","781496","0.0-6.0-2.31","2856336","co39331","norming","","","{""curiosity"":5,""confidence"":0}","[0,1]","../img/tt/567tt.jpg","",""
"2558.194999999949","","","recognition","survey-text","226","784056","0.0-6.0-3.31","2856336","co39331","norming","","","{""guess"":""idk""}","","../img/tt/567tt.jpg","",""
"null","../img/gs/567gs.jpg","null","reveal","image-keyboard-response","227","786058","0.0-6.0-4.31","2856336","co39331","norming","","","","","","",""
"null","../img/tt/567tt.jpg","null","mooney2","image-keyboard-response","228","788068","0.0-6.0-5.31","2856336","co39331","norming","","","","","","",""
"1681.5","","","post_reveal_questions","survey-likert","229","789752","0.0-6.0-6.31","2856336","co39331","norming","","","{""aha"":3}","[0]","../img/tt/567tt.jpg","",""
"null","<div style=""font-size:60px;""> </div>","null","fixation","html-keyboard-response","230","789958","0.0-6.0-0.32","2856336","co39331","norming","","","","","","",""
"null","../img/tt/1200tt.jpg","null","mooney1","image-keyboard-response","231","792967","0.0-6.0-1.32","2856336","co39331","norming","","","","","","",""
"5007.5599999999395","","","post_mooney1_questions","survey-likert","232","797976","0.0-6.0-2.32","2856336","co39331","norming","","","{""curiosity"":5,""confidence"":0}","[0,1]","../img/tt/1200tt.jpg","",""
"2686.2499999998836","","","recognition","survey-text","233","800664","0.0-6.0-3.32","2856336","co39331","norming","","","{""guess"":""boats""}","","../img/tt/1200tt.jpg","",""
"null","../img/gs/1200gs.jpg","null","reveal","image-keyboard-response","234","802675","0.0-6.0-4.32","2856336","co39331","norming","","","","","","",""
"null","../img/tt/1200tt.jpg","null","mooney2","image-keyboard-response","235","804678","0.0-6.0-5.32","2856336","co39331","norming","","","","","","",""
"3711.3150000000605","","","post_reveal_questions","survey-likert","236","808392","0.0-6.0-6.32","2856336","co39331","norming","","","{""aha"":3}","[0]","../img/tt/1200tt.jpg","",""
"null","<div style=""font-size:60px;""> </div>","null","fixation","html-keyboard-response","237","808602","0.0-6.0-0.33","2856336","co39331","norming","","","","","","",""
"null","../img/tt/007tt.jpg","null","mooney1","image-keyboard-response","238","811611","0.0-6.0-1.33","2856336","co39331","norming","","","","","","",""
"6554.570000000065","","","post_mooney1_questions","survey-likert","239","818168","0.0-6.0-2.33","2856336","co39331","norming","","","{""curiosity"":5,""confidence"":1}","[0,1]","../img/tt/007tt.jpg","",""
"1566.1350000000093","","","recognition","survey-text","240","819736","0.0-6.0-3.33","2856336","co39331","norming","","","{""guess"":""see""}","","../img/tt/007tt.jpg","",""
"null","../img/gs/007gs.jpg","null","reveal","image-keyboard-response","241","821736","0.0-6.0-4.33","2856336","co39331","norming","","","","","","",""
"null","../img/tt/007tt.jpg","null","mooney2","image-keyboard-response","242","823737","0.0-6.0-5.33","2856336","co39331","norming","","","","","","",""
"2404.530000000028","","","post_reveal_questions","survey-likert","243","826144","0.0-6.0-6.33","2856336","co39331","norming","","","{""aha"":3}","[0]","../img/tt/007tt.jpg","",""
"null","<div style=""font-size:60px;""> </div>","null","fixation","html-keyboard-response","244","826352","0.0-6.0-0.34","2856336","co39331","norming","","","","","","",""
"null","../img/tt/590tt.jpg","null","mooney1","image-keyboard-response","245","829362","0.0-6.0-1.34","2856336","co39331","norming","","","","","","",""
"4194.8699999997625","","","post_mooney1_questions","survey-likert","246","833560","0.0-6.0-2.34","2856336","co39331","norming","","","{""curiosity"":5,""confidence"":1}","[0,1]","../img/tt/590tt.jpg","",""
"1334.3099999999395","","","recognition","survey-text","247","834896","0.0-6.0-3.34","2856336","co39331","norming","","","{""guess"":""war""}","","../img/tt/590tt.jpg","",""
"null","../img/gs/590gs.jpg","null","reveal","image-keyboard-response","248","836900","0.0-6.0-4.34","2856336","co39331","norming","","","","","","",""
"null","../img/tt/590tt.jpg","null","mooney2","image-keyboard-response","249","838908","0.0-6.0-5.34","2856336","co39331","norming","","","","","","",""
"2258.680000000051","","","post_reveal_questions","survey-likert","250","841168","0.0-6.0-6.34","2856336","co39331","norming","","","{""aha"":3}","[0]","../img/tt/590tt.jpg","",""
"null","<div style=""font-size:60px;""> </div>","null","fixation","html-keyboard-response","251","841374","0.0-6.0-0.35","2856336","co39331","norming","","","","","","",""
"null","../img/tt/468tt.jpg","null","mooney1","image-keyboard-response","252","844380","0.0-6.0-1.35","2856336","co39331","norming","","","","","","",""
"4793.275000000023","","","post_mooney1_questions","survey-likert","253","849176","0.0-6.0-2.35","2856336","co39331","norming","","","{""curiosity"":6,""confidence"":0}","[0,1]","../img/tt/468tt.jpg","",""
"2437.79999999993","","","recognition","survey-text","254","851616","0.0-6.0-3.35","2856336","co39331","norming","","","{""guess"":""idk""}","","../img/tt/468tt.jpg","",""
"null","../img/gs/468gs.jpg","null","reveal","image-keyboard-response","255","853618","0.0-6.0-4.35","2856336","co39331","norming","","","","","","",""
"null","../img/tt/468tt.jpg","null","mooney2","image-keyboard-response","256","855625","0.0-6.0-5.35","2856336","co39331","norming","","","","","","",""
"4645.729999999981","","","post_reveal_questions","survey-likert","257","860272","0.0-6.0-6.35","2856336","co39331","norming","","","{""aha"":4}","[0]","../img/tt/468tt.jpg","",""
"null","<div style=""font-size:60px;""> </div>","null","fixation","html-keyboard-response","258","860476","0.0-6.0-0.36","2856336","co39331","norming","","","","","","",""
"null","../img/tt/1154tt.jpg","null","mooney1","image-keyboard-response","259","863485","0.0-6.0-1.36","2856336","co39331","norming","","","","","","",""
"4040.644999999786","","","post_mooney1_questions","survey-likert","260","867528","0.0-6.0-2.36","2856336","co39331","norming","","","{""curiosity"":5,""confidence"":1}","[0,1]","../img/tt/1154tt.jpg","",""
"4182.075000000186","","","recognition","survey-text","261","871712","0.0-6.0-3.36","2856336","co39331","norming","","","{""guess"":""canoe""}","","../img/tt/1154tt.jpg","",""
"null","../img/gs/1154gs.jpg","null","reveal","image-keyboard-response","262","873719","0.0-6.0-4.36","2856336","co39331","norming","","","","","","",""
"null","../img/tt/1154tt.jpg","null","mooney2","image-keyboard-response","263","875726","0.0-6.0-5.36","2856336","co39331","norming","","","","","","",""
"2496.5","","","post_reveal_questions","survey-likert","264","878224","0.0-6.0-6.36","2856336","co39331","norming","","","{""aha"":4}","[0]","../img/tt/1154tt.jpg","",""
"null","<div style=""font-size:60px;""> </div>","null","fixation","html-keyboard-response","265","878427","0.0-6.0-0.37","2856336","co39331","norming","","","","","","",""
"null","../img/tt/552tt.jpg","null","mooney1","image-keyboard-response","266","881431","0.0-6.0-1.37","2856336","co39331","norming","","","","","","",""
"4128.275000000023","","","post_mooney1_questions","survey-likert","267","885561","0.0-6.0-2.37","2856336","co39331","norming","","","{""curiosity"":5,""confidence"":1}","[0,1]","../img/tt/552tt.jpg","",""
"2181.8499999999767","","","recognition","survey-text","268","887745","0.0-6.0-3.37","2856336","co39331","norming","","","{""guess"":""cat""}","","../img/tt/552tt.jpg","",""
"null","../img/gs/552gs.jpg","null","reveal","image-keyboard-response","269","889748","0.0-6.0-4.37","2856336","co39331","norming","","","","","","",""
"null","../img/tt/552tt.jpg","null","mooney2","image-keyboard-response","270","891756","0.0-6.0-5.37","2856336","co39331","norming","","","","","","",""
"2699.914999999921","","","post_reveal_questions","survey-likert","271","894457","0.0-6.0-6.37","2856336","co39331","norming","","","{""aha"":3}","[0]","../img/tt/552tt.jpg","",""
"null","<div style=""font-size:60px;""> </div>","null","fixation","html-keyboard-response","272","894664","0.0-6.0-0.38","2856336","co39331","norming","","","","","","",""
"null","../img/tt/1199tt.jpg","null","mooney1","image-keyboard-response","273","897666","0.0-6.0-1.38","2856336","co39331","norming","","","","","","",""
"6469.054999999818","","","post_mooney1_questions","survey-likert","274","904137","0.0-6.0-2.38","2856336","co39331","norming","","","{""curiosity"":5,""confidence"":0}","[0,1]","../img/tt/1199tt.jpg","",""
"2133.4599999999627","","","recognition","survey-text","275","906273","0.0-6.0-3.38","2856336","co39331","norming","","","{""guess"":""a kid""}","","../img/tt/1199tt.jpg","",""
"null","../img/gs/1199gs.jpg","null","reveal","image-keyboard-response","276","908280","0.0-6.0-4.38","2856336","co39331","norming","","","","","","",""
"null","../img/tt/1199tt.jpg","null","mooney2","image-keyboard-response","277","910282","0.0-6.0-5.38","2856336","co39331","norming","","","","","","",""
"3717.4899999999907","","","post_reveal_questions","survey-likert","278","914001","0.0-6.0-6.38","2856336","co39331","norming","","","{""aha"":4}","[0]","../img/tt/1199tt.jpg","",""
"null","<div style=""font-size:60px;""> </div>","null","fixation","html-keyboard-response","279","914205","0.0-6.0-0.39","2856336","co39331","norming","","","","","","",""
"null","../img/tt/1130tt.jpg","null","mooney1","image-keyboard-response","280","917212","0.0-6.0-1.39","2856336","co39331","norming","","","","","","",""
"4563.895000000019","","","post_mooney1_questions","survey-likert","281","921777","0.0-6.0-2.39","2856336","co39331","norming","","","{""curiosity"":5,""confidence"":1}","[0,1]","../img/tt/1130tt.jpg","",""
"2797.820000000065","","","recognition","survey-text","282","924577","0.0-6.0-3.39","2856336","co39331","norming","","","{""guess"":""football""}","","../img/tt/1130tt.jpg","",""
"null","../img/gs/1130gs.jpg","null","reveal","image-keyboard-response","283","926586","0.0-6.0-4.39","2856336","co39331","norming","","","","","","",""
"null","../img/tt/1130tt.jpg","null","mooney2","image-keyboard-response","284","928587","0.0-6.0-5.39","2856336","co39331","norming","","","","","","",""
"4868.54999999993","","","post_reveal_questions","survey-likert","285","933457","0.0-6.0-6.39","2856336","co39331","norming","","","{""aha"":4}","[0]","../img/tt/1130tt.jpg","",""
"null","<div style=""font-size:60px;""> </div>","null","fixation","html-keyboard-response","286","933664","0.0-6.0-0.40","2856336","co39331","norming","","","","","","",""
"null","../img/tt/440tt.jpg","null","mooney1","image-keyboard-response","287","936671","0.0-6.0-1.40","2856336","co39331","norming","","","","","","",""
"4992.9650000002","","","post_mooney1_questions","survey-likert","288","941665","0.0-6.0-2.40","2856336","co39331","norming","","","{""curiosity"":6,""confidence"":1}","[0,1]","../img/tt/440tt.jpg","",""
"1902.1599999997998","","","recognition","survey-text","289","943569","0.0-6.0-3.40","2856336","co39331","norming","","","{""guess"":""hors""}","","../img/tt/440tt.jpg","",""
"null","../img/gs/440gs.jpg","null","reveal","image-keyboard-response","290","945580","0.0-6.0-4.40","2856336","co39331","norming","","","","","","",""
"null","../img/tt/440tt.jpg","null","mooney2","image-keyboard-response","291","947588","0.0-6.0-5.40","2856336","co39331","norming","","","","","","",""
"6334.550000000047","","","post_reveal_questions","survey-likert","292","953923","0.0-6.0-6.40","2856336","co39331","norming","","","{""aha"":4}","[0]","../img/tt/440tt.jpg","",""
"null","<div style=""font-size:60px;""> </div>","null","fixation","html-keyboard-response","293","954129","0.0-6.0-0.41","2856336","co39331","norming","","","","","","",""
"null","../img/tt/010tt.jpg","null","mooney1","image-keyboard-response","294","957138","0.0-6.0-1.41","2856336","co39331","norming","","","","","","",""
"3471.9849999998696","","","post_mooney1_questions","survey-likert","295","960611","0.0-6.0-2.41","2856336","co39331","norming","","","{""curiosity"":6,""confidence"":0}","[0,1]","../img/tt/010tt.jpg","",""
"1717.2600000001257","","","recognition","survey-text","296","962331","0.0-6.0-3.41","2856336","co39331","norming","","","{""guess"":""idk""}","","../img/tt/010tt.jpg","",""
"null","../img/gs/010gs.jpg","null","reveal","image-keyboard-response","297","964333","0.0-6.0-4.41","2856336","co39331","norming","","","","","","",""
"null","../img/tt/010tt.jpg","null","mooney2","image-keyboard-response","298","966340","0.0-6.0-5.41","2856336","co39331","norming","","","","","","",""
"3581.7750000001397","","","post_reveal_questions","survey-likert","299","969923","0.0-6.0-6.41","2856336","co39331","norming","","","{""aha"":4}","[0]","../img/tt/010tt.jpg","",""
"null","<div style=""font-size:60px;""> </div>","null","fixation","html-keyboard-response","300","970132","0.0-6.0-0.42","2856336","co39331","norming","","","","","","",""
"null","../img/tt/405tt.jpg","null","mooney1","image-keyboard-response","301","973143","0.0-6.0-1.42","2856336","co39331","norming","","","","","","",""
"3353.3150000000605","","","post_mooney1_questions","survey-likert","302","976499","0.0-6.0-2.42","2856336","co39331","norming","","","{""curiosity"":5,""confidence"":1}","[0,1]","../img/tt/405tt.jpg","",""
"4174.019999999902","","","recognition","survey-text","303","980675","0.0-6.0-3.42","2856336","co39331","norming","","","{""guess"":""koala""}","","../img/tt/405tt.jpg","",""
"null","../img/gs/405gs.jpg","null","reveal","image-keyboard-response","304","982684","0.0-6.0-4.42","2856336","co39331","norming","","","","","","",""
"null","../img/tt/405tt.jpg","null","mooney2","image-keyboard-response","305","984694","0.0-6.0-5.42","2856336","co39331","norming","","","","","","",""
"2319.594999999972","","","post_reveal_questions","survey-likert","306","987019","0.0-6.0-6.42","2856336","co39331","norming","","","{""aha"":5}","[0]","../img/tt/405tt.jpg","",""
"null","<div style=""font-size:60px;""> </div>","null","fixation","html-keyboard-response","307","987230","0.0-6.0-0.43","2856336","co39331","norming","","","","","","",""
"null","../img/tt/497tt.jpg","null","mooney1","image-keyboard-response","308","990233","0.0-6.0-1.43","2856336","co39331","norming","","","","","","",""
"3823.2550000000047","","","post_mooney1_questions","survey-likert","309","994059","0.0-6.0-2.43","2856336","co39331","norming","","","{""curiosity"":5,""confidence"":1}","[0,1]","../img/tt/497tt.jpg","",""
"6942.129999999888","","","recognition","survey-text","310","1001003","0.0-6.0-3.43","2856336","co39331","norming","","","{""guess"":""music""}","","../img/tt/497tt.jpg","",""
"null","../img/gs/497gs.jpg","null","reveal","image-keyboard-response","311","1003007","0.0-6.0-4.43","2856336","co39331","norming","","","","","","",""
"null","../img/tt/497tt.jpg","null","mooney2","image-keyboard-response","312","1005020","0.0-6.0-5.43","2856336","co39331","norming","","","","","","",""
"2246.9949999999953","","","post_reveal_questions","survey-likert","313","1007269","0.0-6.0-6.43","2856336","co39331","norming","","","{""aha"":5}","[0]","../img/tt/497tt.jpg","",""
"null","<div style=""font-size:60px;""> </div>","null","fixation","html-keyboard-response","314","1007476","0.0-6.0-0.44","2856336","co39331","norming","","","","","","",""
"null","../img/tt/1044tt.jpg","null","mooney1","image-keyboard-response","315","1010479","0.0-6.0-1.44","2856336","co39331","norming","","","","","","",""
"5217.9349999999395","","","post_mooney1_questions","survey-likert","316","1015701","0.0-6.0-2.44","2856336","co39331","norming","","","{""curiosity"":6,""confidence"":0}","[0,1]","../img/tt/1044tt.jpg","",""
"2534.155000000028","","","recognition","survey-text","317","1018237","0.0-6.0-3.44","2856336","co39331","norming","","","{""guess"":""idk""}","","../img/tt/1044tt.jpg","",""
"null","../img/gs/1044gs.jpg","null","reveal","image-keyboard-response","318","1020242","0.0-6.0-4.44","2856336","co39331","norming","","","","","","",""
"null","../img/tt/1044tt.jpg","null","mooney2","image-keyboard-response","319","1022251","0.0-6.0-5.44","2856336","co39331","norming","","","","","","",""
"3023.4249999998137","","","post_reveal_questions","survey-likert","320","1025277","0.0-6.0-6.44","2856336","co39331","norming","","","{""aha"":5}","[0]","../img/tt/1044tt.jpg","",""
"null","<div style=""font-size:60px;""> </div>","null","fixation","html-keyboard-response","321","1025479","0.0-6.0-0.45","2856336","co39331","norming","","","","","","",""
"null","../img/tt/584tt.jpg","null","mooney1","image-keyboard-response","322","1028488","0.0-6.0-1.45","2856336","co39331","norming","","","","","","",""
"3642.0350000000326","","","post_mooney1_questions","survey-likert","323","1032133","0.0-6.0-2.45","2856336","co39331","norming","","","{""curiosity"":6,""confidence"":0}","[0,1]","../img/tt/584tt.jpg","",""
"1686.2799999999115","","","recognition","survey-text","324","1033821","0.0-6.0-3.45","2856336","co39331","norming","","","{""guess"":""fire""}","","../img/tt/584tt.jpg","",""
"null","../img/gs/584gs.jpg","null","reveal","image-keyboard-response","325","1035826","0.0-6.0-4.45","2856336","co39331","norming","","","","","","",""
"null","../img/tt/584tt.jpg","null","mooney2","image-keyboard-response","326","1037830","0.0-6.0-5.45","2856336","co39331","norming","","","","","","",""
"2356.2600000000093","","","post_reveal_questions","survey-likert","327","1040189","0.0-6.0-6.45","2856336","co39331","norming","","","{""aha"":3}","[0]","../img/tt/584tt.jpg","",""
"null","<div style=""font-size:60px;""> </div>","null","fixation","html-keyboard-response","328","1040395","0.0-6.0-0.46","2856336","co39331","norming","","","","","","",""
"null","../img/tt/013tt.jpg","null","mooney1","image-keyboard-response","329","1043399","0.0-6.0-1.46","2856336","co39331","norming","","","","","","",""
"4001.6700000001583","","","post_mooney1_questions","survey-likert","330","1047405","0.0-6.0-2.46","2856336","co39331","norming","","","{""curiosity"":5,""confidence"":0}","[0,1]","../img/tt/013tt.jpg","",""
"2206.125","","","recognition","survey-text","331","1049613","0.0-6.0-3.46","2856336","co39331","norming","","","{""guess"":""animals""}","","../img/tt/013tt.jpg","",""
"null","../img/gs/013gs.jpg","null","reveal","image-keyboard-response","332","1051618","0.0-6.0-4.46","2856336","co39331","norming","","","","","","",""
"null","../img/tt/013tt.jpg","null","mooney2","image-keyboard-response","333","1053628","0.0-6.0-5.46","2856336","co39331","norming","","","","","","",""
"2622.8350000001956","","","post_reveal_questions","survey-likert","334","1056253","0.0-6.0-6.46","2856336","co39331","norming","","","{""aha"":5}","[0]","../img/tt/013tt.jpg","",""
"null","<div style=""font-size:60px;""> </div>","null","fixation","html-keyboard-response","335","1056457","0.0-6.0-0.47","2856336","co39331","norming","","","","","","",""
"null","../img/tt/123tt.jpg","null","mooney1","image-keyboard-response","336","1059463","0.0-6.0-1.47","2856336","co39331","norming","","","","","","",""
"6683.005000000121","","","post_mooney1_questions","survey-likert","337","1066146","0.0-6.0-2.47","2856336","co39331","norming","","","{""curiosity"":5,""confidence"":1}","[0,1]","../img/tt/123tt.jpg","",""
"3237.595000000205","","","recognition","survey-text","338","1069386","0.0-6.0-3.47","2856336","co39331","norming","","","{""guess"":""bagage""}","","../img/tt/123tt.jpg","",""
"null","../img/gs/123gs.jpg","null","reveal","image-keyboard-response","339","1071395","0.0-6.0-4.47","2856336","co39331","norming","","","","","","",""
"null","../img/tt/123tt.jpg","null","mooney2","image-keyboard-response","340","1073401","0.0-6.0-5.47","2856336","co39331","norming","","","","","","",""
"3590.755000000121","","","post_reveal_questions","survey-likert","341","1076994","0.0-6.0-6.47","2856336","co39331","norming","","","{""aha"":5}","[0]","../img/tt/123tt.jpg","",""
"null","<div style=""font-size:60px;""> </div>","null","fixation","html-keyboard-response","342","1077198","0.0-6.0-0.48","2856336","co39331","norming","","","","","","",""
"null","../img/tt/1190tt.jpg","null","mooney1","image-keyboard-response","343","1080209","0.0-6.0-1.48","2856336","co39331","norming","","","","","","",""
"4624.2050000000745","","","post_mooney1_questions","survey-likert","344","1084834","0.0-6.0-2.48","2856336","co39331","norming","","","{""curiosity"":6,""confidence"":0}","[0,1]","../img/tt/1190tt.jpg","",""
"6757.864999999758","","","recognition","survey-text","345","1091594","0.0-6.0-3.48","2856336","co39331","norming","","","{""guess"":""flowergarden""}","","../img/tt/1190tt.jpg","",""
"null","../img/gs/1190gs.jpg","null","reveal","image-keyboard-response","346","1093601","0.0-6.0-4.48","2856336","co39331","norming","","","","","","",""
"null","../img/tt/1190tt.jpg","null","mooney2","image-keyboard-response","347","1095612","0.0-6.0-5.48","2856336","co39331","norming","","","","","","",""
"2395.809999999823","","","post_reveal_questions","survey-likert","348","1098010","0.0-6.0-6.48","2856336","co39331","norming","","","{""aha"":5}","[0]","../img/tt/1190tt.jpg","",""
"null","<div style=""font-size:60px;""> </div>","null","fixation","html-keyboard-response","349","1098219","0.0-6.0-0.49","2856336","co39331","norming","","","","","","",""
"null","../img/tt/049tt.jpg","null","mooney1","image-keyboard-response","350","1101223","0.0-6.0-1.49","2856336","co39331","norming","","","","","","",""
"3224.4550000000745","","","post_mooney1_questions","survey-likert","351","1104450","0.0-6.0-2.49","2856336","co39331","norming","","","{""curiosity"":6,""confidence"":0}","[0,1]","../img/tt/049tt.jpg","",""
"1829.9199999999255","","","recognition","survey-text","352","1106282","0.0-6.0-3.49","2856336","co39331","norming","","","{""guess"":""idk""}","","../img/tt/049tt.jpg","",""
"null","../img/gs/049gs.jpg","null","reveal","image-keyboard-response","353","1108288","0.0-6.0-4.49","2856336","co39331","norming","","","","","","",""
"null","../img/tt/049tt.jpg","null","mooney2","image-keyboard-response","354","1110293","0.0-6.0-5.49","2856336","co39331","norming","","","","","","",""
"3762.185000000056","","","post_reveal_questions","survey-likert","355","1114058","0.0-6.0-6.49","2856336","co39331","norming","","","{""aha"":4}","[0]","../img/tt/049tt.jpg","",""
"null","<div style=""font-size:60px;""> </div>","null","fixation","html-keyboard-response","356","1114261","0.0-6.0-0.50","2856336","co39331","norming","","","","","","",""
"null","../img/tt/534tt.jpg","null","mooney1","image-keyboard-response","357","1117265","0.0-6.0-1.50","2856336","co39331","norming","","","","","","",""
"5070","","","post_mooney1_questions","survey-likert","358","1122338","0.0-6.0-2.50","2856336","co39331","norming","","","{""curiosity"":5,""confidence"":1}","[0,1]","../img/tt/534tt.jpg","",""
"2182.3349999999627","","","recognition","survey-text","359","1124522","0.0-6.0-3.50","2856336","co39331","norming","","","{""guess"":""flowers""}","","../img/tt/534tt.jpg","",""
"null","../img/gs/534gs.jpg","null","reveal","image-keyboard-response","360","1126523","0.0-6.0-4.50","2856336","co39331","norming","","","","","","",""
"null","../img/tt/534tt.jpg","null","mooney2","image-keyboard-response","361","1128526","0.0-6.0-5.50","2856336","co39331","norming","","","","","","",""
"2233.274999999907","","","post_reveal_questions","survey-likert","362","1130761","0.0-6.0-6.50","2856336","co39331","norming","","","{""aha"":5}","[0]","../img/tt/534tt.jpg","",""
"null","<div style=""font-size:60px;""> </div>","null","fixation","html-keyboard-response","363","1130966","0.0-6.0-0.51","2856336","co39331","norming","","","","","","",""
"null","../img/tt/1226tt.jpg","null","mooney1","image-keyboard-response","364","1133977","0.0-6.0-1.51","2856336","co39331","norming","","","","","","",""
"8349.489999999758","","","post_mooney1_questions","survey-likert","365","1142329","0.0-6.0-2.51","2856336","co39331","norming","","","{""curiosity"":5,""confidence"":1}","[0,1]","../img/tt/1226tt.jpg","",""
"2670.2050000000745","","","recognition","survey-text","366","1145001","0.0-6.0-3.51","2856336","co39331","norming","","","{""guess"":""chicken""}","","../img/tt/1226tt.jpg","",""
"null","../img/gs/1226gs.jpg","null","reveal","image-keyboard-response","367","1147002","0.0-6.0-4.51","2856336","co39331","norming","","","","","","",""
"null","../img/tt/1226tt.jpg","null","mooney2","image-keyboard-response","368","1149010","0.0-6.0-5.51","2856336","co39331","norming","","","","","","",""
"3420.409999999916","","","post_reveal_questions","survey-likert","369","1152433","0.0-6.0-6.51","2856336","co39331","norming","","","{""aha"":5}","[0]","../img/tt/1226tt.jpg","",""
"null","<div style=""font-size:60px;""> </div>","null","fixation","html-keyboard-response","370","1152634","0.0-6.0-0.52","2856336","co39331","norming","","","","","","",""
"null","../img/tt/056tt.jpg","null","mooney1","image-keyboard-response","371","1155641","0.0-6.0-1.52","2856336","co39331","norming","","","","","","",""
"4644.76500000013","","","post_mooney1_questions","survey-likert","372","1160289","0.0-6.0-2.52","2856336","co39331","norming","","","{""curiosity"":5,""confidence"":0}","[0,1]","../img/tt/056tt.jpg","",""
"1478.339999999851","","","recognition","survey-text","373","1161769","0.0-6.0-3.52","2856336","co39331","norming","","","{""guess"":""dog""}","","../img/tt/056tt.jpg","",""
"null","../img/gs/056gs.jpg","null","reveal","image-keyboard-response","374","1163774","0.0-6.0-4.52","2856336","co39331","norming","","","","","","",""
"null","../img/tt/056tt.jpg","null","mooney2","image-keyboard-response","375","1165775","0.0-6.0-5.52","2856336","co39331","norming","","","","","","",""
"2623.5300000002608","","","post_reveal_questions","survey-likert","376","1168401","0.0-6.0-6.52","2856336","co39331","norming","","","{""aha"":4}","[0]","../img/tt/056tt.jpg","",""
"null","<div style=""font-size:60px;""> </div>","null","fixation","html-keyboard-response","377","1168604","0.0-6.0-0.53","2856336","co39331","norming","","","","","","",""
"null","../img/tt/580tt.jpg","null","mooney1","image-keyboard-response","378","1171614","0.0-6.0-1.53","2856336","co39331","norming","","","","","","",""
"6471.764999999898","","","post_mooney1_questions","survey-likert","379","1178090","0.0-6.0-2.53","2856336","co39331","norming","","","{""curiosity"":5,""confidence"":0}","[0,1]","../img/tt/580tt.jpg","",""
"1726.0900000000838","","","recognition","survey-text","380","1179817","0.0-6.0-3.53","2856336","co39331","norming","","","{""guess"":""idk""}","","../img/tt/580tt.jpg","",""
"null","../img/gs/580gs.jpg","null","reveal","image-keyboard-response","381","1181827","0.0-6.0-4.53","2856336","co39331","norming","","","","","","",""
"null","../img/tt/580tt.jpg","null","mooney2","image-keyboard-response","382","1183829","0.0-6.0-5.53","2856336","co39331","norming","","","","","","",""
"3569.3349999999627","","","post_reveal_questions","survey-likert","383","1187410","0.0-6.0-6.53","2856336","co39331","norming","","","{""aha"":5}","[0]","../img/tt/580tt.jpg","",""
"null","<div style=""font-size:60px;""> </div>","null","fixation","html-keyboard-response","384","1187614","0.0-6.0-0.54","2856336","co39331","norming","","","","","","",""
"null","../img/tt/078tt.jpg","null","mooney1","image-keyboard-response","385","1190619","0.0-6.0-1.54","2856336","co39331","norming","","","","","","",""
"8483.15500000026","","","post_mooney1_questions","survey-likert","386","1199106","0.0-6.0-2.54","2856336","co39331","norming","","","{""curiosity"":5,""confidence"":0}","[0,1]","../img/tt/078tt.jpg","",""
"3901.655000000028","","","recognition","survey-text","387","1203009","0.0-6.0-3.54","2856336","co39331","norming","","","{""guess"":""fruits""}","","../img/tt/078tt.jpg","",""
"null","../img/gs/078gs.jpg","null","reveal","image-keyboard-response","388","1205016","0.0-6.0-4.54","2856336","co39331","norming","","","","","","",""
"null","../img/tt/078tt.jpg","null","mooney2","image-keyboard-response","389","1207017","0.0-6.0-5.54","2856336","co39331","norming","","","","","","",""
"2525.059999999823","","","post_reveal_questions","survey-likert","390","1209546","0.0-6.0-6.54","2856336","co39331","norming","","","{""aha"":5}","[0]","../img/tt/078tt.jpg","",""
"null","<div style=""font-size:60px;""> </div>","null","fixation","html-keyboard-response","391","1209754","0.0-6.0-0.55","2856336","co39331","norming","","","","","","",""
"null","../img/tt/353tt.jpg","null","mooney1","image-keyboard-response","392","1212761","0.0-6.0-1.55","2856336","co39331","norming","","","","","","",""
"4421","","","post_mooney1_questions","survey-likert","393","1217186","0.0-6.0-2.55","2856336","co39331","norming","","","{""curiosity"":5,""confidence"":0}","[0,1]","../img/tt/353tt.jpg","",""
"2910.060000000056","","","recognition","survey-text","394","1220098","0.0-6.0-3.55","2856336","co39331","norming","","","{""guess"":""a animal""}","","../img/tt/353tt.jpg","",""
"null","../img/gs/353gs.jpg","null","reveal","image-keyboard-response","395","1222105","0.0-6.0-4.55","2856336","co39331","norming","","","","","","",""
"null","../img/tt/353tt.jpg","null","mooney2","image-keyboard-response","396","1224112","0.0-6.0-5.55","2856336","co39331","norming","","","","","","",""
"3886.225000000093","","","post_reveal_questions","survey-likert","397","1228002","0.0-6.0-6.55","2856336","co39331","norming","","","{""aha"":4}","[0]","../img/tt/353tt.jpg","",""
"null","<div style=""font-size:60px;""> </div>","null","fixation","html-keyboard-response","398","1228206","0.0-6.0-0.56","2856336","co39331","norming","","","","","","",""
"null","../img/tt/1234tt.jpg","null","mooney1","image-keyboard-response","399","1231217","0.0-6.0-1.56","2856336","co39331","norming","","","","","","",""
"4413.050000000047","","","post_mooney1_questions","survey-likert","400","1235634","0.0-6.0-2.56","2856336","co39331","norming","","","{""curiosity"":5,""confidence"":0}","[0,1]","../img/tt/1234tt.jpg","",""
"2974.054999999935","","","recognition","survey-text","401","1238610","0.0-6.0-3.56","2856336","co39331","norming","","","{""guess"":""see""}","","../img/tt/1234tt.jpg","",""
"null","../img/gs/1234gs.jpg","null","reveal","image-keyboard-response","402","1240611","0.0-6.0-4.56","2856336","co39331","norming","","","","","","",""
"null","../img/tt/1234tt.jpg","null","mooney2","image-keyboard-response","403","1242620","0.0-6.0-5.56","2856336","co39331","norming","","","","","","",""
"4554.475000000093","","","post_reveal_questions","survey-likert","404","1247178","0.0-6.0-6.56","2856336","co39331","norming","","","{""aha"":5}","[0]","../img/tt/1234tt.jpg","",""
"null","<div style=""font-size:60px;""> </div>","null","fixation","html-keyboard-response","405","1247383","0.0-6.0-0.57","2856336","co39331","norming","","","","","","",""
"null","../img/tt/412tt.jpg","null","mooney1","image-keyboard-response","406","1250389","0.0-6.0-1.57","2856336","co39331","norming","","","","","","",""
"4305.84999999986","","","post_mooney1_questions","survey-likert","407","1254699","0.0-6.0-2.57","2856336","co39331","norming","","","{""curiosity"":5,""confidence"":0}","[0,1]","../img/tt/412tt.jpg","",""
"2741.8250000001863","","","recognition","survey-text","408","1257442","0.0-6.0-3.57","2856336","co39331","norming","","","{""guess"":""lavabo""}","","../img/tt/412tt.jpg","",""
"null","../img/gs/412gs.jpg","null","reveal","image-keyboard-response","409","1259444","0.0-6.0-4.57","2856336","co39331","norming","","","","","","",""
"null","../img/tt/412tt.jpg","null","mooney2","image-keyboard-response","410","1261449","0.0-6.0-5.57","2856336","co39331","norming","","","","","","",""
"1886.2349999998696","","","post_reveal_questions","survey-likert","411","1263338","0.0-6.0-6.57","2856336","co39331","norming","","","{""aha"":4}","[0]","../img/tt/412tt.jpg","",""
"null","<div style=""font-size:60px;""> </div>","null","fixation","html-keyboard-response","412","1263548","0.0-6.0-0.58","2856336","co39331","norming","","","","","","",""
"null","../img/tt/060tt.jpg","null","mooney1","image-keyboard-response","413","1266553","0.0-6.0-1.58","2856336","co39331","norming","","","","","","",""
"6197.610000000335","","","post_mooney1_questions","survey-likert","414","1272754","0.0-6.0-2.58","2856336","co39331","norming","","","{""curiosity"":5,""confidence"":0}","[0,1]","../img/tt/060tt.jpg","",""
"2814.035000000149","","","recognition","survey-text","415","1275570","0.0-6.0-3.58","2856336","co39331","norming","","","{""guess"":""idk""}","","../img/tt/060tt.jpg","",""
"null","../img/gs/060gs.jpg","null","reveal","image-keyboard-response","416","1277572","0.0-6.0-4.58","2856336","co39331","norming","","","","","","",""
"null","../img/tt/060tt.jpg","null","mooney2","image-keyboard-response","417","1279584","0.0-6.0-5.58","2856336","co39331","norming","","","","","","",""
"2183.864999999758","","","post_reveal_questions","survey-likert","418","1281770","0.0-6.0-6.58","2856336","co39331","norming","","","{""aha"":5}","[0]","../img/tt/060tt.jpg","",""
"null","<div style=""font-size:60px;""> </div>","null","fixation","html-keyboard-response","419","1281978","0.0-6.0-0.59","2856336","co39331","norming","","","","","","",""
"null","../img/tt/1055tt.jpg","null","mooney1","image-keyboard-response","420","1284990","0.0-6.0-1.59","2856336","co39331","norming","","","","","","",""
"4001.6200000001118","","","post_mooney1_questions","survey-likert","421","1288994","0.0-6.0-2.59","2856336","co39331","norming","","","{""curiosity"":5,""confidence"":1}","[0,1]","../img/tt/1055tt.jpg","",""
"2782.2249999998603","","","recognition","survey-text","422","1291778","0.0-6.0-3.59","2856336","co39331","norming","","","{""guess"":""insect""}","","../img/tt/1055tt.jpg","",""
"null","../img/gs/1055gs.jpg","null","reveal","image-keyboard-response","423","1293781","0.0-6.0-4.59","2856336","co39331","norming","","","","","","",""
"null","../img/tt/1055tt.jpg","null","mooney2","image-keyboard-response","424","1295790","0.0-6.0-5.59","2856336","co39331","norming","","","","","","",""
"4377.295000000158","","","post_reveal_questions","survey-likert","425","1300170","0.0-6.0-6.59","2856336","co39331","norming","","","{""aha"":5}","[0]","../img/tt/1055tt.jpg","",""
"null","<div style=""font-size:60px;""> </div>","null","fixation","html-keyboard-response","426","1300381","0.0-6.0-0.60","2856336","co39331","norming","","","","","","",""
"null","../img/tt/094tt.jpg","null","mooney1","image-keyboard-response","427","1303392","0.0-6.0-1.60","2856336","co39331","norming","","","","","","",""
"8062.979999999981","","","post_mooney1_questions","survey-likert","428","1311451","0.0-6.0-2.60","2856336","co39331","norming","","","{""curiosity"":4,""confidence"":0}","[0,1]","../img/tt/094tt.jpg","",""
"2445.945000000065","","","recognition","survey-text","429","1313898","0.0-6.0-3.60","2856336","co39331","norming","","","{""guess"":""idk""}","","../img/tt/094tt.jpg","",""
"null","../img/gs/094gs.jpg","null","reveal","image-keyboard-response","430","1315905","0.0-6.0-4.60","2856336","co39331","norming","","","","","","",""
"null","../img/tt/094tt.jpg","null","mooney2","image-keyboard-response","431","1317908","0.0-6.0-5.60","2856336","co39331","norming","","","","","","",""
"8891.544999999925","","","post_reveal_questions","survey-likert","432","1326802","0.0-6.0-6.60","2856336","co39331","norming","","","{""aha"":3}","[0]","../img/tt/094tt.jpg","",""
"null","<div style=""font-size:60px;""> </div>","null","fixation","html-keyboard-response","433","1327010","0.0-6.0-0.61","2856336","co39331","norming","","","","","","",""
"null","../img/tt/1037tt.jpg","null","mooney1","image-keyboard-response","434","1330019","0.0-6.0-1.61","2856336","co39331","norming","","","","","","",""
"9948.364999999758","","","post_mooney1_questions","survey-likert","435","1339971","0.0-6.0-2.61","2856336","co39331","norming","","","{""curiosity"":4,""confidence"":0}","[0,1]","../img/tt/1037tt.jpg","",""
"2517.9199999999255","","","recognition","survey-text","436","1342490","0.0-6.0-3.61","2856336","co39331","norming","","","{""guess"":""idk""}","","../img/tt/1037tt.jpg","",""
"null","../img/gs/1037gs.jpg","null","reveal","image-keyboard-response","437","1344500","0.0-6.0-4.61","2856336","co39331","norming","","","","","","",""
"null","../img/tt/1037tt.jpg","null","mooney2","image-keyboard-response","438","1346511","0.0-6.0-5.61","2856336","co39331","norming","","","","","","",""
"3624.749999999767","","","post_reveal_questions","survey-likert","439","1350138","0.0-6.0-6.61","2856336","co39331","norming","","","{""aha"":4}","[0]","../img/tt/1037tt.jpg","",""
"null","<div style=""font-size:60px;""> </div>","null","fixation","html-keyboard-response","440","1350342","0.0-6.0-0.62","2856336","co39331","norming","","","","","","",""
"null","../img/tt/1101tt.jpg","null","mooney1","image-keyboard-response","441","1353347","0.0-6.0-1.62","2856336","co39331","norming","","","","","","",""
"4370.794999999693","","","post_mooney1_questions","survey-likert","442","1357722","0.0-6.0-2.62","2856336","co39331","norming","","","{""curiosity"":5,""confidence"":1}","[0,1]","../img/tt/1101tt.jpg","",""
"3070.3249999999534","","","recognition","survey-text","443","1360794","0.0-6.0-3.62","2856336","co39331","norming","","","{""guess"":""skiing""}","","../img/tt/1101tt.jpg","",""
"null","../img/gs/1101gs.jpg","null","reveal","image-keyboard-response","444","1362801","0.0-6.0-4.62","2856336","co39331","norming","","","","","","",""
"null","../img/tt/1101tt.jpg","null","mooney2","image-keyboard-response","445","1364805","0.0-6.0-5.62","2856336","co39331","norming","","","","","","",""
"4058.064999999944","","","post_reveal_questions","survey-likert","446","1368871","0.0-6.0-6.62","2856336","co39331","norming","","","{""aha"":3}","[0]","../img/tt/1101tt.jpg","",""
"null","<div style=""font-size:60px;""> </div>","null","fixation","html-keyboard-response","447","1369081","0.0-6.0-0.63","2856336","co39331","norming","","","","","","",""
"null","../img/tt/1006tt.jpg","null","mooney1","image-keyboard-response","448","1372088","0.0-6.0-1.63","2856336","co39331","norming","","","","","","",""
"4123.574999999721","","","post_mooney1_questions","survey-likert","449","1376215","0.0-6.0-2.63","2856336","co39331","norming","","","{""curiosity"":5,""confidence"":1}","[0,1]","../img/tt/1006tt.jpg","",""
"2325.9199999999255","","","recognition","survey-text","450","1378543","0.0-6.0-3.63","2856336","co39331","norming","","","{""guess"":""koe""}","","../img/tt/1006tt.jpg","",""
"null","../img/gs/1006gs.jpg","null","reveal","image-keyboard-response","451","1380546","0.0-6.0-4.63","2856336","co39331","norming","","","","","","",""
"null","../img/tt/1006tt.jpg","null","mooney2","image-keyboard-response","452","1382554","0.0-6.0-5.63","2856336","co39331","norming","","","","","","",""
"2761.624999999767","","","post_reveal_questions","survey-likert","453","1385319","0.0-6.0-6.63","2856336","co39331","norming","","","{""aha"":2}","[0]","../img/tt/1006tt.jpg","",""
"null","<div style=""font-size:60px;""> </div>","null","fixation","html-keyboard-response","454","1385520","0.0-6.0-0.64","2856336","co39331","norming","","","","","","",""
"null","../img/tt/1188tt.jpg","null","mooney1","image-keyboard-response","455","1388534","0.0-6.0-1.64","2856336","co39331","norming","","","","","","",""
"4157.620000000112","","","post_mooney1_questions","survey-likert","456","1392695","0.0-6.0-2.64","2856336","co39331","norming","","","{""curiosity"":5,""confidence"":0}","[0,1]","../img/tt/1188tt.jpg","",""
"5926.335000000196","","","recognition","survey-text","457","1398623","0.0-6.0-3.64","2856336","co39331","norming","","","{""guess"":""astronote""}","","../img/tt/1188tt.jpg","",""
"null","../img/gs/1188gs.jpg","null","reveal","image-keyboard-response","458","1400624","0.0-6.0-4.64","2856336","co39331","norming","","","","","","",""
"null","../img/tt/1188tt.jpg","null","mooney2","image-keyboard-response","459","1402634","0.0-6.0-5.64","2856336","co39331","norming","","","","","","",""
"2498.529999999795","","","post_reveal_questions","survey-likert","460","1405135","0.0-6.0-6.64","2856336","co39331","norming","","","{""aha"":3}","[0]","../img/tt/1188tt.jpg","",""
"null","<div style=""font-size:60px;""> </div>","null","fixation","html-keyboard-response","461","1405343","0.0-6.0-0.65","2856336","co39331","norming","","","","","","",""
"null","../img/tt/1072tt.jpg","null","mooney1","image-keyboard-response","462","1408349","0.0-6.0-1.65","2856336","co39331","norming","","","","","","",""
"7247.325000000186","","","post_mooney1_questions","survey-likert","463","1415599","0.0-6.0-2.65","2856336","co39331","norming","","","{""curiosity"":5,""confidence"":0}","[0,1]","../img/tt/1072tt.jpg","",""
"2878.0149999998976","","","recognition","survey-text","464","1418479","0.0-6.0-3.65","2856336","co39331","norming","","","{""guess"":""dogs""}","","../img/tt/1072tt.jpg","",""
"null","../img/gs/1072gs.jpg","null","reveal","image-keyboard-response","465","1420480","0.0-6.0-4.65","2856336","co39331","norming","","","","","","",""
"null","../img/tt/1072tt.jpg","null","mooney2","image-keyboard-response","466","1422488","0.0-6.0-5.65","2856336","co39331","norming","","","","","","",""
"2571.684999999823","","","post_reveal_questions","survey-likert","467","1425063","0.0-6.0-6.65","2856336","co39331","norming","","","{""aha"":3}","[0]","../img/tt/1072tt.jpg","",""
"null","<div style=""font-size:60px;""> </div>","null","fixation","html-keyboard-response","468","1425273","0.0-6.0-0.66","2856336","co39331","norming","","","","","","",""
"null","../img/tt/1087tt.jpg","null","mooney1","image-keyboard-response","469","1428276","0.0-6.0-1.66","2856336","co39331","norming","","","","","","",""
"5234.050000000047","","","post_mooney1_questions","survey-likert","470","1433507","0.0-6.0-2.66","2856336","co39331","norming","","","{""curiosity"":5,""confidence"":1}","[0,1]","../img/tt/1087tt.jpg","",""
"4405.979999999981","","","recognition","survey-text","471","1437915","0.0-6.0-3.66","2856336","co39331","norming","","","{""guess"":""koe""}","","../img/tt/1087tt.jpg","",""
"null","../img/gs/1087gs.jpg","null","reveal","image-keyboard-response","472","1439924","0.0-6.0-4.66","2856336","co39331","norming","","","","","","",""
"null","../img/tt/1087tt.jpg","null","mooney2","image-keyboard-response","473","1441931","0.0-6.0-5.66","2856336","co39331","norming","","","","","","",""
"2660.494999999879","","","post_reveal_questions","survey-likert","474","1444595","0.0-6.0-6.66","2856336","co39331","norming","","","{""aha"":4}","[0]","../img/tt/1087tt.jpg","",""
"null","<div style=""font-size:60px;""> </div>","null","fixation","html-keyboard-response","475","1444797","0.0-6.0-0.67","2856336","co39331","norming","","","","","","",""
"null","../img/tt/1242tt.jpg","null","mooney1","image-keyboard-response","476","1447807","0.0-6.0-1.67","2856336","co39331","norming","","","","","","",""
"5207.654999999795","","","post_mooney1_questions","survey-likert","477","1453019","0.0-6.0-2.67","2856336","co39331","norming","","","{""curiosity"":4,""confidence"":0}","[0,1]","../img/tt/1242tt.jpg","",""
"1374.0249999999069","","","recognition","survey-text","478","1454394","0.0-6.0-3.67","2856336","co39331","norming","","","{""guess"":""idk""}","","../img/tt/1242tt.jpg","",""
"null","../img/gs/1242gs.jpg","null","reveal","image-keyboard-response","479","1456400","0.0-6.0-4.67","2856336","co39331","norming","","","","","","",""
"null","../img/tt/1242tt.jpg","null","mooney2","image-keyboard-response","480","1458405","0.0-6.0-5.67","2856336","co39331","norming","","","","","","",""
"4155.079999999842","","","post_reveal_questions","survey-likert","481","1462563","0.0-6.0-6.67","2856336","co39331","norming","","","{""aha"":2}","[0]","../img/tt/1242tt.jpg","",""
"null","<div style=""font-size:60px;""> </div>","null","fixation","html-keyboard-response","482","1462768","0.0-6.0-0.68","2856336","co39331","norming","","","","","","",""
"null","../img/tt/1069tt.jpg","null","mooney1","image-keyboard-response","483","1465779","0.0-6.0-1.68","2856336","co39331","norming","","","","","","",""
"4604.405000000028","","","post_mooney1_questions","survey-likert","484","1470387","0.0-6.0-2.68","2856336","co39331","norming","","","{""curiosity"":5,""confidence"":1}","[0,1]","../img/tt/1069tt.jpg","",""
"2421.7750000001397","","","recognition","survey-text","485","1472811","0.0-6.0-3.68","2856336","co39331","norming","","","{""guess"":""animals""}","","../img/tt/1069tt.jpg","",""
"null","../img/gs/1069gs.jpg","null","reveal","image-keyboard-response","486","1474812","0.0-6.0-4.68","2856336","co39331","norming","","","","","","",""
"null","../img/tt/1069tt.jpg","null","mooney2","image-keyboard-response","487","1476817","0.0-6.0-5.68","2856336","co39331","norming","","","","","","",""
"3079.5850000001956","","","post_reveal_questions","survey-likert","488","1479898","0.0-6.0-6.68","2856336","co39331","norming","","","{""aha"":3}","[0]","../img/tt/1069tt.jpg","",""
"null","<div style=""font-size:60px;""> </div>","null","fixation","html-keyboard-response","489","1480105","0.0-6.0-0.69","2856336","co39331","norming","","","","","","",""
"null","../img/tt/098tt.jpg","null","mooney1","image-keyboard-response","490","1483115","0.0-6.0-1.69","2856336","co39331","norming","","","","","","",""
"2859.4499999999534","","","post_mooney1_questions","survey-likert","491","1485978","0.0-6.0-2.69","2856336","co39331","norming","","","{""curiosity"":5,""confidence"":1}","[0,1]","../img/tt/098tt.jpg","",""
"2558.090000000084","","","recognition","survey-text","492","1488538","0.0-6.0-3.69","2856336","co39331","norming","","","{""guess"":""bird""}","","../img/tt/098tt.jpg","",""
"null","../img/gs/098gs.jpg","null","reveal","image-keyboard-response","493","1490549","0.0-6.0-4.69","2856336","co39331","norming","","","","","","",""
"null","../img/tt/098tt.jpg","null","mooney2","image-keyboard-response","494","1492550","0.0-6.0-5.69","2856336","co39331","norming","","","","","","",""
"2088.7100000001956","","","post_reveal_questions","survey-likert","495","1494642","0.0-6.0-6.69","2856336","co39331","norming","","","{""aha"":4}","[0]","../img/tt/098tt.jpg","",""
"null","<div style=""font-size:60px;""> </div>","null","fixation","html-keyboard-response","496","1494848","0.0-6.0-0.70","2856336","co39331","norming","","","","","","",""
"null","../img/tt/032tt.jpg","null","mooney1","image-keyboard-response","497","1497859","0.0-6.0-1.70","2856336","co39331","norming","","","","","","",""
"4252.074999999953","","","post_mooney1_questions","survey-likert","498","1502114","0.0-6.0-2.70","2856336","co39331","norming","","","{""curiosity"":5,""confidence"":1}","[0,1]","../img/tt/032tt.jpg","",""
"2189.9899999999907","","","recognition","survey-text","499","1504306","0.0-6.0-3.70","2856336","co39331","norming","","","{""guess"":""eating""}","","../img/tt/032tt.jpg","",""
"null","../img/gs/032gs.jpg","null","reveal","image-keyboard-response","500","1506307","0.0-6.0-4.70","2856336","co39331","norming","","","","","","",""
"null","../img/tt/032tt.jpg","null","mooney2","image-keyboard-response","501","1508313","0.0-6.0-5.70","2856336","co39331","norming","","","","","","",""
"2262.019999999786","","","post_reveal_questions","survey-likert","502","1510578","0.0-6.0-6.70","2856336","co39331","norming","","","{""aha"":4}","[0]","../img/tt/032tt.jpg","",""
"null","<div style=""font-size:60px;""> </div>","null","fixation","html-keyboard-response","503","1510786","0.0-6.0-0.71","2856336","co39331","norming","","","","","","",""
"null","../img/tt/1173tt.jpg","null","mooney1","image-keyboard-response","504","1513794","0.0-6.0-1.71","2856336","co39331","norming","","","","","","",""
"4124.429999999935","","","post_mooney1_questions","survey-likert","505","1517922","0.0-6.0-2.71","2856336","co39331","norming","","","{""curiosity"":5,""confidence"":2}","[0,1]","../img/tt/1173tt.jpg","",""
"4045.929999999935","","","recognition","survey-text","506","1521970","0.0-6.0-3.71","2856336","co39331","norming","","","{""guess"":""volleyball""}","","../img/tt/1173tt.jpg","",""
"null","../img/gs/1173gs.jpg","null","reveal","image-keyboard-response","507","1523971","0.0-6.0-4.71","2856336","co39331","norming","","","","","","",""
"null","../img/tt/1173tt.jpg","null","mooney2","image-keyboard-response","508","1525978","0.0-6.0-5.71","2856336","co39331","norming","","","","","","",""
"1933.2250000000931","","","post_reveal_questions","survey-likert","509","1527914","0.0-6.0-6.71","2856336","co39331","norming","","","{""aha"":4}","[0]","../img/tt/1173tt.jpg","",""
"null","<div style=""font-size:60px;""> </div>","null","fixation","html-keyboard-response","510","1528125","0.0-6.0-0.72","2856336","co39331","norming","","","","","","",""
"null","../img/tt/1146tt.jpg","null","mooney1","image-keyboard-response","511","1531134","0.0-6.0-1.72","2856336","co39331","norming","","","","","","",""
"4008.465000000084","","","post_mooney1_questions","survey-likert","512","1535146","0.0-6.0-2.72","2856336","co39331","norming","","","{""curiosity"":5,""confidence"":0}","[0,1]","../img/tt/1146tt.jpg","",""
"1669.9149999998044","","","recognition","survey-text","513","1536818","0.0-6.0-3.72","2856336","co39331","norming","","","{""guess"":""idk""}","","../img/tt/1146tt.jpg","",""
"null","../img/gs/1146gs.jpg","null","reveal","image-keyboard-response","514","1538820","0.0-6.0-4.72","2856336","co39331","norming","","","","","","",""
"null","../img/tt/1146tt.jpg","null","mooney2","image-keyboard-response","515","1540821","0.0-6.0-5.72","2856336","co39331","norming","","","","","","",""
"2897.6749999998137","","","post_reveal_questions","survey-likert","516","1543722","0.0-6.0-6.72","2856336","co39331","norming","","","{""aha"":4}","[0]","../img/tt/1146tt.jpg","",""
"null","<div style=""font-size:60px;""> </div>","null","fixation","html-keyboard-response","517","1543926","0.0-6.0-0.73","2856336","co39331","norming","","","","","","",""
"null","../img/tt/603tt.jpg","null","mooney1","image-keyboard-response","518","1546929","0.0-6.0-1.73","2856336","co39331","norming","","","","","","",""
"4184.385000000009","","","post_mooney1_questions","survey-likert","519","1551114","0.0-6.0-2.73","2856336","co39331","norming","","","{""curiosity"":5,""confidence"":0}","[0,1]","../img/tt/603tt.jpg","",""
"2117.9950000001118","","","recognition","survey-text","520","1553234","0.0-6.0-3.73","2856336","co39331","norming","","","{""guess"":""animals""}","","../img/tt/603tt.jpg","",""
"null","../img/gs/603gs.jpg","null","reveal","image-keyboard-response","521","1555236","0.0-6.0-4.73","2856336","co39331","norming","","","","","","",""
"null","../img/tt/603tt.jpg","null","mooney2","image-keyboard-response","522","1557239","0.0-6.0-5.73","2856336","co39331","norming","","","","","","",""
"2759.844999999972","","","post_reveal_questions","survey-likert","523","1560002","0.0-6.0-6.73","2856336","co39331","norming","","","{""aha"":3}","[0]","../img/tt/603tt.jpg","",""
"null","<div style=""font-size:60px;""> </div>","null","fixation","html-keyboard-response","524","1560208","0.0-6.0-0.74","2856336","co39331","norming","","","","","","",""
"null","../img/tt/1004tt.jpg","null","mooney1","image-keyboard-response","525","1563219","0.0-6.0-1.74","2856336","co39331","norming","","","","","","",""
"3522.975000000093","","","post_mooney1_questions","survey-likert","526","1566746","0.0-6.0-2.74","2856336","co39331","norming","","","{""curiosity"":4,""confidence"":0}","[0,1]","../img/tt/1004tt.jpg","",""
"1814.3300000000745","","","recognition","survey-text","527","1568562","0.0-6.0-3.74","2856336","co39331","norming","","","{""guess"":""woods""}","","../img/tt/1004tt.jpg","",""
"null","../img/gs/1004gs.jpg","null","reveal","image-keyboard-response","528","1570564","0.0-6.0-4.74","2856336","co39331","norming","","","","","","",""
"null","../img/tt/1004tt.jpg","null","mooney2","image-keyboard-response","529","1572573","0.0-6.0-5.74","2856336","co39331","norming","","","","","","",""
"2585.850000000093","","","post_reveal_questions","survey-likert","530","1575162","0.0-6.0-6.74","2856336","co39331","norming","","","{""aha"":3}","[0]","../img/tt/1004tt.jpg","",""
"null","<div style=""font-size:60px;""> </div>","null","fixation","html-keyboard-response","531","1575366","0.0-6.0-0.75","2856336","co39331","norming","","","","","","",""
"null","../img/tt/001tt.jpg","null","mooney1","image-keyboard-response","532","1578376","0.0-6.0-1.75","2856336","co39331","norming","","","","","","",""
"4349.760000000009","","","post_mooney1_questions","survey-likert","533","1582730","0.0-6.0-2.75","2856336","co39331","norming","","","{""curiosity"":5,""confidence"":1}","[0,1]","../img/tt/001tt.jpg","",""
"1957.905000000028","","","recognition","survey-text","534","1584690","0.0-6.0-3.75","2856336","co39331","norming","","","{""guess"":""cat""}","","../img/tt/001tt.jpg","",""
"null","../img/gs/001gs.jpg","null","reveal","image-keyboard-response","535","1586691","0.0-6.0-4.75","2856336","co39331","norming","","","","","","",""
"null","../img/tt/001tt.jpg","null","mooney2","image-keyboard-response","536","1588698","0.0-6.0-5.75","2856336","co39331","norming","","","","","","",""
"3205.0099999997765","","","post_reveal_questions","survey-likert","537","1591906","0.0-6.0-6.75","2856336","co39331","norming","","","{""aha"":5}","[0]","../img/tt/001tt.jpg","",""
"null","<div style=""font-size:60px;""> </div>","null","fixation","html-keyboard-response","538","1592109","0.0-6.0-0.76","2856336","co39331","norming","","","","","","",""
"null","../img/tt/064tt.jpg","null","mooney1","image-keyboard-response","539","1595114","0.0-6.0-1.76","2856336","co39331","norming","","","","","","",""
"3692.0200000000186","","","post_mooney1_questions","survey-likert","540","1598810","0.0-6.0-2.76","2856336","co39331","norming","","","{""curiosity"":5,""confidence"":0}","[0,1]","../img/tt/064tt.jpg","",""
"1781.6749999998137","","","recognition","survey-text","541","1600594","0.0-6.0-3.76","2856336","co39331","norming","","","{""guess"":""idk""}","","../img/tt/064tt.jpg","",""
"null","../img/gs/064gs.jpg","null","reveal","image-keyboard-response","542","1602603","0.0-6.0-4.76","2856336","co39331","norming","","","","","","",""
"null","../img/tt/064tt.jpg","null","mooney2","image-keyboard-response","543","1604612","0.0-6.0-5.76","2856336","co39331","norming","","","","","","",""
"2730.945000000065","","","post_reveal_questions","survey-likert","544","1607346","0.0-6.0-6.76","2856336","co39331","norming","","","{""aha"":4}","[0]","../img/tt/064tt.jpg","",""
"null","<div style=""font-size:60px;""> </div>","null","fixation","html-keyboard-response","545","1607554","0.0-6.0-0.77","2856336","co39331","norming","","","","","","",""
"null","../img/tt/1043tt.jpg","null","mooney1","image-keyboard-response","546","1610564","0.0-6.0-1.77","2856336","co39331","norming","","","","","","",""
"3914.530000000028","","","post_mooney1_questions","survey-likert","547","1614479","0.0-6.0-2.77","2856336","co39331","norming","","","{""curiosity"":5,""confidence"":0}","[0,1]","../img/tt/1043tt.jpg","",""
"8301.875","","","recognition","survey-text","548","1622782","0.0-6.0-3.77","2856336","co39331","norming","","","{""guess"":""something to eat""}","","../img/tt/1043tt.jpg","",""
"null","../img/gs/1043gs.jpg","null","reveal","image-keyboard-response","549","1624785","0.0-6.0-4.77","2856336","co39331","norming","","","","","","",""
"null","../img/tt/1043tt.jpg","null","mooney2","image-keyboard-response","550","1626792","0.0-6.0-5.77","2856336","co39331","norming","","","","","","",""
"2413.3549999997485","","","post_reveal_questions","survey-likert","551","1629206","0.0-6.0-6.77","2856336","co39331","norming","","","{""aha"":3}","[0]","../img/tt/1043tt.jpg","",""
"null","<div style=""font-size:60px;""> </div>","null","fixation","html-keyboard-response","552","1629409","0.0-6.0-0.78","2856336","co39331","norming","","","","","","",""
