"rt","stimulus","key_press","test_part","trial_type","trial_index","time_elapsed","internal_node_id","totalTime","subject","experiment_name","button_pressed","success","responses","question_order","currentStim","old","correct"
"8594.754999999994","Welcome to the experiment. This is an online experiment so please don't close the tab/window until we say goodbye.  Press any key to begin.","74","instructions","html-keyboard-response","0","8610","0.0-0.0","2727754","co39502","norming","","","","","","",""
"9782.199999999988","<div style='word-wrap: break-word; width: 900px'><h3>Please consider this information carefully before deciding whether to participate in this research</h3><ul style='text-align: left; font-size: .8em;'><li><b>Purpose of the research</b>: To examine how people process images.</li><li><b>What you will do in this research</b>:  Stimuli (images) will be presented on the computer and you will be asked different questions about them.</li><li><b>Time required</b>: Participation will take between 45 and 60 minutes to complete.</li><li><b>Risks</b>:  There are no anticipated risks associated with participating in this study. The effects of participating should be comparable to those you would experience from viewing a computer monitor for 30 minutes and using a mouse or keyboard.</li><li><b>Benefits</b>:  This study provides no benefits to you individually except for the credit. The study provides important information about the nature of perception and learning.</li><li><b>Confidentiality</b>:  Your participation in this study will remain confidential. No personally identifiable information will be associated with your data. Your de-identified data may be shared with other researchers and used in future projects.</li><li><b>Participation and withdrawal</b>:  Your participation in this study is completely voluntary and you may refuse to participate or you may choose to withdraw at any time without penalty.</li><li><b>How to contact the researchers</b>: If you have questions or concerns about your participation or payment, or want to request a summary of research findings, please contact Sander Van de Cruys (KU Leuven), at sander.vandecruys@kuleuven.be.</li></ul><p>The nature and purpose of this research have been sufficiently explained and I agree to participate in this study.  I understand that I am free to withdraw at any time without incurring any penalty.</p><p>Please consent by clicking the button below to continue. Otherwise, please exit the study at this time.</p></div>","","instructions","html-button-response","1","18391","0.0-1.0","2727754","co39502","norming","0","","","","","",""
"","","","instructions","fullscreen","2","20998","0.0-2.0","2727754","co39502","norming","","true","","","","",""
"29199.275","","","sona","survey-html-form","3","50203","0.0-3.0","2727754","co39502","norming","","","[{""name"":""sonaid"",""value"":""39502""},{""name"":""debrief"",""value"":""yes""},{""name"":""datajoin"",""value"":""yes""}]","","","",""
"65026.59","<div style='word-wrap: break-word; width: 900px'><h3>Instructions</h3><p>This experiment will have 3 parts. In the first part you will see a series of distorted images like the one below on the left. As you can see in the righthand image, the distorted images are derived from actual photographs. In what follows, you will <strong>briefly</strong> be presented with <strong>only</strong> the distorted image.</p> <div style='float: left; margin-right: 20px;'><img src='../img/018tt.jpg' height='250' width='250'></img></div><div style='float: right; margin-left: 20px;'><img src='../img/018gs.jpg' height='250' width='250'></img></div><p>Subsequently you will be asked a few questions about the image: One question on how <strong>curious</strong> you are about the solution and one on how <strong>confident</strong> you are that you know the solution.</p>Next, we ask you to make a guess on what is in the image. Note that it is OK to name just the <strong>basic level category</strong>. For example when you see a parrot in the image, 'parrot' will obviously be a correct answer but also correct is 'bird'. However, 'animal' will <strong>not</strong> be counted as a correct response. For the example above, 'rose' would be correct or 'flower', but not 'plant'. When soccer players are depicted, 'soccer', 'football', 'soccer players' will be correct, but not 'humans', 'outdoors', or 'sports'. You do not need to describe the image in full, just name the main object in it <strong>in one or two words</strong>. All images depict objects from one of the following broad level categories: animals, inanimate objects, plants, sports, vehicles, and food. Recognizing means knowing <strong>more</strong> than these broad labels for a given image. But we always encourage you to <strong>make a guess</strong> if you can. Note that you are allowed to use <strong>Dutch and English</strong> in your answers, whatever comes easiest for you.</p><p>Press any key to continue.</p></div>","85","instructions","html-keyboard-response","4","115227","0.0-4.0","2727754","co39502","norming","","","","","","",""
"0.10499999998137355","<div style='word-wrap: break-word; width: 900px'><h3>Instructions</h3> <p>Next, the solution image will be revealed to you and you'll be asked to indicate how strong your <strong>aha-experience</strong> was after seeing the solution. This describes the positive feeling of the 'click' you sometimes experience, when the pieces of the 'puzzle' fall together and you suddenly have 'insight' in the image.</p><img src='aha.jpg' height='188' width='250'></img><p>Note that there are no right or wrong answers. We are interested in what <strong>you</strong> see in the image and how <strong>you</strong> feel about it.</p><p>Press any key to start the experiment.</p></div>","73","instructions","html-keyboard-response","5","115228","0.0-5.0","2727754","co39502","norming","","","","","","",""
"null","<div style=""font-size:60px;""> </div>","null","fixation","html-keyboard-response","6","115432","0.0-6.0-0.0","2727754","co39502","norming","","","","","","",""
"null","../img/tt/405tt.jpg","null","mooney1","image-keyboard-response","7","118442","0.0-6.0-1.0","2727754","co39502","norming","","","","","","",""
"14023.48000000001","","","post_mooney1_questions","survey-likert","8","132468","0.0-6.0-2.0","2727754","co39502","norming","","","{""curiosity"":1,""confidence"":0}","[0,1]","../img/tt/405tt.jpg","",""
"5412.920000000013","","","recognition","survey-text","9","137883","0.0-6.0-3.0","2727754","co39502","norming","","","{""guess"":""""}","","../img/tt/405tt.jpg","",""
"null","../img/gs/405gs.jpg","null","reveal","image-keyboard-response","10","139887","0.0-6.0-4.0","2727754","co39502","norming","","","","","","",""
"null","../img/tt/405tt.jpg","null","mooney2","image-keyboard-response","11","141894","0.0-6.0-5.0","2727754","co39502","norming","","","","","","",""
"67859.91000000003","","","post_reveal_questions","survey-likert","12","209761","0.0-6.0-6.0","2727754","co39502","norming","","","{""aha"":1}","[0]","../img/tt/405tt.jpg","",""
"null","<div style=""font-size:60px;""> </div>","null","fixation","html-keyboard-response","13","209963","0.0-6.0-0.1","2727754","co39502","norming","","","","","","",""
"null","../img/tt/1309tt.jpg","null","mooney1","image-keyboard-response","14","212968","0.0-6.0-1.1","2727754","co39502","norming","","","","","","",""
"4863.390000000043","","","post_mooney1_questions","survey-likert","15","217833","0.0-6.0-2.1","2727754","co39502","norming","","","{""curiosity"":2,""confidence"":1}","[0,1]","../img/tt/1309tt.jpg","",""
"3318.195000000007","","","recognition","survey-text","16","221153","0.0-6.0-3.1","2727754","co39502","norming","","","{""guess"":""auto""}","","../img/tt/1309tt.jpg","",""
"null","../img/gs/1309gs.jpg","null","reveal","image-keyboard-response","17","223157","0.0-6.0-4.1","2727754","co39502","norming","","","","","","",""
"null","../img/tt/1309tt.jpg","null","mooney2","image-keyboard-response","18","225161","0.0-6.0-5.1","2727754","co39502","norming","","","","","","",""
"3014.3499999999767","","","post_reveal_questions","survey-likert","19","228177","0.0-6.0-6.1","2727754","co39502","norming","","","{""aha"":2}","[0]","../img/tt/1309tt.jpg","",""
"null","<div style=""font-size:60px;""> </div>","null","fixation","html-keyboard-response","20","228379","0.0-6.0-0.2","2727754","co39502","norming","","","","","","",""
"null","../img/tt/1270tt.jpg","null","mooney1","image-keyboard-response","21","231382","0.0-6.0-1.2","2727754","co39502","norming","","","","","","",""
"4554.025000000023","","","post_mooney1_questions","survey-likert","22","235937","0.0-6.0-2.2","2727754","co39502","norming","","","{""curiosity"":3,""confidence"":0}","[0,1]","../img/tt/1270tt.jpg","",""
"1597.960000000021","","","recognition","survey-text","23","237536","0.0-6.0-3.2","2727754","co39502","norming","","","{""guess"":""""}","","../img/tt/1270tt.jpg","",""
"null","../img/gs/1270gs.jpg","null","reveal","image-keyboard-response","24","239538","0.0-6.0-4.2","2727754","co39502","norming","","","","","","",""
"null","../img/tt/1270tt.jpg","null","mooney2","image-keyboard-response","25","241546","0.0-6.0-5.2","2727754","co39502","norming","","","","","","",""
"4669.304999999993","","","post_reveal_questions","survey-likert","26","246217","0.0-6.0-6.2","2727754","co39502","norming","","","{""aha"":3}","[0]","../img/tt/1270tt.jpg","",""
"null","<div style=""font-size:60px;""> </div>","null","fixation","html-keyboard-response","27","246423","0.0-6.0-0.3","2727754","co39502","norming","","","","","","",""
"null","../img/tt/1127tt.jpg","null","mooney1","image-keyboard-response","28","249430","0.0-6.0-1.3","2727754","co39502","norming","","","","","","",""
"3874.564999999944","","","post_mooney1_questions","survey-likert","29","253305","0.0-6.0-2.3","2727754","co39502","norming","","","{""curiosity"":3,""confidence"":1}","[0,1]","../img/tt/1127tt.jpg","",""
"3414.1299999999756","","","recognition","survey-text","30","256721","0.0-6.0-3.3","2727754","co39502","norming","","","{""guess"":""cafe""}","","../img/tt/1127tt.jpg","",""
"null","../img/gs/1127gs.jpg","null","reveal","image-keyboard-response","31","258723","0.0-6.0-4.3","2727754","co39502","norming","","","","","","",""
"null","../img/tt/1127tt.jpg","null","mooney2","image-keyboard-response","32","260725","0.0-6.0-5.3","2727754","co39502","norming","","","","","","",""
"2763.514999999985","","","post_reveal_questions","survey-likert","33","263489","0.0-6.0-6.3","2727754","co39502","norming","","","{""aha"":0}","[0]","../img/tt/1127tt.jpg","",""
"null","<div style=""font-size:60px;""> </div>","null","fixation","html-keyboard-response","34","263691","0.0-6.0-0.4","2727754","co39502","norming","","","","","","",""
"null","../img/tt/442tt.jpg","null","mooney1","image-keyboard-response","35","266693","0.0-6.0-1.4","2727754","co39502","norming","","","","","","",""
"7866.9199999999255","","","post_mooney1_questions","survey-likert","36","274599","0.0-6.0-2.4","2727754","co39502","norming","","","{""curiosity"":2,""confidence"":0}","[0,1]","../img/tt/442tt.jpg","",""
"3198.0899999999674","","","recognition","survey-text","37","277798","0.0-6.0-3.4","2727754","co39502","norming","","","{""guess"":""animal""}","","../img/tt/442tt.jpg","",""
"null","../img/gs/442gs.jpg","null","reveal","image-keyboard-response","38","279809","0.0-6.0-4.4","2727754","co39502","norming","","","","","","",""
"null","../img/tt/442tt.jpg","null","mooney2","image-keyboard-response","39","281818","0.0-6.0-5.4","2727754","co39502","norming","","","","","","",""
"1690.2649999999558","","","post_reveal_questions","survey-likert","40","283510","0.0-6.0-6.4","2727754","co39502","norming","","","{""aha"":0}","[0]","../img/tt/442tt.jpg","",""
"null","<div style=""font-size:60px;""> </div>","null","fixation","html-keyboard-response","41","283714","0.0-6.0-0.5","2727754","co39502","norming","","","","","","",""
"null","../img/tt/1118tt.jpg","null","mooney1","image-keyboard-response","42","286720","0.0-6.0-1.5","2727754","co39502","norming","","","","","","",""
"4141.140000000072","","","post_mooney1_questions","survey-likert","43","290862","0.0-6.0-2.5","2727754","co39502","norming","","","{""curiosity"":2,""confidence"":0}","[0,1]","../img/tt/1118tt.jpg","",""
"2694.319999999949","","","recognition","survey-text","44","293558","0.0-6.0-3.5","2727754","co39502","norming","","","{""guess"":""auto""}","","../img/tt/1118tt.jpg","",""
"null","../img/gs/1118gs.jpg","null","reveal","image-keyboard-response","45","295562","0.0-6.0-4.5","2727754","co39502","norming","","","","","","",""
"null","../img/tt/1118tt.jpg","null","mooney2","image-keyboard-response","46","297567","0.0-6.0-5.5","2727754","co39502","norming","","","","","","",""
"2580.9099999999744","","","post_reveal_questions","survey-likert","47","300150","0.0-6.0-6.5","2727754","co39502","norming","","","{""aha"":0}","[0]","../img/tt/1118tt.jpg","",""
"null","<div style=""font-size:60px;""> </div>","null","fixation","html-keyboard-response","48","300352","0.0-6.0-0.6","2727754","co39502","norming","","","","","","",""
"null","../img/tt/010tt.jpg","null","mooney1","image-keyboard-response","49","303363","0.0-6.0-1.6","2727754","co39502","norming","","","","","","",""
"5920.839999999967","","","post_mooney1_questions","survey-likert","50","309286","0.0-6.0-2.6","2727754","co39502","norming","","","{""curiosity"":2,""confidence"":0}","[0,1]","../img/tt/010tt.jpg","",""
"2790.3400000000256","","","recognition","survey-text","51","312078","0.0-6.0-3.6","2727754","co39502","norming","","","{""guess"":""beker""}","","../img/tt/010tt.jpg","",""
"null","../img/gs/010gs.jpg","null","reveal","image-keyboard-response","52","314086","0.0-6.0-4.6","2727754","co39502","norming","","","","","","",""
"null","../img/tt/010tt.jpg","null","mooney2","image-keyboard-response","53","316087","0.0-6.0-5.6","2727754","co39502","norming","","","","","","",""
"1876.8099999999395","","","post_reveal_questions","survey-likert","54","317966","0.0-6.0-6.6","2727754","co39502","norming","","","{""aha"":0}","[0]","../img/tt/010tt.jpg","",""
"null","<div style=""font-size:60px;""> </div>","null","fixation","html-keyboard-response","55","318170","0.0-6.0-0.7","2727754","co39502","norming","","","","","","",""
"null","../img/tt/353tt.jpg","null","mooney1","image-keyboard-response","56","321174","0.0-6.0-1.7","2727754","co39502","norming","","","","","","",""
"2798.335000000079","","","post_mooney1_questions","survey-likert","57","323975","0.0-6.0-2.7","2727754","co39502","norming","","","{""curiosity"":3,""confidence"":1}","[0,1]","../img/tt/353tt.jpg","",""
"4294.7399999999325","","","recognition","survey-text","58","328271","0.0-6.0-3.7","2727754","co39502","norming","","","{""guess"":""pinguïn""}","","../img/tt/353tt.jpg","",""
"null","../img/gs/353gs.jpg","null","reveal","image-keyboard-response","59","330320","0.0-6.0-4.7","2727754","co39502","norming","","","","","","",""
"null","../img/tt/353tt.jpg","null","mooney2","image-keyboard-response","60","332322","0.0-6.0-5.7","2727754","co39502","norming","","","","","","",""
"1723.390000000014","","","post_reveal_questions","survey-likert","61","334047","0.0-6.0-6.7","2727754","co39502","norming","","","{""aha"":2}","[0]","../img/tt/353tt.jpg","",""
"null","<div style=""font-size:60px;""> </div>","null","fixation","html-keyboard-response","62","334249","0.0-6.0-0.8","2727754","co39502","norming","","","","","","",""
"null","../img/tt/599tt.jpg","null","mooney1","image-keyboard-response","63","337258","0.0-6.0-1.8","2727754","co39502","norming","","","","","","",""
"4514.92499999993","","","post_mooney1_questions","survey-likert","64","341775","0.0-6.0-2.8","2727754","co39502","norming","","","{""curiosity"":1,""confidence"":0}","[0,1]","../img/tt/599tt.jpg","",""
"1734.1299999999464","","","recognition","survey-text","65","343511","0.0-6.0-3.8","2727754","co39502","norming","","","{""guess"":""""}","","../img/tt/599tt.jpg","",""
"null","../img/gs/599gs.jpg","null","reveal","image-keyboard-response","66","345521","0.0-6.0-4.8","2727754","co39502","norming","","","","","","",""
"null","../img/tt/599tt.jpg","null","mooney2","image-keyboard-response","67","347523","0.0-6.0-5.8","2727754","co39502","norming","","","","","","",""
"1666.2999999999884","","","post_reveal_questions","survey-likert","68","349191","0.0-6.0-6.8","2727754","co39502","norming","","","{""aha"":2}","[0]","../img/tt/599tt.jpg","",""
"null","<div style=""font-size:60px;""> </div>","null","fixation","html-keyboard-response","69","349400","0.0-6.0-0.9","2727754","co39502","norming","","","","","","",""
"null","../img/tt/1217tt.jpg","null","mooney1","image-keyboard-response","70","352407","0.0-6.0-1.9","2727754","co39502","norming","","","","","","",""
"5125.335000000021","","","post_mooney1_questions","survey-likert","71","357535","0.0-6.0-2.9","2727754","co39502","norming","","","{""curiosity"":1,""confidence"":0}","[0,1]","../img/tt/1217tt.jpg","",""
"3238.0450000001","","","recognition","survey-text","72","360775","0.0-6.0-3.9","2727754","co39502","norming","","","{""guess"":""panda""}","","../img/tt/1217tt.jpg","",""
"null","../img/gs/1217gs.jpg","null","reveal","image-keyboard-response","73","362776","0.0-6.0-4.9","2727754","co39502","norming","","","","","","",""
"null","../img/tt/1217tt.jpg","null","mooney2","image-keyboard-response","74","364781","0.0-6.0-5.9","2727754","co39502","norming","","","","","","",""
"3361.8099999999977","","","post_reveal_questions","survey-likert","75","368143","0.0-6.0-6.9","2727754","co39502","norming","","","{""aha"":0}","[0]","../img/tt/1217tt.jpg","",""
"null","<div style=""font-size:60px;""> </div>","null","fixation","html-keyboard-response","76","368351","0.0-6.0-0.10","2727754","co39502","norming","","","","","","",""
"null","../img/tt/1033tt.jpg","null","mooney1","image-keyboard-response","77","371360","0.0-6.0-1.10","2727754","co39502","norming","","","","","","",""
"3433.155000000028","","","post_mooney1_questions","survey-likert","78","374799","0.0-6.0-2.10","2727754","co39502","norming","","","{""curiosity"":1,""confidence"":0}","[0,1]","../img/tt/1033tt.jpg","",""
"4062.2200000000303","","","recognition","survey-text","79","378863","0.0-6.0-3.10","2727754","co39502","norming","","","{""guess"":""rugby""}","","../img/tt/1033tt.jpg","",""
"null","../img/gs/1033gs.jpg","null","reveal","image-keyboard-response","80","380869","0.0-6.0-4.10","2727754","co39502","norming","","","","","","",""
"null","../img/tt/1033tt.jpg","null","mooney2","image-keyboard-response","81","382875","0.0-6.0-5.10","2727754","co39502","norming","","","","","","",""
"2786.3800000000047","","","post_reveal_questions","survey-likert","82","385663","0.0-6.0-6.10","2727754","co39502","norming","","","{""aha"":2}","[0]","../img/tt/1033tt.jpg","",""
"null","<div style=""font-size:60px;""> </div>","null","fixation","html-keyboard-response","83","385865","0.0-6.0-0.11","2727754","co39502","norming","","","","","","",""
"null","../img/tt/522tt.jpg","null","mooney1","image-keyboard-response","84","388875","0.0-6.0-1.11","2727754","co39502","norming","","","","","","",""
"2635.4200000001","","","post_mooney1_questions","survey-likert","85","391552","0.0-6.0-2.11","2727754","co39502","norming","","","{""curiosity"":1,""confidence"":0}","[0,1]","../img/tt/522tt.jpg","",""
"1054.1199999999953","","","recognition","survey-text","86","392608","0.0-6.0-3.11","2727754","co39502","norming","","","{""guess"":""""}","","../img/tt/522tt.jpg","",""
"null","../img/gs/522gs.jpg","null","reveal","image-keyboard-response","87","394613","0.0-6.0-4.11","2727754","co39502","norming","","","","","","",""
"null","../img/tt/522tt.jpg","null","mooney2","image-keyboard-response","88","396615","0.0-6.0-5.11","2727754","co39502","norming","","","","","","",""
"3216.1100000000442","","","post_reveal_questions","survey-likert","89","399832","0.0-6.0-6.11","2727754","co39502","norming","","","{""aha"":0}","[0]","../img/tt/522tt.jpg","",""
"null","<div style=""font-size:60px;""> </div>","null","fixation","html-keyboard-response","90","400039","0.0-6.0-0.12","2727754","co39502","norming","","","","","","",""
"null","../img/tt/440tt.jpg","null","mooney1","image-keyboard-response","91","403046","0.0-6.0-1.12","2727754","co39502","norming","","","","","","",""
"6063.180000000109","","","post_mooney1_questions","survey-likert","92","409112","0.0-6.0-2.12","2727754","co39502","norming","","","{""curiosity"":1,""confidence"":0}","[0,1]","../img/tt/440tt.jpg","",""
"1413.9500000000116","","","recognition","survey-text","93","410528","0.0-6.0-3.12","2727754","co39502","norming","","","{""guess"":""""}","","../img/tt/440tt.jpg","",""
"null","../img/gs/440gs.jpg","null","reveal","image-keyboard-response","94","412534","0.0-6.0-4.12","2727754","co39502","norming","","","","","","",""
"null","../img/tt/440tt.jpg","null","mooney2","image-keyboard-response","95","414536","0.0-6.0-5.12","2727754","co39502","norming","","","","","","",""
"3015.319999999949","","","post_reveal_questions","survey-likert","96","417552","0.0-6.0-6.12","2727754","co39502","norming","","","{""aha"":0}","[0]","../img/tt/440tt.jpg","",""
"null","<div style=""font-size:60px;""> </div>","null","fixation","html-keyboard-response","97","417755","0.0-6.0-0.13","2727754","co39502","norming","","","","","","",""
"null","../img/tt/1250tt.jpg","null","mooney1","image-keyboard-response","98","420760","0.0-6.0-1.13","2727754","co39502","norming","","","","","","",""
"3886.4150000000955","","","post_mooney1_questions","survey-likert","99","424648","0.0-6.0-2.13","2727754","co39502","norming","","","{""curiosity"":1,""confidence"":0}","[0,1]","../img/tt/1250tt.jpg","",""
"4710.564999999944","","","recognition","survey-text","100","429360","0.0-6.0-3.13","2727754","co39502","norming","","","{""guess"":""zeedier""}","","../img/tt/1250tt.jpg","",""
"null","../img/gs/1250gs.jpg","null","reveal","image-keyboard-response","101","431369","0.0-6.0-4.13","2727754","co39502","norming","","","","","","",""
"null","../img/tt/1250tt.jpg","null","mooney2","image-keyboard-response","102","433374","0.0-6.0-5.13","2727754","co39502","norming","","","","","","",""
"2776.399999999965","","","post_reveal_questions","survey-likert","103","436152","0.0-6.0-6.13","2727754","co39502","norming","","","{""aha"":0}","[0]","../img/tt/1250tt.jpg","",""
"null","<div style=""font-size:60px;""> </div>","null","fixation","html-keyboard-response","104","436357","0.0-6.0-0.14","2727754","co39502","norming","","","","","","",""
"null","../img/tt/052tt.jpg","null","mooney1","image-keyboard-response","105","439358","0.0-6.0-1.14","2727754","co39502","norming","","","","","","",""
"4041.335000000021","","","post_mooney1_questions","survey-likert","106","443400","0.0-6.0-2.14","2727754","co39502","norming","","","{""curiosity"":1,""confidence"":0}","[0,1]","../img/tt/052tt.jpg","",""
"2150","","","recognition","survey-text","107","445552","0.0-6.0-3.14","2727754","co39502","norming","","","{""guess"":""ring""}","","../img/tt/052tt.jpg","",""
"null","../img/gs/052gs.jpg","null","reveal","image-keyboard-response","108","447554","0.0-6.0-4.14","2727754","co39502","norming","","","","","","",""
"null","../img/tt/052tt.jpg","null","mooney2","image-keyboard-response","109","449563","0.0-6.0-5.14","2727754","co39502","norming","","","","","","",""
"1915.6149999999907","","","post_reveal_questions","survey-likert","110","451514","0.0-6.0-6.14","2727754","co39502","norming","","","{""aha"":2}","[0]","../img/tt/052tt.jpg","",""
"null","<div style=""font-size:60px;""> </div>","null","fixation","html-keyboard-response","111","451721","0.0-6.0-0.15","2727754","co39502","norming","","","","","","",""
"null","../img/tt/1247tt.jpg","null","mooney1","image-keyboard-response","112","454722","0.0-6.0-1.15","2727754","co39502","norming","","","","","","",""
"4070.305000000051","","","post_mooney1_questions","survey-likert","113","458794","0.0-6.0-2.15","2727754","co39502","norming","","","{""curiosity"":1,""confidence"":0}","[0,1]","../img/tt/1247tt.jpg","",""
"1301.789999999979","","","recognition","survey-text","114","460098","0.0-6.0-3.15","2727754","co39502","norming","","","{""guess"":""""}","","../img/tt/1247tt.jpg","",""
"null","../img/gs/1247gs.jpg","null","reveal","image-keyboard-response","115","462104","0.0-6.0-4.15","2727754","co39502","norming","","","","","","",""
"null","../img/tt/1247tt.jpg","null","mooney2","image-keyboard-response","116","464114","0.0-6.0-5.15","2727754","co39502","norming","","","","","","",""
"1982.4950000000536","","","post_reveal_questions","survey-likert","117","466098","0.0-6.0-6.15","2727754","co39502","norming","","","{""aha"":3}","[0]","../img/tt/1247tt.jpg","",""
"null","<div style=""font-size:60px;""> </div>","null","fixation","html-keyboard-response","118","466308","0.0-6.0-0.16","2727754","co39502","norming","","","","","","",""
"null","../img/tt/1226tt.jpg","null","mooney1","image-keyboard-response","119","469319","0.0-6.0-1.16","2727754","co39502","norming","","","","","","",""
"5690.340000000026","","","post_mooney1_questions","survey-likert","120","475010","0.0-6.0-2.16","2727754","co39502","norming","","","{""curiosity"":1,""confidence"":1}","[0,1]","../img/tt/1226tt.jpg","",""
"2518.270000000077","","","recognition","survey-text","121","477530","0.0-6.0-3.16","2727754","co39502","norming","","","{""guess"":""zwanen""}","","../img/tt/1226tt.jpg","",""
"null","../img/gs/1226gs.jpg","null","reveal","image-keyboard-response","122","479540","0.0-6.0-4.16","2727754","co39502","norming","","","","","","",""
"null","../img/tt/1226tt.jpg","null","mooney2","image-keyboard-response","123","481542","0.0-6.0-5.16","2727754","co39502","norming","","","","","","",""
"2786.8499999999185","","","post_reveal_questions","survey-likert","124","484330","0.0-6.0-6.16","2727754","co39502","norming","","","{""aha"":0}","[0]","../img/tt/1226tt.jpg","",""
"null","<div style=""font-size:60px;""> </div>","null","fixation","html-keyboard-response","125","484537","0.0-6.0-0.17","2727754","co39502","norming","","","","","","",""
"null","../img/tt/315tt.jpg","null","mooney1","image-keyboard-response","126","487544","0.0-6.0-1.17","2727754","co39502","norming","","","","","","",""
"3912.5199999999604","","","post_mooney1_questions","survey-likert","127","491458","0.0-6.0-2.17","2727754","co39502","norming","","","{""curiosity"":1,""confidence"":0}","[0,1]","../img/tt/315tt.jpg","",""
"1766.3000000000466","","","recognition","survey-text","128","493226","0.0-6.0-3.17","2727754","co39502","norming","","","{""guess"":""uil""}","","../img/tt/315tt.jpg","",""
"null","../img/gs/315gs.jpg","null","reveal","image-keyboard-response","129","495234","0.0-6.0-4.17","2727754","co39502","norming","","","","","","",""
"null","../img/tt/315tt.jpg","null","mooney2","image-keyboard-response","130","497239","0.0-6.0-5.17","2727754","co39502","norming","","","","","","",""
"2146.164999999979","","","post_reveal_questions","survey-likert","131","499386","0.0-6.0-6.17","2727754","co39502","norming","","","{""aha"":1}","[0]","../img/tt/315tt.jpg","",""
"null","<div style=""font-size:60px;""> </div>","null","fixation","html-keyboard-response","132","499593","0.0-6.0-0.18","2727754","co39502","norming","","","","","","",""
"null","../img/tt/1069tt.jpg","null","mooney1","image-keyboard-response","133","502597","0.0-6.0-1.18","2727754","co39502","norming","","","","","","",""
"5124.365000000049","","","post_mooney1_questions","survey-likert","134","507722","0.0-6.0-2.18","2727754","co39502","norming","","","{""curiosity"":1,""confidence"":0}","[0,1]","../img/tt/1069tt.jpg","",""
"989.8099999998813","","","recognition","survey-text","135","508714","0.0-6.0-3.18","2727754","co39502","norming","","","{""guess"":""""}","","../img/tt/1069tt.jpg","",""
"null","../img/gs/1069gs.jpg","null","reveal","image-keyboard-response","136","510715","0.0-6.0-4.18","2727754","co39502","norming","","","","","","",""
"null","../img/tt/1069tt.jpg","null","mooney2","image-keyboard-response","137","512776","0.0-6.0-5.18","2727754","co39502","norming","","","","","","",""
"2659.6900000000605","","","post_reveal_questions","survey-likert","138","515437","0.0-6.0-6.18","2727754","co39502","norming","","","{""aha"":0}","[0]","../img/tt/1069tt.jpg","",""
"null","<div style=""font-size:60px;""> </div>","null","fixation","html-keyboard-response","139","515639","0.0-6.0-0.19","2727754","co39502","norming","","","","","","",""
"null","../img/tt/189tt.jpg","null","mooney1","image-keyboard-response","140","518645","0.0-6.0-1.19","2727754","co39502","norming","","","","","","",""
"10614.804999999993","","","post_mooney1_questions","survey-likert","141","529261","0.0-6.0-2.19","2727754","co39502","norming","","","{""curiosity"":1,""confidence"":0}","[0,1]","../img/tt/189tt.jpg","",""
"9981.824999999953","","","recognition","survey-text","142","539245","0.0-6.0-3.19","2727754","co39502","norming","","","{""guess"":""huizen ""}","","../img/tt/189tt.jpg","",""
"null","../img/gs/189gs.jpg","null","reveal","image-keyboard-response","143","541246","0.0-6.0-4.19","2727754","co39502","norming","","","","","","",""
"null","../img/tt/189tt.jpg","null","mooney2","image-keyboard-response","144","543247","0.0-6.0-5.19","2727754","co39502","norming","","","","","","",""
"2284.5100000000093","","","post_reveal_questions","survey-likert","145","545533","0.0-6.0-6.19","2727754","co39502","norming","","","{""aha"":0}","[0]","../img/tt/189tt.jpg","",""
"null","<div style=""font-size:60px;""> </div>","null","fixation","html-keyboard-response","146","545734","0.0-6.0-0.20","2727754","co39502","norming","","","","","","",""
"null","../img/tt/524tt.jpg","null","mooney1","image-keyboard-response","147","548736","0.0-6.0-1.20","2727754","co39502","norming","","","","","","",""
"3723.219999999972","","","post_mooney1_questions","survey-likert","148","552461","0.0-6.0-2.20","2727754","co39502","norming","","","{""curiosity"":1,""confidence"":1}","[0,1]","../img/tt/524tt.jpg","",""
"3621.9100000000326","","","recognition","survey-text","149","556085","0.0-6.0-3.20","2727754","co39502","norming","","","{""guess"":""olifant""}","","../img/tt/524tt.jpg","",""
"null","../img/gs/524gs.jpg","null","reveal","image-keyboard-response","150","558092","0.0-6.0-4.20","2727754","co39502","norming","","","","","","",""
"null","../img/tt/524tt.jpg","null","mooney2","image-keyboard-response","151","560093","0.0-6.0-5.20","2727754","co39502","norming","","","","","","",""
"2318.3649999999907","","","post_reveal_questions","survey-likert","152","562413","0.0-6.0-6.20","2727754","co39502","norming","","","{""aha"":0}","[0]","../img/tt/524tt.jpg","",""
"null","<div style=""font-size:60px;""> </div>","null","fixation","html-keyboard-response","153","562622","0.0-6.0-0.21","2727754","co39502","norming","","","","","","",""
"null","../img/tt/496tt.jpg","null","mooney1","image-keyboard-response","154","565628","0.0-6.0-1.21","2727754","co39502","norming","","","","","","",""
"3424.2499999998836","","","post_mooney1_questions","survey-likert","155","569053","0.0-6.0-2.21","2727754","co39502","norming","","","{""curiosity"":1,""confidence"":0}","[0,1]","../img/tt/496tt.jpg","",""
"4277.854999999865","","","recognition","survey-text","156","573334","0.0-6.0-3.21","2727754","co39502","norming","","","{""guess"":""hond""}","","../img/tt/496tt.jpg","",""
"null","../img/gs/496gs.jpg","null","reveal","image-keyboard-response","157","575337","0.0-6.0-4.21","2727754","co39502","norming","","","","","","",""
"null","../img/tt/496tt.jpg","null","mooney2","image-keyboard-response","158","577346","0.0-6.0-5.21","2727754","co39502","norming","","","","","","",""
"2443.1849999999395","","","post_reveal_questions","survey-likert","159","579790","0.0-6.0-6.21","2727754","co39502","norming","","","{""aha"":3}","[0]","../img/tt/496tt.jpg","",""
"null","<div style=""font-size:60px;""> </div>","null","fixation","html-keyboard-response","160","579992","0.0-6.0-0.22","2727754","co39502","norming","","","","","","",""
"null","../img/tt/163tt.jpg","null","mooney1","image-keyboard-response","161","582996","0.0-6.0-1.22","2727754","co39502","norming","","","","","","",""
"12040.925000000047","","","post_mooney1_questions","survey-likert","162","595038","0.0-6.0-2.22","2727754","co39502","norming","","","{""curiosity"":1,""confidence"":0}","[0,1]","../img/tt/163tt.jpg","",""
"3630.329999999958","","","recognition","survey-text","163","598670","0.0-6.0-3.22","2727754","co39502","norming","","","{""guess"":""""}","","../img/tt/163tt.jpg","",""
"null","../img/gs/163gs.jpg","null","reveal","image-keyboard-response","164","600680","0.0-6.0-4.22","2727754","co39502","norming","","","","","","",""
"null","../img/tt/163tt.jpg","null","mooney2","image-keyboard-response","165","602683","0.0-6.0-5.22","2727754","co39502","norming","","","","","","",""
"1833.6600000000326","","","post_reveal_questions","survey-likert","166","604518","0.0-6.0-6.22","2727754","co39502","norming","","","{""aha"":0}","[0]","../img/tt/163tt.jpg","",""
"null","<div style=""font-size:60px;""> </div>","null","fixation","html-keyboard-response","167","604720","0.0-6.0-0.23","2727754","co39502","norming","","","","","","",""
"null","../img/tt/1044tt.jpg","null","mooney1","image-keyboard-response","168","607726","0.0-6.0-1.23","2727754","co39502","norming","","","","","","",""
"4079.25","","","post_mooney1_questions","survey-likert","169","611806","0.0-6.0-2.23","2727754","co39502","norming","","","{""curiosity"":1,""confidence"":0}","[0,1]","../img/tt/1044tt.jpg","",""
"1054.119999999879","","","recognition","survey-text","170","612862","0.0-6.0-3.23","2727754","co39502","norming","","","{""guess"":""""}","","../img/tt/1044tt.jpg","",""
"null","../img/gs/1044gs.jpg","null","reveal","image-keyboard-response","171","614867","0.0-6.0-4.23","2727754","co39502","norming","","","","","","",""
"null","../img/tt/1044tt.jpg","null","mooney2","image-keyboard-response","172","616870","0.0-6.0-5.23","2727754","co39502","norming","","","","","","",""
"2022.969999999972","","","post_reveal_questions","survey-likert","173","618894","0.0-6.0-6.23","2727754","co39502","norming","","","{""aha"":0}","[0]","../img/tt/1044tt.jpg","",""
"null","<div style=""font-size:60px;""> </div>","null","fixation","html-keyboard-response","174","619099","0.0-6.0-0.24","2727754","co39502","norming","","","","","","",""
"null","../img/tt/1234tt.jpg","null","mooney1","image-keyboard-response","175","622100","0.0-6.0-1.24","2727754","co39502","norming","","","","","","",""
"7585.344999999972","","","post_mooney1_questions","survey-likert","176","629686","0.0-6.0-2.24","2727754","co39502","norming","","","{""curiosity"":1,""confidence"":0}","[0,1]","../img/tt/1234tt.jpg","",""
"1421.4999999998836","","","recognition","survey-text","177","631110","0.0-6.0-3.24","2727754","co39502","norming","","","{""guess"":""""}","","../img/tt/1234tt.jpg","",""
"null","../img/gs/1234gs.jpg","null","reveal","image-keyboard-response","178","633122","0.0-6.0-4.24","2727754","co39502","norming","","","","","","",""
"null","../img/tt/1234tt.jpg","null","mooney2","image-keyboard-response","179","635131","0.0-6.0-5.24","2727754","co39502","norming","","","","","","",""
"4387.175000000047","","","post_reveal_questions","survey-likert","180","639520","0.0-6.0-6.24","2727754","co39502","norming","","","{""aha"":0}","[0]","../img/tt/1234tt.jpg","",""
"null","<div style=""font-size:60px;""> </div>","null","fixation","html-keyboard-response","181","639727","0.0-6.0-0.25","2727754","co39502","norming","","","","","","",""
"null","../img/tt/1190tt.jpg","null","mooney1","image-keyboard-response","182","642729","0.0-6.0-1.25","2727754","co39502","norming","","","","","","",""
"4845.32500000007","","","post_mooney1_questions","survey-likert","183","647576","0.0-6.0-2.25","2727754","co39502","norming","","","{""curiosity"":1,""confidence"":0}","[0,1]","../img/tt/1190tt.jpg","",""
"3461.8300000000745","","","recognition","survey-text","184","651039","0.0-6.0-3.25","2727754","co39502","norming","","","{""guess"":""tijger""}","","../img/tt/1190tt.jpg","",""
"null","../img/gs/1190gs.jpg","null","reveal","image-keyboard-response","185","653042","0.0-6.0-4.25","2727754","co39502","norming","","","","","","",""
"null","../img/tt/1190tt.jpg","null","mooney2","image-keyboard-response","186","655051","0.0-6.0-5.25","2727754","co39502","norming","","","","","","",""
"2115.274999999907","","","post_reveal_questions","survey-likert","187","657168","0.0-6.0-6.25","2727754","co39502","norming","","","{""aha"":0}","[0]","../img/tt/1190tt.jpg","",""
"null","<div style=""font-size:60px;""> </div>","null","fixation","html-keyboard-response","188","657377","0.0-6.0-0.26","2727754","co39502","norming","","","","","","",""
"null","../img/tt/1237tt.jpg","null","mooney1","image-keyboard-response","189","660380","0.0-6.0-1.26","2727754","co39502","norming","","","","","","",""
"5034.494999999995","","","post_mooney1_questions","survey-likert","190","665416","0.0-6.0-2.26","2727754","co39502","norming","","","{""curiosity"":1,""confidence"":0}","[0,1]","../img/tt/1237tt.jpg","",""
"3045.6750000000466","","","recognition","survey-text","191","668463","0.0-6.0-3.26","2727754","co39502","norming","","","{""guess"":""eend""}","","../img/tt/1237tt.jpg","",""
"null","../img/gs/1237gs.jpg","null","reveal","image-keyboard-response","192","670471","0.0-6.0-4.26","2727754","co39502","norming","","","","","","",""
"null","../img/tt/1237tt.jpg","null","mooney2","image-keyboard-response","193","672482","0.0-6.0-5.26","2727754","co39502","norming","","","","","","",""
"1916.5699999999488","","","post_reveal_questions","survey-likert","194","674399","0.0-6.0-6.26","2727754","co39502","norming","","","{""aha"":3}","[0]","../img/tt/1237tt.jpg","",""
"null","<div style=""font-size:60px;""> </div>","null","fixation","html-keyboard-response","195","674610","0.0-6.0-0.27","2727754","co39502","norming","","","","","","",""
"null","../img/tt/319tt.jpg","null","mooney1","image-keyboard-response","196","677620","0.0-6.0-1.27","2727754","co39502","norming","","","","","","",""
"4274.074999999953","","","post_mooney1_questions","survey-likert","197","681896","0.0-6.0-2.27","2727754","co39502","norming","","","{""curiosity"":1,""confidence"":0}","[0,1]","../img/tt/319tt.jpg","",""
"4910.359999999986","","","recognition","survey-text","198","686808","0.0-6.0-3.27","2727754","co39502","norming","","","{""guess"":""panda""}","","../img/tt/319tt.jpg","",""
"null","../img/gs/319gs.jpg","null","reveal","image-keyboard-response","199","688815","0.0-6.0-4.27","2727754","co39502","norming","","","","","","",""
"null","../img/tt/319tt.jpg","null","mooney2","image-keyboard-response","200","690817","0.0-6.0-5.27","2727754","co39502","norming","","","","","","",""
"2093.640000000014","","","post_reveal_questions","survey-likert","201","692912","0.0-6.0-6.27","2727754","co39502","norming","","","{""aha"":2}","[0]","../img/tt/319tt.jpg","",""
"null","<div style=""font-size:60px;""> </div>","null","fixation","html-keyboard-response","202","693121","0.0-6.0-0.28","2727754","co39502","norming","","","","","","",""
"null","../img/tt/076tt.jpg","null","mooney1","image-keyboard-response","203","696123","0.0-6.0-1.28","2727754","co39502","norming","","","","","","",""
"4042.625","","","post_mooney1_questions","survey-likert","204","700167","0.0-6.0-2.28","2727754","co39502","norming","","","{""curiosity"":1,""confidence"":0}","[0,1]","../img/tt/076tt.jpg","",""
"3629.6750000000466","","","recognition","survey-text","205","703799","0.0-6.0-3.28","2727754","co39502","norming","","","{""guess"":""rollerschaats""}","","../img/tt/076tt.jpg","",""
"null","../img/gs/076gs.jpg","null","reveal","image-keyboard-response","206","705807","0.0-6.0-4.28","2727754","co39502","norming","","","","","","",""
"null","../img/tt/076tt.jpg","null","mooney2","image-keyboard-response","207","707817","0.0-6.0-5.28","2727754","co39502","norming","","","","","","",""
"2020.7700000000186","","","post_reveal_questions","survey-likert","208","709839","0.0-6.0-6.28","2727754","co39502","norming","","","{""aha"":3}","[0]","../img/tt/076tt.jpg","",""
"null","<div style=""font-size:60px;""> </div>","null","fixation","html-keyboard-response","209","710043","0.0-6.0-0.29","2727754","co39502","norming","","","","","","",""
"null","../img/tt/1171tt.jpg","null","mooney1","image-keyboard-response","210","713053","0.0-6.0-1.29","2727754","co39502","norming","","","","","","",""
"3368.5599999999395","","","post_mooney1_questions","survey-likert","211","716423","0.0-6.0-2.29","2727754","co39502","norming","","","{""curiosity"":1,""confidence"":0}","[0,1]","../img/tt/1171tt.jpg","",""
"1726.1050000000978","","","recognition","survey-text","212","718151","0.0-6.0-3.29","2727754","co39502","norming","","","{""guess"":""""}","","../img/tt/1171tt.jpg","",""
"null","../img/gs/1171gs.jpg","null","reveal","image-keyboard-response","213","720153","0.0-6.0-4.29","2727754","co39502","norming","","","","","","",""
"null","../img/tt/1171tt.jpg","null","mooney2","image-keyboard-response","214","722163","0.0-6.0-5.29","2727754","co39502","norming","","","","","","",""
"2323.1350000000093","","","post_reveal_questions","survey-likert","215","724487","0.0-6.0-6.29","2727754","co39502","norming","","","{""aha"":0}","[0]","../img/tt/1171tt.jpg","",""
"null","<div style=""font-size:60px;""> </div>","null","fixation","html-keyboard-response","216","724695","0.0-6.0-0.30","2727754","co39502","norming","","","","","","",""
"null","../img/tt/112tt.jpg","null","mooney1","image-keyboard-response","217","727699","0.0-6.0-1.30","2727754","co39502","norming","","","","","","",""
"4802.3150000000605","","","post_mooney1_questions","survey-likert","218","732503","0.0-6.0-2.30","2727754","co39502","norming","","","{""curiosity"":2,""confidence"":0}","[0,1]","../img/tt/112tt.jpg","",""
"1469.7350000001024","","","recognition","survey-text","219","733975","0.0-6.0-3.30","2727754","co39502","norming","","","{""guess"":""""}","","../img/tt/112tt.jpg","",""
"null","../img/gs/112gs.jpg","null","reveal","image-keyboard-response","220","735983","0.0-6.0-4.30","2727754","co39502","norming","","","","","","",""
"null","../img/tt/112tt.jpg","null","mooney2","image-keyboard-response","221","737985","0.0-6.0-5.30","2727754","co39502","norming","","","","","","",""
"2061.219999999972","","","post_reveal_questions","survey-likert","222","740047","0.0-6.0-6.30","2727754","co39502","norming","","","{""aha"":2}","[0]","../img/tt/112tt.jpg","",""
"null","<div style=""font-size:60px;""> </div>","null","fixation","html-keyboard-response","223","740255","0.0-6.0-0.31","2727754","co39502","norming","","","","","","",""
"null","../img/tt/1228tt.jpg","null","mooney1","image-keyboard-response","224","743258","0.0-6.0-1.31","2727754","co39502","norming","","","","","","",""
"6395.460000000079","","","post_mooney1_questions","survey-likert","225","749655","0.0-6.0-2.31","2727754","co39502","norming","","","{""curiosity"":1,""confidence"":0}","[0,1]","../img/tt/1228tt.jpg","",""
"973.7399999998743","","","recognition","survey-text","226","750631","0.0-6.0-3.31","2727754","co39502","norming","","","{""guess"":""""}","","../img/tt/1228tt.jpg","",""
"null","../img/gs/1228gs.jpg","null","reveal","image-keyboard-response","227","752641","0.0-6.0-4.31","2727754","co39502","norming","","","","","","",""
"null","../img/tt/1228tt.jpg","null","mooney2","image-keyboard-response","228","754648","0.0-6.0-5.31","2727754","co39502","norming","","","","","","",""
"1982.6800000000512","","","post_reveal_questions","survey-likert","229","756632","0.0-6.0-6.31","2727754","co39502","norming","","","{""aha"":0}","[0]","../img/tt/1228tt.jpg","",""
"null","<div style=""font-size:60px;""> </div>","null","fixation","html-keyboard-response","230","756840","0.0-6.0-0.32","2727754","co39502","norming","","","","","","",""
"null","../img/tt/567tt.jpg","null","mooney1","image-keyboard-response","231","759841","0.0-6.0-1.32","2727754","co39502","norming","","","","","","",""
"3845.2600000000093","","","post_mooney1_questions","survey-likert","232","763688","0.0-6.0-2.32","2727754","co39502","norming","","","{""curiosity"":1,""confidence"":5}","[0,1]","../img/tt/567tt.jpg","",""
"6478.025000000023","","","recognition","survey-text","233","770168","0.0-6.0-3.32","2727754","co39502","norming","","","{""guess"":""broodrooster""}","","../img/tt/567tt.jpg","",""
"null","../img/gs/567gs.jpg","null","reveal","image-keyboard-response","234","772178","0.0-6.0-4.32","2727754","co39502","norming","","","","","","",""
"null","../img/tt/567tt.jpg","null","mooney2","image-keyboard-response","235","774185","0.0-6.0-5.32","2727754","co39502","norming","","","","","","",""
"1901.6849999999395","","","post_reveal_questions","survey-likert","236","776088","0.0-6.0-6.32","2727754","co39502","norming","","","{""aha"":2}","[0]","../img/tt/567tt.jpg","",""
"null","<div style=""font-size:60px;""> </div>","null","fixation","html-keyboard-response","237","776293","0.0-6.0-0.33","2727754","co39502","norming","","","","","","",""
"null","../img/tt/184tt.jpg","null","mooney1","image-keyboard-response","238","779295","0.0-6.0-1.33","2727754","co39502","norming","","","","","","",""
"4495.744999999995","","","post_mooney1_questions","survey-likert","239","783792","0.0-6.0-2.33","2727754","co39502","norming","","","{""curiosity"":1,""confidence"":0}","[0,1]","../img/tt/184tt.jpg","",""
"7941.9199999999255","","","recognition","survey-text","240","791736","0.0-6.0-3.33","2727754","co39502","norming","","","{""guess"":""krokodil ""}","","../img/tt/184tt.jpg","",""
"null","../img/gs/184gs.jpg","null","reveal","image-keyboard-response","241","793739","0.0-6.0-4.33","2727754","co39502","norming","","","","","","",""
"null","../img/tt/184tt.jpg","null","mooney2","image-keyboard-response","242","795741","0.0-6.0-5.33","2727754","co39502","norming","","","","","","",""
"3730.030000000028","","","post_reveal_questions","survey-likert","243","799472","0.0-6.0-6.33","2727754","co39502","norming","","","{""aha"":0}","[0]","../img/tt/184tt.jpg","",""
"null","<div style=""font-size:60px;""> </div>","null","fixation","html-keyboard-response","244","799679","0.0-6.0-0.34","2727754","co39502","norming","","","","","","",""
"null","../img/tt/1156tt.jpg","null","mooney1","image-keyboard-response","245","802684","0.0-6.0-1.34","2727754","co39502","norming","","","","","","",""
"3338.2700000000186","","","post_mooney1_questions","survey-likert","246","806024","0.0-6.0-2.34","2727754","co39502","norming","","","{""curiosity"":1,""confidence"":0}","[0,1]","../img/tt/1156tt.jpg","",""
"3677.945000000065","","","recognition","survey-text","247","809704","0.0-6.0-3.34","2727754","co39502","norming","","","{""guess"":""vogel""}","","../img/tt/1156tt.jpg","",""
"null","../img/gs/1156gs.jpg","null","reveal","image-keyboard-response","248","811706","0.0-6.0-4.34","2727754","co39502","norming","","","","","","",""
"null","../img/tt/1156tt.jpg","null","mooney2","image-keyboard-response","249","813713","0.0-6.0-5.34","2727754","co39502","norming","","","","","","",""
"2269.2850000000326","","","post_reveal_questions","survey-likert","250","815981","0.0-6.0-6.34","2727754","co39502","norming","","","{""aha"":2}","[0]","../img/tt/1156tt.jpg","",""
"null","<div style=""font-size:60px;""> </div>","null","fixation","html-keyboard-response","251","816183","0.0-6.0-0.35","2727754","co39502","norming","","","","","","",""
"null","../img/tt/1006tt.jpg","null","mooney1","image-keyboard-response","252","819193","0.0-6.0-1.35","2727754","co39502","norming","","","","","","",""
"3139.204999999958","","","post_mooney1_questions","survey-likert","253","822333","0.0-6.0-2.35","2727754","co39502","norming","","","{""curiosity"":1,""confidence"":4}","[0,1]","../img/tt/1006tt.jpg","",""
"2909.8950000000186","","","recognition","survey-text","254","825245","0.0-6.0-3.35","2727754","co39502","norming","","","{""guess"":""schapen ""}","","../img/tt/1006tt.jpg","",""
"null","../img/gs/1006gs.jpg","null","reveal","image-keyboard-response","255","827246","0.0-6.0-4.35","2727754","co39502","norming","","","","","","",""
"null","../img/tt/1006tt.jpg","null","mooney2","image-keyboard-response","256","829247","0.0-6.0-5.35","2727754","co39502","norming","","","","","","",""
"1900.9700000000885","","","post_reveal_questions","survey-likert","257","831149","0.0-6.0-6.35","2727754","co39502","norming","","","{""aha"":2}","[0]","../img/tt/1006tt.jpg","",""
"null","<div style=""font-size:60px;""> </div>","null","fixation","html-keyboard-response","258","831358","0.0-6.0-0.36","2727754","co39502","norming","","","","","","",""
"null","../img/tt/1272tt.jpg","null","mooney1","image-keyboard-response","259","834367","0.0-6.0-1.36","2727754","co39502","norming","","","","","","",""
"3757.319999999949","","","post_mooney1_questions","survey-likert","260","838125","0.0-6.0-2.36","2727754","co39502","norming","","","{""curiosity"":1,""confidence"":0}","[0,1]","../img/tt/1272tt.jpg","",""
"2901.9400000000605","","","recognition","survey-text","261","841029","0.0-6.0-3.36","2727754","co39502","norming","","","{""guess"":""varken""}","","../img/tt/1272tt.jpg","",""
"null","../img/gs/1272gs.jpg","null","reveal","image-keyboard-response","262","843033","0.0-6.0-4.36","2727754","co39502","norming","","","","","","",""
"null","../img/tt/1272tt.jpg","null","mooney2","image-keyboard-response","263","845036","0.0-6.0-5.36","2727754","co39502","norming","","","","","","",""
"2031.9450000000652","","","post_reveal_questions","survey-likert","264","847069","0.0-6.0-6.36","2727754","co39502","norming","","","{""aha"":2}","[0]","../img/tt/1272tt.jpg","",""
"null","<div style=""font-size:60px;""> </div>","null","fixation","html-keyboard-response","265","847273","0.0-6.0-0.37","2727754","co39502","norming","","","","","","",""
"null","../img/tt/031tt.jpg","null","mooney1","image-keyboard-response","266","850274","0.0-6.0-1.37","2727754","co39502","norming","","","","","","",""
"3609.82500000007","","","post_mooney1_questions","survey-likert","267","853885","0.0-6.0-2.37","2727754","co39502","norming","","","{""curiosity"":1,""confidence"":2}","[0,1]","../img/tt/031tt.jpg","",""
"2189.740000000107","","","recognition","survey-text","268","856077","0.0-6.0-3.37","2727754","co39502","norming","","","{""guess"":""beer""}","","../img/tt/031tt.jpg","",""
"null","../img/gs/031gs.jpg","null","reveal","image-keyboard-response","269","858079","0.0-6.0-4.37","2727754","co39502","norming","","","","","","",""
"null","../img/tt/031tt.jpg","null","mooney2","image-keyboard-response","270","860082","0.0-6.0-5.37","2727754","co39502","norming","","","","","","",""
"1946.6950000001816","","","post_reveal_questions","survey-likert","271","862029","0.0-6.0-6.37","2727754","co39502","norming","","","{""aha"":1}","[0]","../img/tt/031tt.jpg","",""
"null","<div style=""font-size:60px;""> </div>","null","fixation","html-keyboard-response","272","862237","0.0-6.0-0.38","2727754","co39502","norming","","","","","","",""
"null","../img/tt/1096tt.jpg","null","mooney1","image-keyboard-response","273","865247","0.0-6.0-1.38","2727754","co39502","norming","","","","","","",""
"4580.959999999963","","","post_mooney1_questions","survey-likert","274","869829","0.0-6.0-2.38","2727754","co39502","norming","","","{""curiosity"":1,""confidence"":0}","[0,1]","../img/tt/1096tt.jpg","",""
"3837.944999999949","","","recognition","survey-text","275","873669","0.0-6.0-3.38","2727754","co39502","norming","","","{""guess"":""schuur""}","","../img/tt/1096tt.jpg","",""
"null","../img/gs/1096gs.jpg","null","reveal","image-keyboard-response","276","875678","0.0-6.0-4.38","2727754","co39502","norming","","","","","","",""
"null","../img/tt/1096tt.jpg","null","mooney2","image-keyboard-response","277","877684","0.0-6.0-5.38","2727754","co39502","norming","","","","","","",""
"1531.079999999958","","","post_reveal_questions","survey-likert","278","879216","0.0-6.0-6.38","2727754","co39502","norming","","","{""aha"":0}","[0]","../img/tt/1096tt.jpg","",""
"null","<div style=""font-size:60px;""> </div>","null","fixation","html-keyboard-response","279","879422","0.0-6.0-0.39","2727754","co39502","norming","","","","","","",""
"null","../img/tt/1290tt.jpg","null","mooney1","image-keyboard-response","280","882431","0.0-6.0-1.39","2727754","co39502","norming","","","","","","",""
"3286.875","","","post_mooney1_questions","survey-likert","281","885720","0.0-6.0-2.39","2727754","co39502","norming","","","{""curiosity"":1,""confidence"":1}","[0,1]","../img/tt/1290tt.jpg","",""
"4694.170000000042","","","recognition","survey-text","282","890416","0.0-6.0-3.39","2727754","co39502","norming","","","{""guess"":""handgranaat""}","","../img/tt/1290tt.jpg","",""
"null","../img/gs/1290gs.jpg","null","reveal","image-keyboard-response","283","892418","0.0-6.0-4.39","2727754","co39502","norming","","","","","","",""
"null","../img/tt/1290tt.jpg","null","mooney2","image-keyboard-response","284","894420","0.0-6.0-5.39","2727754","co39502","norming","","","","","","",""
"1754.6500000000233","","","post_reveal_questions","survey-likert","285","896176","0.0-6.0-6.39","2727754","co39502","norming","","","{""aha"":0}","[0]","../img/tt/1290tt.jpg","",""
"null","<div style=""font-size:60px;""> </div>","null","fixation","html-keyboard-response","286","896378","0.0-6.0-0.40","2727754","co39502","norming","","","","","","",""
"null","../img/tt/1276tt.jpg","null","mooney1","image-keyboard-response","287","899379","0.0-6.0-1.40","2727754","co39502","norming","","","","","","",""
"8115.659999999916","","","post_mooney1_questions","survey-likert","288","907496","0.0-6.0-2.40","2727754","co39502","norming","","","{""curiosity"":1,""confidence"":0}","[0,1]","../img/tt/1276tt.jpg","",""
"941.2550000000047","","","recognition","survey-text","289","908439","0.0-6.0-3.40","2727754","co39502","norming","","","{""guess"":""""}","","../img/tt/1276tt.jpg","",""
"null","../img/gs/1276gs.jpg","null","reveal","image-keyboard-response","290","910442","0.0-6.0-4.40","2727754","co39502","norming","","","","","","",""
"null","../img/tt/1276tt.jpg","null","mooney2","image-keyboard-response","291","912447","0.0-6.0-5.40","2727754","co39502","norming","","","","","","",""
"2879.7700000000186","","","post_reveal_questions","survey-likert","292","915328","0.0-6.0-6.40","2727754","co39502","norming","","","{""aha"":0}","[0]","../img/tt/1276tt.jpg","",""
"null","<div style=""font-size:60px;""> </div>","null","fixation","html-keyboard-response","293","915531","0.0-6.0-0.41","2727754","co39502","norming","","","","","","",""
"null","../img/tt/063tt.jpg","null","mooney1","image-keyboard-response","294","918533","0.0-6.0-1.41","2727754","co39502","norming","","","","","","",""
"2705.6949999998324","","","post_mooney1_questions","survey-likert","295","921240","0.0-6.0-2.41","2727754","co39502","norming","","","{""curiosity"":1,""confidence"":0}","[0,1]","../img/tt/063tt.jpg","",""
"7446.209999999963","","","recognition","survey-text","296","928688","0.0-6.0-3.41","2727754","co39502","norming","","","{""guess"":""laptop typmachine""}","","../img/tt/063tt.jpg","",""
"null","../img/gs/063gs.jpg","null","reveal","image-keyboard-response","297","930697","0.0-6.0-4.41","2727754","co39502","norming","","","","","","",""
"null","../img/tt/063tt.jpg","null","mooney2","image-keyboard-response","298","932699","0.0-6.0-5.41","2727754","co39502","norming","","","","","","",""
"1531.8999999999069","","","post_reveal_questions","survey-likert","299","934232","0.0-6.0-6.41","2727754","co39502","norming","","","{""aha"":2}","[0]","../img/tt/063tt.jpg","",""
"null","<div style=""font-size:60px;""> </div>","null","fixation","html-keyboard-response","300","934441","0.0-6.0-0.42","2727754","co39502","norming","","","","","","",""
"null","../img/tt/056tt.jpg","null","mooney1","image-keyboard-response","301","937444","0.0-6.0-1.42","2727754","co39502","norming","","","","","","",""
"4843.420000000158","","","post_mooney1_questions","survey-likert","302","942288","0.0-6.0-2.42","2727754","co39502","norming","","","{""curiosity"":1,""confidence"":0}","[0,1]","../img/tt/056tt.jpg","",""
"2293.2450000001118","","","recognition","survey-text","303","944584","0.0-6.0-3.42","2727754","co39502","norming","","","{""guess"":""""}","","../img/tt/056tt.jpg","",""
"null","../img/gs/056gs.jpg","null","reveal","image-keyboard-response","304","946595","0.0-6.0-4.42","2727754","co39502","norming","","","","","","",""
"null","../img/tt/056tt.jpg","null","mooney2","image-keyboard-response","305","948601","0.0-6.0-5.42","2727754","co39502","norming","","","","","","",""
"1900.920000000042","","","post_reveal_questions","survey-likert","306","950504","0.0-6.0-6.42","2727754","co39502","norming","","","{""aha"":0}","[0]","../img/tt/056tt.jpg","",""
"null","<div style=""font-size:60px;""> </div>","null","fixation","html-keyboard-response","307","950707","0.0-6.0-0.43","2727754","co39502","norming","","","","","","",""
"null","../img/tt/273tt.jpg","null","mooney1","image-keyboard-response","308","953713","0.0-6.0-1.43","2727754","co39502","norming","","","","","","",""
"5717.775000000023","","","post_mooney1_questions","survey-likert","309","959432","0.0-6.0-2.43","2727754","co39502","norming","","","{""curiosity"":1,""confidence"":6}","[0,1]","../img/tt/273tt.jpg","",""
"4621.824999999953","","","recognition","survey-text","310","964056","0.0-6.0-3.43","2727754","co39502","norming","","","{""guess"":""mond beugel""}","","../img/tt/273tt.jpg","",""
"null","../img/gs/273gs.jpg","null","reveal","image-keyboard-response","311","966058","0.0-6.0-4.43","2727754","co39502","norming","","","","","","",""
"null","../img/tt/273tt.jpg","null","mooney2","image-keyboard-response","312","968058","0.0-6.0-5.43","2727754","co39502","norming","","","","","","",""
"2932.4599999999627","","","post_reveal_questions","survey-likert","313","970992","0.0-6.0-6.43","2727754","co39502","norming","","","{""aha"":1}","[0]","../img/tt/273tt.jpg","",""
"null","<div style=""font-size:60px;""> </div>","null","fixation","html-keyboard-response","314","971193","0.0-6.0-0.44","2727754","co39502","norming","","","","","","",""
"null","../img/tt/1189tt.jpg","null","mooney1","image-keyboard-response","315","974194","0.0-6.0-1.44","2727754","co39502","norming","","","","","","",""
"11620.864999999874","","","post_mooney1_questions","survey-likert","316","985816","0.0-6.0-2.44","2727754","co39502","norming","","","{""curiosity"":1,""confidence"":0}","[0,1]","../img/tt/1189tt.jpg","",""
"2109.2249999999767","","","recognition","survey-text","317","987928","0.0-6.0-3.44","2727754","co39502","norming","","","{""guess"":""eend""}","","../img/tt/1189tt.jpg","",""
"null","../img/gs/1189gs.jpg","null","reveal","image-keyboard-response","318","989931","0.0-6.0-4.44","2727754","co39502","norming","","","","","","",""
"null","../img/tt/1189tt.jpg","null","mooney2","image-keyboard-response","319","991932","0.0-6.0-5.44","2727754","co39502","norming","","","","","","",""
"3378.9799999999814","","","post_reveal_questions","survey-likert","320","995312","0.0-6.0-6.44","2727754","co39502","norming","","","{""aha"":0}","[0]","../img/tt/1189tt.jpg","",""
"null","<div style=""font-size:60px;""> </div>","null","fixation","html-keyboard-response","321","995516","0.0-6.0-0.45","2727754","co39502","norming","","","","","","",""
"null","../img/tt/1188tt.jpg","null","mooney1","image-keyboard-response","322","998528","0.0-6.0-1.45","2727754","co39502","norming","","","","","","",""
"4360.209999999963","","","post_mooney1_questions","survey-likert","323","1002890","0.0-6.0-2.45","2727754","co39502","norming","","","{""curiosity"":1,""confidence"":2}","[0,1]","../img/tt/1188tt.jpg","",""
"5238.064999999944","","","recognition","survey-text","324","1008130","0.0-6.0-3.45","2727754","co39502","norming","","","{""guess"":""rugbyspeler""}","","../img/tt/1188tt.jpg","",""
"null","../img/gs/1188gs.jpg","null","reveal","image-keyboard-response","325","1010132","0.0-6.0-4.45","2727754","co39502","norming","","","","","","",""
"null","../img/tt/1188tt.jpg","null","mooney2","image-keyboard-response","326","1012141","0.0-6.0-5.45","2727754","co39502","norming","","","","","","",""
"4731.9700000000885","","","post_reveal_questions","survey-likert","327","1016874","0.0-6.0-6.45","2727754","co39502","norming","","","{""aha"":1}","[0]","../img/tt/1188tt.jpg","",""
"null","<div style=""font-size:60px;""> </div>","null","fixation","html-keyboard-response","328","1017082","0.0-6.0-0.46","2727754","co39502","norming","","","","","","",""
"null","../img/tt/318tt.jpg","null","mooney1","image-keyboard-response","329","1020089","0.0-6.0-1.46","2727754","co39502","norming","","","","","","",""
"8575.719999999972","","","post_mooney1_questions","survey-likert","330","1028666","0.0-6.0-2.46","2727754","co39502","norming","","","{""curiosity"":1,""confidence"":0}","[0,1]","../img/tt/318tt.jpg","",""
"917.6150000001071","","","recognition","survey-text","331","1029586","0.0-6.0-3.46","2727754","co39502","norming","","","{""guess"":""""}","","../img/tt/318tt.jpg","",""
"null","../img/gs/318gs.jpg","null","reveal","image-keyboard-response","332","1031594","0.0-6.0-4.46","2727754","co39502","norming","","","","","","",""
"null","../img/tt/318tt.jpg","null","mooney2","image-keyboard-response","333","1033603","0.0-6.0-5.46","2727754","co39502","norming","","","","","","",""
"2814.090000000084","","","post_reveal_questions","survey-likert","334","1036418","0.0-6.0-6.46","2727754","co39502","norming","","","{""aha"":1}","[0]","../img/tt/318tt.jpg","",""
"null","<div style=""font-size:60px;""> </div>","null","fixation","html-keyboard-response","335","1036625","0.0-6.0-0.47","2727754","co39502","norming","","","","","","",""
"null","../img/tt/270tt.jpg","null","mooney1","image-keyboard-response","336","1039636","0.0-6.0-1.47","2727754","co39502","norming","","","","","","",""
"10100.824999999837","","","post_mooney1_questions","survey-likert","337","1049738","0.0-6.0-2.47","2727754","co39502","norming","","","{""curiosity"":1,""confidence"":0}","[0,1]","../img/tt/270tt.jpg","",""
"1357.1799999999348","","","recognition","survey-text","338","1051098","0.0-6.0-3.47","2727754","co39502","norming","","","{""guess"":""""}","","../img/tt/270tt.jpg","",""
"null","../img/gs/270gs.jpg","null","reveal","image-keyboard-response","339","1053105","0.0-6.0-4.47","2727754","co39502","norming","","","","","","",""
"null","../img/tt/270tt.jpg","null","mooney2","image-keyboard-response","340","1055108","0.0-6.0-5.47","2727754","co39502","norming","","","","","","",""
"2060.9499999999534","","","post_reveal_questions","survey-likert","341","1057170","0.0-6.0-6.47","2727754","co39502","norming","","","{""aha"":0}","[0]","../img/tt/270tt.jpg","",""
"null","<div style=""font-size:60px;""> </div>","null","fixation","html-keyboard-response","342","1057377","0.0-6.0-0.48","2727754","co39502","norming","","","","","","",""
"null","../img/tt/108tt.jpg","null","mooney1","image-keyboard-response","343","1060390","0.0-6.0-1.48","2727754","co39502","norming","","","","","","",""
"3988.8499999998603","","","post_mooney1_questions","survey-likert","344","1064380","0.0-6.0-2.48","2727754","co39502","norming","","","{""curiosity"":1,""confidence"":0}","[0,1]","../img/tt/108tt.jpg","",""
"2341.8649999999907","","","recognition","survey-text","345","1066724","0.0-6.0-3.48","2727754","co39502","norming","","","{""guess"":""eend""}","","../img/tt/108tt.jpg","",""
"null","../img/gs/108gs.jpg","null","reveal","image-keyboard-response","346","1068732","0.0-6.0-4.48","2727754","co39502","norming","","","","","","",""
"null","../img/tt/108tt.jpg","null","mooney2","image-keyboard-response","347","1070740","0.0-6.0-5.48","2727754","co39502","norming","","","","","","",""
"2407.0749999999534","","","post_reveal_questions","survey-likert","348","1073148","0.0-6.0-6.48","2727754","co39502","norming","","","{""aha"":0}","[0]","../img/tt/108tt.jpg","",""
"null","<div style=""font-size:60px;""> </div>","null","fixation","html-keyboard-response","349","1073355","0.0-6.0-0.49","2727754","co39502","norming","","","","","","",""
"null","../img/tt/049tt.jpg","null","mooney1","image-keyboard-response","350","1076364","0.0-6.0-1.49","2727754","co39502","norming","","","","","","",""
"4934.98499999987","","","post_mooney1_questions","survey-likert","351","1081300","0.0-6.0-2.49","2727754","co39502","norming","","","{""curiosity"":1,""confidence"":0}","[0,1]","../img/tt/049tt.jpg","",""
"909.6350000000093","","","recognition","survey-text","352","1082212","0.0-6.0-3.49","2727754","co39502","norming","","","{""guess"":""""}","","../img/tt/049tt.jpg","",""
"null","../img/gs/049gs.jpg","null","reveal","image-keyboard-response","353","1084223","0.0-6.0-4.49","2727754","co39502","norming","","","","","","",""
"null","../img/tt/049tt.jpg","null","mooney2","image-keyboard-response","354","1086223","0.0-6.0-5.49","2727754","co39502","norming","","","","","","",""
"2562.965000000084","","","post_reveal_questions","survey-likert","355","1088788","0.0-6.0-6.49","2727754","co39502","norming","","","{""aha"":0}","[0]","../img/tt/049tt.jpg","",""
"null","<div style=""font-size:60px;""> </div>","null","fixation","html-keyboard-response","356","1088997","0.0-6.0-0.50","2727754","co39502","norming","","","","","","",""
"null","../img/tt/406tt.jpg","null","mooney1","image-keyboard-response","357","1092002","0.0-6.0-1.50","2727754","co39502","norming","","","","","","",""
"4784.600000000093","","","post_mooney1_questions","survey-likert","358","1096788","0.0-6.0-2.50","2727754","co39502","norming","","","{""curiosity"":1,""confidence"":0}","[0,1]","../img/tt/406tt.jpg","",""
"1069.7649999998976","","","recognition","survey-text","359","1097860","0.0-6.0-3.50","2727754","co39502","norming","","","{""guess"":""""}","","../img/tt/406tt.jpg","",""
"null","../img/gs/406gs.jpg","null","reveal","image-keyboard-response","360","1099866","0.0-6.0-4.50","2727754","co39502","norming","","","","","","",""
"null","../img/tt/406tt.jpg","null","mooney2","image-keyboard-response","361","1101868","0.0-6.0-5.50","2727754","co39502","norming","","","","","","",""
"2310.4150000000373","","","post_reveal_questions","survey-likert","362","1104180","0.0-6.0-6.50","2727754","co39502","norming","","","{""aha"":0}","[0]","../img/tt/406tt.jpg","",""
"null","<div style=""font-size:60px;""> </div>","null","fixation","html-keyboard-response","363","1104384","0.0-6.0-0.51","2727754","co39502","norming","","","","","","",""
"null","../img/tt/1043tt.jpg","null","mooney1","image-keyboard-response","364","1107391","0.0-6.0-1.51","2727754","co39502","norming","","","","","","",""
"3596.154999999795","","","post_mooney1_questions","survey-likert","365","1110988","0.0-6.0-2.51","2727754","co39502","norming","","","{""curiosity"":1,""confidence"":0}","[0,1]","../img/tt/1043tt.jpg","",""
"3221.7700000000186","","","recognition","survey-text","366","1114212","0.0-6.0-3.51","2727754","co39502","norming","","","{""guess"":""boot""}","","../img/tt/1043tt.jpg","",""
"null","../img/gs/1043gs.jpg","null","reveal","image-keyboard-response","367","1116222","0.0-6.0-4.51","2727754","co39502","norming","","","","","","",""
"null","../img/tt/1043tt.jpg","null","mooney2","image-keyboard-response","368","1118230","0.0-6.0-5.51","2727754","co39502","norming","","","","","","",""
"4284.5800000000745","","","post_reveal_questions","survey-likert","369","1122518","0.0-6.0-6.51","2727754","co39502","norming","","","{""aha"":0}","[0]","../img/tt/1043tt.jpg","",""
"null","<div style=""font-size:60px;""> </div>","null","fixation","html-keyboard-response","370","1122728","0.0-6.0-0.52","2727754","co39502","norming","","","","","","",""
"null","../img/tt/080tt.jpg","null","mooney1","image-keyboard-response","371","1125736","0.0-6.0-1.52","2727754","co39502","norming","","","","","","",""
"4948.73499999987","","","post_mooney1_questions","survey-likert","372","1130686","0.0-6.0-2.52","2727754","co39502","norming","","","{""curiosity"":1,""confidence"":0}","[0,1]","../img/tt/080tt.jpg","",""
"11509.86499999999","","","recognition","survey-text","373","1142198","0.0-6.0-3.52","2727754","co39502","norming","","","{""guess"":""""}","","../img/tt/080tt.jpg","",""
"null","../img/gs/080gs.jpg","null","reveal","image-keyboard-response","374","1144206","0.0-6.0-4.52","2727754","co39502","norming","","","","","","",""
"null","../img/tt/080tt.jpg","null","mooney2","image-keyboard-response","375","1146215","0.0-6.0-5.52","2727754","co39502","norming","","","","","","",""
"2517.535000000149","","","post_reveal_questions","survey-likert","376","1148734","0.0-6.0-6.52","2727754","co39502","norming","","","{""aha"":1}","[0]","../img/tt/080tt.jpg","",""
"null","<div style=""font-size:60px;""> </div>","null","fixation","html-keyboard-response","377","1148944","0.0-6.0-0.53","2727754","co39502","norming","","","","","","",""
"null","../img/tt/091tt.jpg","null","mooney1","image-keyboard-response","378","1151946","0.0-6.0-1.53","2727754","co39502","norming","","","","","","",""
"4491.01500000013","","","post_mooney1_questions","survey-likert","379","1156438","0.0-6.0-2.53","2727754","co39502","norming","","","{""curiosity"":1,""confidence"":0}","[0,1]","../img/tt/091tt.jpg","",""
"4318.16500000027","","","recognition","survey-text","380","1160758","0.0-6.0-3.53","2727754","co39502","norming","","","{""guess"":""krokodil""}","","../img/tt/091tt.jpg","",""
"null","../img/gs/091gs.jpg","null","reveal","image-keyboard-response","381","1162766","0.0-6.0-4.53","2727754","co39502","norming","","","","","","",""
"null","../img/tt/091tt.jpg","null","mooney2","image-keyboard-response","382","1164768","0.0-6.0-5.53","2727754","co39502","norming","","","","","","",""
"1492.719999999972","","","post_reveal_questions","survey-likert","383","1166262","0.0-6.0-6.53","2727754","co39502","norming","","","{""aha"":0}","[0]","../img/tt/091tt.jpg","",""
"null","<div style=""font-size:60px;""> </div>","null","fixation","html-keyboard-response","384","1166471","0.0-6.0-0.54","2727754","co39502","norming","","","","","","",""
"null","../img/tt/019tt.jpg","null","mooney1","image-keyboard-response","385","1169479","0.0-6.0-1.54","2727754","co39502","norming","","","","","","",""
"3837.714999999851","","","post_mooney1_questions","survey-likert","386","1173318","0.0-6.0-2.54","2727754","co39502","norming","","","{""curiosity"":1,""confidence"":0}","[0,1]","../img/tt/019tt.jpg","",""
"3621.79000000027","","","recognition","survey-text","387","1176942","0.0-6.0-3.54","2727754","co39502","norming","","","{""guess"":""stofzuiger""}","","../img/tt/019tt.jpg","",""
"null","../img/gs/019gs.jpg","null","reveal","image-keyboard-response","388","1178946","0.0-6.0-4.54","2727754","co39502","norming","","","","","","",""
"null","../img/tt/019tt.jpg","null","mooney2","image-keyboard-response","389","1180948","0.0-6.0-5.54","2727754","co39502","norming","","","","","","",""
"1601.2450000001118","","","post_reveal_questions","survey-likert","390","1182547","0.0-6.0-6.54","2727754","co39502","norming","","","{""aha"":3}","[0]","../img/tt/019tt.jpg","",""
"null","<div style=""font-size:60px;""> </div>","null","fixation","html-keyboard-response","391","1182758","0.0-6.0-0.55","2727754","co39502","norming","","","","","","",""
"null","../img/tt/079tt.jpg","null","mooney1","image-keyboard-response","392","1185759","0.0-6.0-1.55","2727754","co39502","norming","","","","","","",""
"3555.2700000002515","","","post_mooney1_questions","survey-likert","393","1189316","0.0-6.0-2.55","2727754","co39502","norming","","","{""curiosity"":1,""confidence"":4}","[0,1]","../img/tt/079tt.jpg","",""
"1757.994999999879","","","recognition","survey-text","394","1191075","0.0-6.0-3.55","2727754","co39502","norming","","","{""guess"":""beer""}","","../img/tt/079tt.jpg","",""
"null","../img/gs/079gs.jpg","null","reveal","image-keyboard-response","395","1193082","0.0-6.0-4.55","2727754","co39502","norming","","","","","","",""
"null","../img/tt/079tt.jpg","null","mooney2","image-keyboard-response","396","1195089","0.0-6.0-5.55","2727754","co39502","norming","","","","","","",""
"3144.8549999999814","","","post_reveal_questions","survey-likert","397","1198235","0.0-6.0-6.55","2727754","co39502","norming","","","{""aha"":2}","[0]","../img/tt/079tt.jpg","",""
"null","<div style=""font-size:60px;""> </div>","null","fixation","html-keyboard-response","398","1198446","0.0-6.0-0.56","2727754","co39502","norming","","","","","","",""
"null","../img/tt/534tt.jpg","null","mooney1","image-keyboard-response","399","1201448","0.0-6.0-1.56","2727754","co39502","norming","","","","","","",""
"4185.965000000084","","","post_mooney1_questions","survey-likert","400","1205635","0.0-6.0-2.56","2727754","co39502","norming","","","{""curiosity"":1,""confidence"":1}","[0,1]","../img/tt/534tt.jpg","",""
"3485.814999999944","","","recognition","survey-text","401","1209123","0.0-6.0-3.56","2727754","co39502","norming","","","{""guess"":""riet""}","","../img/tt/534tt.jpg","",""
"null","../img/gs/534gs.jpg","null","reveal","image-keyboard-response","402","1211124","0.0-6.0-4.56","2727754","co39502","norming","","","","","","",""
"null","../img/tt/534tt.jpg","null","mooney2","image-keyboard-response","403","1213131","0.0-6.0-5.56","2727754","co39502","norming","","","","","","",""
"12454.675000000047","","","post_reveal_questions","survey-likert","404","1225587","0.0-6.0-6.56","2727754","co39502","norming","","","{""aha"":2}","[0]","../img/tt/534tt.jpg","",""
"null","<div style=""font-size:60px;""> </div>","null","fixation","html-keyboard-response","405","1225789","0.0-6.0-0.57","2727754","co39502","norming","","","","","","",""
"null","../img/tt/1078tt.jpg","null","mooney1","image-keyboard-response","406","1228790","0.0-6.0-1.57","2727754","co39502","norming","","","","","","",""
"4203.739999999991","","","post_mooney1_questions","survey-likert","407","1232996","0.0-6.0-2.57","2727754","co39502","norming","","","{""curiosity"":1,""confidence"":3}","[0,1]","../img/tt/1078tt.jpg","",""
"2821.6699999999255","","","recognition","survey-text","408","1235819","0.0-6.0-3.57","2727754","co39502","norming","","","{""guess"":""skaters""}","","../img/tt/1078tt.jpg","",""
"null","../img/gs/1078gs.jpg","null","reveal","image-keyboard-response","409","1237828","0.0-6.0-4.57","2727754","co39502","norming","","","","","","",""
"null","../img/tt/1078tt.jpg","null","mooney2","image-keyboard-response","410","1239835","0.0-6.0-5.57","2727754","co39502","norming","","","","","","",""
"3191.3549999999814","","","post_reveal_questions","survey-likert","411","1243025","0.0-6.0-6.57","2727754","co39502","norming","","","{""aha"":2}","[0]","../img/tt/1078tt.jpg","",""
"null","<div style=""font-size:60px;""> </div>","null","fixation","html-keyboard-response","412","1243232","0.0-6.0-0.58","2727754","co39502","norming","","","","","","",""
"null","../img/tt/1205tt.jpg","null","mooney1","image-keyboard-response","413","1246233","0.0-6.0-1.58","2727754","co39502","norming","","","","","","",""
"5079.795000000158","","","post_mooney1_questions","survey-likert","414","1251314","0.0-6.0-2.58","2727754","co39502","norming","","","{""curiosity"":1,""confidence"":0}","[0,1]","../img/tt/1205tt.jpg","",""
"2341.6999999999534","","","recognition","survey-text","415","1253657","0.0-6.0-3.58","2727754","co39502","norming","","","{""guess"":""""}","","../img/tt/1205tt.jpg","",""
"null","../img/gs/1205gs.jpg","null","reveal","image-keyboard-response","416","1255664","0.0-6.0-4.58","2727754","co39502","norming","","","","","","",""
"null","../img/tt/1205tt.jpg","null","mooney2","image-keyboard-response","417","1257668","0.0-6.0-5.58","2727754","co39502","norming","","","","","","",""
"1843.9750000000931","","","post_reveal_questions","survey-likert","418","1259513","0.0-6.0-6.58","2727754","co39502","norming","","","{""aha"":0}","[0]","../img/tt/1205tt.jpg","",""
"null","<div style=""font-size:60px;""> </div>","null","fixation","html-keyboard-response","419","1259723","0.0-6.0-0.59","2727754","co39502","norming","","","","","","",""
"null","../img/tt/300tt.jpg","null","mooney1","image-keyboard-response","420","1262727","0.0-6.0-1.59","2727754","co39502","norming","","","","","","",""
"3033.394999999786","","","post_mooney1_questions","survey-likert","421","1265762","0.0-6.0-2.59","2727754","co39502","norming","","","{""curiosity"":1,""confidence"":0}","[0,1]","../img/tt/300tt.jpg","",""
"2349.8950000000186","","","recognition","survey-text","422","1268113","0.0-6.0-3.59","2727754","co39502","norming","","","{""guess"":""dansers""}","","../img/tt/300tt.jpg","",""
"null","../img/gs/300gs.jpg","null","reveal","image-keyboard-response","423","1270120","0.0-6.0-4.59","2727754","co39502","norming","","","","","","",""
"null","../img/tt/300tt.jpg","null","mooney2","image-keyboard-response","424","1272129","0.0-6.0-5.59","2727754","co39502","norming","","","","","","",""
"2942.935000000056","","","post_reveal_questions","survey-likert","425","1275073","0.0-6.0-6.59","2727754","co39502","norming","","","{""aha"":0}","[0]","../img/tt/300tt.jpg","",""
"null","<div style=""font-size:60px;""> </div>","null","fixation","html-keyboard-response","426","1275284","0.0-6.0-0.60","2727754","co39502","norming","","","","","","",""
"null","../img/tt/1268tt.jpg","null","mooney1","image-keyboard-response","427","1278293","0.0-6.0-1.60","2727754","co39502","norming","","","","","","",""
"3827.4850000001024","","","post_mooney1_questions","survey-likert","428","1282121","0.0-6.0-2.60","2727754","co39502","norming","","","{""curiosity"":1,""confidence"":0}","[0,1]","../img/tt/1268tt.jpg","",""
"4142.304999999702","","","recognition","survey-text","429","1286265","0.0-6.0-3.60","2727754","co39502","norming","","","{""guess"":""krokodil""}","","../img/tt/1268tt.jpg","",""
"null","../img/gs/1268gs.jpg","null","reveal","image-keyboard-response","430","1288271","0.0-6.0-4.60","2727754","co39502","norming","","","","","","",""
"null","../img/tt/1268tt.jpg","null","mooney2","image-keyboard-response","431","1290282","0.0-6.0-5.60","2727754","co39502","norming","","","","","","",""
"10062.76000000001","","","post_reveal_questions","survey-likert","432","1300345","0.0-6.0-6.60","2727754","co39502","norming","","","{""aha"":0}","[0]","../img/tt/1268tt.jpg","",""
"null","<div style=""font-size:60px;""> </div>","null","fixation","html-keyboard-response","433","1300551","0.0-6.0-0.61","2727754","co39502","norming","","","","","","",""
"null","../img/tt/105tt.jpg","null","mooney1","image-keyboard-response","434","1303567","0.0-6.0-1.61","2727754","co39502","norming","","","","","","",""
"9665.794999999925","","","post_mooney1_questions","survey-likert","435","1313234","0.0-6.0-2.61","2727754","co39502","norming","","","{""curiosity"":0,""confidence"":0}","[0,1]","../img/tt/105tt.jpg","",""
"901.8250000001863","","","recognition","survey-text","436","1314138","0.0-6.0-3.61","2727754","co39502","norming","","","{""guess"":""""}","","../img/tt/105tt.jpg","",""
"null","../img/gs/105gs.jpg","null","reveal","image-keyboard-response","437","1316141","0.0-6.0-4.61","2727754","co39502","norming","","","","","","",""
"null","../img/tt/105tt.jpg","null","mooney2","image-keyboard-response","438","1318142","0.0-6.0-5.61","2727754","co39502","norming","","","","","","",""
"1603.094999999972","","","post_reveal_questions","survey-likert","439","1319746","0.0-6.0-6.61","2727754","co39502","norming","","","{""aha"":0}","[0]","../img/tt/105tt.jpg","",""
"null","<div style=""font-size:60px;""> </div>","null","fixation","html-keyboard-response","440","1319955","0.0-6.0-0.62","2727754","co39502","norming","","","","","","",""
"null","../img/tt/549tt.jpg","null","mooney1","image-keyboard-response","441","1322958","0.0-6.0-1.62","2727754","co39502","norming","","","","","","",""
"4850.760000000009","","","post_mooney1_questions","survey-likert","442","1327810","0.0-6.0-2.62","2727754","co39502","norming","","","{""curiosity"":2,""confidence"":0}","[0,1]","../img/tt/549tt.jpg","",""
"1541.8899999998976","","","recognition","survey-text","443","1329354","0.0-6.0-3.62","2727754","co39502","norming","","","{""guess"":""""}","","../img/tt/549tt.jpg","",""
"null","../img/gs/549gs.jpg","null","reveal","image-keyboard-response","444","1331356","0.0-6.0-4.62","2727754","co39502","norming","","","","","","",""
"null","../img/tt/549tt.jpg","null","mooney2","image-keyboard-response","445","1333365","0.0-6.0-5.62","2727754","co39502","norming","","","","","","",""
"3162.445000000065","","","post_reveal_questions","survey-likert","446","1336530","0.0-6.0-6.62","2727754","co39502","norming","","","{""aha"":0}","[0]","../img/tt/549tt.jpg","",""
"null","<div style=""font-size:60px;""> </div>","null","fixation","html-keyboard-response","447","1336736","0.0-6.0-0.63","2727754","co39502","norming","","","","","","",""
"null","../img/tt/1143tt.jpg","null","mooney1","image-keyboard-response","448","1339746","0.0-6.0-1.63","2727754","co39502","norming","","","","","","",""
"4429.15000000014","","","post_mooney1_questions","survey-likert","449","1344178","0.0-6.0-2.63","2727754","co39502","norming","","","{""curiosity"":1,""confidence"":0}","[0,1]","../img/tt/1143tt.jpg","",""
"2957.969999999972","","","recognition","survey-text","450","1347138","0.0-6.0-3.63","2727754","co39502","norming","","","{""guess"":""sporters""}","","../img/tt/1143tt.jpg","",""
"null","../img/gs/1143gs.jpg","null","reveal","image-keyboard-response","451","1349146","0.0-6.0-4.63","2727754","co39502","norming","","","","","","",""
"null","../img/tt/1143tt.jpg","null","mooney2","image-keyboard-response","452","1351157","0.0-6.0-5.63","2727754","co39502","norming","","","","","","",""
"5923.204999999842","","","post_reveal_questions","survey-likert","453","1357083","0.0-6.0-6.63","2727754","co39502","norming","","","{""aha"":2}","[0]","../img/tt/1143tt.jpg","",""
"null","<div style=""font-size:60px;""> </div>","null","fixation","html-keyboard-response","454","1357288","0.0-6.0-0.64","2727754","co39502","norming","","","","","","",""
"null","../img/tt/1046tt.jpg","null","mooney1","image-keyboard-response","455","1360295","0.0-6.0-1.64","2727754","co39502","norming","","","","","","",""
"3821.730000000214","","","post_mooney1_questions","survey-likert","456","1364115","0.0-6.0-2.64","2727754","co39502","norming","","","{""curiosity"":1,""confidence"":0}","[0,1]","../img/tt/1046tt.jpg","",""
"3990.1700000001583","","","recognition","survey-text","457","1368107","0.0-6.0-3.64","2727754","co39502","norming","","","{""guess"":""bord eten""}","","../img/tt/1046tt.jpg","",""
"null","../img/gs/1046gs.jpg","null","reveal","image-keyboard-response","458","1370108","0.0-6.0-4.64","2727754","co39502","norming","","","","","","",""
"null","../img/tt/1046tt.jpg","null","mooney2","image-keyboard-response","459","1372111","0.0-6.0-5.64","2727754","co39502","norming","","","","","","",""
"2416.7949999999255","","","post_reveal_questions","survey-likert","460","1374531","0.0-6.0-6.64","2727754","co39502","norming","","","{""aha"":2}","[0]","../img/tt/1046tt.jpg","",""
"null","<div style=""font-size:60px;""> </div>","null","fixation","html-keyboard-response","461","1374732","0.0-6.0-0.65","2727754","co39502","norming","","","","","","",""
"null","../img/tt/1128tt.jpg","null","mooney1","image-keyboard-response","462","1377738","0.0-6.0-1.65","2727754","co39502","norming","","","","","","",""
"3207.2450000001118","","","post_mooney1_questions","survey-likert","463","1380947","0.0-6.0-2.65","2727754","co39502","norming","","","{""curiosity"":1,""confidence"":0}","[0,1]","../img/tt/1128tt.jpg","",""
"2461.8600000001024","","","recognition","survey-text","464","1383410","0.0-6.0-3.65","2727754","co39502","norming","","","{""guess"":""meisje""}","","../img/tt/1128tt.jpg","",""
"null","../img/gs/1128gs.jpg","null","reveal","image-keyboard-response","465","1385412","0.0-6.0-4.65","2727754","co39502","norming","","","","","","",""
"null","../img/tt/1128tt.jpg","null","mooney2","image-keyboard-response","466","1387419","0.0-6.0-5.65","2727754","co39502","norming","","","","","","",""
"3180.6949999998324","","","post_reveal_questions","survey-likert","467","1390603","0.0-6.0-6.65","2727754","co39502","norming","","","{""aha"":2}","[0]","../img/tt/1128tt.jpg","",""
"null","<div style=""font-size:60px;""> </div>","null","fixation","html-keyboard-response","468","1390806","0.0-6.0-0.66","2727754","co39502","norming","","","","","","",""
"null","../img/tt/123tt.jpg","null","mooney1","image-keyboard-response","469","1393817","0.0-6.0-1.66","2727754","co39502","norming","","","","","","",""
"5118.514999999898","","","post_mooney1_questions","survey-likert","470","1398939","0.0-6.0-2.66","2727754","co39502","norming","","","{""curiosity"":1,""confidence"":0}","[0,1]","../img/tt/123tt.jpg","",""
"2774.3700000001118","","","recognition","survey-text","471","1401715","0.0-6.0-3.66","2727754","co39502","norming","","","{""guess"":""auto""}","","../img/tt/123tt.jpg","",""
"null","../img/gs/123gs.jpg","null","reveal","image-keyboard-response","472","1403723","0.0-6.0-4.66","2727754","co39502","norming","","","","","","",""
"null","../img/tt/123tt.jpg","null","mooney2","image-keyboard-response","473","1405725","0.0-6.0-5.66","2727754","co39502","norming","","","","","","",""
"3124.304999999935","","","post_reveal_questions","survey-likert","474","1408851","0.0-6.0-6.66","2727754","co39502","norming","","","{""aha"":0}","[0]","../img/tt/123tt.jpg","",""
"null","<div style=""font-size:60px;""> </div>","null","fixation","html-keyboard-response","475","1409054","0.0-6.0-0.67","2727754","co39502","norming","","","","","","",""
"null","../img/tt/1242tt.jpg","null","mooney1","image-keyboard-response","476","1412057","0.0-6.0-1.67","2727754","co39502","norming","","","","","","",""
"3478.1350000000093","","","post_mooney1_questions","survey-likert","477","1415539","0.0-6.0-2.67","2727754","co39502","norming","","","{""curiosity"":1,""confidence"":1}","[0,1]","../img/tt/1242tt.jpg","",""
"2902.155000000028","","","recognition","survey-text","478","1418443","0.0-6.0-3.67","2727754","co39502","norming","","","{""guess"":""vos""}","","../img/tt/1242tt.jpg","",""
"null","../img/gs/1242gs.jpg","null","reveal","image-keyboard-response","479","1420444","0.0-6.0-4.67","2727754","co39502","norming","","","","","","",""
"null","../img/tt/1242tt.jpg","null","mooney2","image-keyboard-response","480","1422456","0.0-6.0-5.67","2727754","co39502","norming","","","","","","",""
"7207.5800000000745","","","post_reveal_questions","survey-likert","481","1429667","0.0-6.0-6.67","2727754","co39502","norming","","","{""aha"":2}","[0]","../img/tt/1242tt.jpg","",""
"null","<div style=""font-size:60px;""> </div>","null","fixation","html-keyboard-response","482","1429869","0.0-6.0-0.68","2727754","co39502","norming","","","","","","",""
"null","../img/tt/1200tt.jpg","null","mooney1","image-keyboard-response","483","1432879","0.0-6.0-1.68","2727754","co39502","norming","","","","","","",""
"3691.340000000084","","","post_mooney1_questions","survey-likert","484","1436572","0.0-6.0-2.68","2727754","co39502","norming","","","{""curiosity"":1,""confidence"":3}","[0,1]","../img/tt/1200tt.jpg","",""
"5157.840000000084","","","recognition","survey-text","485","1441732","0.0-6.0-3.68","2727754","co39502","norming","","","{""guess"":""kano""}","","../img/tt/1200tt.jpg","",""
"null","../img/gs/1200gs.jpg","null","reveal","image-keyboard-response","486","1443736","0.0-6.0-4.68","2727754","co39502","norming","","","","","","",""
"null","../img/tt/1200tt.jpg","null","mooney2","image-keyboard-response","487","1445738","0.0-6.0-5.68","2727754","co39502","norming","","","","","","",""
"2294.994999999879","","","post_reveal_questions","survey-likert","488","1448035","0.0-6.0-6.68","2727754","co39502","norming","","","{""aha"":2}","[0]","../img/tt/1200tt.jpg","",""
"null","<div style=""font-size:60px;""> </div>","null","fixation","html-keyboard-response","489","1448244","0.0-6.0-0.69","2727754","co39502","norming","","","","","","",""
"null","../img/tt/1125tt.jpg","null","mooney1","image-keyboard-response","490","1451251","0.0-6.0-1.69","2727754","co39502","norming","","","","","","",""
"4108.495000000112","","","post_mooney1_questions","survey-likert","491","1455364","0.0-6.0-2.69","2727754","co39502","norming","","","{""curiosity"":1,""confidence"":0}","[0,1]","../img/tt/1125tt.jpg","",""
"3509.844999999972","","","recognition","survey-text","492","1458875","0.0-6.0-3.69","2727754","co39502","norming","","","{""guess"":""sporters""}","","../img/tt/1125tt.jpg","",""
"null","../img/gs/1125gs.jpg","null","reveal","image-keyboard-response","493","1460882","0.0-6.0-4.69","2727754","co39502","norming","","","","","","",""
"null","../img/tt/1125tt.jpg","null","mooney2","image-keyboard-response","494","1462890","0.0-6.0-5.69","2727754","co39502","norming","","","","","","",""
"2328.1999999999534","","","post_reveal_questions","survey-likert","495","1465220","0.0-6.0-6.69","2727754","co39502","norming","","","{""aha"":2}","[0]","../img/tt/1125tt.jpg","",""
"null","<div style=""font-size:60px;""> </div>","null","fixation","html-keyboard-response","496","1465429","0.0-6.0-0.70","2727754","co39502","norming","","","","","","",""
"null","../img/tt/085tt.jpg","null","mooney1","image-keyboard-response","497","1468436","0.0-6.0-1.70","2727754","co39502","norming","","","","","","",""
"3732.3299999998417","","","post_mooney1_questions","survey-likert","498","1472172","0.0-6.0-2.70","2727754","co39502","norming","","","{""curiosity"":1,""confidence"":2}","[0,1]","../img/tt/085tt.jpg","",""
"2285.8650000002235","","","recognition","survey-text","499","1474459","0.0-6.0-3.70","2727754","co39502","norming","","","{""guess"":""insect""}","","../img/tt/085tt.jpg","",""
"null","../img/gs/085gs.jpg","null","reveal","image-keyboard-response","500","1476470","0.0-6.0-4.70","2727754","co39502","norming","","","","","","",""
"null","../img/tt/085tt.jpg","null","mooney2","image-keyboard-response","501","1478475","0.0-6.0-5.70","2727754","co39502","norming","","","","","","",""
"3349.5149999998976","","","post_reveal_questions","survey-likert","502","1481827","0.0-6.0-6.70","2727754","co39502","norming","","","{""aha"":2}","[0]","../img/tt/085tt.jpg","",""
"null","<div style=""font-size:60px;""> </div>","null","fixation","html-keyboard-response","503","1482037","0.0-6.0-0.71","2727754","co39502","norming","","","","","","",""
"null","../img/tt/082tt.jpg","null","mooney1","image-keyboard-response","504","1485047","0.0-6.0-1.71","2727754","co39502","norming","","","","","","",""
"3863.9199999999255","","","post_mooney1_questions","survey-likert","505","1488914","0.0-6.0-2.71","2727754","co39502","norming","","","{""curiosity"":1,""confidence"":3}","[0,1]","../img/tt/082tt.jpg","",""
"6422.124999999767","","","recognition","survey-text","506","1495338","0.0-6.0-3.71","2727754","co39502","norming","","","{""guess"":""papegaaien ""}","","../img/tt/082tt.jpg","",""
"null","../img/gs/082gs.jpg","null","reveal","image-keyboard-response","507","1497347","0.0-6.0-4.71","2727754","co39502","norming","","","","","","",""
"null","../img/tt/082tt.jpg","null","mooney2","image-keyboard-response","508","1499358","0.0-6.0-5.71","2727754","co39502","norming","","","","","","",""
"7896.839999999851","","","post_reveal_questions","survey-likert","509","1507258","0.0-6.0-6.71","2727754","co39502","norming","","","{""aha"":1}","[0]","../img/tt/082tt.jpg","",""
"null","<div style=""font-size:60px;""> </div>","null","fixation","html-keyboard-response","510","1507465","0.0-6.0-0.72","2727754","co39502","norming","","","","","","",""
"null","../img/tt/1202tt.jpg","null","mooney1","image-keyboard-response","511","1510473","0.0-6.0-1.72","2727754","co39502","norming","","","","","","",""
"3325.999999999767","","","post_mooney1_questions","survey-likert","512","1513802","0.0-6.0-2.72","2727754","co39502","norming","","","{""curiosity"":1,""confidence"":0}","[0,1]","../img/tt/1202tt.jpg","",""
"869.6350000000093","","","recognition","survey-text","513","1514674","0.0-6.0-3.72","2727754","co39502","norming","","","{""guess"":""""}","","../img/tt/1202tt.jpg","",""
"null","../img/gs/1202gs.jpg","null","reveal","image-keyboard-response","514","1516683","0.0-6.0-4.72","2727754","co39502","norming","","","","","","",""
"null","../img/tt/1202tt.jpg","null","mooney2","image-keyboard-response","515","1518687","0.0-6.0-5.72","2727754","co39502","norming","","","","","","",""
"2992.0850000001956","","","post_reveal_questions","survey-likert","516","1521682","0.0-6.0-6.72","2727754","co39502","norming","","","{""aha"":0}","[0]","../img/tt/1202tt.jpg","",""
"null","<div style=""font-size:60px;""> </div>","null","fixation","html-keyboard-response","517","1521889","0.0-6.0-0.73","2727754","co39502","norming","","","","","","",""
"null","../img/tt/1086tt.jpg","null","mooney1","image-keyboard-response","518","1524896","0.0-6.0-1.73","2727754","co39502","norming","","","","","","",""
"2528.9850000001024","","","post_mooney1_questions","survey-likert","519","1527426","0.0-6.0-2.73","2727754","co39502","norming","","","{""curiosity"":1,""confidence"":3}","[0,1]","../img/tt/1086tt.jpg","",""
"5638.194999999832","","","recognition","survey-text","520","1533066","0.0-6.0-3.73","2727754","co39502","norming","","","{""guess"":""honden sneeuw""}","","../img/tt/1086tt.jpg","",""
"null","../img/gs/1086gs.jpg","null","reveal","image-keyboard-response","521","1535073","0.0-6.0-4.73","2727754","co39502","norming","","","","","","",""
"null","../img/tt/1086tt.jpg","null","mooney2","image-keyboard-response","522","1537083","0.0-6.0-5.73","2727754","co39502","norming","","","","","","",""
"1933.5249999999069","","","post_reveal_questions","survey-likert","523","1539018","0.0-6.0-6.73","2727754","co39502","norming","","","{""aha"":2}","[0]","../img/tt/1086tt.jpg","",""
"null","<div style=""font-size:60px;""> </div>","null","fixation","html-keyboard-response","524","1539219","0.0-6.0-0.74","2727754","co39502","norming","","","","","","",""
"null","../img/tt/098tt.jpg","null","mooney1","image-keyboard-response","525","1542224","0.0-6.0-1.74","2727754","co39502","norming","","","","","","",""
"3774.310000000056","","","post_mooney1_questions","survey-likert","526","1546002","0.0-6.0-2.74","2727754","co39502","norming","","","{""curiosity"":1,""confidence"":0}","[0,1]","../img/tt/098tt.jpg","",""
"1101.964999999851","","","recognition","survey-text","527","1547106","0.0-6.0-3.74","2727754","co39502","norming","","","{""guess"":""""}","","../img/tt/098tt.jpg","",""
"null","../img/gs/098gs.jpg","null","reveal","image-keyboard-response","528","1549108","0.0-6.0-4.74","2727754","co39502","norming","","","","","","",""
"null","../img/tt/098tt.jpg","null","mooney2","image-keyboard-response","529","1551109","0.0-6.0-5.74","2727754","co39502","norming","","","","","","",""
"2153.560000000056","","","post_reveal_questions","survey-likert","530","1553266","0.0-6.0-6.74","2727754","co39502","norming","","","{""aha"":0}","[0]","../img/tt/098tt.jpg","",""
"null","<div style=""font-size:60px;""> </div>","null","fixation","html-keyboard-response","531","1553469","0.0-6.0-0.75","2727754","co39502","norming","","","","","","",""
"null","../img/tt/1091tt.jpg","null","mooney1","image-keyboard-response","532","1556475","0.0-6.0-1.75","2727754","co39502","norming","","","","","","",""
"2827.1350000000093","","","post_mooney1_questions","survey-likert","533","1559306","0.0-6.0-2.75","2727754","co39502","norming","","","{""curiosity"":1,""confidence"":1}","[0,1]","../img/tt/1091tt.jpg","",""
"3446.310000000056","","","recognition","survey-text","534","1562754","0.0-6.0-3.75","2727754","co39502","norming","","","{""guess"":""olifant""}","","../img/tt/1091tt.jpg","",""
"null","../img/gs/1091gs.jpg","null","reveal","image-keyboard-response","535","1564758","0.0-6.0-4.75","2727754","co39502","norming","","","","","","",""
"null","../img/tt/1091tt.jpg","null","mooney2","image-keyboard-response","536","1566769","0.0-6.0-5.75","2727754","co39502","norming","","","","","","",""
"2918.219999999972","","","post_reveal_questions","survey-likert","537","1569690","0.0-6.0-6.75","2727754","co39502","norming","","","{""aha"":0}","[0]","../img/tt/1091tt.jpg","",""
"null","<div style=""font-size:60px;""> </div>","null","fixation","html-keyboard-response","538","1569900","0.0-6.0-0.76","2727754","co39502","norming","","","","","","",""
"null","../img/tt/1123tt.jpg","null","mooney1","image-keyboard-response","539","1572907","0.0-6.0-1.76","2727754","co39502","norming","","","","","","",""
"2869.909999999916","","","post_mooney1_questions","survey-likert","540","1575778","0.0-6.0-2.76","2727754","co39502","norming","","","{""curiosity"":1,""confidence"":3}","[0,1]","../img/tt/1123tt.jpg","",""
"6062.070000000298","","","recognition","survey-text","541","1581842","0.0-6.0-3.76","2727754","co39502","norming","","","{""guess"":""volleybal""}","","../img/tt/1123tt.jpg","",""
"null","../img/gs/1123gs.jpg","null","reveal","image-keyboard-response","542","1583852","0.0-6.0-4.76","2727754","co39502","norming","","","","","","",""
"null","../img/tt/1123tt.jpg","null","mooney2","image-keyboard-response","543","1585859","0.0-6.0-5.76","2727754","co39502","norming","","","","","","",""
"1484.0249999999069","","","post_reveal_questions","survey-likert","544","1587346","0.0-6.0-6.76","2727754","co39502","norming","","","{""aha"":1}","[0]","../img/tt/1123tt.jpg","",""
"null","<div style=""font-size:60px;""> </div>","null","fixation","html-keyboard-response","545","1587547","0.0-6.0-0.77","2727754","co39502","norming","","","","","","",""
"null","../img/tt/584tt.jpg","null","mooney1","image-keyboard-response","546","1590553","0.0-6.0-1.77","2727754","co39502","norming","","","","","","",""
"3240.375000000233","","","post_mooney1_questions","survey-likert","547","1593794","0.0-6.0-2.77","2727754","co39502","norming","","","{""curiosity"":1,""confidence"":2}","[0,1]","../img/tt/584tt.jpg","",""
"5701.979999999981","","","recognition","survey-text","548","1599498","0.0-6.0-3.77","2727754","co39502","norming","","","{""guess"":""verschillende tangen ""}","","../img/tt/584tt.jpg","",""
"null","../img/gs/584gs.jpg","null","reveal","image-keyboard-response","549","1601499","0.0-6.0-4.77","2727754","co39502","norming","","","","","","",""
"null","../img/tt/584tt.jpg","null","mooney2","image-keyboard-response","550","1603506","0.0-6.0-5.77","2727754","co39502","norming","","","","","","",""
"2589.3250000001863","","","post_reveal_questions","survey-likert","551","1606097","0.0-6.0-6.77","2727754","co39502","norming","","","{""aha"":3}","[0]","../img/tt/584tt.jpg","",""
"null","<div style=""font-size:60px;""> </div>","null","fixation","html-keyboard-response","552","1606301","0.0-6.0-0.78","2727754","co39502","norming","","","","","","",""
