"rt","stimulus","key_press","test_part","trial_type","trial_index","time_elapsed","internal_node_id","totalTime","subject","experiment_name","button_pressed","success","responses","question_order","currentStim","old","correct"
"8370.3","Welcome to the experiment. This is an online experiment so please don't close the tab/window until we say goodbye.  Press any key to begin.","32","instructions","html-keyboard-response","0","8378","0.0-0.0","2916206","co39184","norming","","","","","","",""
"113311.3","<div style='word-wrap: break-word; width: 900px'><h3>Please consider this information carefully before deciding whether to participate in this research</h3><ul style='text-align: left; font-size: .8em;'><li><b>Purpose of the research</b>: To examine how people process images.</li><li><b>What you will do in this research</b>:  Stimuli (images) will be presented on the computer and you will be asked different questions about them.</li><li><b>Time required</b>: Participation will take between 45 and 60 minutes to complete.</li><li><b>Risks</b>:  There are no anticipated risks associated with participating in this study. The effects of participating should be comparable to those you would experience from viewing a computer monitor for 30 minutes and using a mouse or keyboard.</li><li><b>Benefits</b>:  This study provides no benefits to you individually except for the credit. The study provides important information about the nature of perception and learning.</li><li><b>Confidentiality</b>:  Your participation in this study will remain confidential. No personally identifiable information will be associated with your data. Your de-identified data may be shared with other researchers and used in future projects.</li><li><b>Participation and withdrawal</b>:  Your participation in this study is completely voluntary and you may refuse to participate or you may choose to withdraw at any time without penalty.</li><li><b>How to contact the researchers</b>: If you have questions or concerns about your participation or payment, or want to request a summary of research findings, please contact Sander Van de Cruys (KU Leuven), at sander.vandecruys@kuleuven.be.</li></ul><p>The nature and purpose of this research have been sufficiently explained and I agree to participate in this study.  I understand that I am free to withdraw at any time without incurring any penalty.</p><p>Please consent by clicking the button below to continue. Otherwise, please exit the study at this time.</p></div>","","instructions","html-button-response","1","121693","0.0-1.0","2916206","co39184","norming","0","","","","","",""
"","","","instructions","fullscreen","2","127119","0.0-2.0","2916206","co39184","norming","","true","","","","",""
"36769.70000000001","","","sona","survey-html-form","3","163893","0.0-3.0","2916206","co39184","norming","","","[{""name"":""sonaid"",""value"":""39184""},{""name"":""debrief"",""value"":""yes""},{""name"":""datajoin"",""value"":""yes""}]","","","",""
"88558.9","<div style='word-wrap: break-word; width: 900px'><h3>Instructions</h3><p>This experiment will have 3 parts. In the first part you will see a series of distorted images like the one below on the left. As you can see in the righthand image, the distorted images are derived from actual photographs. In what follows, you will <strong>briefly</strong> be presented with <strong>only</strong> the distorted image.</p> <div style='float: left; margin-right: 20px;'><img src='../img/018tt.jpg' height='250' width='250'></img></div><div style='float: right; margin-left: 20px;'><img src='../img/018gs.jpg' height='250' width='250'></img></div><p>Subsequently you will be asked a few questions about the image: One question on how <strong>curious</strong> you are about the solution and one on how <strong>confident</strong> you are that you know the solution.</p>Next, we ask you to make a guess on what is in the image. Note that it is OK to name just the <strong>basic level category</strong>. For example when you see a parrot in the image, 'parrot' will obviously be a correct answer but also correct is 'bird'. However, 'animal' will <strong>not</strong> be counted as a correct response. For the example above, 'rose' would be correct or 'flower', but not 'plant'. When soccer players are depicted, 'soccer', 'football', 'soccer players' will be correct, but not 'humans', 'outdoors', or 'sports'. You do not need to describe the image in full, just name the main object in it <strong>in one or two words</strong>. All images depict objects from one of the following broad level categories: animals, inanimate objects, plants, sports, vehicles, and food. Recognizing means knowing <strong>more</strong> than these broad labels for a given image. But we always encourage you to <strong>make a guess</strong> if you can. Note that you are allowed to use <strong>Dutch and English</strong> in your answers, whatever comes easiest for you.</p><p>Press any key to continue.</p></div>","39","instructions","html-keyboard-response","4","252454","0.0-4.0","2916206","co39184","norming","","","","","","",""
"15400.5","<div style='word-wrap: break-word; width: 900px'><h3>Instructions</h3> <p>Next, the solution image will be revealed to you and you'll be asked to indicate how strong your <strong>aha-experience</strong> was after seeing the solution. This describes the positive feeling of the 'click' you sometimes experience, when the pieces of the 'puzzle' fall together and you suddenly have 'insight' in the image.</p><img src='aha.jpg' height='188' width='250'></img><p>Note that there are no right or wrong answers. We are interested in what <strong>you</strong> see in the image and how <strong>you</strong> feel about it.</p><p>Press any key to start the experiment.</p></div>","39","instructions","html-keyboard-response","5","267858","0.0-5.0","2916206","co39184","norming","","","","","","",""
"null","<div style=""font-size:60px;""> </div>","null","fixation","html-keyboard-response","6","268089","0.0-6.0-0.0","2916206","co39184","norming","","","","","","",""
"null","../img/tt/019tt.jpg","null","mooney1","image-keyboard-response","7","271106","0.0-6.0-1.0","2916206","co39184","norming","","","","","","",""
"10178.299999999988","","","post_mooney1_questions","survey-likert","8","281290","0.0-6.0-2.0","2916206","co39184","norming","","","{""curiosity"":1,""confidence"":5}","[0,1]","../img/tt/019tt.jpg","",""
"10821.399999999965","","","recognition","survey-text","9","292119","0.0-6.0-3.0","2916206","co39184","norming","","","{""guess"":""tuinschaar""}","","../img/tt/019tt.jpg","",""
"null","../img/gs/019gs.jpg","null","reveal","image-keyboard-response","10","294132","0.0-6.0-4.0","2916206","co39184","norming","","","","","","",""
"null","../img/tt/019tt.jpg","null","mooney2","image-keyboard-response","11","296124","0.0-6.0-5.0","2916206","co39184","norming","","","","","","",""
"5423.899999999965","","","post_reveal_questions","survey-likert","12","301551","0.0-6.0-6.0","2916206","co39184","norming","","","{""aha"":0}","[0]","../img/tt/019tt.jpg","",""
"null","<div style=""font-size:60px;""> </div>","null","fixation","html-keyboard-response","13","301780","0.0-6.0-0.1","2916206","co39184","norming","","","","","","",""
"null","../img/tt/076tt.jpg","null","mooney1","image-keyboard-response","14","304792","0.0-6.0-1.1","2916206","co39184","norming","","","","","","",""
"9077.400000000023","","","post_mooney1_questions","survey-likert","15","313872","0.0-6.0-2.1","2916206","co39184","norming","","","{""curiosity"":1,""confidence"":5}","[0,1]","../img/tt/076tt.jpg","",""
"5127","","","recognition","survey-text","16","319004","0.0-6.0-3.1","2916206","co39184","norming","","","{""guess"":""rolschaatsen""}","","../img/tt/076tt.jpg","",""
"null","../img/gs/076gs.jpg","null","reveal","image-keyboard-response","17","321018","0.0-6.0-4.1","2916206","co39184","norming","","","","","","",""
"null","../img/tt/076tt.jpg","null","mooney2","image-keyboard-response","18","323026","0.0-6.0-5.1","2916206","co39184","norming","","","","","","",""
"3106.2000000000116","","","post_reveal_questions","survey-likert","19","326133","0.0-6.0-6.1","2916206","co39184","norming","","","{""aha"":6}","[0]","../img/tt/076tt.jpg","",""
"null","<div style=""font-size:60px;""> </div>","null","fixation","html-keyboard-response","20","326358","0.0-6.0-0.2","2916206","co39184","norming","","","","","","",""
"null","../img/tt/1190tt.jpg","null","mooney1","image-keyboard-response","21","329373","0.0-6.0-1.2","2916206","co39184","norming","","","","","","",""
"5224.299999999988","","","post_mooney1_questions","survey-likert","22","334599","0.0-6.0-2.2","2916206","co39184","norming","","","{""curiosity"":6,""confidence"":0}","[0,1]","../img/tt/1190tt.jpg","",""
"3175","","","recognition","survey-text","23","337779","0.0-6.0-3.2","2916206","co39184","norming","","","{""guess"":""""}","","../img/tt/1190tt.jpg","",""
"null","../img/gs/1190gs.jpg","null","reveal","image-keyboard-response","24","339803","0.0-6.0-4.2","2916206","co39184","norming","","","","","","",""
"null","../img/tt/1190tt.jpg","null","mooney2","image-keyboard-response","25","341782","0.0-6.0-5.2","2916206","co39184","norming","","","","","","",""
"4347.200000000012","","","post_reveal_questions","survey-likert","26","346132","0.0-6.0-6.2","2916206","co39184","norming","","","{""aha"":0}","[0]","../img/tt/1190tt.jpg","",""
"null","<div style=""font-size:60px;""> </div>","null","fixation","html-keyboard-response","27","346360","0.0-6.0-0.3","2916206","co39184","norming","","","","","","",""
"null","../img/tt/1084tt.jpg","null","mooney1","image-keyboard-response","28","349377","0.0-6.0-1.3","2916206","co39184","norming","","","","","","",""
"6593.800000000047","","","post_mooney1_questions","survey-likert","29","355975","0.0-6.0-2.3","2916206","co39184","norming","","","{""curiosity"":5,""confidence"":1}","[0,1]","../img/tt/1084tt.jpg","",""
"7330.400000000023","","","recognition","survey-text","30","363310","0.0-6.0-3.3","2916206","co39184","norming","","","{""guess"":""aardbei""}","","../img/tt/1084tt.jpg","",""
"null","../img/gs/1084gs.jpg","null","reveal","image-keyboard-response","31","365333","0.0-6.0-4.3","2916206","co39184","norming","","","","","","",""
"null","../img/tt/1084tt.jpg","null","mooney2","image-keyboard-response","32","367353","0.0-6.0-5.3","2916206","co39184","norming","","","","","","",""
"2286.1999999999534","","","post_reveal_questions","survey-likert","33","369643","0.0-6.0-6.3","2916206","co39184","norming","","","{""aha"":0}","[0]","../img/tt/1084tt.jpg","",""
"null","<div style=""font-size:60px;""> </div>","null","fixation","html-keyboard-response","34","369864","0.0-6.0-0.4","2916206","co39184","norming","","","","","","",""
"null","../img/tt/1146tt.jpg","null","mooney1","image-keyboard-response","35","372895","0.0-6.0-1.4","2916206","co39184","norming","","","","","","",""
"5184.200000000012","","","post_mooney1_questions","survey-likert","36","378084","0.0-6.0-2.4","2916206","co39184","norming","","","{""curiosity"":3,""confidence"":4}","[0,1]","../img/tt/1146tt.jpg","",""
"10522.599999999976","","","recognition","survey-text","37","388611","0.0-6.0-3.4","2916206","co39184","norming","","","{""guess"":""persoon op een bankje""}","","../img/tt/1146tt.jpg","",""
"null","../img/gs/1146gs.jpg","null","reveal","image-keyboard-response","38","390625","0.0-6.0-4.4","2916206","co39184","norming","","","","","","",""
"null","../img/tt/1146tt.jpg","null","mooney2","image-keyboard-response","39","392614","0.0-6.0-5.4","2916206","co39184","norming","","","","","","",""
"4205.200000000012","","","post_reveal_questions","survey-likert","40","396823","0.0-6.0-6.4","2916206","co39184","norming","","","{""aha"":2}","[0]","../img/tt/1146tt.jpg","",""
"null","<div style=""font-size:60px;""> </div>","null","fixation","html-keyboard-response","41","397041","0.0-6.0-0.5","2916206","co39184","norming","","","","","","",""
"null","../img/tt/1089tt.jpg","null","mooney1","image-keyboard-response","42","400075","0.0-6.0-1.5","2916206","co39184","norming","","","","","","",""
"4610.599999999977","","","post_mooney1_questions","survey-likert","43","404689","0.0-6.0-2.5","2916206","co39184","norming","","","{""curiosity"":3,""confidence"":3}","[0,1]","../img/tt/1089tt.jpg","",""
"4505","","","recognition","survey-text","44","409199","0.0-6.0-3.5","2916206","co39184","norming","","","{""guess"":""olifant""}","","../img/tt/1089tt.jpg","",""
"null","../img/gs/1089gs.jpg","null","reveal","image-keyboard-response","45","411212","0.0-6.0-4.5","2916206","co39184","norming","","","","","","",""
"null","../img/tt/1089tt.jpg","null","mooney2","image-keyboard-response","46","413207","0.0-6.0-5.5","2916206","co39184","norming","","","","","","",""
"2101.2999999999883","","","post_reveal_questions","survey-likert","47","415312","0.0-6.0-6.5","2916206","co39184","norming","","","{""aha"":0}","[0]","../img/tt/1089tt.jpg","",""
"null","<div style=""font-size:60px;""> </div>","null","fixation","html-keyboard-response","48","415520","0.0-6.0-0.6","2916206","co39184","norming","","","","","","",""
"null","../img/tt/1118tt.jpg","null","mooney1","image-keyboard-response","49","418530","0.0-6.0-1.6","2916206","co39184","norming","","","","","","",""
"4103.299999999988","","","post_mooney1_questions","survey-likert","50","422637","0.0-6.0-2.6","2916206","co39184","norming","","","{""curiosity"":5,""confidence"":0}","[0,1]","../img/tt/1118tt.jpg","",""
"1195.9000000000232","","","recognition","survey-text","51","423839","0.0-6.0-3.6","2916206","co39184","norming","","","{""guess"":""""}","","../img/tt/1118tt.jpg","",""
"null","../img/gs/1118gs.jpg","null","reveal","image-keyboard-response","52","425842","0.0-6.0-4.6","2916206","co39184","norming","","","","","","",""
"null","../img/tt/1118tt.jpg","null","mooney2","image-keyboard-response","53","427871","0.0-6.0-5.6","2916206","co39184","norming","","","","","","",""
"2131.2999999999883","","","post_reveal_questions","survey-likert","54","430005","0.0-6.0-6.6","2916206","co39184","norming","","","{""aha"":0}","[0]","../img/tt/1118tt.jpg","",""
"null","<div style=""font-size:60px;""> </div>","null","fixation","html-keyboard-response","55","430224","0.0-6.0-0.7","2916206","co39184","norming","","","","","","",""
"null","../img/tt/507tt.jpg","null","mooney1","image-keyboard-response","56","433232","0.0-6.0-1.7","2916206","co39184","norming","","","","","","",""
"6129.700000000012","","","post_mooney1_questions","survey-likert","57","439365","0.0-6.0-2.7","2916206","co39184","norming","","","{""curiosity"":5,""confidence"":1}","[0,1]","../img/tt/507tt.jpg","",""
"9702.200000000011","","","recognition","survey-text","58","449072","0.0-6.0-3.7","2916206","co39184","norming","","","{""guess"":""groep mensen""}","","../img/tt/507tt.jpg","",""
"null","../img/gs/507gs.jpg","null","reveal","image-keyboard-response","59","451085","0.0-6.0-4.7","2916206","co39184","norming","","","","","","",""
"null","../img/tt/507tt.jpg","null","mooney2","image-keyboard-response","60","453093","0.0-6.0-5.7","2916206","co39184","norming","","","","","","",""
"3742.1999999999534","","","post_reveal_questions","survey-likert","61","456839","0.0-6.0-6.7","2916206","co39184","norming","","","{""aha"":2}","[0]","../img/tt/507tt.jpg","",""
"null","<div style=""font-size:60px;""> </div>","null","fixation","html-keyboard-response","62","457044","0.0-6.0-0.8","2916206","co39184","norming","","","","","","",""
"null","../img/tt/300tt.jpg","null","mooney1","image-keyboard-response","63","460059","0.0-6.0-1.8","2916206","co39184","norming","","","","","","",""
"5008.200000000012","","","post_mooney1_questions","survey-likert","64","465071","0.0-6.0-2.8","2916206","co39184","norming","","","{""curiosity"":0,""confidence"":6}","[0,1]","../img/tt/300tt.jpg","",""
"3001.100000000035","","","recognition","survey-text","65","468081","0.0-6.0-3.8","2916206","co39184","norming","","","{""guess"":""aap""}","","../img/tt/300tt.jpg","",""
"null","../img/gs/300gs.jpg","null","reveal","image-keyboard-response","66","470096","0.0-6.0-4.8","2916206","co39184","norming","","","","","","",""
"null","../img/tt/300tt.jpg","null","mooney2","image-keyboard-response","67","472101","0.0-6.0-5.8","2916206","co39184","norming","","","","","","",""
"3826.7000000000116","","","post_reveal_questions","survey-likert","68","475931","0.0-6.0-6.8","2916206","co39184","norming","","","{""aha"":3}","[0]","../img/tt/300tt.jpg","",""
"null","<div style=""font-size:60px;""> </div>","null","fixation","html-keyboard-response","69","476161","0.0-6.0-0.9","2916206","co39184","norming","","","","","","",""
"null","../img/tt/112tt.jpg","null","mooney1","image-keyboard-response","70","479189","0.0-6.0-1.9","2916206","co39184","norming","","","","","","",""
"7537.599999999977","","","post_mooney1_questions","survey-likert","71","486731","0.0-6.0-2.9","2916206","co39184","norming","","","{""curiosity"":6,""confidence"":0}","[0,1]","../img/tt/112tt.jpg","",""
"873.2000000000116","","","recognition","survey-text","72","487609","0.0-6.0-3.9","2916206","co39184","norming","","","{""guess"":""""}","","../img/tt/112tt.jpg","",""
"null","../img/gs/112gs.jpg","null","reveal","image-keyboard-response","73","489614","0.0-6.0-4.9","2916206","co39184","norming","","","","","","",""
"null","../img/tt/112tt.jpg","null","mooney2","image-keyboard-response","74","491609","0.0-6.0-5.9","2916206","co39184","norming","","","","","","",""
"3110.2000000000116","","","post_reveal_questions","survey-likert","75","494723","0.0-6.0-6.9","2916206","co39184","norming","","","{""aha"":0}","[0]","../img/tt/112tt.jpg","",""
"null","<div style=""font-size:60px;""> </div>","null","fixation","html-keyboard-response","76","494960","0.0-6.0-0.10","2916206","co39184","norming","","","","","","",""
"null","../img/tt/1366tt.jpg","null","mooney1","image-keyboard-response","77","497977","0.0-6.0-1.10","2916206","co39184","norming","","","","","","",""
"5626.200000000012","","","post_mooney1_questions","survey-likert","78","503607","0.0-6.0-2.10","2916206","co39184","norming","","","{""curiosity"":4,""confidence"":2}","[0,1]","../img/tt/1366tt.jpg","",""
"3096.5","","","recognition","survey-text","79","506709","0.0-6.0-3.10","2916206","co39184","norming","","","{""guess"":""boot""}","","../img/tt/1366tt.jpg","",""
"null","../img/gs/1366gs.jpg","null","reveal","image-keyboard-response","80","508738","0.0-6.0-4.10","2916206","co39184","norming","","","","","","",""
"null","../img/tt/1366tt.jpg","null","mooney2","image-keyboard-response","81","510716","0.0-6.0-5.10","2916206","co39184","norming","","","","","","",""
"2782.9000000000233","","","post_reveal_questions","survey-likert","82","513501","0.0-6.0-6.10","2916206","co39184","norming","","","{""aha"":2}","[0]","../img/tt/1366tt.jpg","",""
"null","<div style=""font-size:60px;""> </div>","null","fixation","html-keyboard-response","83","513722","0.0-6.0-0.11","2916206","co39184","norming","","","","","","",""
"null","../img/tt/056tt.jpg","null","mooney1","image-keyboard-response","84","516735","0.0-6.0-1.11","2916206","co39184","norming","","","","","","",""
"5865.500000000058","","","post_mooney1_questions","survey-likert","85","522605","0.0-6.0-2.11","2916206","co39184","norming","","","{""curiosity"":5,""confidence"":0}","[0,1]","../img/tt/056tt.jpg","",""
"1066.7000000000698","","","recognition","survey-text","86","523677","0.0-6.0-3.11","2916206","co39184","norming","","","{""guess"":""""}","","../img/tt/056tt.jpg","",""
"null","../img/gs/056gs.jpg","null","reveal","image-keyboard-response","87","525692","0.0-6.0-4.11","2916206","co39184","norming","","","","","","",""
"null","../img/tt/056tt.jpg","null","mooney2","image-keyboard-response","88","527693","0.0-6.0-5.11","2916206","co39184","norming","","","","","","",""
"3049.9000000000233","","","post_reveal_questions","survey-likert","89","530747","0.0-6.0-6.11","2916206","co39184","norming","","","{""aha"":0}","[0]","../img/tt/056tt.jpg","",""
"null","<div style=""font-size:60px;""> </div>","null","fixation","html-keyboard-response","90","530971","0.0-6.0-0.12","2916206","co39184","norming","","","","","","",""
"null","../img/tt/496tt.jpg","null","mooney1","image-keyboard-response","91","533983","0.0-6.0-1.12","2916206","co39184","norming","","","","","","",""
"4050.8000000000465","","","post_mooney1_questions","survey-likert","92","538037","0.0-6.0-2.12","2916206","co39184","norming","","","{""curiosity"":4,""confidence"":0}","[0,1]","../img/tt/496tt.jpg","",""
"834.5","","","recognition","survey-text","93","538877","0.0-6.0-3.12","2916206","co39184","norming","","","{""guess"":""""}","","../img/tt/496tt.jpg","",""
"null","../img/gs/496gs.jpg","null","reveal","image-keyboard-response","94","540887","0.0-6.0-4.12","2916206","co39184","norming","","","","","","",""
"null","../img/tt/496tt.jpg","null","mooney2","image-keyboard-response","95","542894","0.0-6.0-5.12","2916206","co39184","norming","","","","","","",""
"2663.8000000000465","","","post_reveal_questions","survey-likert","96","545560","0.0-6.0-6.12","2916206","co39184","norming","","","{""aha"":0}","[0]","../img/tt/496tt.jpg","",""
"null","<div style=""font-size:60px;""> </div>","null","fixation","html-keyboard-response","97","545779","0.0-6.0-0.13","2916206","co39184","norming","","","","","","",""
"null","../img/tt/1247tt.jpg","null","mooney1","image-keyboard-response","98","548795","0.0-6.0-1.13","2916206","co39184","norming","","","","","","",""
"4591.5","","","post_mooney1_questions","survey-likert","99","553389","0.0-6.0-2.13","2916206","co39184","norming","","","{""curiosity"":4,""confidence"":1}","[0,1]","../img/tt/1247tt.jpg","",""
"4360.599999999977","","","recognition","survey-text","100","557755","0.0-6.0-3.13","2916206","co39184","norming","","","{""guess"":""2 mensen""}","","../img/tt/1247tt.jpg","",""
"null","../img/gs/1247gs.jpg","null","reveal","image-keyboard-response","101","559763","0.0-6.0-4.13","2916206","co39184","norming","","","","","","",""
"null","../img/tt/1247tt.jpg","null","mooney2","image-keyboard-response","102","561770","0.0-6.0-5.13","2916206","co39184","norming","","","","","","",""
"8831.70000000007","","","post_reveal_questions","survey-likert","103","570605","0.0-6.0-6.13","2916206","co39184","norming","","","{""aha"":1}","[0]","../img/tt/1247tt.jpg","",""
"null","<div style=""font-size:60px;""> </div>","null","fixation","html-keyboard-response","104","570841","0.0-6.0-0.14","2916206","co39184","norming","","","","","","",""
"null","../img/tt/1270tt.jpg","null","mooney1","image-keyboard-response","105","573854","0.0-6.0-1.14","2916206","co39184","norming","","","","","","",""
"4884.100000000093","","","post_mooney1_questions","survey-likert","106","578743","0.0-6.0-2.14","2916206","co39184","norming","","","{""curiosity"":3,""confidence"":3}","[0,1]","../img/tt/1270tt.jpg","",""
"4405.900000000023","","","recognition","survey-text","107","583154","0.0-6.0-3.14","2916206","co39184","norming","","","{""guess"":""luipaard""}","","../img/tt/1270tt.jpg","",""
"null","../img/gs/1270gs.jpg","null","reveal","image-keyboard-response","108","585164","0.0-6.0-4.14","2916206","co39184","norming","","","","","","",""
"null","../img/tt/1270tt.jpg","null","mooney2","image-keyboard-response","109","587168","0.0-6.0-5.14","2916206","co39184","norming","","","","","","",""
"3139.1999999999534","","","post_reveal_questions","survey-likert","110","590311","0.0-6.0-6.14","2916206","co39184","norming","","","{""aha"":2}","[0]","../img/tt/1270tt.jpg","",""
"null","<div style=""font-size:60px;""> </div>","null","fixation","html-keyboard-response","111","590529","0.0-6.0-0.15","2916206","co39184","norming","","","","","","",""
"null","../img/tt/279tt.jpg","null","mooney1","image-keyboard-response","112","593562","0.0-6.0-1.15","2916206","co39184","norming","","","","","","",""
"5659.099999999977","","","post_mooney1_questions","survey-likert","113","599225","0.0-6.0-2.15","2916206","co39184","norming","","","{""curiosity"":1,""confidence"":5}","[0,1]","../img/tt/279tt.jpg","",""
"3039.6999999999534","","","recognition","survey-text","114","602269","0.0-6.0-3.15","2916206","co39184","norming","","","{""guess"":""koala""}","","../img/tt/279tt.jpg","",""
"null","../img/gs/279gs.jpg","null","reveal","image-keyboard-response","115","604283","0.0-6.0-4.15","2916206","co39184","norming","","","","","","",""
"null","../img/tt/279tt.jpg","null","mooney2","image-keyboard-response","116","606281","0.0-6.0-5.15","2916206","co39184","norming","","","","","","",""
"2789.0999999999767","","","post_reveal_questions","survey-likert","117","609073","0.0-6.0-6.15","2916206","co39184","norming","","","{""aha"":4}","[0]","../img/tt/279tt.jpg","",""
"null","<div style=""font-size:60px;""> </div>","null","fixation","html-keyboard-response","118","609293","0.0-6.0-0.16","2916206","co39184","norming","","","","","","",""
"null","../img/tt/1186tt.jpg","null","mooney1","image-keyboard-response","119","612317","0.0-6.0-1.16","2916206","co39184","norming","","","","","","",""
"5615.099999999977","","","post_mooney1_questions","survey-likert","120","617936","0.0-6.0-2.16","2916206","co39184","norming","","","{""curiosity"":4,""confidence"":3}","[0,1]","../img/tt/1186tt.jpg","",""
"7546.800000000047","","","recognition","survey-text","121","625489","0.0-6.0-3.16","2916206","co39184","norming","","","{""guess"":""sportende man""}","","../img/tt/1186tt.jpg","",""
"null","../img/gs/1186gs.jpg","null","reveal","image-keyboard-response","122","627511","0.0-6.0-4.16","2916206","co39184","norming","","","","","","",""
"null","../img/tt/1186tt.jpg","null","mooney2","image-keyboard-response","123","629495","0.0-6.0-5.16","2916206","co39184","norming","","","","","","",""
"2434.29999999993","","","post_reveal_questions","survey-likert","124","631933","0.0-6.0-6.16","2916206","co39184","norming","","","{""aha"":5}","[0]","../img/tt/1186tt.jpg","",""
"null","<div style=""font-size:60px;""> </div>","null","fixation","html-keyboard-response","125","632163","0.0-6.0-0.17","2916206","co39184","norming","","","","","","",""
"null","../img/tt/1043tt.jpg","null","mooney1","image-keyboard-response","126","635174","0.0-6.0-1.17","2916206","co39184","norming","","","","","","",""
"5207.29999999993","","","post_mooney1_questions","survey-likert","127","640385","0.0-6.0-2.17","2916206","co39184","norming","","","{""curiosity"":3,""confidence"":3}","[0,1]","../img/tt/1043tt.jpg","",""
"3294.79999999993","","","recognition","survey-text","128","643685","0.0-6.0-3.17","2916206","co39184","norming","","","{""guess"":""slang""}","","../img/tt/1043tt.jpg","",""
"null","../img/gs/1043gs.jpg","null","reveal","image-keyboard-response","129","645706","0.0-6.0-4.17","2916206","co39184","norming","","","","","","",""
"null","../img/tt/1043tt.jpg","null","mooney2","image-keyboard-response","130","647710","0.0-6.0-5.17","2916206","co39184","norming","","","","","","",""
"2737.5999999999767","","","post_reveal_questions","survey-likert","131","650451","0.0-6.0-6.17","2916206","co39184","norming","","","{""aha"":2}","[0]","../img/tt/1043tt.jpg","",""
"null","<div style=""font-size:60px;""> </div>","null","fixation","html-keyboard-response","132","650670","0.0-6.0-0.18","2916206","co39184","norming","","","","","","",""
"null","../img/tt/515tt.jpg","null","mooney1","image-keyboard-response","133","653680","0.0-6.0-1.18","2916206","co39184","norming","","","","","","",""
"4391.300000000047","","","post_mooney1_questions","survey-likert","134","658075","0.0-6.0-2.18","2916206","co39184","norming","","","{""curiosity"":0,""confidence"":4}","[0,1]","../img/tt/515tt.jpg","",""
"2182.100000000093","","","recognition","survey-text","135","660263","0.0-6.0-3.18","2916206","co39184","norming","","","{""guess"":""kip""}","","../img/tt/515tt.jpg","",""
"null","../img/gs/515gs.jpg","null","reveal","image-keyboard-response","136","662292","0.0-6.0-4.18","2916206","co39184","norming","","","","","","",""
"null","../img/tt/515tt.jpg","null","mooney2","image-keyboard-response","137","664274","0.0-6.0-5.18","2916206","co39184","norming","","","","","","",""
"2799.0999999999767","","","post_reveal_questions","survey-likert","138","667076","0.0-6.0-6.18","2916206","co39184","norming","","","{""aha"":4}","[0]","../img/tt/515tt.jpg","",""
"null","<div style=""font-size:60px;""> </div>","null","fixation","html-keyboard-response","139","667277","0.0-6.0-0.19","2916206","co39184","norming","","","","","","",""
"null","../img/tt/123tt.jpg","null","mooney1","image-keyboard-response","140","670302","0.0-6.0-1.19","2916206","co39184","norming","","","","","","",""
"10896.600000000093","","","post_mooney1_questions","survey-likert","141","681203","0.0-6.0-2.19","2916206","co39184","norming","","","{""curiosity"":6,""confidence"":0}","[0,1]","../img/tt/123tt.jpg","",""
"710","","","recognition","survey-text","142","681920","0.0-6.0-3.19","2916206","co39184","norming","","","{""guess"":""""}","","../img/tt/123tt.jpg","",""
"null","../img/gs/123gs.jpg","null","reveal","image-keyboard-response","143","683935","0.0-6.0-4.19","2916206","co39184","norming","","","","","","",""
"null","../img/tt/123tt.jpg","null","mooney2","image-keyboard-response","144","685937","0.0-6.0-5.19","2916206","co39184","norming","","","","","","",""
"9603.899999999906","","","post_reveal_questions","survey-likert","145","695545","0.0-6.0-6.19","2916206","co39184","norming","","","{""aha"":0}","[0]","../img/tt/123tt.jpg","",""
"null","<div style=""font-size:60px;""> </div>","null","fixation","html-keyboard-response","146","695764","0.0-6.0-0.20","2916206","co39184","norming","","","","","","",""
"null","../img/tt/517tt.jpg","null","mooney1","image-keyboard-response","147","698787","0.0-6.0-1.20","2916206","co39184","norming","","","","","","",""
"5686.800000000047","","","post_mooney1_questions","survey-likert","148","704477","0.0-6.0-2.20","2916206","co39184","norming","","","{""curiosity"":3,""confidence"":2}","[0,1]","../img/tt/517tt.jpg","",""
"3205.1999999999534","","","recognition","survey-text","149","707688","0.0-6.0-3.20","2916206","co39184","norming","","","{""guess"":""varken""}","","../img/tt/517tt.jpg","",""
"null","../img/gs/517gs.jpg","null","reveal","image-keyboard-response","150","709713","0.0-6.0-4.20","2916206","co39184","norming","","","","","","",""
"null","../img/tt/517tt.jpg","null","mooney2","image-keyboard-response","151","711700","0.0-6.0-5.20","2916206","co39184","norming","","","","","","",""
"2598.4000000000233","","","post_reveal_questions","survey-likert","152","714304","0.0-6.0-6.20","2916206","co39184","norming","","","{""aha"":4}","[0]","../img/tt/517tt.jpg","",""
"null","<div style=""font-size:60px;""> </div>","null","fixation","html-keyboard-response","153","714521","0.0-6.0-0.21","2916206","co39184","norming","","","","","","",""
"null","../img/tt/456tt.jpg","null","mooney1","image-keyboard-response","154","717552","0.0-6.0-1.21","2916206","co39184","norming","","","","","","",""
"4798","","","post_mooney1_questions","survey-likert","155","722354","0.0-6.0-2.21","2916206","co39184","norming","","","{""curiosity"":2,""confidence"":0}","[0,1]","../img/tt/456tt.jpg","",""
"748.5999999999767","","","recognition","survey-text","156","723107","0.0-6.0-3.21","2916206","co39184","norming","","","{""guess"":""""}","","../img/tt/456tt.jpg","",""
"null","../img/gs/456gs.jpg","null","reveal","image-keyboard-response","157","725136","0.0-6.0-4.21","2916206","co39184","norming","","","","","","",""
"null","../img/tt/456tt.jpg","null","mooney2","image-keyboard-response","158","727128","0.0-6.0-5.21","2916206","co39184","norming","","","","","","",""
"2428.6999999999534","","","post_reveal_questions","survey-likert","159","729560","0.0-6.0-6.21","2916206","co39184","norming","","","{""aha"":0}","[0]","../img/tt/456tt.jpg","",""
"null","<div style=""font-size:60px;""> </div>","null","fixation","html-keyboard-response","160","729790","0.0-6.0-0.22","2916206","co39184","norming","","","","","","",""
"null","../img/tt/096tt.jpg","null","mooney1","image-keyboard-response","161","732791","0.0-6.0-1.22","2916206","co39184","norming","","","","","","",""
"4572.599999999977","","","post_mooney1_questions","survey-likert","162","737366","0.0-6.0-2.22","2916206","co39184","norming","","","{""curiosity"":3,""confidence"":2}","[0,1]","../img/tt/096tt.jpg","",""
"8803.600000000093","","","recognition","survey-text","163","746174","0.0-6.0-3.22","2916206","co39184","norming","","","{""guess"":""nietjesmachine""}","","../img/tt/096tt.jpg","",""
"null","../img/gs/096gs.jpg","null","reveal","image-keyboard-response","164","748183","0.0-6.0-4.22","2916206","co39184","norming","","","","","","",""
"null","../img/tt/096tt.jpg","null","mooney2","image-keyboard-response","165","750192","0.0-6.0-5.22","2916206","co39184","norming","","","","","","",""
"3651.20000000007","","","post_reveal_questions","survey-likert","166","753844","0.0-6.0-6.22","2916206","co39184","norming","","","{""aha"":5}","[0]","../img/tt/096tt.jpg","",""
"null","<div style=""font-size:60px;""> </div>","null","fixation","html-keyboard-response","167","754047","0.0-6.0-0.23","2916206","co39184","norming","","","","","","",""
"null","../img/tt/1072tt.jpg","null","mooney1","image-keyboard-response","168","757059","0.0-6.0-1.23","2916206","co39184","norming","","","","","","",""
"3523.20000000007","","","post_mooney1_questions","survey-likert","169","760585","0.0-6.0-2.23","2916206","co39184","norming","","","{""curiosity"":4,""confidence"":0}","[0,1]","../img/tt/1072tt.jpg","",""
"881.0999999999767","","","recognition","survey-text","170","761474","0.0-6.0-3.23","2916206","co39184","norming","","","{""guess"":""""}","","../img/tt/1072tt.jpg","",""
"null","../img/gs/1072gs.jpg","null","reveal","image-keyboard-response","171","763492","0.0-6.0-4.23","2916206","co39184","norming","","","","","","",""
"null","../img/tt/1072tt.jpg","null","mooney2","image-keyboard-response","172","765489","0.0-6.0-5.23","2916206","co39184","norming","","","","","","",""
"2559.100000000093","","","post_reveal_questions","survey-likert","173","768053","0.0-6.0-6.23","2916206","co39184","norming","","","{""aha"":1}","[0]","../img/tt/1072tt.jpg","",""
"null","<div style=""font-size:60px;""> </div>","null","fixation","html-keyboard-response","174","768275","0.0-6.0-0.24","2916206","co39184","norming","","","","","","",""
"null","../img/tt/055tt.jpg","null","mooney1","image-keyboard-response","175","771279","0.0-6.0-1.24","2916206","co39184","norming","","","","","","",""
"3611.1999999999534","","","post_mooney1_questions","survey-likert","176","774894","0.0-6.0-2.24","2916206","co39184","norming","","","{""curiosity"":1,""confidence"":0}","[0,1]","../img/tt/055tt.jpg","",""
"1226.1999999999534","","","recognition","survey-text","177","776125","0.0-6.0-3.24","2916206","co39184","norming","","","{""guess"":""""}","","../img/tt/055tt.jpg","",""
"null","../img/gs/055gs.jpg","null","reveal","image-keyboard-response","178","778144","0.0-6.0-4.24","2916206","co39184","norming","","","","","","",""
"null","../img/tt/055tt.jpg","null","mooney2","image-keyboard-response","179","780139","0.0-6.0-5.24","2916206","co39184","norming","","","","","","",""
"2794.0999999999767","","","post_reveal_questions","survey-likert","180","782934","0.0-6.0-6.24","2916206","co39184","norming","","","{""aha"":0}","[0]","../img/tt/055tt.jpg","",""
"null","<div style=""font-size:60px;""> </div>","null","fixation","html-keyboard-response","181","783163","0.0-6.0-0.25","2916206","co39184","norming","","","","","","",""
"null","../img/tt/1261tt.jpg","null","mooney1","image-keyboard-response","182","786184","0.0-6.0-1.25","2916206","co39184","norming","","","","","","",""
"7884.699999999953","","","post_mooney1_questions","survey-likert","183","794076","0.0-6.0-2.25","2916206","co39184","norming","","","{""curiosity"":2,""confidence"":5}","[0,1]","../img/tt/1261tt.jpg","",""
"2120.8000000000465","","","recognition","survey-text","184","796204","0.0-6.0-3.25","2916206","co39184","norming","","","{""guess"":""hond""}","","../img/tt/1261tt.jpg","",""
"null","../img/gs/1261gs.jpg","null","reveal","image-keyboard-response","185","798212","0.0-6.0-4.25","2916206","co39184","norming","","","","","","",""
"null","../img/tt/1261tt.jpg","null","mooney2","image-keyboard-response","186","800217","0.0-6.0-5.25","2916206","co39184","norming","","","","","","",""
"2693.4000000000233","","","post_reveal_questions","survey-likert","187","802912","0.0-6.0-6.25","2916206","co39184","norming","","","{""aha"":4}","[0]","../img/tt/1261tt.jpg","",""
"null","<div style=""font-size:60px;""> </div>","null","fixation","html-keyboard-response","188","803135","0.0-6.0-0.26","2916206","co39184","norming","","","","","","",""
"null","../img/tt/549tt.jpg","null","mooney1","image-keyboard-response","189","806141","0.0-6.0-1.26","2916206","co39184","norming","","","","","","",""
"4174.300000000047","","","post_mooney1_questions","survey-likert","190","810322","0.0-6.0-2.26","2916206","co39184","norming","","","{""curiosity"":1,""confidence"":0}","[0,1]","../img/tt/549tt.jpg","",""
"1182.7000000000698","","","recognition","survey-text","191","811509","0.0-6.0-3.26","2916206","co39184","norming","","","{""guess"":""""}","","../img/tt/549tt.jpg","",""
"null","../img/gs/549gs.jpg","null","reveal","image-keyboard-response","192","813512","0.0-6.0-4.26","2916206","co39184","norming","","","","","","",""
"null","../img/tt/549tt.jpg","null","mooney2","image-keyboard-response","193","815522","0.0-6.0-5.26","2916206","co39184","norming","","","","","","",""
"2509.70000000007","","","post_reveal_questions","survey-likert","194","818036","0.0-6.0-6.26","2916206","co39184","norming","","","{""aha"":0}","[0]","../img/tt/549tt.jpg","",""
"null","<div style=""font-size:60px;""> </div>","null","fixation","html-keyboard-response","195","818260","0.0-6.0-0.27","2916206","co39184","norming","","","","","","",""
"null","../img/tt/418tt.jpg","null","mooney1","image-keyboard-response","196","821272","0.0-6.0-1.27","2916206","co39184","norming","","","","","","",""
"3808.3000000000465","","","post_mooney1_questions","survey-likert","197","825083","0.0-6.0-2.27","2916206","co39184","norming","","","{""curiosity"":3,""confidence"":4}","[0,1]","../img/tt/418tt.jpg","",""
"1976.5999999999767","","","recognition","survey-text","198","827065","0.0-6.0-3.27","2916206","co39184","norming","","","{""guess"":""tomaat""}","","../img/tt/418tt.jpg","",""
"null","../img/gs/418gs.jpg","null","reveal","image-keyboard-response","199","829087","0.0-6.0-4.27","2916206","co39184","norming","","","","","","",""
"null","../img/tt/418tt.jpg","null","mooney2","image-keyboard-response","200","831084","0.0-6.0-5.27","2916206","co39184","norming","","","","","","",""
"2103.5","","","post_reveal_questions","survey-likert","201","833190","0.0-6.0-6.27","2916206","co39184","norming","","","{""aha"":3}","[0]","../img/tt/418tt.jpg","",""
"null","<div style=""font-size:60px;""> </div>","null","fixation","html-keyboard-response","202","833422","0.0-6.0-0.28","2916206","co39184","norming","","","","","","",""
"null","../img/tt/1126tt.jpg","null","mooney1","image-keyboard-response","203","836437","0.0-6.0-1.28","2916206","co39184","norming","","","","","","",""
"4976.199999999953","","","post_mooney1_questions","survey-likert","204","841417","0.0-6.0-2.28","2916206","co39184","norming","","","{""curiosity"":5,""confidence"":0}","[0,1]","../img/tt/1126tt.jpg","",""
"678.5999999999767","","","recognition","survey-text","205","842100","0.0-6.0-3.28","2916206","co39184","norming","","","{""guess"":""""}","","../img/tt/1126tt.jpg","",""
"null","../img/gs/1126gs.jpg","null","reveal","image-keyboard-response","206","844106","0.0-6.0-4.28","2916206","co39184","norming","","","","","","",""
"null","../img/tt/1126tt.jpg","null","mooney2","image-keyboard-response","207","846133","0.0-6.0-5.28","2916206","co39184","norming","","","","","","",""
"3305.3000000000465","","","post_reveal_questions","survey-likert","208","849442","0.0-6.0-6.28","2916206","co39184","norming","","","{""aha"":2}","[0]","../img/tt/1126tt.jpg","",""
"null","<div style=""font-size:60px;""> </div>","null","fixation","html-keyboard-response","209","849667","0.0-6.0-0.29","2916206","co39184","norming","","","","","","",""
"null","../img/tt/1255tt.jpg","null","mooney1","image-keyboard-response","210","852685","0.0-6.0-1.29","2916206","co39184","norming","","","","","","",""
"3857.600000000093","","","post_mooney1_questions","survey-likert","211","856547","0.0-6.0-2.29","2916206","co39184","norming","","","{""curiosity"":0,""confidence"":0}","[0,1]","../img/tt/1255tt.jpg","",""
"1141.6999999999534","","","recognition","survey-text","212","857694","0.0-6.0-3.29","2916206","co39184","norming","","","{""guess"":""""}","","../img/tt/1255tt.jpg","",""
"null","../img/gs/1255gs.jpg","null","reveal","image-keyboard-response","213","859711","0.0-6.0-4.29","2916206","co39184","norming","","","","","","",""
"null","../img/tt/1255tt.jpg","null","mooney2","image-keyboard-response","214","861712","0.0-6.0-5.29","2916206","co39184","norming","","","","","","",""
"4310.699999999953","","","post_reveal_questions","survey-likert","215","866026","0.0-6.0-6.29","2916206","co39184","norming","","","{""aha"":0}","[0]","../img/tt/1255tt.jpg","",""
"null","<div style=""font-size:60px;""> </div>","null","fixation","html-keyboard-response","216","866249","0.0-6.0-0.30","2916206","co39184","norming","","","","","","",""
"null","../img/tt/378tt.jpg","null","mooney1","image-keyboard-response","217","869255","0.0-6.0-1.30","2916206","co39184","norming","","","","","","",""
"4167.800000000047","","","post_mooney1_questions","survey-likert","218","873427","0.0-6.0-2.30","2916206","co39184","norming","","","{""curiosity"":0,""confidence"":0}","[0,1]","../img/tt/378tt.jpg","",""
"985.2000000000698","","","recognition","survey-text","219","874417","0.0-6.0-3.30","2916206","co39184","norming","","","{""guess"":""""}","","../img/tt/378tt.jpg","",""
"null","../img/gs/378gs.jpg","null","reveal","image-keyboard-response","220","876433","0.0-6.0-4.30","2916206","co39184","norming","","","","","","",""
"null","../img/tt/378tt.jpg","null","mooney2","image-keyboard-response","221","878438","0.0-6.0-5.30","2916206","co39184","norming","","","","","","",""
"2023.5","","","post_reveal_questions","survey-likert","222","880464","0.0-6.0-6.30","2916206","co39184","norming","","","{""aha"":0}","[0]","../img/tt/378tt.jpg","",""
"null","<div style=""font-size:60px;""> </div>","null","fixation","html-keyboard-response","223","880677","0.0-6.0-0.31","2916206","co39184","norming","","","","","","",""
"null","../img/tt/442tt.jpg","null","mooney1","image-keyboard-response","224","883692","0.0-6.0-1.31","2916206","co39184","norming","","","","","","",""
"4525.199999999953","","","post_mooney1_questions","survey-likert","225","888221","0.0-6.0-2.31","2916206","co39184","norming","","","{""curiosity"":3,""confidence"":0}","[0,1]","../img/tt/442tt.jpg","",""
"1000.8000000000466","","","recognition","survey-text","226","889226","0.0-6.0-3.31","2916206","co39184","norming","","","{""guess"":""""}","","../img/tt/442tt.jpg","",""
"null","../img/gs/442gs.jpg","null","reveal","image-keyboard-response","227","891248","0.0-6.0-4.31","2916206","co39184","norming","","","","","","",""
"null","../img/tt/442tt.jpg","null","mooney2","image-keyboard-response","228","893245","0.0-6.0-5.31","2916206","co39184","norming","","","","","","",""
"4631.100000000093","","","post_reveal_questions","survey-likert","229","897880","0.0-6.0-6.31","2916206","co39184","norming","","","{""aha"":0}","[0]","../img/tt/442tt.jpg","",""
"null","<div style=""font-size:60px;""> </div>","null","fixation","html-keyboard-response","230","898097","0.0-6.0-0.32","2916206","co39184","norming","","","","","","",""
"null","../img/tt/416tt.jpg","null","mooney1","image-keyboard-response","231","901115","0.0-6.0-1.32","2916206","co39184","norming","","","","","","",""
"8348.399999999906","","","post_mooney1_questions","survey-likert","232","909471","0.0-6.0-2.32","2916206","co39184","norming","","","{""curiosity"":1,""confidence"":0}","[0,1]","../img/tt/416tt.jpg","",""
"1704.7999999999301","","","recognition","survey-text","233","911182","0.0-6.0-3.32","2916206","co39184","norming","","","{""guess"":""""}","","../img/tt/416tt.jpg","",""
"null","../img/gs/416gs.jpg","null","reveal","image-keyboard-response","234","913202","0.0-6.0-4.32","2916206","co39184","norming","","","","","","",""
"null","../img/tt/416tt.jpg","null","mooney2","image-keyboard-response","235","915199","0.0-6.0-5.32","2916206","co39184","norming","","","","","","",""
"5441","","","post_reveal_questions","survey-likert","236","920642","0.0-6.0-6.32","2916206","co39184","norming","","","{""aha"":0}","[0]","../img/tt/416tt.jpg","",""
"null","<div style=""font-size:60px;""> </div>","null","fixation","html-keyboard-response","237","920865","0.0-6.0-0.33","2916206","co39184","norming","","","","","","",""
"null","../img/tt/1078tt.jpg","null","mooney1","image-keyboard-response","238","923872","0.0-6.0-1.33","2916206","co39184","norming","","","","","","",""
"3859.79999999993","","","post_mooney1_questions","survey-likert","239","927735","0.0-6.0-2.33","2916206","co39184","norming","","","{""curiosity"":3,""confidence"":3}","[0,1]","../img/tt/1078tt.jpg","",""
"5575.400000000023","","","recognition","survey-text","240","933316","0.0-6.0-3.33","2916206","co39184","norming","","","{""guess"":""man aan tafel""}","","../img/tt/1078tt.jpg","",""
"null","../img/gs/1078gs.jpg","null","reveal","image-keyboard-response","241","935328","0.0-6.0-4.33","2916206","co39184","norming","","","","","","",""
"null","../img/tt/1078tt.jpg","null","mooney2","image-keyboard-response","242","937339","0.0-6.0-5.33","2916206","co39184","norming","","","","","","",""
"4154.29999999993","","","post_reveal_questions","survey-likert","243","941497","0.0-6.0-6.33","2916206","co39184","norming","","","{""aha"":4}","[0]","../img/tt/1078tt.jpg","",""
"null","<div style=""font-size:60px;""> </div>","null","fixation","html-keyboard-response","244","941708","0.0-6.0-0.34","2916206","co39184","norming","","","","","","",""
"null","../img/tt/1061tt.jpg","null","mooney1","image-keyboard-response","245","944734","0.0-6.0-1.34","2916206","co39184","norming","","","","","","",""
"5055","","","post_mooney1_questions","survey-likert","246","949793","0.0-6.0-2.34","2916206","co39184","norming","","","{""curiosity"":3,""confidence"":1}","[0,1]","../img/tt/1061tt.jpg","",""
"2673.100000000093","","","recognition","survey-text","247","952470","0.0-6.0-3.34","2916206","co39184","norming","","","{""guess"":""speeltuin""}","","../img/tt/1061tt.jpg","",""
"null","../img/gs/1061gs.jpg","null","reveal","image-keyboard-response","248","954485","0.0-6.0-4.34","2916206","co39184","norming","","","","","","",""
"null","../img/tt/1061tt.jpg","null","mooney2","image-keyboard-response","249","956475","0.0-6.0-5.34","2916206","co39184","norming","","","","","","",""
"3703","","","post_reveal_questions","survey-likert","250","960180","0.0-6.0-6.34","2916206","co39184","norming","","","{""aha"":4}","[0]","../img/tt/1061tt.jpg","",""
"null","<div style=""font-size:60px;""> </div>","null","fixation","html-keyboard-response","251","960407","0.0-6.0-0.35","2916206","co39184","norming","","","","","","",""
"null","../img/tt/1046tt.jpg","null","mooney1","image-keyboard-response","252","963436","0.0-6.0-1.35","2916206","co39184","norming","","","","","","",""
"6182.900000000023","","","post_mooney1_questions","survey-likert","253","969623","0.0-6.0-2.35","2916206","co39184","norming","","","{""curiosity"":1,""confidence"":1}","[0,1]","../img/tt/1046tt.jpg","",""
"7266.5","","","recognition","survey-text","254","976895","0.0-6.0-3.35","2916206","co39184","norming","","","{""guess"":""klein dier""}","","../img/tt/1046tt.jpg","",""
"null","../img/gs/1046gs.jpg","null","reveal","image-keyboard-response","255","978920","0.0-6.0-4.35","2916206","co39184","norming","","","","","","",""
"null","../img/tt/1046tt.jpg","null","mooney2","image-keyboard-response","256","980913","0.0-6.0-5.35","2916206","co39184","norming","","","","","","",""
"3043.8000000000465","","","post_reveal_questions","survey-likert","257","983961","0.0-6.0-6.35","2916206","co39184","norming","","","{""aha"":2}","[0]","../img/tt/1046tt.jpg","",""
"null","<div style=""font-size:60px;""> </div>","null","fixation","html-keyboard-response","258","984169","0.0-6.0-0.36","2916206","co39184","norming","","","","","","",""
"null","../img/tt/111tt.jpg","null","mooney1","image-keyboard-response","259","987175","0.0-6.0-1.36","2916206","co39184","norming","","","","","","",""
"4726.900000000023","","","post_mooney1_questions","survey-likert","260","991905","0.0-6.0-2.36","2916206","co39184","norming","","","{""curiosity"":2,""confidence"":1}","[0,1]","../img/tt/111tt.jpg","",""
"2573.5999999999767","","","recognition","survey-text","261","994484","0.0-6.0-3.36","2916206","co39184","norming","","","{""guess"":""telefoon""}","","../img/tt/111tt.jpg","",""
"null","../img/gs/111gs.jpg","null","reveal","image-keyboard-response","262","996485","0.0-6.0-4.36","2916206","co39184","norming","","","","","","",""
"null","../img/tt/111tt.jpg","null","mooney2","image-keyboard-response","263","998487","0.0-6.0-5.36","2916206","co39184","norming","","","","","","",""
"2611.5999999999767","","","post_reveal_questions","survey-likert","264","1001102","0.0-6.0-6.36","2916206","co39184","norming","","","{""aha"":2}","[0]","../img/tt/111tt.jpg","",""
"null","<div style=""font-size:60px;""> </div>","null","fixation","html-keyboard-response","265","1001314","0.0-6.0-0.37","2916206","co39184","norming","","","","","","",""
"null","../img/tt/1269tt.jpg","null","mooney1","image-keyboard-response","266","1004356","0.0-6.0-1.37","2916206","co39184","norming","","","","","","",""
"4249.600000000093","","","post_mooney1_questions","survey-likert","267","1008609","0.0-6.0-2.37","2916206","co39184","norming","","","{""curiosity"":3,""confidence"":4}","[0,1]","../img/tt/1269tt.jpg","",""
"14226.300000000046","","","recognition","survey-text","268","1022841","0.0-6.0-3.37","2916206","co39184","norming","","","{""guess"":""chipmunk""}","","../img/tt/1269tt.jpg","",""
"null","../img/gs/1269gs.jpg","null","reveal","image-keyboard-response","269","1024864","0.0-6.0-4.37","2916206","co39184","norming","","","","","","",""
"null","../img/tt/1269tt.jpg","null","mooney2","image-keyboard-response","270","1026850","0.0-6.0-5.37","2916206","co39184","norming","","","","","","",""
"5242.899999999907","","","post_reveal_questions","survey-likert","271","1032095","0.0-6.0-6.37","2916206","co39184","norming","","","{""aha"":0}","[0]","../img/tt/1269tt.jpg","",""
"null","<div style=""font-size:60px;""> </div>","null","fixation","html-keyboard-response","272","1032319","0.0-6.0-0.38","2916206","co39184","norming","","","","","","",""
"null","../img/tt/1101tt.jpg","null","mooney1","image-keyboard-response","273","1035331","0.0-6.0-1.38","2916206","co39184","norming","","","","","","",""
"6584.099999999977","","","post_mooney1_questions","survey-likert","274","1041920","0.0-6.0-2.38","2916206","co39184","norming","","","{""curiosity"":2,""confidence"":3}","[0,1]","../img/tt/1101tt.jpg","",""
"4702.20000000007","","","recognition","survey-text","275","1046627","0.0-6.0-3.38","2916206","co39184","norming","","","{""guess"":""tennis""}","","../img/tt/1101tt.jpg","",""
"null","../img/gs/1101gs.jpg","null","reveal","image-keyboard-response","276","1048639","0.0-6.0-4.38","2916206","co39184","norming","","","","","","",""
"null","../img/tt/1101tt.jpg","null","mooney2","image-keyboard-response","277","1050642","0.0-6.0-5.38","2916206","co39184","norming","","","","","","",""
"3057.5","","","post_reveal_questions","survey-likert","278","1053702","0.0-6.0-6.38","2916206","co39184","norming","","","{""aha"":2}","[0]","../img/tt/1101tt.jpg","",""
"null","<div style=""font-size:60px;""> </div>","null","fixation","html-keyboard-response","279","1053926","0.0-6.0-0.39","2916206","co39184","norming","","","","","","",""
"null","../img/tt/477tt.jpg","null","mooney1","image-keyboard-response","280","1056932","0.0-6.0-1.39","2916206","co39184","norming","","","","","","",""
"4224.600000000093","","","post_mooney1_questions","survey-likert","281","1061161","0.0-6.0-2.39","2916206","co39184","norming","","","{""curiosity"":1,""confidence"":0}","[0,1]","../img/tt/477tt.jpg","",""
"907.2999999998137","","","recognition","survey-text","282","1062073","0.0-6.0-3.39","2916206","co39184","norming","","","{""guess"":""""}","","../img/tt/477tt.jpg","",""
"null","../img/gs/477gs.jpg","null","reveal","image-keyboard-response","283","1064093","0.0-6.0-4.39","2916206","co39184","norming","","","","","","",""
"null","../img/tt/477tt.jpg","null","mooney2","image-keyboard-response","284","1066085","0.0-6.0-5.39","2916206","co39184","norming","","","","","","",""
"4104.300000000047","","","post_reveal_questions","survey-likert","285","1070192","0.0-6.0-6.39","2916206","co39184","norming","","","{""aha"":0}","[0]","../img/tt/477tt.jpg","",""
"null","<div style=""font-size:60px;""> </div>","null","fixation","html-keyboard-response","286","1070421","0.0-6.0-0.40","2916206","co39184","norming","","","","","","",""
"null","../img/tt/1199tt.jpg","null","mooney1","image-keyboard-response","287","1073439","0.0-6.0-1.40","2916206","co39184","norming","","","","","","",""
"3889.0999999998603","","","post_mooney1_questions","survey-likert","288","1077333","0.0-6.0-2.40","2916206","co39184","norming","","","{""curiosity"":2,""confidence"":1}","[0,1]","../img/tt/1199tt.jpg","",""
"1916.8000000000465","","","recognition","survey-text","289","1079255","0.0-6.0-3.40","2916206","co39184","norming","","","{""guess"":""peuter""}","","../img/tt/1199tt.jpg","",""
"null","../img/gs/1199gs.jpg","null","reveal","image-keyboard-response","290","1081268","0.0-6.0-4.40","2916206","co39184","norming","","","","","","",""
"null","../img/tt/1199tt.jpg","null","mooney2","image-keyboard-response","291","1083274","0.0-6.0-5.40","2916206","co39184","norming","","","","","","",""
"3102.600000000093","","","post_reveal_questions","survey-likert","292","1086380","0.0-6.0-6.40","2916206","co39184","norming","","","{""aha"":1}","[0]","../img/tt/1199tt.jpg","",""
"null","<div style=""font-size:60px;""> </div>","null","fixation","html-keyboard-response","293","1086588","0.0-6.0-0.41","2916206","co39184","norming","","","","","","",""
"null","../img/tt/1040tt.jpg","null","mooney1","image-keyboard-response","294","1089606","0.0-6.0-1.41","2916206","co39184","norming","","","","","","",""
"5582.800000000047","","","post_mooney1_questions","survey-likert","295","1095193","0.0-6.0-2.41","2916206","co39184","norming","","","{""curiosity"":2,""confidence"":0}","[0,1]","../img/tt/1040tt.jpg","",""
"906.6999999999534","","","recognition","survey-text","296","1096105","0.0-6.0-3.41","2916206","co39184","norming","","","{""guess"":""""}","","../img/tt/1040tt.jpg","",""
"null","../img/gs/1040gs.jpg","null","reveal","image-keyboard-response","297","1098111","0.0-6.0-4.41","2916206","co39184","norming","","","","","","",""
"null","../img/tt/1040tt.jpg","null","mooney2","image-keyboard-response","298","1100106","0.0-6.0-5.41","2916206","co39184","norming","","","","","","",""
"3082.399999999907","","","post_reveal_questions","survey-likert","299","1103193","0.0-6.0-6.41","2916206","co39184","norming","","","{""aha"":1}","[0]","../img/tt/1040tt.jpg","",""
"null","<div style=""font-size:60px;""> </div>","null","fixation","html-keyboard-response","300","1103422","0.0-6.0-0.42","2916206","co39184","norming","","","","","","",""
"null","../img/tt/380tt.jpg","null","mooney1","image-keyboard-response","301","1106454","0.0-6.0-1.42","2916206","co39184","norming","","","","","","",""
"4479","","","post_mooney1_questions","survey-likert","302","1110937","0.0-6.0-2.42","2916206","co39184","norming","","","{""curiosity"":0,""confidence"":0}","[0,1]","../img/tt/380tt.jpg","",""
"509.80000000004656","","","recognition","survey-text","303","1111452","0.0-6.0-3.42","2916206","co39184","norming","","","{""guess"":""""}","","../img/tt/380tt.jpg","",""
"null","../img/gs/380gs.jpg","null","reveal","image-keyboard-response","304","1113465","0.0-6.0-4.42","2916206","co39184","norming","","","","","","",""
"null","../img/tt/380tt.jpg","null","mooney2","image-keyboard-response","305","1115472","0.0-6.0-5.42","2916206","co39184","norming","","","","","","",""
"2442.6999999999534","","","post_reveal_questions","survey-likert","306","1117919","0.0-6.0-6.42","2916206","co39184","norming","","","{""aha"":0}","[0]","../img/tt/380tt.jpg","",""
"null","<div style=""font-size:60px;""> </div>","null","fixation","html-keyboard-response","307","1118146","0.0-6.0-0.43","2916206","co39184","norming","","","","","","",""
"null","../img/tt/315tt.jpg","null","mooney1","image-keyboard-response","308","1121156","0.0-6.0-1.43","2916206","co39184","norming","","","","","","",""
"3225.100000000093","","","post_mooney1_questions","survey-likert","309","1124385","0.0-6.0-2.43","2916206","co39184","norming","","","{""curiosity"":0,""confidence"":0}","[0,1]","../img/tt/315tt.jpg","",""
"1234","","","recognition","survey-text","310","1125627","0.0-6.0-3.43","2916206","co39184","norming","","","{""guess"":""""}","","../img/tt/315tt.jpg","",""
"null","../img/gs/315gs.jpg","null","reveal","image-keyboard-response","311","1127632","0.0-6.0-4.43","2916206","co39184","norming","","","","","","",""
"null","../img/tt/315tt.jpg","null","mooney2","image-keyboard-response","312","1129631","0.0-6.0-5.43","2916206","co39184","norming","","","","","","",""
"2780.6999999999534","","","post_reveal_questions","survey-likert","313","1132416","0.0-6.0-6.43","2916206","co39184","norming","","","{""aha"":0}","[0]","../img/tt/315tt.jpg","",""
"null","<div style=""font-size:60px;""> </div>","null","fixation","html-keyboard-response","314","1132635","0.0-6.0-0.44","2916206","co39184","norming","","","","","","",""
"null","../img/tt/189tt.jpg","null","mooney1","image-keyboard-response","315","1135663","0.0-6.0-1.44","2916206","co39184","norming","","","","","","",""
"7219.899999999907","","","post_mooney1_questions","survey-likert","316","1142887","0.0-6.0-2.44","2916206","co39184","norming","","","{""curiosity"":3,""confidence"":2}","[0,1]","../img/tt/189tt.jpg","",""
"3130","","","recognition","survey-text","317","1146023","0.0-6.0-3.44","2916206","co39184","norming","","","{""guess"":""vogel""}","","../img/tt/189tt.jpg","",""
"null","../img/gs/189gs.jpg","null","reveal","image-keyboard-response","318","1148036","0.0-6.0-4.44","2916206","co39184","norming","","","","","","",""
"null","../img/tt/189tt.jpg","null","mooney2","image-keyboard-response","319","1150041","0.0-6.0-5.44","2916206","co39184","norming","","","","","","",""
"4985.59999999986","","","post_reveal_questions","survey-likert","320","1155031","0.0-6.0-6.44","2916206","co39184","norming","","","{""aha"":1}","[0]","../img/tt/189tt.jpg","",""
"null","<div style=""font-size:60px;""> </div>","null","fixation","html-keyboard-response","321","1155254","0.0-6.0-0.45","2916206","co39184","norming","","","","","","",""
"null","../img/tt/1125tt.jpg","null","mooney1","image-keyboard-response","322","1158258","0.0-6.0-1.45","2916206","co39184","norming","","","","","","",""
"4027.6999999999534","","","post_mooney1_questions","survey-likert","323","1162290","0.0-6.0-2.45","2916206","co39184","norming","","","{""curiosity"":1,""confidence"":1}","[0,1]","../img/tt/1125tt.jpg","",""
"4374.100000000093","","","recognition","survey-text","324","1166669","0.0-6.0-3.45","2916206","co39184","norming","","","{""guess"":""kleuter""}","","../img/tt/1125tt.jpg","",""
"null","../img/gs/1125gs.jpg","null","reveal","image-keyboard-response","325","1168690","0.0-6.0-4.45","2916206","co39184","norming","","","","","","",""
"null","../img/tt/1125tt.jpg","null","mooney2","image-keyboard-response","326","1170694","0.0-6.0-5.45","2916206","co39184","norming","","","","","","",""
"4335.300000000047","","","post_reveal_questions","survey-likert","327","1175035","0.0-6.0-6.45","2916206","co39184","norming","","","{""aha"":0}","[0]","../img/tt/1125tt.jpg","",""
"null","<div style=""font-size:60px;""> </div>","null","fixation","html-keyboard-response","328","1175251","0.0-6.0-0.46","2916206","co39184","norming","","","","","","",""
"null","../img/tt/318tt.jpg","null","mooney1","image-keyboard-response","329","1178255","0.0-6.0-1.46","2916206","co39184","norming","","","","","","",""
"4484.899999999907","","","post_mooney1_questions","survey-likert","330","1182744","0.0-6.0-2.46","2916206","co39184","norming","","","{""curiosity"":2,""confidence"":0}","[0,1]","../img/tt/318tt.jpg","",""
"1655.7000000001862","","","recognition","survey-text","331","1184405","0.0-6.0-3.46","2916206","co39184","norming","","","{""guess"":""""}","","../img/tt/318tt.jpg","",""
"null","../img/gs/318gs.jpg","null","reveal","image-keyboard-response","332","1186425","0.0-6.0-4.46","2916206","co39184","norming","","","","","","",""
"null","../img/tt/318tt.jpg","null","mooney2","image-keyboard-response","333","1188418","0.0-6.0-5.46","2916206","co39184","norming","","","","","","",""
"3817.600000000093","","","post_reveal_questions","survey-likert","334","1192239","0.0-6.0-6.46","2916206","co39184","norming","","","{""aha"":0}","[0]","../img/tt/318tt.jpg","",""
"null","<div style=""font-size:60px;""> </div>","null","fixation","html-keyboard-response","335","1192445","0.0-6.0-0.47","2916206","co39184","norming","","","","","","",""
"null","../img/tt/599tt.jpg","null","mooney1","image-keyboard-response","336","1195457","0.0-6.0-1.47","2916206","co39184","norming","","","","","","",""
"8144.199999999953","","","post_mooney1_questions","survey-likert","337","1203605","0.0-6.0-2.47","2916206","co39184","norming","","","{""curiosity"":0,""confidence"":0}","[0,1]","../img/tt/599tt.jpg","",""
"500.4000000001397","","","recognition","survey-text","338","1204111","0.0-6.0-3.47","2916206","co39184","norming","","","{""guess"":""""}","","../img/tt/599tt.jpg","",""
"null","../img/gs/599gs.jpg","null","reveal","image-keyboard-response","339","1206126","0.0-6.0-4.47","2916206","co39184","norming","","","","","","",""
"null","../img/tt/599tt.jpg","null","mooney2","image-keyboard-response","340","1208121","0.0-6.0-5.47","2916206","co39184","norming","","","","","","",""
"4316.300000000047","","","post_reveal_questions","survey-likert","341","1212440","0.0-6.0-6.47","2916206","co39184","norming","","","{""aha"":3}","[0]","../img/tt/599tt.jpg","",""
"null","<div style=""font-size:60px;""> </div>","null","fixation","html-keyboard-response","342","1212650","0.0-6.0-0.48","2916206","co39184","norming","","","","","","",""
"null","../img/tt/1227tt.jpg","null","mooney1","image-keyboard-response","343","1215671","0.0-6.0-1.48","2916206","co39184","norming","","","","","","",""
"3927.6999999999534","","","post_mooney1_questions","survey-likert","344","1219603","0.0-6.0-2.48","2916206","co39184","norming","","","{""curiosity"":1,""confidence"":0}","[0,1]","../img/tt/1227tt.jpg","",""
"1113.5","","","recognition","survey-text","345","1220721","0.0-6.0-3.48","2916206","co39184","norming","","","{""guess"":""""}","","../img/tt/1227tt.jpg","",""
"null","../img/gs/1227gs.jpg","null","reveal","image-keyboard-response","346","1222744","0.0-6.0-4.48","2916206","co39184","norming","","","","","","",""
"null","../img/tt/1227tt.jpg","null","mooney2","image-keyboard-response","347","1224737","0.0-6.0-5.48","2916206","co39184","norming","","","","","","",""
"3672.6999999999534","","","post_reveal_questions","survey-likert","348","1228413","0.0-6.0-6.48","2916206","co39184","norming","","","{""aha"":0}","[0]","../img/tt/1227tt.jpg","",""
"null","<div style=""font-size:60px;""> </div>","null","fixation","html-keyboard-response","349","1228639","0.0-6.0-0.49","2916206","co39184","norming","","","","","","",""
"null","../img/tt/1069tt.jpg","null","mooney1","image-keyboard-response","350","1231656","0.0-6.0-1.49","2916206","co39184","norming","","","","","","",""
"5291.09999999986","","","post_mooney1_questions","survey-likert","351","1236951","0.0-6.0-2.49","2916206","co39184","norming","","","{""curiosity"":3,""confidence"":0}","[0,1]","../img/tt/1069tt.jpg","",""
"2304.2999999998137","","","recognition","survey-text","352","1239262","0.0-6.0-3.49","2916206","co39184","norming","","","{""guess"":""""}","","../img/tt/1069tt.jpg","",""
"null","../img/gs/1069gs.jpg","null","reveal","image-keyboard-response","353","1241298","0.0-6.0-4.49","2916206","co39184","norming","","","","","","",""
"null","../img/tt/1069tt.jpg","null","mooney2","image-keyboard-response","354","1243284","0.0-6.0-5.49","2916206","co39184","norming","","","","","","",""
"2214.0999999998603","","","post_reveal_questions","survey-likert","355","1245502","0.0-6.0-6.49","2916206","co39184","norming","","","{""aha"":0}","[0]","../img/tt/1069tt.jpg","",""
"null","<div style=""font-size:60px;""> </div>","null","fixation","html-keyboard-response","356","1245725","0.0-6.0-0.50","2916206","co39184","norming","","","","","","",""
"null","../img/tt/222tt.jpg","null","mooney1","image-keyboard-response","357","1248754","0.0-6.0-1.50","2916206","co39184","norming","","","","","","",""
"3354.899999999907","","","post_mooney1_questions","survey-likert","358","1252116","0.0-6.0-2.50","2916206","co39184","norming","","","{""curiosity"":0,""confidence"":0}","[0,1]","../img/tt/222tt.jpg","",""
"1270.1999999999534","","","recognition","survey-text","359","1253391","0.0-6.0-3.50","2916206","co39184","norming","","","{""guess"":""""}","","../img/tt/222tt.jpg","",""
"null","../img/gs/222gs.jpg","null","reveal","image-keyboard-response","360","1255409","0.0-6.0-4.50","2916206","co39184","norming","","","","","","",""
"null","../img/tt/222tt.jpg","null","mooney2","image-keyboard-response","361","1257407","0.0-6.0-5.50","2916206","co39184","norming","","","","","","",""
"2423.0999999998603","","","post_reveal_questions","survey-likert","362","1259834","0.0-6.0-6.50","2916206","co39184","norming","","","{""aha"":0}","[0]","../img/tt/222tt.jpg","",""
"null","<div style=""font-size:60px;""> </div>","null","fixation","html-keyboard-response","363","1260070","0.0-6.0-0.51","2916206","co39184","norming","","","","","","",""
"null","../img/tt/184tt.jpg","null","mooney1","image-keyboard-response","364","1263096","0.0-6.0-1.51","2916206","co39184","norming","","","","","","",""
"5989.100000000093","","","post_mooney1_questions","survey-likert","365","1269090","0.0-6.0-2.51","2916206","co39184","norming","","","{""curiosity"":1,""confidence"":0}","[0,1]","../img/tt/184tt.jpg","",""
"1516.6000000000931","","","recognition","survey-text","366","1270613","0.0-6.0-3.51","2916206","co39184","norming","","","{""guess"":""""}","","../img/tt/184tt.jpg","",""
"null","../img/gs/184gs.jpg","null","reveal","image-keyboard-response","367","1272630","0.0-6.0-4.51","2916206","co39184","norming","","","","","","",""
"null","../img/tt/184tt.jpg","null","mooney2","image-keyboard-response","368","1274625","0.0-6.0-5.51","2916206","co39184","norming","","","","","","",""
"2046.6999999999534","","","post_reveal_questions","survey-likert","369","1276676","0.0-6.0-6.51","2916206","co39184","norming","","","{""aha"":0}","[0]","../img/tt/184tt.jpg","",""
"null","<div style=""font-size:60px;""> </div>","null","fixation","html-keyboard-response","370","1276898","0.0-6.0-0.52","2916206","co39184","norming","","","","","","",""
"null","../img/tt/1262tt.jpg","null","mooney1","image-keyboard-response","371","1279912","0.0-6.0-1.52","2916206","co39184","norming","","","","","","",""
"2341.5","","","post_mooney1_questions","survey-likert","372","1282258","0.0-6.0-2.52","2916206","co39184","norming","","","{""curiosity"":0,""confidence"":0}","[0,1]","../img/tt/1262tt.jpg","",""
"1103.4000000001397","","","recognition","survey-text","373","1283366","0.0-6.0-3.52","2916206","co39184","norming","","","{""guess"":""""}","","../img/tt/1262tt.jpg","",""
"null","../img/gs/1262gs.jpg","null","reveal","image-keyboard-response","374","1285379","0.0-6.0-4.52","2916206","co39184","norming","","","","","","",""
"null","../img/tt/1262tt.jpg","null","mooney2","image-keyboard-response","375","1287380","0.0-6.0-5.52","2916206","co39184","norming","","","","","","",""
"1157.6999999999534","","","post_reveal_questions","survey-likert","376","1288541","0.0-6.0-6.52","2916206","co39184","norming","","","{""aha"":0}","[0]","../img/tt/1262tt.jpg","",""
"null","<div style=""font-size:60px;""> </div>","null","fixation","html-keyboard-response","377","1288754","0.0-6.0-0.53","2916206","co39184","norming","","","","","","",""
"null","../img/tt/053tt.jpg","null","mooney1","image-keyboard-response","378","1291759","0.0-6.0-1.53","2916206","co39184","norming","","","","","","",""
"3735.1999999999534","","","post_mooney1_questions","survey-likert","379","1295497","0.0-6.0-2.53","2916206","co39184","norming","","","{""curiosity"":1,""confidence"":3}","[0,1]","../img/tt/053tt.jpg","",""
"5759.800000000047","","","recognition","survey-text","380","1301262","0.0-6.0-3.53","2916206","co39184","norming","","","{""guess"":""waterval""}","","../img/tt/053tt.jpg","",""
"null","../img/gs/053gs.jpg","null","reveal","image-keyboard-response","381","1303269","0.0-6.0-4.53","2916206","co39184","norming","","","","","","",""
"null","../img/tt/053tt.jpg","null","mooney2","image-keyboard-response","382","1305271","0.0-6.0-5.53","2916206","co39184","norming","","","","","","",""
"4845.699999999953","","","post_reveal_questions","survey-likert","383","1310121","0.0-6.0-6.53","2916206","co39184","norming","","","{""aha"":0}","[0]","../img/tt/053tt.jpg","",""
"null","<div style=""font-size:60px;""> </div>","null","fixation","html-keyboard-response","384","1310348","0.0-6.0-0.54","2916206","co39184","norming","","","","","","",""
"null","../img/tt/1251tt.jpg","null","mooney1","image-keyboard-response","385","1313368","0.0-6.0-1.54","2916206","co39184","norming","","","","","","",""
"12685.899999999906","","","post_mooney1_questions","survey-likert","386","1326056","0.0-6.0-2.54","2916206","co39184","norming","","","{""curiosity"":1,""confidence"":0}","[0,1]","../img/tt/1251tt.jpg","",""
"826.8000000000466","","","recognition","survey-text","387","1326889","0.0-6.0-3.54","2916206","co39184","norming","","","{""guess"":""""}","","../img/tt/1251tt.jpg","",""
"null","../img/gs/1251gs.jpg","null","reveal","image-keyboard-response","388","1328918","0.0-6.0-4.54","2916206","co39184","norming","","","","","","",""
"null","../img/tt/1251tt.jpg","null","mooney2","image-keyboard-response","389","1330902","0.0-6.0-5.54","2916206","co39184","norming","","","","","","",""
"2268.5999999998603","","","post_reveal_questions","survey-likert","390","1333175","0.0-6.0-6.54","2916206","co39184","norming","","","{""aha"":0}","[0]","../img/tt/1251tt.jpg","",""
"null","<div style=""font-size:60px;""> </div>","null","fixation","html-keyboard-response","391","1333395","0.0-6.0-0.55","2916206","co39184","norming","","","","","","",""
"null","../img/tt/079tt.jpg","null","mooney1","image-keyboard-response","392","1336409","0.0-6.0-1.55","2916206","co39184","norming","","","","","","",""
"3699.6999999999534","","","post_mooney1_questions","survey-likert","393","1340114","0.0-6.0-2.55","2916206","co39184","norming","","","{""curiosity"":0,""confidence"":0}","[0,1]","../img/tt/079tt.jpg","",""
"712.1000000000931","","","recognition","survey-text","394","1340832","0.0-6.0-3.55","2916206","co39184","norming","","","{""guess"":""""}","","../img/tt/079tt.jpg","",""
"null","../img/gs/079gs.jpg","null","reveal","image-keyboard-response","395","1342864","0.0-6.0-4.55","2916206","co39184","norming","","","","","","",""
"null","../img/tt/079tt.jpg","null","mooney2","image-keyboard-response","396","1344854","0.0-6.0-5.55","2916206","co39184","norming","","","","","","",""
"2240.899999999907","","","post_reveal_questions","survey-likert","397","1347099","0.0-6.0-6.55","2916206","co39184","norming","","","{""aha"":0}","[0]","../img/tt/079tt.jpg","",""
"null","<div style=""font-size:60px;""> </div>","null","fixation","html-keyboard-response","398","1347319","0.0-6.0-0.56","2916206","co39184","norming","","","","","","",""
"null","../img/tt/1027tt.jpg","null","mooney1","image-keyboard-response","399","1350333","0.0-6.0-1.56","2916206","co39184","norming","","","","","","",""
"3994.1999999999534","","","post_mooney1_questions","survey-likert","400","1354331","0.0-6.0-2.56","2916206","co39184","norming","","","{""curiosity"":0,""confidence"":5}","[0,1]","../img/tt/1027tt.jpg","",""
"2910.1999999999534","","","recognition","survey-text","401","1357247","0.0-6.0-3.56","2916206","co39184","norming","","","{""guess"":""koeien""}","","../img/tt/1027tt.jpg","",""
"null","../img/gs/1027gs.jpg","null","reveal","image-keyboard-response","402","1359273","0.0-6.0-4.56","2916206","co39184","norming","","","","","","",""
"null","../img/tt/1027tt.jpg","null","mooney2","image-keyboard-response","403","1361253","0.0-6.0-5.56","2916206","co39184","norming","","","","","","",""
"1688.6000000000931","","","post_reveal_questions","survey-likert","404","1362946","0.0-6.0-6.56","2916206","co39184","norming","","","{""aha"":5}","[0]","../img/tt/1027tt.jpg","",""
"null","<div style=""font-size:60px;""> </div>","null","fixation","html-keyboard-response","405","1363169","0.0-6.0-0.57","2916206","co39184","norming","","","","","","",""
"null","../img/tt/082tt.jpg","null","mooney1","image-keyboard-response","406","1366187","0.0-6.0-1.57","2916206","co39184","norming","","","","","","",""
"3158.2000000001862","","","post_mooney1_questions","survey-likert","407","1369348","0.0-6.0-2.57","2916206","co39184","norming","","","{""curiosity"":1,""confidence"":0}","[0,1]","../img/tt/082tt.jpg","",""
"1078.3999999999068","","","recognition","survey-text","408","1370431","0.0-6.0-3.57","2916206","co39184","norming","","","{""guess"":""""}","","../img/tt/082tt.jpg","",""
"null","../img/gs/082gs.jpg","null","reveal","image-keyboard-response","409","1372437","0.0-6.0-4.57","2916206","co39184","norming","","","","","","",""
"null","../img/tt/082tt.jpg","null","mooney2","image-keyboard-response","410","1374455","0.0-6.0-5.57","2916206","co39184","norming","","","","","","",""
"2775.8000000000465","","","post_reveal_questions","survey-likert","411","1377235","0.0-6.0-6.57","2916206","co39184","norming","","","{""aha"":0}","[0]","../img/tt/082tt.jpg","",""
"null","<div style=""font-size:60px;""> </div>","null","fixation","html-keyboard-response","412","1377447","0.0-6.0-0.58","2916206","co39184","norming","","","","","","",""
"null","../img/tt/1205tt.jpg","null","mooney1","image-keyboard-response","413","1380469","0.0-6.0-1.58","2916206","co39184","norming","","","","","","",""
"3455.899999999907","","","post_mooney1_questions","survey-likert","414","1383929","0.0-6.0-2.58","2916206","co39184","norming","","","{""curiosity"":0,""confidence"":0}","[0,1]","../img/tt/1205tt.jpg","",""
"807.8000000000466","","","recognition","survey-text","415","1384741","0.0-6.0-3.58","2916206","co39184","norming","","","{""guess"":""""}","","../img/tt/1205tt.jpg","",""
"null","../img/gs/1205gs.jpg","null","reveal","image-keyboard-response","416","1386767","0.0-6.0-4.58","2916206","co39184","norming","","","","","","",""
"null","../img/tt/1205tt.jpg","null","mooney2","image-keyboard-response","417","1388744","0.0-6.0-5.58","2916206","co39184","norming","","","","","","",""
"3555.399999999907","","","post_reveal_questions","survey-likert","418","1392303","0.0-6.0-6.58","2916206","co39184","norming","","","{""aha"":0}","[0]","../img/tt/1205tt.jpg","",""
"null","<div style=""font-size:60px;""> </div>","null","fixation","html-keyboard-response","419","1392512","0.0-6.0-0.59","2916206","co39184","norming","","","","","","",""
"null","../img/tt/098tt.jpg","null","mooney1","image-keyboard-response","420","1395525","0.0-6.0-1.59","2916206","co39184","norming","","","","","","",""
"5838.699999999953","","","post_mooney1_questions","survey-likert","421","1401368","0.0-6.0-2.59","2916206","co39184","norming","","","{""curiosity"":1,""confidence"":0}","[0,1]","../img/tt/098tt.jpg","",""
"1397","","","recognition","survey-text","422","1402769","0.0-6.0-3.59","2916206","co39184","norming","","","{""guess"":""""}","","../img/tt/098tt.jpg","",""
"null","../img/gs/098gs.jpg","null","reveal","image-keyboard-response","423","1404790","0.0-6.0-4.59","2916206","co39184","norming","","","","","","",""
"null","../img/tt/098tt.jpg","null","mooney2","image-keyboard-response","424","1406782","0.0-6.0-5.59","2916206","co39184","norming","","","","","","",""
"1922.8000000000465","","","post_reveal_questions","survey-likert","425","1408708","0.0-6.0-6.59","2916206","co39184","norming","","","{""aha"":0}","[0]","../img/tt/098tt.jpg","",""
"null","<div style=""font-size:60px;""> </div>","null","fixation","html-keyboard-response","426","1408938","0.0-6.0-0.60","2916206","co39184","norming","","","","","","",""
"null","../img/tt/1191tt.jpg","null","mooney1","image-keyboard-response","427","1411971","0.0-6.0-1.60","2916206","co39184","norming","","","","","","",""
"4259","","","post_mooney1_questions","survey-likert","428","1416234","0.0-6.0-2.60","2916206","co39184","norming","","","{""curiosity"":1,""confidence"":0}","[0,1]","../img/tt/1191tt.jpg","",""
"521.9000000001397","","","recognition","survey-text","429","1416758","0.0-6.0-3.60","2916206","co39184","norming","","","{""guess"":""""}","","../img/tt/1191tt.jpg","",""
"null","../img/gs/1191gs.jpg","null","reveal","image-keyboard-response","430","1418772","0.0-6.0-4.60","2916206","co39184","norming","","","","","","",""
"null","../img/tt/1191tt.jpg","null","mooney2","image-keyboard-response","431","1420771","0.0-6.0-5.60","2916206","co39184","norming","","","","","","",""
"3534.600000000093","","","post_reveal_questions","survey-likert","432","1424310","0.0-6.0-6.60","2916206","co39184","norming","","","{""aha"":4}","[0]","../img/tt/1191tt.jpg","",""
"null","<div style=""font-size:60px;""> </div>","null","fixation","html-keyboard-response","433","1424535","0.0-6.0-0.61","2916206","co39184","norming","","","","","","",""
"null","../img/tt/1159tt.jpg","null","mooney1","image-keyboard-response","434","1427564","0.0-6.0-1.61","2916206","co39184","norming","","","","","","",""
"4448.799999999814","","","post_mooney1_questions","survey-likert","435","1432018","0.0-6.0-2.61","2916206","co39184","norming","","","{""curiosity"":0,""confidence"":6}","[0,1]","../img/tt/1159tt.jpg","",""
"2882.899999999907","","","recognition","survey-text","436","1434907","0.0-6.0-3.61","2916206","co39184","norming","","","{""guess"":""skater""}","","../img/tt/1159tt.jpg","",""
"null","../img/gs/1159gs.jpg","null","reveal","image-keyboard-response","437","1436940","0.0-6.0-4.61","2916206","co39184","norming","","","","","","",""
"null","../img/tt/1159tt.jpg","null","mooney2","image-keyboard-response","438","1438918","0.0-6.0-5.61","2916206","co39184","norming","","","","","","",""
"3416.3000000000465","","","post_reveal_questions","survey-likert","439","1442339","0.0-6.0-6.61","2916206","co39184","norming","","","{""aha"":6}","[0]","../img/tt/1159tt.jpg","",""
"null","<div style=""font-size:60px;""> </div>","null","fixation","html-keyboard-response","440","1442568","0.0-6.0-0.62","2916206","co39184","norming","","","","","","",""
"null","../img/tt/481tt.jpg","null","mooney1","image-keyboard-response","441","1445574","0.0-6.0-1.62","2916206","co39184","norming","","","","","","",""
"3476.5999999998603","","","post_mooney1_questions","survey-likert","442","1449055","0.0-6.0-2.62","2916206","co39184","norming","","","{""curiosity"":0,""confidence"":0}","[0,1]","../img/tt/481tt.jpg","",""
"976.5","","","recognition","survey-text","443","1450039","0.0-6.0-3.62","2916206","co39184","norming","","","{""guess"":""""}","","../img/tt/481tt.jpg","",""
"null","../img/gs/481gs.jpg","null","reveal","image-keyboard-response","444","1452057","0.0-6.0-4.62","2916206","co39184","norming","","","","","","",""
"null","../img/tt/481tt.jpg","null","mooney2","image-keyboard-response","445","1454044","0.0-6.0-5.62","2916206","co39184","norming","","","","","","",""
"2996.6999999999534","","","post_reveal_questions","survey-likert","446","1457044","0.0-6.0-6.62","2916206","co39184","norming","","","{""aha"":0}","[0]","../img/tt/481tt.jpg","",""
"null","<div style=""font-size:60px;""> </div>","null","fixation","html-keyboard-response","447","1457273","0.0-6.0-0.63","2916206","co39184","norming","","","","","","",""
"null","../img/tt/1217tt.jpg","null","mooney1","image-keyboard-response","448","1460301","0.0-6.0-1.63","2916206","co39184","norming","","","","","","",""
"4995.899999999907","","","post_mooney1_questions","survey-likert","449","1465303","0.0-6.0-2.63","2916206","co39184","norming","","","{""curiosity"":0,""confidence"":0}","[0,1]","../img/tt/1217tt.jpg","",""
"906.6999999999534","","","recognition","survey-text","450","1466214","0.0-6.0-3.63","2916206","co39184","norming","","","{""guess"":""""}","","../img/tt/1217tt.jpg","",""
"null","../img/gs/1217gs.jpg","null","reveal","image-keyboard-response","451","1468244","0.0-6.0-4.63","2916206","co39184","norming","","","","","","",""
"null","../img/tt/1217tt.jpg","null","mooney2","image-keyboard-response","452","1470244","0.0-6.0-5.63","2916206","co39184","norming","","","","","","",""
"1942","","","post_reveal_questions","survey-likert","453","1472190","0.0-6.0-6.63","2916206","co39184","norming","","","{""aha"":0}","[0]","../img/tt/1217tt.jpg","",""
"null","<div style=""font-size:60px;""> </div>","null","fixation","html-keyboard-response","454","1472411","0.0-6.0-0.64","2916206","co39184","norming","","","","","","",""
"null","../img/tt/1254tt.jpg","null","mooney1","image-keyboard-response","455","1475440","0.0-6.0-1.64","2916206","co39184","norming","","","","","","",""
"4722.399999999907","","","post_mooney1_questions","survey-likert","456","1480168","0.0-6.0-2.64","2916206","co39184","norming","","","{""curiosity"":2,""confidence"":3}","[0,1]","../img/tt/1254tt.jpg","",""
"3092.0999999998603","","","recognition","survey-text","457","1483265","0.0-6.0-3.64","2916206","co39184","norming","","","{""guess"":""konijn""}","","../img/tt/1254tt.jpg","",""
"null","../img/gs/1254gs.jpg","null","reveal","image-keyboard-response","458","1485269","0.0-6.0-4.64","2916206","co39184","norming","","","","","","",""
"null","../img/tt/1254tt.jpg","null","mooney2","image-keyboard-response","459","1487269","0.0-6.0-5.64","2916206","co39184","norming","","","","","","",""
"1687.4000000001397","","","post_reveal_questions","survey-likert","460","1488959","0.0-6.0-6.64","2916206","co39184","norming","","","{""aha"":6}","[0]","../img/tt/1254tt.jpg","",""
"null","<div style=""font-size:60px;""> </div>","null","fixation","html-keyboard-response","461","1489179","0.0-6.0-0.65","2916206","co39184","norming","","","","","","",""
"null","../img/tt/1188tt.jpg","null","mooney1","image-keyboard-response","462","1492206","0.0-6.0-1.65","2916206","co39184","norming","","","","","","",""
"4389.200000000186","","","post_mooney1_questions","survey-likert","463","1496599","0.0-6.0-2.65","2916206","co39184","norming","","","{""curiosity"":3,""confidence"":6}","[0,1]","../img/tt/1188tt.jpg","",""
"2178.8000000000465","","","recognition","survey-text","464","1498783","0.0-6.0-3.65","2916206","co39184","norming","","","{""guess"":""wielrenner""}","","../img/tt/1188tt.jpg","",""
"null","../img/gs/1188gs.jpg","null","reveal","image-keyboard-response","465","1500791","0.0-6.0-4.65","2916206","co39184","norming","","","","","","",""
"null","../img/tt/1188tt.jpg","null","mooney2","image-keyboard-response","466","1502792","0.0-6.0-5.65","2916206","co39184","norming","","","","","","",""
"1615.3000000000465","","","post_reveal_questions","survey-likert","467","1504411","0.0-6.0-6.65","2916206","co39184","norming","","","{""aha"":6}","[0]","../img/tt/1188tt.jpg","",""
"null","<div style=""font-size:60px;""> </div>","null","fixation","html-keyboard-response","468","1504626","0.0-6.0-0.66","2916206","co39184","norming","","","","","","",""
"null","../img/tt/357tt.jpg","null","mooney1","image-keyboard-response","469","1507635","0.0-6.0-1.66","2916206","co39184","norming","","","","","","",""
"4398.300000000047","","","post_mooney1_questions","survey-likert","470","1512035","0.0-6.0-2.66","2916206","co39184","norming","","","{""curiosity"":1,""confidence"":1}","[0,1]","../img/tt/357tt.jpg","",""
"2746.6999999999534","","","recognition","survey-text","471","1514787","0.0-6.0-3.66","2916206","co39184","norming","","","{""guess"":""egel""}","","../img/tt/357tt.jpg","",""
"null","../img/gs/357gs.jpg","null","reveal","image-keyboard-response","472","1516804","0.0-6.0-4.66","2916206","co39184","norming","","","","","","",""
"null","../img/tt/357tt.jpg","null","mooney2","image-keyboard-response","473","1518807","0.0-6.0-5.66","2916206","co39184","norming","","","","","","",""
"4760.100000000093","","","post_reveal_questions","survey-likert","474","1523572","0.0-6.0-6.66","2916206","co39184","norming","","","{""aha"":5}","[0]","../img/tt/357tt.jpg","",""
"null","<div style=""font-size:60px;""> </div>","null","fixation","html-keyboard-response","475","1523787","0.0-6.0-0.67","2916206","co39184","norming","","","","","","",""
"null","../img/tt/080tt.jpg","null","mooney1","image-keyboard-response","476","1526816","0.0-6.0-1.67","2916206","co39184","norming","","","","","","",""
"3878.5","","","post_mooney1_questions","survey-likert","477","1530700","0.0-6.0-2.67","2916206","co39184","norming","","","{""curiosity"":1,""confidence"":0}","[0,1]","../img/tt/080tt.jpg","",""
"676.3000000000466","","","recognition","survey-text","478","1531381","0.0-6.0-3.67","2916206","co39184","norming","","","{""guess"":""""}","","../img/tt/080tt.jpg","",""
"null","../img/gs/080gs.jpg","null","reveal","image-keyboard-response","479","1533401","0.0-6.0-4.67","2916206","co39184","norming","","","","","","",""
"null","../img/tt/080tt.jpg","null","mooney2","image-keyboard-response","480","1535393","0.0-6.0-5.67","2916206","co39184","norming","","","","","","",""
"3665.5","","","post_reveal_questions","survey-likert","481","1539062","0.0-6.0-6.67","2916206","co39184","norming","","","{""aha"":0}","[0]","../img/tt/080tt.jpg","",""
"null","<div style=""font-size:60px;""> </div>","null","fixation","html-keyboard-response","482","1539275","0.0-6.0-0.68","2916206","co39184","norming","","","","","","",""
"null","../img/tt/063tt.jpg","null","mooney1","image-keyboard-response","483","1542282","0.0-6.0-1.68","2916206","co39184","norming","","","","","","",""
"3762.5","","","post_mooney1_questions","survey-likert","484","1546049","0.0-6.0-2.68","2916206","co39184","norming","","","{""curiosity"":2,""confidence"":3}","[0,1]","../img/tt/063tt.jpg","",""
"1415.0999999998603","","","recognition","survey-text","485","1547469","0.0-6.0-3.68","2916206","co39184","norming","","","{""guess"":""boeken""}","","../img/tt/063tt.jpg","",""
"null","../img/gs/063gs.jpg","null","reveal","image-keyboard-response","486","1549473","0.0-6.0-4.68","2916206","co39184","norming","","","","","","",""
"null","../img/tt/063tt.jpg","null","mooney2","image-keyboard-response","487","1551482","0.0-6.0-5.68","2916206","co39184","norming","","","","","","",""
"4033.6999999999534","","","post_reveal_questions","survey-likert","488","1555518","0.0-6.0-6.68","2916206","co39184","norming","","","{""aha"":4}","[0]","../img/tt/063tt.jpg","",""
"null","<div style=""font-size:60px;""> </div>","null","fixation","html-keyboard-response","489","1555738","0.0-6.0-0.69","2916206","co39184","norming","","","","","","",""
"null","../img/tt/1156tt.jpg","null","mooney1","image-keyboard-response","490","1558751","0.0-6.0-1.69","2916206","co39184","norming","","","","","","",""
"5998.399999999907","","","post_mooney1_questions","survey-likert","491","1564754","0.0-6.0-2.69","2916206","co39184","norming","","","{""curiosity"":4,""confidence"":0}","[0,1]","../img/tt/1156tt.jpg","",""
"359","","","recognition","survey-text","492","1565122","0.0-6.0-3.69","2916206","co39184","norming","","","{""guess"":""""}","","../img/tt/1156tt.jpg","",""
"null","../img/gs/1156gs.jpg","null","reveal","image-keyboard-response","493","1567130","0.0-6.0-4.69","2916206","co39184","norming","","","","","","",""
"null","../img/tt/1156tt.jpg","null","mooney2","image-keyboard-response","494","1569145","0.0-6.0-5.69","2916206","co39184","norming","","","","","","",""
"3625.100000000093","","","post_reveal_questions","survey-likert","495","1572774","0.0-6.0-6.69","2916206","co39184","norming","","","{""aha"":0}","[0]","../img/tt/1156tt.jpg","",""
"null","<div style=""font-size:60px;""> </div>","null","fixation","html-keyboard-response","496","1572988","0.0-6.0-0.70","2916206","co39184","norming","","","","","","",""
"null","../img/tt/1283tt.jpg","null","mooney1","image-keyboard-response","497","1576017","0.0-6.0-1.70","2916206","co39184","norming","","","","","","",""
"5174.299999999814","","","post_mooney1_questions","survey-likert","498","1581193","0.0-6.0-2.70","2916206","co39184","norming","","","{""curiosity"":0,""confidence"":4}","[0,1]","../img/tt/1283tt.jpg","",""
"1235.1000000000931","","","recognition","survey-text","499","1582432","0.0-6.0-3.70","2916206","co39184","norming","","","{""guess"":""vos""}","","../img/tt/1283tt.jpg","",""
"null","../img/gs/1283gs.jpg","null","reveal","image-keyboard-response","500","1584441","0.0-6.0-4.70","2916206","co39184","norming","","","","","","",""
"null","../img/tt/1283tt.jpg","null","mooney2","image-keyboard-response","501","1586457","0.0-6.0-5.70","2916206","co39184","norming","","","","","","",""
"4253.90000000014","","","post_reveal_questions","survey-likert","502","1590715","0.0-6.0-6.70","2916206","co39184","norming","","","{""aha"":4}","[0]","../img/tt/1283tt.jpg","",""
"null","<div style=""font-size:60px;""> </div>","null","fixation","html-keyboard-response","503","1590943","0.0-6.0-0.71","2916206","co39184","norming","","","","","","",""
"null","../img/tt/603tt.jpg","null","mooney1","image-keyboard-response","504","1593964","0.0-6.0-1.71","2916206","co39184","norming","","","","","","",""
"7243.199999999953","","","post_mooney1_questions","survey-likert","505","1601211","0.0-6.0-2.71","2916206","co39184","norming","","","{""curiosity"":3,""confidence"":2}","[0,1]","../img/tt/603tt.jpg","",""
"1299.6000000000931","","","recognition","survey-text","506","1602515","0.0-6.0-3.71","2916206","co39184","norming","","","{""guess"":""dier""}","","../img/tt/603tt.jpg","",""
"null","../img/gs/603gs.jpg","null","reveal","image-keyboard-response","507","1604530","0.0-6.0-4.71","2916206","co39184","norming","","","","","","",""
"null","../img/tt/603tt.jpg","null","mooney2","image-keyboard-response","508","1606530","0.0-6.0-5.71","2916206","co39184","norming","","","","","","",""
"2850.899999999907","","","post_reveal_questions","survey-likert","509","1609385","0.0-6.0-6.71","2916206","co39184","norming","","","{""aha"":4}","[0]","../img/tt/603tt.jpg","",""
"null","<div style=""font-size:60px;""> </div>","null","fixation","html-keyboard-response","510","1609598","0.0-6.0-0.72","2916206","co39184","norming","","","","","","",""
"null","../img/tt/084tt.jpg","null","mooney1","image-keyboard-response","511","1612611","0.0-6.0-1.72","2916206","co39184","norming","","","","","","",""
"4878.09999999986","","","post_mooney1_questions","survey-likert","512","1617494","0.0-6.0-2.72","2916206","co39184","norming","","","{""curiosity"":1,""confidence"":4}","[0,1]","../img/tt/084tt.jpg","",""
"1727.8999999999068","","","recognition","survey-text","513","1619227","0.0-6.0-3.72","2916206","co39184","norming","","","{""guess"":""eend""}","","../img/tt/084tt.jpg","",""
"null","../img/gs/084gs.jpg","null","reveal","image-keyboard-response","514","1621247","0.0-6.0-4.72","2916206","co39184","norming","","","","","","",""
"null","../img/tt/084tt.jpg","null","mooney2","image-keyboard-response","515","1623243","0.0-6.0-5.72","2916206","co39184","norming","","","","","","",""
"2983.3000000000465","","","post_reveal_questions","survey-likert","516","1626229","0.0-6.0-6.72","2916206","co39184","norming","","","{""aha"":5}","[0]","../img/tt/084tt.jpg","",""
"null","<div style=""font-size:60px;""> </div>","null","fixation","html-keyboard-response","517","1626455","0.0-6.0-0.73","2916206","co39184","norming","","","","","","",""
"null","../img/tt/1048tt.jpg","null","mooney1","image-keyboard-response","518","1629467","0.0-6.0-1.73","2916206","co39184","norming","","","","","","",""
"3214.5","","","post_mooney1_questions","survey-likert","519","1632685","0.0-6.0-2.73","2916206","co39184","norming","","","{""curiosity"":0,""confidence"":0}","[0,1]","../img/tt/1048tt.jpg","",""
"862.6000000000931","","","recognition","survey-text","520","1633553","0.0-6.0-3.73","2916206","co39184","norming","","","{""guess"":""""}","","../img/tt/1048tt.jpg","",""
"null","../img/gs/1048gs.jpg","null","reveal","image-keyboard-response","521","1635564","0.0-6.0-4.73","2916206","co39184","norming","","","","","","",""
"null","../img/tt/1048tt.jpg","null","mooney2","image-keyboard-response","522","1637556","0.0-6.0-5.73","2916206","co39184","norming","","","","","","",""
"2529.0999999998603","","","post_reveal_questions","survey-likert","523","1640087","0.0-6.0-6.73","2916206","co39184","norming","","","{""aha"":0}","[0]","../img/tt/1048tt.jpg","",""
"null","<div style=""font-size:60px;""> </div>","null","fixation","html-keyboard-response","524","1640313","0.0-6.0-0.74","2916206","co39184","norming","","","","","","",""
"null","../img/tt/194tt.jpg","null","mooney1","image-keyboard-response","525","1643318","0.0-6.0-1.74","2916206","co39184","norming","","","","","","",""
"3016.899999999907","","","post_mooney1_questions","survey-likert","526","1646339","0.0-6.0-2.74","2916206","co39184","norming","","","{""curiosity"":4,""confidence"":4}","[0,1]","../img/tt/194tt.jpg","",""
"4105.09999999986","","","recognition","survey-text","527","1650451","0.0-6.0-3.74","2916206","co39184","norming","","","{""guess"":""muziekspeelster""}","","../img/tt/194tt.jpg","",""
"null","../img/gs/194gs.jpg","null","reveal","image-keyboard-response","528","1652465","0.0-6.0-4.74","2916206","co39184","norming","","","","","","",""
"null","../img/tt/194tt.jpg","null","mooney2","image-keyboard-response","529","1654470","0.0-6.0-5.74","2916206","co39184","norming","","","","","","",""
"2962.7000000001862","","","post_reveal_questions","survey-likert","530","1657437","0.0-6.0-6.74","2916206","co39184","norming","","","{""aha"":4}","[0]","../img/tt/194tt.jpg","",""
"null","<div style=""font-size:60px;""> </div>","null","fixation","html-keyboard-response","531","1657666","0.0-6.0-0.75","2916206","co39184","norming","","","","","","",""
"null","../img/tt/590tt.jpg","null","mooney1","image-keyboard-response","532","1660681","0.0-6.0-1.75","2916206","co39184","norming","","","","","","",""
"3475.4000000001397","","","post_mooney1_questions","survey-likert","533","1664161","0.0-6.0-2.75","2916206","co39184","norming","","","{""curiosity"":1,""confidence"":0}","[0,1]","../img/tt/590tt.jpg","",""
"265.70000000018626","","","recognition","survey-text","534","1664431","0.0-6.0-3.75","2916206","co39184","norming","","","{""guess"":""""}","","../img/tt/590tt.jpg","",""
"null","../img/gs/590gs.jpg","null","reveal","image-keyboard-response","535","1666452","0.0-6.0-4.75","2916206","co39184","norming","","","","","","",""
"null","../img/tt/590tt.jpg","null","mooney2","image-keyboard-response","536","1668452","0.0-6.0-5.75","2916206","co39184","norming","","","","","","",""
"3018.8000000000465","","","post_reveal_questions","survey-likert","537","1671475","0.0-6.0-6.75","2916206","co39184","norming","","","{""aha"":0}","[0]","../img/tt/590tt.jpg","",""
"null","<div style=""font-size:60px;""> </div>","null","fixation","html-keyboard-response","538","1671701","0.0-6.0-0.76","2916206","co39184","norming","","","","","","",""
"null","../img/tt/1237tt.jpg","null","mooney1","image-keyboard-response","539","1674713","0.0-6.0-1.76","2916206","co39184","norming","","","","","","",""
"75622.79999999981","","","post_mooney1_questions","survey-likert","540","1750340","0.0-6.0-2.76","2916206","co39184","norming","","","{""curiosity"":1,""confidence"":0}","[0,1]","../img/tt/1237tt.jpg","",""
"680","","","recognition","survey-text","541","1751026","0.0-6.0-3.76","2916206","co39184","norming","","","{""guess"":""""}","","../img/tt/1237tt.jpg","",""
"null","../img/gs/1237gs.jpg","null","reveal","image-keyboard-response","542","1753031","0.0-6.0-4.76","2916206","co39184","norming","","","","","","",""
"null","../img/tt/1237tt.jpg","null","mooney2","image-keyboard-response","543","1755051","0.0-6.0-5.76","2916206","co39184","norming","","","","","","",""
"2672.2000000001862","","","post_reveal_questions","survey-likert","544","1757728","0.0-6.0-6.76","2916206","co39184","norming","","","{""aha"":0}","[0]","../img/tt/1237tt.jpg","",""
"null","<div style=""font-size:60px;""> </div>","null","fixation","html-keyboard-response","545","1757941","0.0-6.0-0.77","2916206","co39184","norming","","","","","","",""
"null","../img/tt/1004tt.jpg","null","mooney1","image-keyboard-response","546","1760950","0.0-6.0-1.77","2916206","co39184","norming","","","","","","",""
"3348.9000000001397","","","post_mooney1_questions","survey-likert","547","1764301","0.0-6.0-2.77","2916206","co39184","norming","","","{""curiosity"":1,""confidence"":0}","[0,1]","../img/tt/1004tt.jpg","",""
"1171.6999999999534","","","recognition","survey-text","548","1765478","0.0-6.0-3.77","2916206","co39184","norming","","","{""guess"":""""}","","../img/tt/1004tt.jpg","",""
"null","../img/gs/1004gs.jpg","null","reveal","image-keyboard-response","549","1767499","0.0-6.0-4.77","2916206","co39184","norming","","","","","","",""
"null","../img/tt/1004tt.jpg","null","mooney2","image-keyboard-response","550","1769489","0.0-6.0-5.77","2916206","co39184","norming","","","","","","",""
"2291","","","post_reveal_questions","survey-likert","551","1771785","0.0-6.0-6.77","2916206","co39184","norming","","","{""aha"":0}","[0]","../img/tt/1004tt.jpg","",""
"null","<div style=""font-size:60px;""> </div>","null","fixation","html-keyboard-response","552","1772003","0.0-6.0-0.78","2916206","co39184","norming","","","","","","",""
"null","../img/tt/1066tt.jpg","null","mooney1","image-keyboard-response","553","1775013","0.0-6.0-1.78","2916206","co39184","norming","","","","","","",""
"3507.600000000093","","","post_mooney1_questions","survey-likert","554","1778526","0.0-6.0-2.78","2916206","co39184","norming","","","{""curiosity"":3,""confidence"":3}","[0,1]","../img/tt/1066tt.jpg","",""
