"rt","stimulus","key_press","test_part","trial_type","trial_index","time_elapsed","internal_node_id","totalTime","subject","experiment_name","button_pressed","success","responses","question_order","currentStim","old","correct"
"11681.960000000003","Welcome to the experiment. This is an online experiment so please don't close the tab/window until we say goodbye.  Press any key to begin.","32","instructions","html-keyboard-response","0","11697","0.0-0.0","2789375","co39379","norming","","","","","","",""
"71360.77500000002","<div style='word-wrap: break-word; width: 900px'><h3>Please consider this information carefully before deciding whether to participate in this research</h3><ul style='text-align: left; font-size: .8em;'><li><b>Purpose of the research</b>: To examine how people process images.</li><li><b>What you will do in this research</b>:  Stimuli (images) will be presented on the computer and you will be asked different questions about them.</li><li><b>Time required</b>: Participation will take between 45 and 60 minutes to complete.</li><li><b>Risks</b>:  There are no anticipated risks associated with participating in this study. The effects of participating should be comparable to those you would experience from viewing a computer monitor for 30 minutes and using a mouse or keyboard.</li><li><b>Benefits</b>:  This study provides no benefits to you individually except for the credit. The study provides important information about the nature of perception and learning.</li><li><b>Confidentiality</b>:  Your participation in this study will remain confidential. No personally identifiable information will be associated with your data. Your de-identified data may be shared with other researchers and used in future projects.</li><li><b>Participation and withdrawal</b>:  Your participation in this study is completely voluntary and you may refuse to participate or you may choose to withdraw at any time without penalty.</li><li><b>How to contact the researchers</b>: If you have questions or concerns about your participation or payment, or want to request a summary of research findings, please contact Sander Van de Cruys (KU Leuven), at sander.vandecruys@kuleuven.be.</li></ul><p>The nature and purpose of this research have been sufficiently explained and I agree to participate in this study.  I understand that I am free to withdraw at any time without incurring any penalty.</p><p>Please consent by clicking the button below to continue. Otherwise, please exit the study at this time.</p></div>","","instructions","html-button-response","1","83053","0.0-1.0","2789375","co39379","norming","0","","","","","",""
"","","","instructions","fullscreen","2","88087","0.0-2.0","2789375","co39379","norming","","true","","","","",""
"26068.79999999999","","","sona","survey-html-form","3","114161","0.0-3.0","2789375","co39379","norming","","","[{""name"":""sonaid"",""value"":""39379""},{""name"":""debrief"",""value"":""yes""},{""name"":""datajoin"",""value"":""yes""}]","","","",""
"73506.56500000005","<div style='word-wrap: break-word; width: 900px'><h3>Instructions</h3><p>This experiment will have 3 parts. In the first part you will see a series of distorted images like the one below on the left. As you can see in the righthand image, the distorted images are derived from actual photographs. In what follows, you will <strong>briefly</strong> be presented with <strong>only</strong> the distorted image.</p> <div style='float: left; margin-right: 20px;'><img src='../img/018tt.jpg' height='250' width='250'></img></div><div style='float: right; margin-left: 20px;'><img src='../img/018gs.jpg' height='250' width='250'></img></div><p>Subsequently you will be asked a few questions about the image: One question on how <strong>curious</strong> you are about the solution and one on how <strong>confident</strong> you are that you know the solution.</p>Next, we ask you to make a guess on what is in the image. Note that it is OK to name just the <strong>basic level category</strong>. For example when you see a parrot in the image, 'parrot' will obviously be a correct answer but also correct is 'bird'. However, 'animal' will <strong>not</strong> be counted as a correct response. For the example above, 'rose' would be correct or 'flower', but not 'plant'. When soccer players are depicted, 'soccer', 'football', 'soccer players' will be correct, but not 'humans', 'outdoors', or 'sports'. You do not need to describe the image in full, just name the main object in it <strong>in one or two words</strong>. All images depict objects from one of the following broad level categories: animals, inanimate objects, plants, sports, vehicles, and food. Recognizing means knowing <strong>more</strong> than these broad labels for a given image. But we always encourage you to <strong>make a guess</strong> if you can. Note that you are allowed to use <strong>Dutch and English</strong> in your answers, whatever comes easiest for you.</p><p>Press any key to continue.</p></div>","32","instructions","html-keyboard-response","4","187669","0.0-4.0","2789375","co39379","norming","","","","","","",""
"41023.03999999998","<div style='word-wrap: break-word; width: 900px'><h3>Instructions</h3> <p>Next, the solution image will be revealed to you and you'll be asked to indicate how strong your <strong>aha-experience</strong> was after seeing the solution. This describes the positive feeling of the 'click' you sometimes experience, when the pieces of the 'puzzle' fall together and you suddenly have 'insight' in the image.</p><img src='aha.jpg' height='188' width='250'></img><p>Note that there are no right or wrong answers. We are interested in what <strong>you</strong> see in the image and how <strong>you</strong> feel about it.</p><p>Press any key to start the experiment.</p></div>","32","instructions","html-keyboard-response","5","228693","0.0-5.0","2789375","co39379","norming","","","","","","",""
"null","<div style=""font-size:60px;""> </div>","null","fixation","html-keyboard-response","6","228898","0.0-6.0-0.0","2789375","co39379","norming","","","","","","",""
"null","../img/tt/1107tt.jpg","null","mooney1","image-keyboard-response","7","231905","0.0-6.0-1.0","2789375","co39379","norming","","","","","","",""
"14354.899999999994","","","post_mooney1_questions","survey-likert","8","246262","0.0-6.0-2.0","2789375","co39379","norming","","","{""curiosity"":5,""confidence"":0}","[0,1]","../img/tt/1107tt.jpg","",""
"5902.164999999979","","","recognition","survey-text","9","252192","0.0-6.0-3.0","2789375","co39379","norming","","","{""guess"":""""}","","../img/tt/1107tt.jpg","",""
"null","../img/gs/1107gs.jpg","null","reveal","image-keyboard-response","10","254202","0.0-6.0-4.0","2789375","co39379","norming","","","","","","",""
"null","../img/tt/1107tt.jpg","null","mooney2","image-keyboard-response","11","256212","0.0-6.0-5.0","2789375","co39379","norming","","","","","","",""
"8578.235000000015","","","post_reveal_questions","survey-likert","12","264792","0.0-6.0-6.0","2789375","co39379","norming","","","{""aha"":2}","[0]","../img/tt/1107tt.jpg","",""
"null","<div style=""font-size:60px;""> </div>","null","fixation","html-keyboard-response","13","264998","0.0-6.0-0.1","2789375","co39379","norming","","","","","","",""
"null","../img/tt/496tt.jpg","null","mooney1","image-keyboard-response","14","268001","0.0-6.0-1.1","2789375","co39379","norming","","","","","","",""
"9261.210000000021","","","post_mooney1_questions","survey-likert","15","277264","0.0-6.0-2.1","2789375","co39379","norming","","","{""curiosity"":5,""confidence"":0}","[0,1]","../img/tt/496tt.jpg","",""
"1654.0599999999395","","","recognition","survey-text","16","278920","0.0-6.0-3.1","2789375","co39379","norming","","","{""guess"":""""}","","../img/tt/496tt.jpg","",""
"null","../img/gs/496gs.jpg","null","reveal","image-keyboard-response","17","280926","0.0-6.0-4.1","2789375","co39379","norming","","","","","","",""
"null","../img/tt/496tt.jpg","null","mooney2","image-keyboard-response","18","282936","0.0-6.0-5.1","2789375","co39379","norming","","","","","","",""
"4646.395000000077","","","post_reveal_questions","survey-likert","19","287584","0.0-6.0-6.1","2789375","co39379","norming","","","{""aha"":4}","[0]","../img/tt/496tt.jpg","",""
"null","<div style=""font-size:60px;""> </div>","null","fixation","html-keyboard-response","20","287792","0.0-6.0-0.2","2789375","co39379","norming","","","","","","",""
"null","../img/tt/1024tt.jpg","null","mooney1","image-keyboard-response","21","290795","0.0-6.0-1.2","2789375","co39379","norming","","","","","","",""
"5922.174999999988","","","post_mooney1_questions","survey-likert","22","296720","0.0-6.0-2.2","2789375","co39379","norming","","","{""curiosity"":5,""confidence"":0}","[0,1]","../img/tt/1024tt.jpg","",""
"1550.0800000000163","","","recognition","survey-text","23","298272","0.0-6.0-3.2","2789375","co39379","norming","","","{""guess"":""""}","","../img/tt/1024tt.jpg","",""
"null","../img/gs/1024gs.jpg","null","reveal","image-keyboard-response","24","300280","0.0-6.0-4.2","2789375","co39379","norming","","","","","","",""
"null","../img/tt/1024tt.jpg","null","mooney2","image-keyboard-response","25","302284","0.0-6.0-5.2","2789375","co39379","norming","","","","","","",""
"2826.4799999999814","","","post_reveal_questions","survey-likert","26","305112","0.0-6.0-6.2","2789375","co39379","norming","","","{""aha"":1}","[0]","../img/tt/1024tt.jpg","",""
"null","<div style=""font-size:60px;""> </div>","null","fixation","html-keyboard-response","27","305319","0.0-6.0-0.3","2789375","co39379","norming","","","","","","",""
"null","../img/tt/007tt.jpg","null","mooney1","image-keyboard-response","28","308325","0.0-6.0-1.3","2789375","co39379","norming","","","","","","",""
"5744.400000000023","","","post_mooney1_questions","survey-likert","29","314178","0.0-6.0-2.3","2789375","co39379","norming","","","{""curiosity"":5,""confidence"":0}","[0,1]","../img/tt/007tt.jpg","",""
"1342.1900000000023","","","recognition","survey-text","30","315522","0.0-6.0-3.3","2789375","co39379","norming","","","{""guess"":""""}","","../img/tt/007tt.jpg","",""
"null","../img/gs/007gs.jpg","null","reveal","image-keyboard-response","31","317525","0.0-6.0-4.3","2789375","co39379","norming","","","","","","",""
"null","../img/tt/007tt.jpg","null","mooney2","image-keyboard-response","32","319528","0.0-6.0-5.3","2789375","co39379","norming","","","","","","",""
"3240.6149999999907","","","post_reveal_questions","survey-likert","33","322770","0.0-6.0-6.3","2789375","co39379","norming","","","{""aha"":2}","[0]","../img/tt/007tt.jpg","",""
"null","<div style=""font-size:60px;""> </div>","null","fixation","html-keyboard-response","34","322974","0.0-6.0-0.4","2789375","co39379","norming","","","","","","",""
"null","../img/tt/063tt.jpg","null","mooney1","image-keyboard-response","35","325985","0.0-6.0-1.4","2789375","co39379","norming","","","","","","",""
"10551.080000000016","","","post_mooney1_questions","survey-likert","36","336539","0.0-6.0-2.4","2789375","co39379","norming","","","{""curiosity"":4,""confidence"":3}","[0,1]","../img/tt/063tt.jpg","",""
"10662.195000000007","","","recognition","survey-text","37","347202","0.0-6.0-3.4","2789375","co39379","norming","","","{""guess"":""accordion""}","","../img/tt/063tt.jpg","",""
"null","../img/gs/063gs.jpg","null","reveal","image-keyboard-response","38","349206","0.0-6.0-4.4","2789375","co39379","norming","","","","","","",""
"null","../img/tt/063tt.jpg","null","mooney2","image-keyboard-response","39","351219","0.0-6.0-5.4","2789375","co39379","norming","","","","","","",""
"4629.770000000019","","","post_reveal_questions","survey-likert","40","355851","0.0-6.0-6.4","2789375","co39379","norming","","","{""aha"":0}","[0]","../img/tt/063tt.jpg","",""
"null","<div style=""font-size:60px;""> </div>","null","fixation","html-keyboard-response","41","356055","0.0-6.0-0.5","2789375","co39379","norming","","","","","","",""
"null","../img/tt/1278tt.jpg","null","mooney1","image-keyboard-response","42","359064","0.0-6.0-1.5","2789375","co39379","norming","","","","","","",""
"6320.104999999981","","","post_mooney1_questions","survey-likert","43","365387","0.0-6.0-2.5","2789375","co39379","norming","","","{""curiosity"":5,""confidence"":0}","[0,1]","../img/tt/1278tt.jpg","",""
"1053.9550000000163","","","recognition","survey-text","44","366442","0.0-6.0-3.5","2789375","co39379","norming","","","{""guess"":""""}","","../img/tt/1278tt.jpg","",""
"null","../img/gs/1278gs.jpg","null","reveal","image-keyboard-response","45","368451","0.0-6.0-4.5","2789375","co39379","norming","","","","","","",""
"null","../img/tt/1278tt.jpg","null","mooney2","image-keyboard-response","46","370453","0.0-6.0-5.5","2789375","co39379","norming","","","","","","",""
"2756.4749999999767","","","post_reveal_questions","survey-likert","47","373210","0.0-6.0-6.5","2789375","co39379","norming","","","{""aha"":0}","[0]","../img/tt/1278tt.jpg","",""
"null","<div style=""font-size:60px;""> </div>","null","fixation","html-keyboard-response","48","373518","0.0-6.0-0.6","2789375","co39379","norming","","","","","","",""
"null","../img/tt/1171tt.jpg","null","mooney1","image-keyboard-response","49","376525","0.0-6.0-1.6","2789375","co39379","norming","","","","","","",""
"6229.195000000007","","","post_mooney1_questions","survey-likert","50","382757","0.0-6.0-2.6","2789375","co39379","norming","","","{""curiosity"":5,""confidence"":0}","[0,1]","../img/tt/1171tt.jpg","",""
"1141.984999999986","","","recognition","survey-text","51","383900","0.0-6.0-3.6","2789375","co39379","norming","","","{""guess"":""""}","","../img/tt/1171tt.jpg","",""
"null","../img/gs/1171gs.jpg","null","reveal","image-keyboard-response","52","385908","0.0-6.0-4.6","2789375","co39379","norming","","","","","","",""
"null","../img/tt/1171tt.jpg","null","mooney2","image-keyboard-response","53","387916","0.0-6.0-5.6","2789375","co39379","norming","","","","","","",""
"1918.4000000000233","","","post_reveal_questions","survey-likert","54","389836","0.0-6.0-6.6","2789375","co39379","norming","","","{""aha"":0}","[0]","../img/tt/1171tt.jpg","",""
"null","<div style=""font-size:60px;""> </div>","null","fixation","html-keyboard-response","55","390045","0.0-6.0-0.7","2789375","co39379","norming","","","","","","",""
"null","../img/tt/603tt.jpg","null","mooney1","image-keyboard-response","56","393057","0.0-6.0-1.7","2789375","co39379","norming","","","","","","",""
"3968.8450000000303","","","post_mooney1_questions","survey-likert","57","397029","0.0-6.0-2.7","2789375","co39379","norming","","","{""curiosity"":5,""confidence"":0}","[0,1]","../img/tt/603tt.jpg","",""
"782.1849999999395","","","recognition","survey-text","58","397812","0.0-6.0-3.7","2789375","co39379","norming","","","{""guess"":""""}","","../img/tt/603tt.jpg","",""
"null","../img/gs/603gs.jpg","null","reveal","image-keyboard-response","59","399820","0.0-6.0-4.7","2789375","co39379","norming","","","","","","",""
"null","../img/tt/603tt.jpg","null","mooney2","image-keyboard-response","60","401829","0.0-6.0-5.7","2789375","co39379","norming","","","","","","",""
"2660.6350000000093","","","post_reveal_questions","survey-likert","61","404492","0.0-6.0-6.7","2789375","co39379","norming","","","{""aha"":0}","[0]","../img/tt/603tt.jpg","",""
"null","<div style=""font-size:60px;""> </div>","null","fixation","html-keyboard-response","62","404700","0.0-6.0-0.8","2789375","co39379","norming","","","","","","",""
"null","../img/tt/300tt.jpg","null","mooney1","image-keyboard-response","63","407706","0.0-6.0-1.8","2789375","co39379","norming","","","","","","",""
"10994.055000000051","","","post_mooney1_questions","survey-likert","64","418701","0.0-6.0-2.8","2789375","co39379","norming","","","{""curiosity"":5,""confidence"":0}","[0,1]","../img/tt/300tt.jpg","",""
"837.945000000007","","","recognition","survey-text","65","419540","0.0-6.0-3.8","2789375","co39379","norming","","","{""guess"":""""}","","../img/tt/300tt.jpg","",""
"null","../img/gs/300gs.jpg","null","reveal","image-keyboard-response","66","421545","0.0-6.0-4.8","2789375","co39379","norming","","","","","","",""
"null","../img/tt/300tt.jpg","null","mooney2","image-keyboard-response","67","423549","0.0-6.0-5.8","2789375","co39379","norming","","","","","","",""
"2901.820000000065","","","post_reveal_questions","survey-likert","68","426452","0.0-6.0-6.8","2789375","co39379","norming","","","{""aha"":0}","[0]","../img/tt/300tt.jpg","",""
"null","<div style=""font-size:60px;""> </div>","null","fixation","html-keyboard-response","69","426657","0.0-6.0-0.9","2789375","co39379","norming","","","","","","",""
"null","../img/tt/098tt.jpg","null","mooney1","image-keyboard-response","70","429666","0.0-6.0-1.9","2789375","co39379","norming","","","","","","",""
"6208.039999999979","","","post_mooney1_questions","survey-likert","71","435972","0.0-6.0-2.9","2789375","co39379","norming","","","{""curiosity"":5,""confidence"":0}","[0,1]","../img/tt/098tt.jpg","",""
"1021.9899999999907","","","recognition","survey-text","72","436995","0.0-6.0-3.9","2789375","co39379","norming","","","{""guess"":""""}","","../img/tt/098tt.jpg","",""
"null","../img/gs/098gs.jpg","null","reveal","image-keyboard-response","73","438997","0.0-6.0-4.9","2789375","co39379","norming","","","","","","",""
"null","../img/tt/098tt.jpg","null","mooney2","image-keyboard-response","74","441000","0.0-6.0-5.9","2789375","co39379","norming","","","","","","",""
"2881.5250000000233","","","post_reveal_questions","survey-likert","75","443883","0.0-6.0-6.9","2789375","co39379","norming","","","{""aha"":0}","[0]","../img/tt/098tt.jpg","",""
"null","<div style=""font-size:60px;""> </div>","null","fixation","html-keyboard-response","76","444086","0.0-6.0-0.10","2789375","co39379","norming","","","","","","",""
"null","../img/tt/1080tt.jpg","null","mooney1","image-keyboard-response","77","447094","0.0-6.0-1.10","2789375","co39379","norming","","","","","","",""
"8330.124999999942","","","post_mooney1_questions","survey-likert","78","455428","0.0-6.0-2.10","2789375","co39379","norming","","","{""curiosity"":4,""confidence"":0}","[0,1]","../img/tt/1080tt.jpg","",""
"886.0599999999977","","","recognition","survey-text","79","456315","0.0-6.0-3.10","2789375","co39379","norming","","","{""guess"":""""}","","../img/tt/1080tt.jpg","",""
"null","../img/gs/1080gs.jpg","null","reveal","image-keyboard-response","80","458324","0.0-6.0-4.10","2789375","co39379","norming","","","","","","",""
"null","../img/tt/1080tt.jpg","null","mooney2","image-keyboard-response","81","460334","0.0-6.0-5.10","2789375","co39379","norming","","","","","","",""
"2492.2550000000047","","","post_reveal_questions","survey-likert","82","462828","0.0-6.0-6.10","2789375","co39379","norming","","","{""aha"":4}","[0]","../img/tt/1080tt.jpg","",""
"null","<div style=""font-size:60px;""> </div>","null","fixation","html-keyboard-response","83","463035","0.0-6.0-0.11","2789375","co39379","norming","","","","","","",""
"null","../img/tt/055tt.jpg","null","mooney1","image-keyboard-response","84","466048","0.0-6.0-1.11","2789375","co39379","norming","","","","","","",""
"6441.1149999999325","","","post_mooney1_questions","survey-likert","85","472492","0.0-6.0-2.11","2789375","co39379","norming","","","{""curiosity"":5,""confidence"":0}","[0,1]","../img/tt/055tt.jpg","",""
"965.9950000000536","","","recognition","survey-text","86","473459","0.0-6.0-3.11","2789375","co39379","norming","","","{""guess"":""""}","","../img/tt/055tt.jpg","",""
"null","../img/gs/055gs.jpg","null","reveal","image-keyboard-response","87","475463","0.0-6.0-4.11","2789375","co39379","norming","","","","","","",""
"null","../img/tt/055tt.jpg","null","mooney2","image-keyboard-response","88","477465","0.0-6.0-5.11","2789375","co39379","norming","","","","","","",""
"3120.8099999999977","","","post_reveal_questions","survey-likert","89","480588","0.0-6.0-6.11","2789375","co39379","norming","","","{""aha"":4}","[0]","../img/tt/055tt.jpg","",""
"null","<div style=""font-size:60px;""> </div>","null","fixation","html-keyboard-response","90","480792","0.0-6.0-0.12","2789375","co39379","norming","","","","","","",""
"null","../img/tt/096tt.jpg","null","mooney1","image-keyboard-response","91","483800","0.0-6.0-1.12","2789375","co39379","norming","","","","","","",""
"7161.199999999895","","","post_mooney1_questions","survey-likert","92","490964","0.0-6.0-2.12","2789375","co39379","norming","","","{""curiosity"":4,""confidence"":5}","[0,1]","../img/tt/096tt.jpg","",""
"3710.2750000000233","","","recognition","survey-text","93","494784","0.0-6.0-3.12","2789375","co39379","norming","","","{""guess"":""piano""}","","../img/tt/096tt.jpg","",""
"null","../img/gs/096gs.jpg","null","reveal","image-keyboard-response","94","496785","0.0-6.0-4.12","2789375","co39379","norming","","","","","","",""
"null","../img/tt/096tt.jpg","null","mooney2","image-keyboard-response","95","498790","0.0-6.0-5.12","2789375","co39379","norming","","","","","","",""
"4673.010000000009","","","post_reveal_questions","survey-likert","96","503464","0.0-6.0-6.12","2789375","co39379","norming","","","{""aha"":0}","[0]","../img/tt/096tt.jpg","",""
"null","<div style=""font-size:60px;""> </div>","null","fixation","html-keyboard-response","97","503666","0.0-6.0-0.13","2789375","co39379","norming","","","","","","",""
"null","../img/tt/517tt.jpg","null","mooney1","image-keyboard-response","98","506671","0.0-6.0-1.13","2789375","co39379","norming","","","","","","",""
"7006.229999999923","","","post_mooney1_questions","survey-likert","99","513680","0.0-6.0-2.13","2789375","co39379","norming","","","{""curiosity"":4,""confidence"":3}","[0,1]","../img/tt/517tt.jpg","",""
"4526.245000000054","","","recognition","survey-text","100","518208","0.0-6.0-3.13","2789375","co39379","norming","","","{""guess"":""koala""}","","../img/tt/517tt.jpg","",""
"null","../img/gs/517gs.jpg","null","reveal","image-keyboard-response","101","520214","0.0-6.0-4.13","2789375","co39379","norming","","","","","","",""
"null","../img/tt/517tt.jpg","null","mooney2","image-keyboard-response","102","522217","0.0-6.0-5.13","2789375","co39379","norming","","","","","","",""
"2452.6199999999953","","","post_reveal_questions","survey-likert","103","524672","0.0-6.0-6.13","2789375","co39379","norming","","","{""aha"":1}","[0]","../img/tt/517tt.jpg","",""
"null","<div style=""font-size:60px;""> </div>","null","fixation","html-keyboard-response","104","524881","0.0-6.0-0.14","2789375","co39379","norming","","","","","","",""
"null","../img/tt/082tt.jpg","null","mooney1","image-keyboard-response","105","527886","0.0-6.0-1.14","2789375","co39379","norming","","","","","","",""
"4975.429999999935","","","post_mooney1_questions","survey-likert","106","532864","0.0-6.0-2.14","2789375","co39379","norming","","","{""curiosity"":4,""confidence"":3}","[0,1]","../img/tt/082tt.jpg","",""
"3062.0350000000326","","","recognition","survey-text","107","535928","0.0-6.0-3.14","2789375","co39379","norming","","","{""guess"":""bird""}","","../img/tt/082tt.jpg","",""
"null","../img/gs/082gs.jpg","null","reveal","image-keyboard-response","108","537935","0.0-6.0-4.14","2789375","co39379","norming","","","","","","",""
"null","../img/tt/082tt.jpg","null","mooney2","image-keyboard-response","109","539940","0.0-6.0-5.14","2789375","co39379","norming","","","","","","",""
"2346.1350000000093","","","post_reveal_questions","survey-likert","110","542288","0.0-6.0-6.14","2789375","co39379","norming","","","{""aha"":1}","[0]","../img/tt/082tt.jpg","",""
"null","<div style=""font-size:60px;""> </div>","null","fixation","html-keyboard-response","111","542497","0.0-6.0-0.15","2789375","co39379","norming","","","","","","",""
"null","../img/tt/1188tt.jpg","null","mooney1","image-keyboard-response","112","545503","0.0-6.0-1.15","2789375","co39379","norming","","","","","","",""
"4269.975000000093","","","post_mooney1_questions","survey-likert","113","549776","0.0-6.0-2.15","2789375","co39379","norming","","","{""curiosity"":5,""confidence"":1}","[0,1]","../img/tt/1188tt.jpg","",""
"3214.0800000000745","","","recognition","survey-text","114","552992","0.0-6.0-3.15","2789375","co39379","norming","","","{""guess"":""koe""}","","../img/tt/1188tt.jpg","",""
"null","../img/gs/1188gs.jpg","null","reveal","image-keyboard-response","115","555081","0.0-6.0-4.15","2789375","co39379","norming","","","","","","",""
"null","../img/tt/1188tt.jpg","null","mooney2","image-keyboard-response","116","557084","0.0-6.0-5.15","2789375","co39379","norming","","","","","","",""
"4075.3549999999814","","","post_reveal_questions","survey-likert","117","561161","0.0-6.0-6.15","2789375","co39379","norming","","","{""aha"":2}","[0]","../img/tt/1188tt.jpg","",""
"null","<div style=""font-size:60px;""> </div>","null","fixation","html-keyboard-response","118","561364","0.0-6.0-0.16","2789375","co39379","norming","","","","","","",""
"null","../img/tt/524tt.jpg","null","mooney1","image-keyboard-response","119","564368","0.0-6.0-1.16","2789375","co39379","norming","","","","","","",""
"7695.035000000033","","","post_mooney1_questions","survey-likert","120","572065","0.0-6.0-2.16","2789375","co39379","norming","","","{""curiosity"":5,""confidence"":2}","[0,1]","../img/tt/524tt.jpg","",""
"2910.170000000042","","","recognition","survey-text","121","574977","0.0-6.0-3.16","2789375","co39379","norming","","","{""guess"":""paard""}","","../img/tt/524tt.jpg","",""
"null","../img/gs/524gs.jpg","null","reveal","image-keyboard-response","122","576988","0.0-6.0-4.16","2789375","co39379","norming","","","","","","",""
"null","../img/tt/524tt.jpg","null","mooney2","image-keyboard-response","123","578989","0.0-6.0-5.16","2789375","co39379","norming","","","","","","",""
"2363.5599999999395","","","post_reveal_questions","survey-likert","124","581353","0.0-6.0-6.16","2789375","co39379","norming","","","{""aha"":4}","[0]","../img/tt/524tt.jpg","",""
"null","<div style=""font-size:60px;""> </div>","null","fixation","html-keyboard-response","125","581557","0.0-6.0-0.17","2789375","co39379","norming","","","","","","",""
"null","../img/tt/1205tt.jpg","null","mooney1","image-keyboard-response","126","584565","0.0-6.0-1.17","2789375","co39379","norming","","","","","","",""
"3083.7299999999814","","","post_mooney1_questions","survey-likert","127","587649","0.0-6.0-2.17","2789375","co39379","norming","","","{""curiosity"":5,""confidence"":0}","[0,1]","../img/tt/1205tt.jpg","",""
"901.9500000000698","","","recognition","survey-text","128","588553","0.0-6.0-3.17","2789375","co39379","norming","","","{""guess"":""""}","","../img/tt/1205tt.jpg","",""
"null","../img/gs/1205gs.jpg","null","reveal","image-keyboard-response","129","590557","0.0-6.0-4.17","2789375","co39379","norming","","","","","","",""
"null","../img/tt/1205tt.jpg","null","mooney2","image-keyboard-response","130","592560","0.0-6.0-5.17","2789375","co39379","norming","","","","","","",""
"1984.530000000028","","","post_reveal_questions","survey-likert","131","594545","0.0-6.0-6.17","2789375","co39379","norming","","","{""aha"":2}","[0]","../img/tt/1205tt.jpg","",""
"null","<div style=""font-size:60px;""> </div>","null","fixation","html-keyboard-response","132","594753","0.0-6.0-0.18","2789375","co39379","norming","","","","","","",""
"null","../img/tt/076tt.jpg","null","mooney1","image-keyboard-response","133","597764","0.0-6.0-1.18","2789375","co39379","norming","","","","","","",""
"6498.385000000009","","","post_mooney1_questions","survey-likert","134","604265","0.0-6.0-2.18","2789375","co39379","norming","","","{""curiosity"":4,""confidence"":4}","[0,1]","../img/tt/076tt.jpg","",""
"4694.199999999953","","","recognition","survey-text","135","608961","0.0-6.0-3.18","2789375","co39379","norming","","","{""guess"":""rollerskates""}","","../img/tt/076tt.jpg","",""
"null","../img/gs/076gs.jpg","null","reveal","image-keyboard-response","136","610965","0.0-6.0-4.18","2789375","co39379","norming","","","","","","",""
"null","../img/tt/076tt.jpg","null","mooney2","image-keyboard-response","137","612975","0.0-6.0-5.18","2789375","co39379","norming","","","","","","",""
"4208.270000000019","","","post_reveal_questions","survey-likert","138","617186","0.0-6.0-6.18","2789375","co39379","norming","","","{""aha"":0}","[0]","../img/tt/076tt.jpg","",""
"null","<div style=""font-size:60px;""> </div>","null","fixation","html-keyboard-response","139","617392","0.0-6.0-0.19","2789375","co39379","norming","","","","","","",""
"null","../img/tt/438tt.jpg","null","mooney1","image-keyboard-response","140","620398","0.0-6.0-1.19","2789375","co39379","norming","","","","","","",""
"3361.8850000000093","","","post_mooney1_questions","survey-likert","141","623762","0.0-6.0-2.19","2789375","co39379","norming","","","{""curiosity"":5,""confidence"":0}","[0,1]","../img/tt/438tt.jpg","",""
"942.109999999986","","","recognition","survey-text","142","624706","0.0-6.0-3.19","2789375","co39379","norming","","","{""guess"":""""}","","../img/tt/438tt.jpg","",""
"null","../img/gs/438gs.jpg","null","reveal","image-keyboard-response","143","626710","0.0-6.0-4.19","2789375","co39379","norming","","","","","","",""
"null","../img/tt/438tt.jpg","null","mooney2","image-keyboard-response","144","628719","0.0-6.0-5.19","2789375","co39379","norming","","","","","","",""
"2336.5899999999674","","","post_reveal_questions","survey-likert","145","631058","0.0-6.0-6.19","2789375","co39379","norming","","","{""aha"":3}","[0]","../img/tt/438tt.jpg","",""
"null","<div style=""font-size:60px;""> </div>","null","fixation","html-keyboard-response","146","631266","0.0-6.0-0.20","2789375","co39379","norming","","","","","","",""
"null","../img/tt/1217tt.jpg","null","mooney1","image-keyboard-response","147","634270","0.0-6.0-1.20","2789375","co39379","norming","","","","","","",""
"5513.194999999949","","","post_mooney1_questions","survey-likert","148","639786","0.0-6.0-2.20","2789375","co39379","norming","","","{""curiosity"":4,""confidence"":4}","[0,1]","../img/tt/1217tt.jpg","",""
"6446.040000000037","","","recognition","survey-text","149","646234","0.0-6.0-3.20","2789375","co39379","norming","","","{""guess"":""basketballer""}","","../img/tt/1217tt.jpg","",""
"null","../img/gs/1217gs.jpg","null","reveal","image-keyboard-response","150","648235","0.0-6.0-4.20","2789375","co39379","norming","","","","","","",""
"null","../img/tt/1217tt.jpg","null","mooney2","image-keyboard-response","151","650238","0.0-6.0-5.20","2789375","co39379","norming","","","","","","",""
"1729.7600000000093","","","post_reveal_questions","survey-likert","152","651970","0.0-6.0-6.20","2789375","co39379","norming","","","{""aha"":1}","[0]","../img/tt/1217tt.jpg","",""
"null","<div style=""font-size:60px;""> </div>","null","fixation","html-keyboard-response","153","652176","0.0-6.0-0.21","2789375","co39379","norming","","","","","","",""
"null","../img/tt/380tt.jpg","null","mooney1","image-keyboard-response","154","655185","0.0-6.0-1.21","2789375","co39379","norming","","","","","","",""
"6262.165000000037","","","post_mooney1_questions","survey-likert","155","661450","0.0-6.0-2.21","2789375","co39379","norming","","","{""curiosity"":5,""confidence"":3}","[0,1]","../img/tt/380tt.jpg","",""
"2102.1350000001257","","","recognition","survey-text","156","663554","0.0-6.0-3.21","2789375","co39379","norming","","","{""guess"":""muis""}","","../img/tt/380tt.jpg","",""
"null","../img/gs/380gs.jpg","null","reveal","image-keyboard-response","157","665563","0.0-6.0-4.21","2789375","co39379","norming","","","","","","",""
"null","../img/tt/380tt.jpg","null","mooney2","image-keyboard-response","158","667571","0.0-6.0-5.21","2789375","co39379","norming","","","","","","",""
"4132.264999999898","","","post_reveal_questions","survey-likert","159","671706","0.0-6.0-6.21","2789375","co39379","norming","","","{""aha"":3}","[0]","../img/tt/380tt.jpg","",""
"null","<div style=""font-size:60px;""> </div>","null","fixation","html-keyboard-response","160","671912","0.0-6.0-0.22","2789375","co39379","norming","","","","","","",""
"null","../img/tt/442tt.jpg","null","mooney1","image-keyboard-response","161","674917","0.0-6.0-1.22","2789375","co39379","norming","","","","","","",""
"3521.909999999916","","","post_mooney1_questions","survey-likert","162","678442","0.0-6.0-2.22","2789375","co39379","norming","","","{""curiosity"":5,""confidence"":1}","[0,1]","../img/tt/442tt.jpg","",""
"3734.2099999999627","","","recognition","survey-text","163","682178","0.0-6.0-3.22","2789375","co39379","norming","","","{""guess"":""schildpad""}","","../img/tt/442tt.jpg","",""
"null","../img/gs/442gs.jpg","null","reveal","image-keyboard-response","164","684180","0.0-6.0-4.22","2789375","co39379","norming","","","","","","",""
"null","../img/tt/442tt.jpg","null","mooney2","image-keyboard-response","165","686189","0.0-6.0-5.22","2789375","co39379","norming","","","","","","",""
"2258.454999999958","","","post_reveal_questions","survey-likert","166","688450","0.0-6.0-6.22","2789375","co39379","norming","","","{""aha"":2}","[0]","../img/tt/442tt.jpg","",""
"null","<div style=""font-size:60px;""> </div>","null","fixation","html-keyboard-response","167","688656","0.0-6.0-0.23","2789375","co39379","norming","","","","","","",""
"null","../img/tt/1070tt.jpg","null","mooney1","image-keyboard-response","168","691659","0.0-6.0-1.23","2789375","co39379","norming","","","","","","",""
"6660.165000000037","","","post_mooney1_questions","survey-likert","169","698322","0.0-6.0-2.23","2789375","co39379","norming","","","{""curiosity"":5,""confidence"":2}","[0,1]","../img/tt/1070tt.jpg","",""
"2094.180000000051","","","recognition","survey-text","170","700418","0.0-6.0-3.23","2789375","co39379","norming","","","{""guess"":""eten""}","","../img/tt/1070tt.jpg","",""
"null","../img/gs/1070gs.jpg","null","reveal","image-keyboard-response","171","702419","0.0-6.0-4.23","2789375","co39379","norming","","","","","","",""
"null","../img/tt/1070tt.jpg","null","mooney2","image-keyboard-response","172","704429","0.0-6.0-5.23","2789375","co39379","norming","","","","","","",""
"1754.6450000000186","","","post_reveal_questions","survey-likert","173","706186","0.0-6.0-6.23","2789375","co39379","norming","","","{""aha"":2}","[0]","../img/tt/1070tt.jpg","",""
"null","<div style=""font-size:60px;""> </div>","null","fixation","html-keyboard-response","174","706390","0.0-6.0-0.24","2789375","co39379","norming","","","","","","",""
"null","../img/tt/599tt.jpg","null","mooney1","image-keyboard-response","175","709401","0.0-6.0-1.24","2789375","co39379","norming","","","","","","",""
"5646.475000000093","","","post_mooney1_questions","survey-likert","176","715050","0.0-6.0-2.24","2789375","co39379","norming","","","{""curiosity"":4,""confidence"":4}","[0,1]","../img/tt/599tt.jpg","",""
"3094.0999999999767","","","recognition","survey-text","177","718146","0.0-6.0-3.24","2789375","co39379","norming","","","{""guess"":""uil""}","","../img/tt/599tt.jpg","",""
"null","../img/gs/599gs.jpg","null","reveal","image-keyboard-response","178","720156","0.0-6.0-4.24","2789375","co39379","norming","","","","","","",""
"null","../img/tt/599tt.jpg","null","mooney2","image-keyboard-response","179","722159","0.0-6.0-5.24","2789375","co39379","norming","","","","","","",""
"1904.795000000042","","","post_reveal_questions","survey-likert","180","724066","0.0-6.0-6.24","2789375","co39379","norming","","","{""aha"":0}","[0]","../img/tt/599tt.jpg","",""
"null","<div style=""font-size:60px;""> </div>","null","fixation","html-keyboard-response","181","724273","0.0-6.0-0.25","2789375","co39379","norming","","","","","","",""
"null","../img/tt/163tt.jpg","null","mooney1","image-keyboard-response","182","727282","0.0-6.0-1.25","2789375","co39379","norming","","","","","","",""
"4093.3850000000093","","","post_mooney1_questions","survey-likert","183","731378","0.0-6.0-2.25","2789375","co39379","norming","","","{""curiosity"":5,""confidence"":4}","[0,1]","../img/tt/163tt.jpg","",""
"2462.1450000000186","","","recognition","survey-text","184","733842","0.0-6.0-3.25","2789375","co39379","norming","","","{""guess"":""kikker""}","","../img/tt/163tt.jpg","",""
"null","../img/gs/163gs.jpg","null","reveal","image-keyboard-response","185","735850","0.0-6.0-4.25","2789375","co39379","norming","","","","","","",""
"null","../img/tt/163tt.jpg","null","mooney2","image-keyboard-response","186","737852","0.0-6.0-5.25","2789375","co39379","norming","","","","","","",""
"4979.445000000065","","","post_reveal_questions","survey-likert","187","742834","0.0-6.0-6.25","2789375","co39379","norming","","","{""aha"":0}","[0]","../img/tt/163tt.jpg","",""
"null","<div style=""font-size:60px;""> </div>","null","fixation","html-keyboard-response","188","743042","0.0-6.0-0.26","2789375","co39379","norming","","","","","","",""
"null","../img/tt/1175tt.jpg","null","mooney1","image-keyboard-response","189","746047","0.0-6.0-1.26","2789375","co39379","norming","","","","","","",""
"4703.965000000084","","","post_mooney1_questions","survey-likert","190","750754","0.0-6.0-2.26","2789375","co39379","norming","","","{""curiosity"":5,""confidence"":0}","[0,1]","../img/tt/1175tt.jpg","",""
"757.9200000000419","","","recognition","survey-text","191","751514","0.0-6.0-3.26","2789375","co39379","norming","","","{""guess"":""""}","","../img/tt/1175tt.jpg","",""
"null","../img/gs/1175gs.jpg","null","reveal","image-keyboard-response","192","753521","0.0-6.0-4.26","2789375","co39379","norming","","","","","","",""
"null","../img/tt/1175tt.jpg","null","mooney2","image-keyboard-response","193","755526","0.0-6.0-5.26","2789375","co39379","norming","","","","","","",""
"2737.4000000000233","","","post_reveal_questions","survey-likert","194","758266","0.0-6.0-6.26","2789375","co39379","norming","","","{""aha"":1}","[0]","../img/tt/1175tt.jpg","",""
"null","<div style=""font-size:60px;""> </div>","null","fixation","html-keyboard-response","195","758473","0.0-6.0-0.27","2789375","co39379","norming","","","","","","",""
"null","../img/tt/273tt.jpg","null","mooney1","image-keyboard-response","196","761485","0.0-6.0-1.27","2789375","co39379","norming","","","","","","",""
"5801.630000000121","","","post_mooney1_questions","survey-likert","197","767290","0.0-6.0-2.27","2789375","co39379","norming","","","{""curiosity"":5,""confidence"":0}","[0,1]","../img/tt/273tt.jpg","",""
"790.0450000000419","","","recognition","survey-text","198","768081","0.0-6.0-3.27","2789375","co39379","norming","","","{""guess"":""""}","","../img/tt/273tt.jpg","",""
"null","../img/gs/273gs.jpg","null","reveal","image-keyboard-response","199","770090","0.0-6.0-4.27","2789375","co39379","norming","","","","","","",""
"null","../img/tt/273tt.jpg","null","mooney2","image-keyboard-response","200","772092","0.0-6.0-5.27","2789375","co39379","norming","","","","","","",""
"2667.29999999993","","","post_reveal_questions","survey-likert","201","774762","0.0-6.0-6.27","2789375","co39379","norming","","","{""aha"":6}","[0]","../img/tt/273tt.jpg","",""
"null","<div style=""font-size:60px;""> </div>","null","fixation","html-keyboard-response","202","774963","0.0-6.0-0.28","2789375","co39379","norming","","","","","","",""
"null","../img/tt/1101tt.jpg","null","mooney1","image-keyboard-response","203","777974","0.0-6.0-1.28","2789375","co39379","norming","","","","","","",""
"5290.530000000028","","","post_mooney1_questions","survey-likert","204","783266","0.0-6.0-2.28","2789375","co39379","norming","","","{""curiosity"":5,""confidence"":3}","[0,1]","../img/tt/1101tt.jpg","",""
"3685.960000000079","","","recognition","survey-text","205","786954","0.0-6.0-3.28","2789375","co39379","norming","","","{""guess"":""sporter""}","","../img/tt/1101tt.jpg","",""
"null","../img/gs/1101gs.jpg","null","reveal","image-keyboard-response","206","788959","0.0-6.0-4.28","2789375","co39379","norming","","","","","","",""
"null","../img/tt/1101tt.jpg","null","mooney2","image-keyboard-response","207","790962","0.0-6.0-5.28","2789375","co39379","norming","","","","","","",""
"1606.6500000000233","","","post_reveal_questions","survey-likert","208","792570","0.0-6.0-6.28","2789375","co39379","norming","","","{""aha"":2}","[0]","../img/tt/1101tt.jpg","",""
"null","<div style=""font-size:60px;""> </div>","null","fixation","html-keyboard-response","209","792775","0.0-6.0-0.29","2789375","co39379","norming","","","","","","",""
"null","../img/tt/418tt.jpg","null","mooney1","image-keyboard-response","210","795785","0.0-6.0-1.29","2789375","co39379","norming","","","","","","",""
"4686.199999999953","","","post_mooney1_questions","survey-likert","211","800470","0.0-6.0-2.29","2789375","co39379","norming","","","{""curiosity"":5,""confidence"":2}","[0,1]","../img/tt/418tt.jpg","",""
"4101.930000000051","","","recognition","survey-text","212","804574","0.0-6.0-3.29","2789375","co39379","norming","","","{""guess"":""ijs""}","","../img/tt/418tt.jpg","",""
"null","../img/gs/418gs.jpg","null","reveal","image-keyboard-response","213","806581","0.0-6.0-4.29","2789375","co39379","norming","","","","","","",""
"null","../img/tt/418tt.jpg","null","mooney2","image-keyboard-response","214","808587","0.0-6.0-5.29","2789375","co39379","norming","","","","","","",""
"3354.469999999972","","","post_reveal_questions","survey-likert","215","811942","0.0-6.0-6.29","2789375","co39379","norming","","","{""aha"":3}","[0]","../img/tt/418tt.jpg","",""
"null","<div style=""font-size:60px;""> </div>","null","fixation","html-keyboard-response","216","812147","0.0-6.0-0.30","2789375","co39379","norming","","","","","","",""
"null","../img/tt/306tt.jpg","null","mooney1","image-keyboard-response","217","815151","0.0-6.0-1.30","2789375","co39379","norming","","","","","","",""
"3963.82500000007","","","post_mooney1_questions","survey-likert","218","819118","0.0-6.0-2.30","2789375","co39379","norming","","","{""curiosity"":5,""confidence"":0}","[0,1]","../img/tt/306tt.jpg","",""
"1054.0700000000652","","","recognition","survey-text","219","820174","0.0-6.0-3.30","2789375","co39379","norming","","","{""guess"":""""}","","../img/tt/306tt.jpg","",""
"null","../img/gs/306gs.jpg","null","reveal","image-keyboard-response","220","822180","0.0-6.0-4.30","2789375","co39379","norming","","","","","","",""
"null","../img/tt/306tt.jpg","null","mooney2","image-keyboard-response","221","824184","0.0-6.0-5.30","2789375","co39379","norming","","","","","","",""
"2347.670000000042","","","post_reveal_questions","survey-likert","222","826534","0.0-6.0-6.30","2789375","co39379","norming","","","{""aha"":2}","[0]","../img/tt/306tt.jpg","",""
"null","<div style=""font-size:60px;""> </div>","null","fixation","html-keyboard-response","223","826743","0.0-6.0-0.31","2789375","co39379","norming","","","","","","",""
"null","../img/tt/358tt.jpg","null","mooney1","image-keyboard-response","224","829749","0.0-6.0-1.31","2789375","co39379","norming","","","","","","",""
"4934.195000000065","","","post_mooney1_questions","survey-likert","225","834686","0.0-6.0-2.31","2789375","co39379","norming","","","{""curiosity"":5,""confidence"":0}","[0,1]","../img/tt/358tt.jpg","",""
"1470.0500000000466","","","recognition","survey-text","226","836158","0.0-6.0-3.31","2789375","co39379","norming","","","{""guess"":""""}","","../img/tt/358tt.jpg","",""
"null","../img/gs/358gs.jpg","null","reveal","image-keyboard-response","227","838166","0.0-6.0-4.31","2789375","co39379","norming","","","","","","",""
"null","../img/tt/358tt.jpg","null","mooney2","image-keyboard-response","228","840170","0.0-6.0-5.31","2789375","co39379","norming","","","","","","",""
"2225.9899999999907","","","post_reveal_questions","survey-likert","229","842398","0.0-6.0-6.31","2789375","co39379","norming","","","{""aha"":4}","[0]","../img/tt/358tt.jpg","",""
"null","<div style=""font-size:60px;""> </div>","null","fixation","html-keyboard-response","230","842601","0.0-6.0-0.32","2789375","co39379","norming","","","","","","",""
"null","../img/tt/118tt.jpg","null","mooney1","image-keyboard-response","231","845610","0.0-6.0-1.32","2789375","co39379","norming","","","","","","",""
"3464.969999999972","","","post_mooney1_questions","survey-likert","232","849078","0.0-6.0-2.32","2789375","co39379","norming","","","{""curiosity"":5,""confidence"":2}","[0,1]","../img/tt/118tt.jpg","",""
"3294.435000000056","","","recognition","survey-text","233","852374","0.0-6.0-3.32","2789375","co39379","norming","","","{""guess"":""trap""}","","../img/tt/118tt.jpg","",""
"null","../img/gs/118gs.jpg","null","reveal","image-keyboard-response","234","854383","0.0-6.0-4.32","2789375","co39379","norming","","","","","","",""
"null","../img/tt/118tt.jpg","null","mooney2","image-keyboard-response","235","856389","0.0-6.0-5.32","2789375","co39379","norming","","","","","","",""
"2942.5599999999395","","","post_reveal_questions","survey-likert","236","859334","0.0-6.0-6.32","2789375","co39379","norming","","","{""aha"":5}","[0]","../img/tt/118tt.jpg","",""
"null","<div style=""font-size:60px;""> </div>","null","fixation","html-keyboard-response","237","859539","0.0-6.0-0.33","2789375","co39379","norming","","","","","","",""
"null","../img/tt/019tt.jpg","null","mooney1","image-keyboard-response","238","862543","0.0-6.0-1.33","2789375","co39379","norming","","","","","","",""
"3687.670000000042","","","post_mooney1_questions","survey-likert","239","866233","0.0-6.0-2.33","2789375","co39379","norming","","","{""curiosity"":5,""confidence"":3}","[0,1]","../img/tt/019tt.jpg","",""
"2678.149999999907","","","recognition","survey-text","240","868913","0.0-6.0-3.33","2789375","co39379","norming","","","{""guess"":""tang""}","","../img/tt/019tt.jpg","",""
"null","../img/gs/019gs.jpg","null","reveal","image-keyboard-response","241","870915","0.0-6.0-4.33","2789375","co39379","norming","","","","","","",""
"null","../img/tt/019tt.jpg","null","mooney2","image-keyboard-response","242","872917","0.0-6.0-5.33","2789375","co39379","norming","","","","","","",""
"3553.8499999999767","","","post_reveal_questions","survey-likert","243","876473","0.0-6.0-6.33","2789375","co39379","norming","","","{""aha"":0}","[0]","../img/tt/019tt.jpg","",""
"null","<div style=""font-size:60px;""> </div>","null","fixation","html-keyboard-response","244","876680","0.0-6.0-0.34","2789375","co39379","norming","","","","","","",""
"null","../img/tt/1269tt.jpg","null","mooney1","image-keyboard-response","245","879690","0.0-6.0-1.34","2789375","co39379","norming","","","","","","",""
"2668.5599999999395","","","post_mooney1_questions","survey-likert","246","882362","0.0-6.0-2.34","2789375","co39379","norming","","","{""curiosity"":5,""confidence"":2}","[0,1]","../img/tt/1269tt.jpg","",""
"2949.5400000000373","","","recognition","survey-text","247","885313","0.0-6.0-3.34","2789375","co39379","norming","","","{""guess"":""vos""}","","../img/tt/1269tt.jpg","",""
"null","../img/gs/1269gs.jpg","null","reveal","image-keyboard-response","248","887324","0.0-6.0-4.34","2789375","co39379","norming","","","","","","",""
"null","../img/tt/1269tt.jpg","null","mooney2","image-keyboard-response","249","889333","0.0-6.0-5.34","2789375","co39379","norming","","","","","","",""
"2034.109999999986","","","post_reveal_questions","survey-likert","250","891369","0.0-6.0-6.34","2789375","co39379","norming","","","{""aha"":2}","[0]","../img/tt/1269tt.jpg","",""
"null","<div style=""font-size:60px;""> </div>","null","fixation","html-keyboard-response","251","891577","0.0-6.0-0.35","2789375","co39379","norming","","","","","","",""
"null","../img/tt/319tt.jpg","null","mooney1","image-keyboard-response","252","894586","0.0-6.0-1.35","2789375","co39379","norming","","","","","","",""
"3814.7449999999953","","","post_mooney1_questions","survey-likert","253","898402","0.0-6.0-2.35","2789375","co39379","norming","","","{""curiosity"":5,""confidence"":2}","[0,1]","../img/tt/319tt.jpg","",""
"5182.199999999953","","","recognition","survey-text","254","903585","0.0-6.0-3.35","2789375","co39379","norming","","","{""guess"":""ezels""}","","../img/tt/319tt.jpg","",""
"null","../img/gs/319gs.jpg","null","reveal","image-keyboard-response","255","905588","0.0-6.0-4.35","2789375","co39379","norming","","","","","","",""
"null","../img/tt/319tt.jpg","null","mooney2","image-keyboard-response","256","907591","0.0-6.0-5.35","2789375","co39379","norming","","","","","","",""
"1761.6650000000373","","","post_reveal_questions","survey-likert","257","909353","0.0-6.0-6.35","2789375","co39379","norming","","","{""aha"":1}","[0]","../img/tt/319tt.jpg","",""
"null","<div style=""font-size:60px;""> </div>","null","fixation","html-keyboard-response","258","909560","0.0-6.0-0.36","2789375","co39379","norming","","","","","","",""
"null","../img/tt/1154tt.jpg","null","mooney1","image-keyboard-response","259","912570","0.0-6.0-1.36","2789375","co39379","norming","","","","","","",""
"4069.940000000177","","","post_mooney1_questions","survey-likert","260","916641","0.0-6.0-2.36","2789375","co39379","norming","","","{""curiosity"":5,""confidence"":0}","[0,1]","../img/tt/1154tt.jpg","",""
"1045.8900000001304","","","recognition","survey-text","261","917689","0.0-6.0-3.36","2789375","co39379","norming","","","{""guess"":""""}","","../img/tt/1154tt.jpg","",""
"null","../img/gs/1154gs.jpg","null","reveal","image-keyboard-response","262","919696","0.0-6.0-4.36","2789375","co39379","norming","","","","","","",""
"null","../img/tt/1154tt.jpg","null","mooney2","image-keyboard-response","263","921705","0.0-6.0-5.36","2789375","co39379","norming","","","","","","",""
"2528.0350000000326","","","post_reveal_questions","survey-likert","264","924234","0.0-6.0-6.36","2789375","co39379","norming","","","{""aha"":2}","[0]","../img/tt/1154tt.jpg","",""
"null","<div style=""font-size:60px;""> </div>","null","fixation","html-keyboard-response","265","924442","0.0-6.0-0.37","2789375","co39379","norming","","","","","","",""
"null","../img/tt/1260tt.jpg","null","mooney1","image-keyboard-response","266","927443","0.0-6.0-1.37","2789375","co39379","norming","","","","","","",""
"4077.7349999998696","","","post_mooney1_questions","survey-likert","267","931522","0.0-6.0-2.37","2789375","co39379","norming","","","{""curiosity"":5,""confidence"":0}","[0,1]","../img/tt/1260tt.jpg","",""
"982.074999999837","","","recognition","survey-text","268","932506","0.0-6.0-3.37","2789375","co39379","norming","","","{""guess"":""""}","","../img/tt/1260tt.jpg","",""
"null","../img/gs/1260gs.jpg","null","reveal","image-keyboard-response","269","934512","0.0-6.0-4.37","2789375","co39379","norming","","","","","","",""
"null","../img/tt/1260tt.jpg","null","mooney2","image-keyboard-response","270","936522","0.0-6.0-5.37","2789375","co39379","norming","","","","","","",""
"1751.115000000107","","","post_reveal_questions","survey-likert","271","938274","0.0-6.0-6.37","2789375","co39379","norming","","","{""aha"":2}","[0]","../img/tt/1260tt.jpg","",""
"null","<div style=""font-size:60px;""> </div>","null","fixation","html-keyboard-response","272","938483","0.0-6.0-0.38","2789375","co39379","norming","","","","","","",""
"null","../img/tt/270tt.jpg","null","mooney1","image-keyboard-response","273","941491","0.0-6.0-1.38","2789375","co39379","norming","","","","","","",""
"3925.7550000000047","","","post_mooney1_questions","survey-likert","274","945418","0.0-6.0-2.38","2789375","co39379","norming","","","{""curiosity"":5,""confidence"":0}","[0,1]","../img/tt/270tt.jpg","",""
"653.7550000000047","","","recognition","survey-text","275","946074","0.0-6.0-3.38","2789375","co39379","norming","","","{""guess"":""""}","","../img/tt/270tt.jpg","",""
"null","../img/gs/270gs.jpg","null","reveal","image-keyboard-response","276","948084","0.0-6.0-4.38","2789375","co39379","norming","","","","","","",""
"null","../img/tt/270tt.jpg","null","mooney2","image-keyboard-response","277","950088","0.0-6.0-5.38","2789375","co39379","norming","","","","","","",""
"1449.4200000001583","","","post_reveal_questions","survey-likert","278","951538","0.0-6.0-6.38","2789375","co39379","norming","","","{""aha"":1}","[0]","../img/tt/270tt.jpg","",""
"null","<div style=""font-size:60px;""> </div>","null","fixation","html-keyboard-response","279","951746","0.0-6.0-0.39","2789375","co39379","norming","","","","","","",""
"null","../img/tt/477tt.jpg","null","mooney1","image-keyboard-response","280","954750","0.0-6.0-1.39","2789375","co39379","norming","","","","","","",""
"6467.015000000014","","","post_mooney1_questions","survey-likert","281","961218","0.0-6.0-2.39","2789375","co39379","norming","","","{""curiosity"":4,""confidence"":1}","[0,1]","../img/tt/477tt.jpg","",""
"2413.590000000084","","","recognition","survey-text","282","963634","0.0-6.0-3.39","2789375","co39379","norming","","","{""guess"":""panda""}","","../img/tt/477tt.jpg","",""
"null","../img/gs/477gs.jpg","null","reveal","image-keyboard-response","283","965642","0.0-6.0-4.39","2789375","co39379","norming","","","","","","",""
"null","../img/tt/477tt.jpg","null","mooney2","image-keyboard-response","284","967646","0.0-6.0-5.39","2789375","co39379","norming","","","","","","",""
"2819.115000000107","","","post_reveal_questions","survey-likert","285","970466","0.0-6.0-6.39","2789375","co39379","norming","","","{""aha"":2}","[0]","../img/tt/477tt.jpg","",""
"null","<div style=""font-size:60px;""> </div>","null","fixation","html-keyboard-response","286","970672","0.0-6.0-0.40","2789375","co39379","norming","","","","","","",""
"null","../img/tt/184tt.jpg","null","mooney1","image-keyboard-response","287","973673","0.0-6.0-1.40","2789375","co39379","norming","","","","","","",""
"2917.8549999999814","","","post_mooney1_questions","survey-likert","288","976594","0.0-6.0-2.40","2789375","co39379","norming","","","{""curiosity"":5,""confidence"":0}","[0,1]","../img/tt/184tt.jpg","",""
"766.390000000014","","","recognition","survey-text","289","977362","0.0-6.0-3.40","2789375","co39379","norming","","","{""guess"":""""}","","../img/tt/184tt.jpg","",""
"null","../img/gs/184gs.jpg","null","reveal","image-keyboard-response","290","979372","0.0-6.0-4.40","2789375","co39379","norming","","","","","","",""
"null","../img/tt/184tt.jpg","null","mooney2","image-keyboard-response","291","981383","0.0-6.0-5.40","2789375","co39379","norming","","","","","","",""
"1921.4000000001397","","","post_reveal_questions","survey-likert","292","983307","0.0-6.0-6.40","2789375","co39379","norming","","","{""aha"":1}","[0]","../img/tt/184tt.jpg","",""
"null","<div style=""font-size:60px;""> </div>","null","fixation","html-keyboard-response","293","983508","0.0-6.0-0.41","2789375","co39379","norming","","","","","","",""
"null","../img/tt/301tt.jpg","null","mooney1","image-keyboard-response","294","986520","0.0-6.0-1.41","2789375","co39379","norming","","","","","","",""
"3728.1199999999953","","","post_mooney1_questions","survey-likert","295","990251","0.0-6.0-2.41","2789375","co39379","norming","","","{""curiosity"":5,""confidence"":1}","[0,1]","../img/tt/301tt.jpg","",""
"3958.515000000014","","","recognition","survey-text","296","994211","0.0-6.0-3.41","2789375","co39379","norming","","","{""guess"":""gordijn""}","","../img/tt/301tt.jpg","",""
"null","../img/gs/301gs.jpg","null","reveal","image-keyboard-response","297","996214","0.0-6.0-4.41","2789375","co39379","norming","","","","","","",""
"null","../img/tt/301tt.jpg","null","mooney2","image-keyboard-response","298","998222","0.0-6.0-5.41","2789375","co39379","norming","","","","","","",""
"1562.4699999998556","","","post_reveal_questions","survey-likert","299","999787","0.0-6.0-6.41","2789375","co39379","norming","","","{""aha"":3}","[0]","../img/tt/301tt.jpg","",""
"null","<div style=""font-size:60px;""> </div>","null","fixation","html-keyboard-response","300","999994","0.0-6.0-0.42","2789375","co39379","norming","","","","","","",""
"null","../img/tt/013tt.jpg","null","mooney1","image-keyboard-response","301","1003001","0.0-6.0-1.42","2789375","co39379","norming","","","","","","",""
"3214.6849999999395","","","post_mooney1_questions","survey-likert","302","1006219","0.0-6.0-2.42","2789375","co39379","norming","","","{""curiosity"":5,""confidence"":0}","[0,1]","../img/tt/013tt.jpg","",""
"758.1350000001257","","","recognition","survey-text","303","1006979","0.0-6.0-3.42","2789375","co39379","norming","","","{""guess"":""""}","","../img/tt/013tt.jpg","",""
"null","../img/gs/013gs.jpg","null","reveal","image-keyboard-response","304","1008984","0.0-6.0-4.42","2789375","co39379","norming","","","","","","",""
"null","../img/tt/013tt.jpg","null","mooney2","image-keyboard-response","305","1010992","0.0-6.0-5.42","2789375","co39379","norming","","","","","","",""
"2045.4299999998184","","","post_reveal_questions","survey-likert","306","1013043","0.0-6.0-6.42","2789375","co39379","norming","","","{""aha"":4}","[0]","../img/tt/013tt.jpg","",""
"null","<div style=""font-size:60px;""> </div>","null","fixation","html-keyboard-response","307","1013247","0.0-6.0-0.43","2789375","co39379","norming","","","","","","",""
"null","../img/tt/085tt.jpg","null","mooney1","image-keyboard-response","308","1016256","0.0-6.0-1.43","2789375","co39379","norming","","","","","","",""
"15895.760000000126","","","post_mooney1_questions","survey-likert","309","1032155","0.0-6.0-2.43","2789375","co39379","norming","","","{""curiosity"":5,""confidence"":0}","[0,1]","../img/tt/085tt.jpg","",""
"869.9050000000279","","","recognition","survey-text","310","1033027","0.0-6.0-3.43","2789375","co39379","norming","","","{""guess"":""""}","","../img/tt/085tt.jpg","",""
"null","../img/gs/085gs.jpg","null","reveal","image-keyboard-response","311","1035035","0.0-6.0-4.43","2789375","co39379","norming","","","","","","",""
"null","../img/tt/085tt.jpg","null","mooney2","image-keyboard-response","312","1037046","0.0-6.0-5.43","2789375","co39379","norming","","","","","","",""
"1794.4550000000745","","","post_reveal_questions","survey-likert","313","1038843","0.0-6.0-6.43","2789375","co39379","norming","","","{""aha"":5}","[0]","../img/tt/085tt.jpg","",""
"null","<div style=""font-size:60px;""> </div>","null","fixation","html-keyboard-response","314","1039046","0.0-6.0-0.44","2789375","co39379","norming","","","","","","",""
"null","../img/tt/378tt.jpg","null","mooney1","image-keyboard-response","315","1042059","0.0-6.0-1.44","2789375","co39379","norming","","","","","","",""
"3398.734999999986","","","post_mooney1_questions","survey-likert","316","1045462","0.0-6.0-2.44","2789375","co39379","norming","","","{""curiosity"":5,""confidence"":0}","[0,1]","../img/tt/378tt.jpg","",""
"1525.905000000028","","","recognition","survey-text","317","1046990","0.0-6.0-3.44","2789375","co39379","norming","","","{""guess"":""""}","","../img/tt/378tt.jpg","",""
"null","../img/gs/378gs.jpg","null","reveal","image-keyboard-response","318","1048993","0.0-6.0-4.44","2789375","co39379","norming","","","","","","",""
"null","../img/tt/378tt.jpg","null","mooney2","image-keyboard-response","319","1051001","0.0-6.0-5.44","2789375","co39379","norming","","","","","","",""
"1914.9799999999814","","","post_reveal_questions","survey-likert","320","1052917","0.0-6.0-6.44","2789375","co39379","norming","","","{""aha"":2}","[0]","../img/tt/378tt.jpg","",""
"null","<div style=""font-size:60px;""> </div>","null","fixation","html-keyboard-response","321","1053122","0.0-6.0-0.45","2789375","co39379","norming","","","","","","",""
"null","../img/tt/1027tt.jpg","null","mooney1","image-keyboard-response","322","1056126","0.0-6.0-1.45","2789375","co39379","norming","","","","","","",""
"3364.3649999999907","","","post_mooney1_questions","survey-likert","323","1059494","0.0-6.0-2.45","2789375","co39379","norming","","","{""curiosity"":5,""confidence"":2}","[0,1]","../img/tt/1027tt.jpg","",""
"2430.1800000001676","","","recognition","survey-text","324","1061926","0.0-6.0-3.45","2789375","co39379","norming","","","{""guess"":""koe""}","","../img/tt/1027tt.jpg","",""
"null","../img/gs/1027gs.jpg","null","reveal","image-keyboard-response","325","1063931","0.0-6.0-4.45","2789375","co39379","norming","","","","","","",""
"null","../img/tt/1027tt.jpg","null","mooney2","image-keyboard-response","326","1065934","0.0-6.0-5.45","2789375","co39379","norming","","","","","","",""
"4077.3899999998976","","","post_reveal_questions","survey-likert","327","1070014","0.0-6.0-6.45","2789375","co39379","norming","","","{""aha"":1}","[0]","../img/tt/1027tt.jpg","",""
"null","<div style=""font-size:60px;""> </div>","null","fixation","html-keyboard-response","328","1070216","0.0-6.0-0.46","2789375","co39379","norming","","","","","","",""
"null","../img/tt/549tt.jpg","null","mooney1","image-keyboard-response","329","1073223","0.0-6.0-1.46","2789375","co39379","norming","","","","","","",""
"3451.530000000028","","","post_mooney1_questions","survey-likert","330","1076678","0.0-6.0-2.46","2789375","co39379","norming","","","{""curiosity"":5,""confidence"":0}","[0,1]","../img/tt/549tt.jpg","",""
"525.7800000000279","","","recognition","survey-text","331","1077206","0.0-6.0-3.46","2789375","co39379","norming","","","{""guess"":""""}","","../img/tt/549tt.jpg","",""
"null","../img/gs/549gs.jpg","null","reveal","image-keyboard-response","332","1079216","0.0-6.0-4.46","2789375","co39379","norming","","","","","","",""
"null","../img/tt/549tt.jpg","null","mooney2","image-keyboard-response","333","1081219","0.0-6.0-5.46","2789375","co39379","norming","","","","","","",""
"2016.3599999998696","","","post_reveal_questions","survey-likert","334","1083238","0.0-6.0-6.46","2789375","co39379","norming","","","{""aha"":2}","[0]","../img/tt/549tt.jpg","",""
"null","<div style=""font-size:60px;""> </div>","null","fixation","html-keyboard-response","335","1083441","0.0-6.0-0.47","2789375","co39379","norming","","","","","","",""
"null","../img/tt/1250tt.jpg","null","mooney1","image-keyboard-response","336","1086446","0.0-6.0-1.47","2789375","co39379","norming","","","","","","",""
"4613.09999999986","","","post_mooney1_questions","survey-likert","337","1091062","0.0-6.0-2.47","2789375","co39379","norming","","","{""curiosity"":5,""confidence"":1}","[0,1]","../img/tt/1250tt.jpg","",""
"3885.5850000001956","","","recognition","survey-text","338","1094950","0.0-6.0-3.47","2789375","co39379","norming","","","{""guess"":""penguin""}","","../img/tt/1250tt.jpg","",""
"null","../img/gs/1250gs.jpg","null","reveal","image-keyboard-response","339","1096951","0.0-6.0-4.47","2789375","co39379","norming","","","","","","",""
"null","../img/tt/1250tt.jpg","null","mooney2","image-keyboard-response","340","1098963","0.0-6.0-5.47","2789375","co39379","norming","","","","","","",""
"2361.195000000065","","","post_reveal_questions","survey-likert","341","1101326","0.0-6.0-6.47","2789375","co39379","norming","","","{""aha"":2}","[0]","../img/tt/1250tt.jpg","",""
"null","<div style=""font-size:60px;""> </div>","null","fixation","html-keyboard-response","342","1101527","0.0-6.0-0.48","2789375","co39379","norming","","","","","","",""
"null","../img/tt/534tt.jpg","null","mooney1","image-keyboard-response","343","1104540","0.0-6.0-1.48","2789375","co39379","norming","","","","","","",""
"3489.2399999999907","","","post_mooney1_questions","survey-likert","344","1108032","0.0-6.0-2.48","2789375","co39379","norming","","","{""curiosity"":4,""confidence"":3}","[0,1]","../img/tt/534tt.jpg","",""
"4886.25","","","recognition","survey-text","345","1112920","0.0-6.0-3.48","2789375","co39379","norming","","","{""guess"":""cactus""}","","../img/tt/534tt.jpg","",""
"null","../img/gs/534gs.jpg","null","reveal","image-keyboard-response","346","1114931","0.0-6.0-4.48","2789375","co39379","norming","","","","","","",""
"null","../img/tt/534tt.jpg","null","mooney2","image-keyboard-response","347","1116940","0.0-6.0-5.48","2789375","co39379","norming","","","","","","",""
"4041.6450000000186","","","post_reveal_questions","survey-likert","348","1120985","0.0-6.0-6.48","2789375","co39379","norming","","","{""aha"":1}","[0]","../img/tt/534tt.jpg","",""
"null","<div style=""font-size:60px;""> </div>","null","fixation","html-keyboard-response","349","1121191","0.0-6.0-0.49","2789375","co39379","norming","","","","","","",""
"null","../img/tt/1237tt.jpg","null","mooney1","image-keyboard-response","350","1124192","0.0-6.0-1.49","2789375","co39379","norming","","","","","","",""
"4829.300000000047","","","post_mooney1_questions","survey-likert","351","1129025","0.0-6.0-2.49","2789375","co39379","norming","","","{""curiosity"":5,""confidence"":2}","[0,1]","../img/tt/1237tt.jpg","",""
"3717.9899999999907","","","recognition","survey-text","352","1132744","0.0-6.0-3.49","2789375","co39379","norming","","","{""guess"":""otter""}","","../img/tt/1237tt.jpg","",""
"null","../img/gs/1237gs.jpg","null","reveal","image-keyboard-response","353","1134746","0.0-6.0-4.49","2789375","co39379","norming","","","","","","",""
"null","../img/tt/1237tt.jpg","null","mooney2","image-keyboard-response","354","1136756","0.0-6.0-5.49","2789375","co39379","norming","","","","","","",""
"3345.1749999998137","","","post_reveal_questions","survey-likert","355","1140105","0.0-6.0-6.49","2789375","co39379","norming","","","{""aha"":1}","[0]","../img/tt/1237tt.jpg","",""
"null","<div style=""font-size:60px;""> </div>","null","fixation","html-keyboard-response","356","1140310","0.0-6.0-0.50","2789375","co39379","norming","","","","","","",""
"null","../img/tt/1227tt.jpg","null","mooney1","image-keyboard-response","357","1143316","0.0-6.0-1.50","2789375","co39379","norming","","","","","","",""
"3313.589999999851","","","post_mooney1_questions","survey-likert","358","1146632","0.0-6.0-2.50","2789375","co39379","norming","","","{""curiosity"":5,""confidence"":0}","[0,1]","../img/tt/1227tt.jpg","",""
"1126.160000000149","","","recognition","survey-text","359","1147760","0.0-6.0-3.50","2789375","co39379","norming","","","{""guess"":""""}","","../img/tt/1227tt.jpg","",""
"null","../img/gs/1227gs.jpg","null","reveal","image-keyboard-response","360","1149767","0.0-6.0-4.50","2789375","co39379","norming","","","","","","",""
"null","../img/tt/1227tt.jpg","null","mooney2","image-keyboard-response","361","1151776","0.0-6.0-5.50","2789375","co39379","norming","","","","","","",""
"2358.2600000000093","","","post_reveal_questions","survey-likert","362","1154137","0.0-6.0-6.50","2789375","co39379","norming","","","{""aha"":1}","[0]","../img/tt/1227tt.jpg","",""
"null","<div style=""font-size:60px;""> </div>","null","fixation","html-keyboard-response","363","1154342","0.0-6.0-0.51","2789375","co39379","norming","","","","","","",""
"null","../img/tt/436tt.jpg","null","mooney1","image-keyboard-response","364","1157350","0.0-6.0-1.51","2789375","co39379","norming","","","","","","",""
"4199.15000000014","","","post_mooney1_questions","survey-likert","365","1161553","0.0-6.0-2.51","2789375","co39379","norming","","","{""curiosity"":5,""confidence"":0}","[0,1]","../img/tt/436tt.jpg","",""
"782.0549999999348","","","recognition","survey-text","366","1162336","0.0-6.0-3.51","2789375","co39379","norming","","","{""guess"":""""}","","../img/tt/436tt.jpg","",""
"null","../img/gs/436gs.jpg","null","reveal","image-keyboard-response","367","1164339","0.0-6.0-4.51","2789375","co39379","norming","","","","","","",""
"null","../img/tt/436tt.jpg","null","mooney2","image-keyboard-response","368","1166343","0.0-6.0-5.51","2789375","co39379","norming","","","","","","",""
"2961.1399999998976","","","post_reveal_questions","survey-likert","369","1169307","0.0-6.0-6.51","2789375","co39379","norming","","","{""aha"":1}","[0]","../img/tt/436tt.jpg","",""
"null","<div style=""font-size:60px;""> </div>","null","fixation","html-keyboard-response","370","1169517","0.0-6.0-0.52","2789375","co39379","norming","","","","","","",""
"null","../img/tt/1307tt.jpg","null","mooney1","image-keyboard-response","371","1172520","0.0-6.0-1.52","2789375","co39379","norming","","","","","","",""
"7354.250000000233","","","post_mooney1_questions","survey-likert","372","1179875","0.0-6.0-2.52","2789375","co39379","norming","","","{""curiosity"":5,""confidence"":2}","[0,1]","../img/tt/1307tt.jpg","",""
"3318.100000000093","","","recognition","survey-text","373","1183195","0.0-6.0-3.52","2789375","co39379","norming","","","{""guess"":""fazant""}","","../img/tt/1307tt.jpg","",""
"null","../img/gs/1307gs.jpg","null","reveal","image-keyboard-response","374","1185198","0.0-6.0-4.52","2789375","co39379","norming","","","","","","",""
"null","../img/tt/1307tt.jpg","null","mooney2","image-keyboard-response","375","1187200","0.0-6.0-5.52","2789375","co39379","norming","","","","","","",""
"2240.3349999999627","","","post_reveal_questions","survey-likert","376","1189443","0.0-6.0-6.52","2789375","co39379","norming","","","{""aha"":1}","[0]","../img/tt/1307tt.jpg","",""
"null","<div style=""font-size:60px;""> </div>","null","fixation","html-keyboard-response","377","1189644","0.0-6.0-0.53","2789375","co39379","norming","","","","","","",""
"null","../img/tt/1279tt.jpg","null","mooney1","image-keyboard-response","378","1192654","0.0-6.0-1.53","2789375","co39379","norming","","","","","","",""
"4555.764999999898","","","post_mooney1_questions","survey-likert","379","1197211","0.0-6.0-2.53","2789375","co39379","norming","","","{""curiosity"":5,""confidence"":0}","[0,1]","../img/tt/1279tt.jpg","",""
"549.8100000000559","","","recognition","survey-text","380","1197763","0.0-6.0-3.53","2789375","co39379","norming","","","{""guess"":""""}","","../img/tt/1279tt.jpg","",""
"null","../img/gs/1279gs.jpg","null","reveal","image-keyboard-response","381","1199769","0.0-6.0-4.53","2789375","co39379","norming","","","","","","",""
"null","../img/tt/1279tt.jpg","null","mooney2","image-keyboard-response","382","1201772","0.0-6.0-5.53","2789375","co39379","norming","","","","","","",""
"1861.1399999998976","","","post_reveal_questions","survey-likert","383","1203635","0.0-6.0-6.53","2789375","co39379","norming","","","{""aha"":2}","[0]","../img/tt/1279tt.jpg","",""
"null","<div style=""font-size:60px;""> </div>","null","fixation","html-keyboard-response","384","1203842","0.0-6.0-0.54","2789375","co39379","norming","","","","","","",""
"null","../img/tt/1161tt.jpg","null","mooney1","image-keyboard-response","385","1206848","0.0-6.0-1.54","2789375","co39379","norming","","","","","","",""
"3432.534999999916","","","post_mooney1_questions","survey-likert","386","1210283","0.0-6.0-2.54","2789375","co39379","norming","","","{""curiosity"":5,""confidence"":1}","[0,1]","../img/tt/1161tt.jpg","",""
"2758.1450000000186","","","recognition","survey-text","387","1213043","0.0-6.0-3.54","2789375","co39379","norming","","","{""guess"":""uil""}","","../img/tt/1161tt.jpg","",""
"null","../img/gs/1161gs.jpg","null","reveal","image-keyboard-response","388","1215052","0.0-6.0-4.54","2789375","co39379","norming","","","","","","",""
"null","../img/tt/1161tt.jpg","null","mooney2","image-keyboard-response","389","1217057","0.0-6.0-5.54","2789375","co39379","norming","","","","","","",""
"2238.850000000093","","","post_reveal_questions","survey-likert","390","1219299","0.0-6.0-6.54","2789375","co39379","norming","","","{""aha"":2}","[0]","../img/tt/1161tt.jpg","",""
"null","<div style=""font-size:60px;""> </div>","null","fixation","html-keyboard-response","391","1219508","0.0-6.0-0.55","2789375","co39379","norming","","","","","","",""
"null","../img/tt/567tt.jpg","null","mooney1","image-keyboard-response","392","1222511","0.0-6.0-1.55","2789375","co39379","norming","","","","","","",""
"4529.304999999935","","","post_mooney1_questions","survey-likert","393","1227040","0.0-6.0-2.55","2789375","co39379","norming","","","{""curiosity"":4,""confidence"":5}","[0,1]","../img/tt/567tt.jpg","",""
"2870.054999999935","","","recognition","survey-text","394","1229912","0.0-6.0-3.55","2789375","co39379","norming","","","{""guess"":""toast""}","","../img/tt/567tt.jpg","",""
"null","../img/gs/567gs.jpg","null","reveal","image-keyboard-response","395","1231920","0.0-6.0-4.55","2789375","co39379","norming","","","","","","",""
"null","../img/tt/567tt.jpg","null","mooney2","image-keyboard-response","396","1233923","0.0-6.0-5.55","2789375","co39379","norming","","","","","","",""
"3770.559999999823","","","post_reveal_questions","survey-likert","397","1237696","0.0-6.0-6.55","2789375","co39379","norming","","","{""aha"":0}","[0]","../img/tt/567tt.jpg","",""
"null","<div style=""font-size:60px;""> </div>","null","fixation","html-keyboard-response","398","1237898","0.0-6.0-0.56","2789375","co39379","norming","","","","","","",""
"null","../img/tt/1363tt.jpg","null","mooney1","image-keyboard-response","399","1240905","0.0-6.0-1.56","2789375","co39379","norming","","","","","","",""
"5492.77500000014","","","post_mooney1_questions","survey-likert","400","1246400","0.0-6.0-2.56","2789375","co39379","norming","","","{""curiosity"":5,""confidence"":1}","[0,1]","../img/tt/1363tt.jpg","",""
"3958.0849999999627","","","recognition","survey-text","401","1250360","0.0-6.0-3.56","2789375","co39379","norming","","","{""guess"":""boot""}","","../img/tt/1363tt.jpg","",""
"null","../img/gs/1363gs.jpg","null","reveal","image-keyboard-response","402","1252371","0.0-6.0-4.56","2789375","co39379","norming","","","","","","",""
"null","../img/tt/1363tt.jpg","null","mooney2","image-keyboard-response","403","1254382","0.0-6.0-5.56","2789375","co39379","norming","","","","","","",""
"4392.030000000028","","","post_reveal_questions","survey-likert","404","1258776","0.0-6.0-6.56","2789375","co39379","norming","","","{""aha"":1}","[0]","../img/tt/1363tt.jpg","",""
"null","<div style=""font-size:60px;""> </div>","null","fixation","html-keyboard-response","405","1258985","0.0-6.0-0.57","2789375","co39379","norming","","","","","","",""
"null","../img/tt/084tt.jpg","null","mooney1","image-keyboard-response","406","1261989","0.0-6.0-1.57","2789375","co39379","norming","","","","","","",""
"3720.4600000001956","","","post_mooney1_questions","survey-likert","407","1265713","0.0-6.0-2.57","2789375","co39379","norming","","","{""curiosity"":4,""confidence"":4}","[0,1]","../img/tt/084tt.jpg","",""
"3126.2000000001863","","","recognition","survey-text","408","1268840","0.0-6.0-3.57","2789375","co39379","norming","","","{""guess"":""pauw""}","","../img/tt/084tt.jpg","",""
"null","../img/gs/084gs.jpg","null","reveal","image-keyboard-response","409","1270846","0.0-6.0-4.57","2789375","co39379","norming","","","","","","",""
"null","../img/tt/084tt.jpg","null","mooney2","image-keyboard-response","410","1272854","0.0-6.0-5.57","2789375","co39379","norming","","","","","","",""
"1431.9000000001397","","","post_reveal_questions","survey-likert","411","1274288","0.0-6.0-6.57","2789375","co39379","norming","","","{""aha"":3}","[0]","../img/tt/084tt.jpg","",""
"null","<div style=""font-size:60px;""> </div>","null","fixation","html-keyboard-response","412","1274494","0.0-6.0-0.58","2789375","co39379","norming","","","","","","",""
"null","../img/tt/1268tt.jpg","null","mooney1","image-keyboard-response","413","1277502","0.0-6.0-1.58","2789375","co39379","norming","","","","","","",""
"2839.2299999999814","","","post_mooney1_questions","survey-likert","414","1280344","0.0-6.0-2.58","2789375","co39379","norming","","","{""curiosity"":5,""confidence"":0}","[0,1]","../img/tt/1268tt.jpg","",""
"757.9600000001956","","","recognition","survey-text","415","1281104","0.0-6.0-3.58","2789375","co39379","norming","","","{""guess"":""""}","","../img/tt/1268tt.jpg","",""
"null","../img/gs/1268gs.jpg","null","reveal","image-keyboard-response","416","1283111","0.0-6.0-4.58","2789375","co39379","norming","","","","","","",""
"null","../img/tt/1268tt.jpg","null","mooney2","image-keyboard-response","417","1285120","0.0-6.0-5.58","2789375","co39379","norming","","","","","","",""
"1629.7549999998882","","","post_reveal_questions","survey-likert","418","1286760","0.0-6.0-6.58","2789375","co39379","norming","","","{""aha"":4}","[0]","../img/tt/1268tt.jpg","",""
"null","<div style=""font-size:60px;""> </div>","null","fixation","html-keyboard-response","419","1286967","0.0-6.0-0.59","2789375","co39379","norming","","","","","","",""
"null","../img/tt/1096tt.jpg","null","mooney1","image-keyboard-response","420","1289973","0.0-6.0-1.59","2789375","co39379","norming","","","","","","",""
"4145.85999999987","","","post_mooney1_questions","survey-likert","421","1294120","0.0-6.0-2.59","2789375","co39379","norming","","","{""curiosity"":5,""confidence"":2}","[0,1]","../img/tt/1096tt.jpg","",""
"2133.9799999999814","","","recognition","survey-text","422","1296255","0.0-6.0-3.59","2789375","co39379","norming","","","{""guess"":""koala""}","","../img/tt/1096tt.jpg","",""
"null","../img/gs/1096gs.jpg","null","reveal","image-keyboard-response","423","1298261","0.0-6.0-4.59","2789375","co39379","norming","","","","","","",""
"null","../img/tt/1096tt.jpg","null","mooney2","image-keyboard-response","424","1300264","0.0-6.0-5.59","2789375","co39379","norming","","","","","","",""
"1972.125","","","post_reveal_questions","survey-likert","425","1302239","0.0-6.0-6.59","2789375","co39379","norming","","","{""aha"":2}","[0]","../img/tt/1096tt.jpg","",""
"null","<div style=""font-size:60px;""> </div>","null","fixation","html-keyboard-response","426","1302442","0.0-6.0-0.60","2789375","co39379","norming","","","","","","",""
"null","../img/tt/049tt.jpg","null","mooney1","image-keyboard-response","427","1305446","0.0-6.0-1.60","2789375","co39379","norming","","","","","","",""
"3629.940000000177","","","post_mooney1_questions","survey-likert","428","1309080","0.0-6.0-2.60","2789375","co39379","norming","","","{""curiosity"":5,""confidence"":1}","[0,1]","../img/tt/049tt.jpg","",""
"8757.84499999974","","","recognition","survey-text","429","1317839","0.0-6.0-3.60","2789375","co39379","norming","","","{""guess"":""flamingo""}","","../img/tt/049tt.jpg","",""
"null","../img/gs/049gs.jpg","null","reveal","image-keyboard-response","430","1319844","0.0-6.0-4.60","2789375","co39379","norming","","","","","","",""
"null","../img/tt/049tt.jpg","null","mooney2","image-keyboard-response","431","1321847","0.0-6.0-5.60","2789375","co39379","norming","","","","","","",""
"1381.79000000027","","","post_reveal_questions","survey-likert","432","1323231","0.0-6.0-6.60","2789375","co39379","norming","","","{""aha"":2}","[0]","../img/tt/049tt.jpg","",""
"null","<div style=""font-size:60px;""> </div>","null","fixation","html-keyboard-response","433","1323438","0.0-6.0-0.61","2789375","co39379","norming","","","","","","",""
"null","../img/tt/1146tt.jpg","null","mooney1","image-keyboard-response","434","1326444","0.0-6.0-1.61","2789375","co39379","norming","","","","","","",""
"3624.5099999997765","","","post_mooney1_questions","survey-likert","435","1330072","0.0-6.0-2.61","2789375","co39379","norming","","","{""curiosity"":5,""confidence"":0}","[0,1]","../img/tt/1146tt.jpg","",""
"605.9549999998417","","","recognition","survey-text","436","1330679","0.0-6.0-3.61","2789375","co39379","norming","","","{""guess"":""""}","","../img/tt/1146tt.jpg","",""
"null","../img/gs/1146gs.jpg","null","reveal","image-keyboard-response","437","1332688","0.0-6.0-4.61","2789375","co39379","norming","","","","","","",""
"null","../img/tt/1146tt.jpg","null","mooney2","image-keyboard-response","438","1334689","0.0-6.0-5.61","2789375","co39379","norming","","","","","","",""
"1397.0749999999534","","","post_reveal_questions","survey-likert","439","1336087","0.0-6.0-6.61","2789375","co39379","norming","","","{""aha"":4}","[0]","../img/tt/1146tt.jpg","",""
"null","<div style=""font-size:60px;""> </div>","null","fixation","html-keyboard-response","440","1336292","0.0-6.0-0.62","2789375","co39379","norming","","","","","","",""
"null","../img/tt/1046tt.jpg","null","mooney1","image-keyboard-response","441","1339297","0.0-6.0-1.62","2789375","co39379","norming","","","","","","",""
"4146.85999999987","","","post_mooney1_questions","survey-likert","442","1343448","0.0-6.0-2.62","2789375","co39379","norming","","","{""curiosity"":5,""confidence"":0}","[0,1]","../img/tt/1046tt.jpg","",""
"758.0800000000745","","","recognition","survey-text","443","1344207","0.0-6.0-3.62","2789375","co39379","norming","","","{""guess"":""""}","","../img/tt/1046tt.jpg","",""
"null","../img/gs/1046gs.jpg","null","reveal","image-keyboard-response","444","1346214","0.0-6.0-4.62","2789375","co39379","norming","","","","","","",""
"null","../img/tt/1046tt.jpg","null","mooney2","image-keyboard-response","445","1348216","0.0-6.0-5.62","2789375","co39379","norming","","","","","","",""
"1758.0900000000838","","","post_reveal_questions","survey-likert","446","1349976","0.0-6.0-6.62","2789375","co39379","norming","","","{""aha"":1}","[0]","../img/tt/1046tt.jpg","",""
"null","<div style=""font-size:60px;""> </div>","null","fixation","html-keyboard-response","447","1350183","0.0-6.0-0.63","2789375","co39379","norming","","","","","","",""
"null","../img/tt/1202tt.jpg","null","mooney1","image-keyboard-response","448","1353191","0.0-6.0-1.63","2789375","co39379","norming","","","","","","",""
"4119.854999999981","","","post_mooney1_questions","survey-likert","449","1357312","0.0-6.0-2.63","2789375","co39379","norming","","","{""curiosity"":5,""confidence"":0}","[0,1]","../img/tt/1202tt.jpg","",""
"870.0500000000466","","","recognition","survey-text","450","1358184","0.0-6.0-3.63","2789375","co39379","norming","","","{""guess"":""""}","","../img/tt/1202tt.jpg","",""
"null","../img/gs/1202gs.jpg","null","reveal","image-keyboard-response","451","1360191","0.0-6.0-4.63","2789375","co39379","norming","","","","","","",""
"null","../img/tt/1202tt.jpg","null","mooney2","image-keyboard-response","452","1362193","0.0-6.0-5.63","2789375","co39379","norming","","","","","","",""
"2459.4500000001863","","","post_reveal_questions","survey-likert","453","1364656","0.0-6.0-6.63","2789375","co39379","norming","","","{""aha"":1}","[0]","../img/tt/1202tt.jpg","",""
"null","<div style=""font-size:60px;""> </div>","null","fixation","html-keyboard-response","454","1364861","0.0-6.0-0.64","2789375","co39379","norming","","","","","","",""
"null","../img/tt/580tt.jpg","null","mooney1","image-keyboard-response","455","1367866","0.0-6.0-1.64","2789375","co39379","norming","","","","","","",""
"2964.1450000002515","","","post_mooney1_questions","survey-likert","456","1370832","0.0-6.0-2.64","2789375","co39379","norming","","","{""curiosity"":5,""confidence"":0}","[0,1]","../img/tt/580tt.jpg","",""
"750.1650000002701","","","recognition","survey-text","457","1371584","0.0-6.0-3.64","2789375","co39379","norming","","","{""guess"":""""}","","../img/tt/580tt.jpg","",""
"null","../img/gs/580gs.jpg","null","reveal","image-keyboard-response","458","1373589","0.0-6.0-4.64","2789375","co39379","norming","","","","","","",""
"null","../img/tt/580tt.jpg","null","mooney2","image-keyboard-response","459","1375593","0.0-6.0-5.64","2789375","co39379","norming","","","","","","",""
"1659.8300000000745","","","post_reveal_questions","survey-likert","460","1377256","0.0-6.0-6.64","2789375","co39379","norming","","","{""aha"":4}","[0]","../img/tt/580tt.jpg","",""
"null","<div style=""font-size:60px;""> </div>","null","fixation","html-keyboard-response","461","1377460","0.0-6.0-0.65","2789375","co39379","norming","","","","","","",""
"null","../img/tt/1126tt.jpg","null","mooney1","image-keyboard-response","462","1380464","0.0-6.0-1.65","2789375","co39379","norming","","","","","","",""
"5197.425000000047","","","post_mooney1_questions","survey-likert","463","1385664","0.0-6.0-2.65","2789375","co39379","norming","","","{""curiosity"":5,""confidence"":0}","[0,1]","../img/tt/1126tt.jpg","",""
"861.6750000000466","","","recognition","survey-text","464","1386527","0.0-6.0-3.65","2789375","co39379","norming","","","{""guess"":""""}","","../img/tt/1126tt.jpg","",""
"null","../img/gs/1126gs.jpg","null","reveal","image-keyboard-response","465","1388530","0.0-6.0-4.65","2789375","co39379","norming","","","","","","",""
"null","../img/tt/1126tt.jpg","null","mooney2","image-keyboard-response","466","1390532","0.0-6.0-5.65","2789375","co39379","norming","","","","","","",""
"2905.8549999999814","","","post_reveal_questions","survey-likert","467","1393440","0.0-6.0-6.65","2789375","co39379","norming","","","{""aha"":1}","[0]","../img/tt/1126tt.jpg","",""
"null","<div style=""font-size:60px;""> </div>","null","fixation","html-keyboard-response","468","1393642","0.0-6.0-0.66","2789375","co39379","norming","","","","","","",""
"null","../img/tt/1290tt.jpg","null","mooney1","image-keyboard-response","469","1396646","0.0-6.0-1.66","2789375","co39379","norming","","","","","","",""
"3057.2549999998882","","","post_mooney1_questions","survey-likert","470","1399704","0.0-6.0-2.66","2789375","co39379","norming","","","{""curiosity"":5,""confidence"":1}","[0,1]","../img/tt/1290tt.jpg","",""
"4445.9199999999255","","","recognition","survey-text","471","1404152","0.0-6.0-3.66","2789375","co39379","norming","","","{""guess"":""bloem""}","","../img/tt/1290tt.jpg","",""
"null","../img/gs/1290gs.jpg","null","reveal","image-keyboard-response","472","1406161","0.0-6.0-4.66","2789375","co39379","norming","","","","","","",""
"null","../img/tt/1290tt.jpg","null","mooney2","image-keyboard-response","473","1408172","0.0-6.0-5.66","2789375","co39379","norming","","","","","","",""
"4554.26500000013","","","post_reveal_questions","survey-likert","474","1412719","0.0-6.0-6.66","2789375","co39379","norming","","","{""aha"":3}","[0]","../img/tt/1290tt.jpg","",""
"null","<div style=""font-size:60px;""> </div>","null","fixation","html-keyboard-response","475","1412925","0.0-6.0-0.67","2789375","co39379","norming","","","","","","",""
"null","../img/tt/1173tt.jpg","null","mooney1","image-keyboard-response","476","1415936","0.0-6.0-1.67","2789375","co39379","norming","","","","","","",""
"4580.2700000002515","","","post_mooney1_questions","survey-likert","477","1420519","0.0-6.0-2.67","2789375","co39379","norming","","","{""curiosity"":5,""confidence"":2}","[0,1]","../img/tt/1173tt.jpg","",""
"3294.0500000000466","","","recognition","survey-text","478","1423815","0.0-6.0-3.67","2789375","co39379","norming","","","{""guess"":""sporter""}","","../img/tt/1173tt.jpg","",""
"null","../img/gs/1173gs.jpg","null","reveal","image-keyboard-response","479","1425819","0.0-6.0-4.67","2789375","co39379","norming","","","","","","",""
"null","../img/tt/1173tt.jpg","null","mooney2","image-keyboard-response","480","1427824","0.0-6.0-5.67","2789375","co39379","norming","","","","","","",""
"2308.255000000121","","","post_reveal_questions","survey-likert","481","1430135","0.0-6.0-6.67","2789375","co39379","norming","","","{""aha"":4}","[0]","../img/tt/1173tt.jpg","",""
"null","<div style=""font-size:60px;""> </div>","null","fixation","html-keyboard-response","482","1430345","0.0-6.0-0.68","2789375","co39379","norming","","","","","","",""
"null","../img/tt/1224tt.jpg","null","mooney1","image-keyboard-response","483","1433349","0.0-6.0-1.68","2789375","co39379","norming","","","","","","",""
"2993.064999999944","","","post_mooney1_questions","survey-likert","484","1436343","0.0-6.0-2.68","2789375","co39379","norming","","","{""curiosity"":5,""confidence"":2}","[0,1]","../img/tt/1224tt.jpg","",""
"3981.810000000056","","","recognition","survey-text","485","1440327","0.0-6.0-3.68","2789375","co39379","norming","","","{""guess"":""basketballer""}","","../img/tt/1224tt.jpg","",""
"null","../img/gs/1224gs.jpg","null","reveal","image-keyboard-response","486","1442330","0.0-6.0-4.68","2789375","co39379","norming","","","","","","",""
"null","../img/tt/1224tt.jpg","null","mooney2","image-keyboard-response","487","1444337","0.0-6.0-5.68","2789375","co39379","norming","","","","","","",""
"1731.8549999999814","","","post_reveal_questions","survey-likert","488","1446071","0.0-6.0-6.68","2789375","co39379","norming","","","{""aha"":0}","[0]","../img/tt/1224tt.jpg","",""
"null","<div style=""font-size:60px;""> </div>","null","fixation","html-keyboard-response","489","1446272","0.0-6.0-0.69","2789375","co39379","norming","","","","","","",""
"null","../img/tt/1040tt.jpg","null","mooney1","image-keyboard-response","490","1449283","0.0-6.0-1.69","2789375","co39379","norming","","","","","","",""
"4816.619999999879","","","post_mooney1_questions","survey-likert","491","1454103","0.0-6.0-2.69","2789375","co39379","norming","","","{""curiosity"":5,""confidence"":1}","[0,1]","../img/tt/1040tt.jpg","",""
"3757.9600000001956","","","recognition","survey-text","492","1457863","0.0-6.0-3.69","2789375","co39379","norming","","","{""guess"":""bergklimmer""}","","../img/tt/1040tt.jpg","",""
"null","../img/gs/1040gs.jpg","null","reveal","image-keyboard-response","493","1459869","0.0-6.0-4.69","2789375","co39379","norming","","","","","","",""
"null","../img/tt/1040tt.jpg","null","mooney2","image-keyboard-response","494","1461872","0.0-6.0-5.69","2789375","co39379","norming","","","","","","",""
"2292.7100000001956","","","post_reveal_questions","survey-likert","495","1464167","0.0-6.0-6.69","2789375","co39379","norming","","","{""aha"":4}","[0]","../img/tt/1040tt.jpg","",""
"null","<div style=""font-size:60px;""> </div>","null","fixation","html-keyboard-response","496","1464369","0.0-6.0-0.70","2789375","co39379","norming","","","","","","",""
"null","../img/tt/406tt.jpg","null","mooney1","image-keyboard-response","497","1467380","0.0-6.0-1.70","2789375","co39379","norming","","","","","","",""
"2959.7600000000093","","","post_mooney1_questions","survey-likert","498","1470343","0.0-6.0-2.70","2789375","co39379","norming","","","{""curiosity"":5,""confidence"":0}","[0,1]","../img/tt/406tt.jpg","",""
"805.8699999998789","","","recognition","survey-text","499","1471152","0.0-6.0-3.70","2789375","co39379","norming","","","{""guess"":""""}","","../img/tt/406tt.jpg","",""
"null","../img/gs/406gs.jpg","null","reveal","image-keyboard-response","500","1473160","0.0-6.0-4.70","2789375","co39379","norming","","","","","","",""
"null","../img/tt/406tt.jpg","null","mooney2","image-keyboard-response","501","1475162","0.0-6.0-5.70","2789375","co39379","norming","","","","","","",""
"2195.5200000000186","","","post_reveal_questions","survey-likert","502","1477360","0.0-6.0-6.70","2789375","co39379","norming","","","{""aha"":2}","[0]","../img/tt/406tt.jpg","",""
"null","<div style=""font-size:60px;""> </div>","null","fixation","html-keyboard-response","503","1477562","0.0-6.0-0.71","2789375","co39379","norming","","","","","","",""
"null","../img/tt/1226tt.jpg","null","mooney1","image-keyboard-response","504","1480567","0.0-6.0-1.71","2789375","co39379","norming","","","","","","",""
"2934.2349999998696","","","post_mooney1_questions","survey-likert","505","1483504","0.0-6.0-2.71","2789375","co39379","norming","","","{""curiosity"":5,""confidence"":0}","[0,1]","../img/tt/1226tt.jpg","",""
"982.0400000000373","","","recognition","survey-text","506","1484488","0.0-6.0-3.71","2789375","co39379","norming","","","{""guess"":""""}","","../img/tt/1226tt.jpg","",""
"null","../img/gs/1226gs.jpg","null","reveal","image-keyboard-response","507","1486491","0.0-6.0-4.71","2789375","co39379","norming","","","","","","",""
"null","../img/tt/1226tt.jpg","null","mooney2","image-keyboard-response","508","1488494","0.0-6.0-5.71","2789375","co39379","norming","","","","","","",""
"2464.070000000065","","","post_reveal_questions","survey-likert","509","1490960","0.0-6.0-6.71","2789375","co39379","norming","","","{""aha"":2}","[0]","../img/tt/1226tt.jpg","",""
"null","<div style=""font-size:60px;""> </div>","null","fixation","html-keyboard-response","510","1491164","0.0-6.0-0.72","2789375","co39379","norming","","","","","","",""
"null","../img/tt/1102tt.jpg","null","mooney1","image-keyboard-response","511","1494169","0.0-6.0-1.72","2789375","co39379","norming","","","","","","",""
"2915.119999999879","","","post_mooney1_questions","survey-likert","512","1497088","0.0-6.0-2.72","2789375","co39379","norming","","","{""curiosity"":5,""confidence"":0}","[0,1]","../img/tt/1102tt.jpg","",""
"910.25","","","recognition","survey-text","513","1498000","0.0-6.0-3.72","2789375","co39379","norming","","","{""guess"":""""}","","../img/tt/1102tt.jpg","",""
"null","../img/gs/1102gs.jpg","null","reveal","image-keyboard-response","514","1500011","0.0-6.0-4.72","2789375","co39379","norming","","","","","","",""
"null","../img/tt/1102tt.jpg","null","mooney2","image-keyboard-response","515","1502013","0.0-6.0-5.72","2789375","co39379","norming","","","","","","",""
"1360.3000000000466","","","post_reveal_questions","survey-likert","516","1503376","0.0-6.0-6.72","2789375","co39379","norming","","","{""aha"":1}","[0]","../img/tt/1102tt.jpg","",""
"null","<div style=""font-size:60px;""> </div>","null","fixation","html-keyboard-response","517","1503582","0.0-6.0-0.73","2789375","co39379","norming","","","","","","",""
"null","../img/tt/318tt.jpg","null","mooney1","image-keyboard-response","518","1506585","0.0-6.0-1.73","2789375","co39379","norming","","","","","","",""
"7203.909999999916","","","post_mooney1_questions","survey-likert","519","1513792","0.0-6.0-2.73","2789375","co39379","norming","","","{""curiosity"":5,""confidence"":1}","[0,1]","../img/tt/318tt.jpg","",""
"4694.040000000037","","","recognition","survey-text","520","1518488","0.0-6.0-3.73","2789375","co39379","norming","","","{""guess"":""binnenkant auto""}","","../img/tt/318tt.jpg","",""
"null","../img/gs/318gs.jpg","null","reveal","image-keyboard-response","521","1520498","0.0-6.0-4.73","2789375","co39379","norming","","","","","","",""
"null","../img/tt/318tt.jpg","null","mooney2","image-keyboard-response","522","1522509","0.0-6.0-5.73","2789375","co39379","norming","","","","","","",""
"3670.934999999823","","","post_reveal_questions","survey-likert","523","1526184","0.0-6.0-6.73","2789375","co39379","norming","","","{""aha"":0}","[0]","../img/tt/318tt.jpg","",""
"null","<div style=""font-size:60px;""> </div>","null","fixation","html-keyboard-response","524","1526387","0.0-6.0-0.74","2789375","co39379","norming","","","","","","",""
"null","../img/tt/1362tt.jpg","null","mooney1","image-keyboard-response","525","1529392","0.0-6.0-1.74","2789375","co39379","norming","","","","","","",""
"3717.725000000093","","","post_mooney1_questions","survey-likert","526","1533119","0.0-6.0-2.74","2789375","co39379","norming","","","{""curiosity"":5,""confidence"":1}","[0,1]","../img/tt/1362tt.jpg","",""
"3116.4899999999907","","","recognition","survey-text","527","1536237","0.0-6.0-3.74","2789375","co39379","norming","","","{""guess"":""vuur""}","","../img/tt/1362tt.jpg","",""
"null","../img/gs/1362gs.jpg","null","reveal","image-keyboard-response","528","1538240","0.0-6.0-4.74","2789375","co39379","norming","","","","","","",""
"null","../img/tt/1362tt.jpg","null","mooney2","image-keyboard-response","529","1540246","0.0-6.0-5.74","2789375","co39379","norming","","","","","","",""
"3028.105000000214","","","post_reveal_questions","survey-likert","530","1543277","0.0-6.0-6.74","2789375","co39379","norming","","","{""aha"":0}","[0]","../img/tt/1362tt.jpg","",""
"null","<div style=""font-size:60px;""> </div>","null","fixation","html-keyboard-response","531","1543480","0.0-6.0-0.75","2789375","co39379","norming","","","","","","",""
"null","../img/tt/1033tt.jpg","null","mooney1","image-keyboard-response","532","1546484","0.0-6.0-1.75","2789375","co39379","norming","","","","","","",""
"3285.940000000177","","","post_mooney1_questions","survey-likert","533","1549773","0.0-6.0-2.75","2789375","co39379","norming","","","{""curiosity"":5,""confidence"":2}","[0,1]","../img/tt/1033tt.jpg","",""
"3326.3249999999534","","","recognition","survey-text","534","1553101","0.0-6.0-3.75","2789375","co39379","norming","","","{""guess"":""hockey""}","","../img/tt/1033tt.jpg","",""
"null","../img/gs/1033gs.jpg","null","reveal","image-keyboard-response","535","1555105","0.0-6.0-4.75","2789375","co39379","norming","","","","","","",""
"null","../img/tt/1033tt.jpg","null","mooney2","image-keyboard-response","536","1557107","0.0-6.0-5.75","2789375","co39379","norming","","","","","","",""
"1647.344999999972","","","post_reveal_questions","survey-likert","537","1558757","0.0-6.0-6.75","2789375","co39379","norming","","","{""aha"":4}","[0]","../img/tt/1033tt.jpg","",""
"null","<div style=""font-size:60px;""> </div>","null","fixation","html-keyboard-response","538","1558967","0.0-6.0-0.76","2789375","co39379","norming","","","","","","",""
"null","../img/tt/1012tt.jpg","null","mooney1","image-keyboard-response","539","1561976","0.0-6.0-1.76","2789375","co39379","norming","","","","","","",""
"2842.1350000000093","","","post_mooney1_questions","survey-likert","540","1564821","0.0-6.0-2.76","2789375","co39379","norming","","","{""curiosity"":5,""confidence"":0}","[0,1]","../img/tt/1012tt.jpg","",""
"1037.8600000001024","","","recognition","survey-text","541","1565861","0.0-6.0-3.76","2789375","co39379","norming","","","{""guess"":""""}","","../img/tt/1012tt.jpg","",""
"null","../img/gs/1012gs.jpg","null","reveal","image-keyboard-response","542","1567871","0.0-6.0-4.76","2789375","co39379","norming","","","","","","",""
"null","../img/tt/1012tt.jpg","null","mooney2","image-keyboard-response","543","1569876","0.0-6.0-5.76","2789375","co39379","norming","","","","","","",""
"1590.5199999997858","","","post_reveal_questions","survey-likert","544","1571469","0.0-6.0-6.76","2789375","co39379","norming","","","{""aha"":1}","[0]","../img/tt/1012tt.jpg","",""
"null","<div style=""font-size:60px;""> </div>","null","fixation","html-keyboard-response","545","1571670","0.0-6.0-0.77","2789375","co39379","norming","","","","","","",""
"null","../img/tt/078tt.jpg","null","mooney1","image-keyboard-response","546","1574681","0.0-6.0-1.77","2789375","co39379","norming","","","","","","",""
"3258.9199999999255","","","post_mooney1_questions","survey-likert","547","1577941","0.0-6.0-2.77","2789375","co39379","norming","","","{""curiosity"":5,""confidence"":0}","[0,1]","../img/tt/078tt.jpg","",""
"1198.0100000000093","","","recognition","survey-text","548","1579141","0.0-6.0-3.77","2789375","co39379","norming","","","{""guess"":""""}","","../img/tt/078tt.jpg","",""
"null","../img/gs/078gs.jpg","null","reveal","image-keyboard-response","549","1581144","0.0-6.0-4.77","2789375","co39379","norming","","","","","","",""
"null","../img/tt/078tt.jpg","null","mooney2","image-keyboard-response","550","1583146","0.0-6.0-5.77","2789375","co39379","norming","","","","","","",""
"1248.279999999795","","","post_reveal_questions","survey-likert","551","1584397","0.0-6.0-6.77","2789375","co39379","norming","","","{""aha"":2}","[0]","../img/tt/078tt.jpg","",""
"null","<div style=""font-size:60px;""> </div>","null","fixation","html-keyboard-response","552","1584599","0.0-6.0-0.78","2789375","co39379","norming","","","","","","",""
"null","../img/tt/1055tt.jpg","null","mooney1","image-keyboard-response","553","1587604","0.0-6.0-1.78","2789375","co39379","norming","","","","","","",""
