"rt","stimulus","key_press","test_part","trial_type","trial_index","time_elapsed","internal_node_id","totalTime","subject","experiment_name","button_pressed","success","responses","question_order","currentStim","old","correct"
"5222.784999999931","Welcome to the experiment. This is an online experiment so please don't close the tab/window until we say goodbye.  Press any key to begin.","32","instructions","html-keyboard-response","0","5277","0.0-0.0","2557399","co39508","norming","","","","","","",""
"28737.215000000106","<div style='word-wrap: break-word; width: 900px'><h3>Please consider this information carefully before deciding whether to participate in this research</h3><ul style='text-align: left; font-size: .8em;'><li><b>Purpose of the research</b>: To examine how people process images.</li><li><b>What you will do in this research</b>:  Stimuli (images) will be presented on the computer and you will be asked different questions about them.</li><li><b>Time required</b>: Participation will take between 45 and 60 minutes to complete.</li><li><b>Risks</b>:  There are no anticipated risks associated with participating in this study. The effects of participating should be comparable to those you would experience from viewing a computer monitor for 30 minutes and using a mouse or keyboard.</li><li><b>Benefits</b>:  This study provides no benefits to you individually except for the credit. The study provides important information about the nature of perception and learning.</li><li><b>Confidentiality</b>:  Your participation in this study will remain confidential. No personally identifiable information will be associated with your data. Your de-identified data may be shared with other researchers and used in future projects.</li><li><b>Participation and withdrawal</b>:  Your participation in this study is completely voluntary and you may refuse to participate or you may choose to withdraw at any time without penalty.</li><li><b>How to contact the researchers</b>: If you have questions or concerns about your participation or payment, or want to request a summary of research findings, please contact Sander Van de Cruys (KU Leuven), at sander.vandecruys@kuleuven.be.</li></ul><p>The nature and purpose of this research have been sufficiently explained and I agree to participate in this study.  I understand that I am free to withdraw at any time without incurring any penalty.</p><p>Please consent by clicking the button below to continue. Otherwise, please exit the study at this time.</p></div>","","instructions","html-button-response","1","34014","0.0-1.0","2557399","co39508","norming","0","","","","","",""
"","","","instructions","fullscreen","2","42416","0.0-2.0","2557399","co39508","norming","","true","","","","",""
"39658.474999999955","","","sona","survey-html-form","3","82078","0.0-3.0","2557399","co39508","norming","","","[{""name"":""sonaid"",""value"":""39508""},{""name"":""debrief"",""value"":""yes""},{""name"":""datajoin"",""value"":""yes""}]","","","",""
"67782.30499999996","<div style='word-wrap: break-word; width: 900px'><h3>Instructions</h3><p>This experiment will have 3 parts. In the first part you will see a series of distorted images like the one below on the left. As you can see in the righthand image, the distorted images are derived from actual photographs. In what follows, you will <strong>briefly</strong> be presented with <strong>only</strong> the distorted image.</p> <div style='float: left; margin-right: 20px;'><img src='../img/018tt.jpg' height='250' width='250'></img></div><div style='float: right; margin-left: 20px;'><img src='../img/018gs.jpg' height='250' width='250'></img></div><p>Subsequently you will be asked a few questions about the image: One question on how <strong>curious</strong> you are about the solution and one on how <strong>confident</strong> you are that you know the solution.</p>Next, we ask you to make a guess on what is in the image. Note that it is OK to name just the <strong>basic level category</strong>. For example when you see a parrot in the image, 'parrot' will obviously be a correct answer but also correct is 'bird'. However, 'animal' will <strong>not</strong> be counted as a correct response. For the example above, 'rose' would be correct or 'flower', but not 'plant'. When soccer players are depicted, 'soccer', 'football', 'soccer players' will be correct, but not 'humans', 'outdoors', or 'sports'. You do not need to describe the image in full, just name the main object in it <strong>in one or two words</strong>. All images depict objects from one of the following broad level categories: animals, inanimate objects, plants, sports, vehicles, and food. Recognizing means knowing <strong>more</strong> than these broad labels for a given image. But we always encourage you to <strong>make a guess</strong> if you can. Note that you are allowed to use <strong>Dutch and English</strong> in your answers, whatever comes easiest for you.</p><p>Press any key to continue.</p></div>","32","instructions","html-keyboard-response","4","149861","0.0-4.0","2557399","co39508","norming","","","","","","",""
"29154.179999999993","<div style='word-wrap: break-word; width: 900px'><h3>Instructions</h3> <p>Next, the solution image will be revealed to you and you'll be asked to indicate how strong your <strong>aha-experience</strong> was after seeing the solution. This describes the positive feeling of the 'click' you sometimes experience, when the pieces of the 'puzzle' fall together and you suddenly have 'insight' in the image.</p><img src='aha.jpg' height='188' width='250'></img><p>Note that there are no right or wrong answers. We are interested in what <strong>you</strong> see in the image and how <strong>you</strong> feel about it.</p><p>Press any key to start the experiment.</p></div>","32","instructions","html-keyboard-response","5","179016","0.0-5.0","2557399","co39508","norming","","","","","","",""
"null","<div style=""font-size:60px;""> </div>","null","fixation","html-keyboard-response","6","179221","0.0-6.0-0.0","2557399","co39508","norming","","","","","","",""
"null","../img/tt/1283tt.jpg","null","mooney1","image-keyboard-response","7","182226","0.0-6.0-1.0","2557399","co39508","norming","","","","","","",""
"10866.455000000104","","","post_mooney1_questions","survey-likert","8","193094","0.0-6.0-2.0","2557399","co39508","norming","","","{""curiosity"":5,""confidence"":0}","[0,1]","../img/tt/1283tt.jpg","",""
"3381.560000000027","","","recognition","survey-text","9","196478","0.0-6.0-3.0","2557399","co39508","norming","","","{""guess"":""""}","","../img/tt/1283tt.jpg","",""
"null","../img/gs/1283gs.jpg","null","reveal","image-keyboard-response","10","198486","0.0-6.0-4.0","2557399","co39508","norming","","","","","","",""
"null","../img/tt/1283tt.jpg","null","mooney2","image-keyboard-response","11","200488","0.0-6.0-5.0","2557399","co39508","norming","","","","","","",""
"6651.515000000014","","","post_reveal_questions","survey-likert","12","207142","0.0-6.0-6.0","2557399","co39508","norming","","","{""aha"":2}","[0]","../img/tt/1283tt.jpg","",""
"null","<div style=""font-size:60px;""> </div>","null","fixation","html-keyboard-response","13","207345","0.0-6.0-0.1","2557399","co39508","norming","","","","","","",""
"null","../img/tt/1278tt.jpg","null","mooney1","image-keyboard-response","14","210357","0.0-6.0-1.1","2557399","co39508","norming","","","","","","",""
"4880.919999999838","","","post_mooney1_questions","survey-likert","15","215239","0.0-6.0-2.1","2557399","co39508","norming","","","{""curiosity"":5,""confidence"":2}","[0,1]","../img/tt/1278tt.jpg","",""
"1654.130000000121","","","recognition","survey-text","16","216895","0.0-6.0-3.1","2557399","co39508","norming","","","{""guess"":""man""}","","../img/tt/1278tt.jpg","",""
"null","../img/gs/1278gs.jpg","null","reveal","image-keyboard-response","17","218896","0.0-6.0-4.1","2557399","co39508","norming","","","","","","",""
"null","../img/tt/1278tt.jpg","null","mooney2","image-keyboard-response","18","220898","0.0-6.0-5.1","2557399","co39508","norming","","","","","","",""
"3122.4700000000303","","","post_reveal_questions","survey-likert","19","224022","0.0-6.0-6.1","2557399","co39508","norming","","","{""aha"":5}","[0]","../img/tt/1278tt.jpg","",""
"null","<div style=""font-size:60px;""> </div>","null","fixation","html-keyboard-response","20","224230","0.0-6.0-0.2","2557399","co39508","norming","","","","","","",""
"null","../img/tt/1107tt.jpg","null","mooney1","image-keyboard-response","21","227236","0.0-6.0-1.2","2557399","co39508","norming","","","","","","",""
"4136.134999999951","","","post_mooney1_questions","survey-likert","22","231375","0.0-6.0-2.2","2557399","co39508","norming","","","{""curiosity"":5,""confidence"":0}","[0,1]","../img/tt/1107tt.jpg","",""
"3022.075000000099","","","recognition","survey-text","23","234398","0.0-6.0-3.2","2557399","co39508","norming","","","{""guess"":""vase""}","","../img/tt/1107tt.jpg","",""
"null","../img/gs/1107gs.jpg","null","reveal","image-keyboard-response","24","236404","0.0-6.0-4.2","2557399","co39508","norming","","","","","","",""
"null","../img/tt/1107tt.jpg","null","mooney2","image-keyboard-response","25","238416","0.0-6.0-5.2","2557399","co39508","norming","","","","","","",""
"3124.9050000001444","","","post_reveal_questions","survey-likert","26","241542","0.0-6.0-6.2","2557399","co39508","norming","","","{""aha"":3}","[0]","../img/tt/1107tt.jpg","",""
"null","<div style=""font-size:60px;""> </div>","null","fixation","html-keyboard-response","27","241745","0.0-6.0-0.3","2557399","co39508","norming","","","","","","",""
"null","../img/tt/189tt.jpg","null","mooney1","image-keyboard-response","28","244752","0.0-6.0-1.3","2557399","co39508","norming","","","","","","",""
"5563.2949999999255","","","post_mooney1_questions","survey-likert","29","250318","0.0-6.0-2.3","2557399","co39508","norming","","","{""curiosity"":6,""confidence"":1}","[0,1]","../img/tt/189tt.jpg","",""
"3102.4700000000303","","","recognition","survey-text","30","253422","0.0-6.0-3.3","2557399","co39508","norming","","","{""guess"":""skier""}","","../img/tt/189tt.jpg","",""
"null","../img/gs/189gs.jpg","null","reveal","image-keyboard-response","31","255428","0.0-6.0-4.3","2557399","co39508","norming","","","","","","",""
"null","../img/tt/189tt.jpg","null","mooney2","image-keyboard-response","32","257430","0.0-6.0-5.3","2557399","co39508","norming","","","","","","",""
"2645.4650000000547","","","post_reveal_questions","survey-likert","33","260078","0.0-6.0-6.3","2557399","co39508","norming","","","{""aha"":1}","[0]","../img/tt/189tt.jpg","",""
"null","<div style=""font-size:60px;""> </div>","null","fixation","html-keyboard-response","34","260281","0.0-6.0-0.4","2557399","co39508","norming","","","","","","",""
"null","../img/tt/1250tt.jpg","null","mooney1","image-keyboard-response","35","263282","0.0-6.0-1.4","2557399","co39508","norming","","","","","","",""
"7465.969999999972","","","post_mooney1_questions","survey-likert","36","270746","0.0-6.0-2.4","2557399","co39508","norming","","","{""curiosity"":2,""confidence"":2}","[0,1]","../img/tt/1250tt.jpg","",""
"1982.0449999999837","","","recognition","survey-text","37","272729","0.0-6.0-3.4","2557399","co39508","norming","","","{""guess"":""bear""}","","../img/tt/1250tt.jpg","",""
"null","../img/gs/1250gs.jpg","null","reveal","image-keyboard-response","38","274737","0.0-6.0-4.4","2557399","co39508","norming","","","","","","",""
"null","../img/tt/1250tt.jpg","null","mooney2","image-keyboard-response","39","276748","0.0-6.0-5.4","2557399","co39508","norming","","","","","","",""
"3436.494999999937","","","post_reveal_questions","survey-likert","40","280186","0.0-6.0-6.4","2557399","co39508","norming","","","{""aha"":1}","[0]","../img/tt/1250tt.jpg","",""
"null","<div style=""font-size:60px;""> </div>","null","fixation","html-keyboard-response","41","280391","0.0-6.0-0.5","2557399","co39508","norming","","","","","","",""
"null","../img/tt/001tt.jpg","null","mooney1","image-keyboard-response","42","283401","0.0-6.0-1.5","2557399","co39508","norming","","","","","","",""
"4310.084999999846","","","post_mooney1_questions","survey-likert","43","287714","0.0-6.0-2.5","2557399","co39508","norming","","","{""curiosity"":3,""confidence"":2}","[0,1]","../img/tt/001tt.jpg","",""
"1398.144999999844","","","recognition","survey-text","44","289114","0.0-6.0-3.5","2557399","co39508","norming","","","{""guess"":""dog""}","","../img/tt/001tt.jpg","",""
"null","../img/gs/001gs.jpg","null","reveal","image-keyboard-response","45","291120","0.0-6.0-4.5","2557399","co39508","norming","","","","","","",""
"null","../img/tt/001tt.jpg","null","mooney2","image-keyboard-response","46","293130","0.0-6.0-5.5","2557399","co39508","norming","","","","","","",""
"3181.8399999999674","","","post_reveal_questions","survey-likert","47","296314","0.0-6.0-6.5","2557399","co39508","norming","","","{""aha"":0}","[0]","../img/tt/001tt.jpg","",""
"null","<div style=""font-size:60px;""> </div>","null","fixation","html-keyboard-response","48","296523","0.0-6.0-0.6","2557399","co39508","norming","","","","","","",""
"null","../img/tt/1235tt.jpg","null","mooney1","image-keyboard-response","49","299527","0.0-6.0-1.6","2557399","co39508","norming","","","","","","",""
"4471.380000000179","","","post_mooney1_questions","survey-likert","50","304002","0.0-6.0-2.6","2557399","co39508","norming","","","{""curiosity"":4,""confidence"":3}","[0,1]","../img/tt/1235tt.jpg","",""
"2245.8950000000186","","","recognition","survey-text","51","306249","0.0-6.0-3.6","2557399","co39508","norming","","","{""guess"":""kip""}","","../img/tt/1235tt.jpg","",""
"null","../img/gs/1235gs.jpg","null","reveal","image-keyboard-response","52","308254","0.0-6.0-4.6","2557399","co39508","norming","","","","","","",""
"null","../img/tt/1235tt.jpg","null","mooney2","image-keyboard-response","53","310256","0.0-6.0-5.6","2557399","co39508","norming","","","","","","",""
"2352.9350000001723","","","post_reveal_questions","survey-likert","54","312610","0.0-6.0-6.6","2557399","co39508","norming","","","{""aha"":1}","[0]","../img/tt/1235tt.jpg","",""
"null","<div style=""font-size:60px;""> </div>","null","fixation","html-keyboard-response","55","312811","0.0-6.0-0.7","2557399","co39508","norming","","","","","","",""
"null","../img/tt/1211tt.jpg","null","mooney1","image-keyboard-response","56","315816","0.0-6.0-1.7","2557399","co39508","norming","","","","","","",""
"3967.1799999998766","","","post_mooney1_questions","survey-likert","57","319786","0.0-6.0-2.7","2557399","co39508","norming","","","{""curiosity"":4,""confidence"":3}","[0,1]","../img/tt/1211tt.jpg","",""
"1902.0900000000256","","","recognition","survey-text","58","321689","0.0-6.0-3.7","2557399","co39508","norming","","","{""guess"":""whale""}","","../img/tt/1211tt.jpg","",""
"null","../img/gs/1211gs.jpg","null","reveal","image-keyboard-response","59","323697","0.0-6.0-4.7","2557399","co39508","norming","","","","","","",""
"null","../img/tt/1211tt.jpg","null","mooney2","image-keyboard-response","60","325707","0.0-6.0-5.7","2557399","co39508","norming","","","","","","",""
"3956.015000000014","","","post_reveal_questions","survey-likert","61","329665","0.0-6.0-6.7","2557399","co39508","norming","","","{""aha"":1}","[0]","../img/tt/1211tt.jpg","",""
"null","<div style=""font-size:60px;""> </div>","null","fixation","html-keyboard-response","62","329869","0.0-6.0-0.8","2557399","co39508","norming","","","","","","",""
"null","../img/tt/010tt.jpg","null","mooney1","image-keyboard-response","63","332879","0.0-6.0-1.8","2557399","co39508","norming","","","","","","",""
"5132.104999999923","","","post_mooney1_questions","survey-likert","64","338014","0.0-6.0-2.8","2557399","co39508","norming","","","{""curiosity"":3,""confidence"":1}","[0,1]","../img/tt/010tt.jpg","",""
"2478.1299999999464","","","recognition","survey-text","65","340494","0.0-6.0-3.8","2557399","co39508","norming","","","{""guess"":""bird""}","","../img/tt/010tt.jpg","",""
"null","../img/gs/010gs.jpg","null","reveal","image-keyboard-response","66","342495","0.0-6.0-4.8","2557399","co39508","norming","","","","","","",""
"null","../img/tt/010tt.jpg","null","mooney2","image-keyboard-response","67","344499","0.0-6.0-5.8","2557399","co39508","norming","","","","","","",""
"3136.359999999986","","","post_reveal_questions","survey-likert","68","347638","0.0-6.0-6.8","2557399","co39508","norming","","","{""aha"":0}","[0]","../img/tt/010tt.jpg","",""
"null","<div style=""font-size:60px;""> </div>","null","fixation","html-keyboard-response","69","347840","0.0-6.0-0.9","2557399","co39508","norming","","","","","","",""
"null","../img/tt/1089tt.jpg","null","mooney1","image-keyboard-response","70","350843","0.0-6.0-1.9","2557399","co39508","norming","","","","","","",""
"5479.794999999984","","","post_mooney1_questions","survey-likert","71","356326","0.0-6.0-2.9","2557399","co39508","norming","","","{""curiosity"":1,""confidence"":5}","[0,1]","../img/tt/1089tt.jpg","",""
"1766.2349999998696","","","recognition","survey-text","72","358094","0.0-6.0-3.9","2557399","co39508","norming","","","{""guess"":""car""}","","../img/tt/1089tt.jpg","",""
"null","../img/gs/1089gs.jpg","null","reveal","image-keyboard-response","73","360099","0.0-6.0-4.9","2557399","co39508","norming","","","","","","",""
"null","../img/tt/1089tt.jpg","null","mooney2","image-keyboard-response","74","362100","0.0-6.0-5.9","2557399","co39508","norming","","","","","","",""
"1895.6699999998673","","","post_reveal_questions","survey-likert","75","363998","0.0-6.0-6.9","2557399","co39508","norming","","","{""aha"":2}","[0]","../img/tt/1089tt.jpg","",""
"null","<div style=""font-size:60px;""> </div>","null","fixation","html-keyboard-response","76","364202","0.0-6.0-0.10","2557399","co39508","norming","","","","","","",""
"null","../img/tt/318tt.jpg","null","mooney1","image-keyboard-response","77","367204","0.0-6.0-1.10","2557399","co39508","norming","","","","","","",""
"3790.9150000000373","","","post_mooney1_questions","survey-likert","78","370998","0.0-6.0-2.10","2557399","co39508","norming","","","{""curiosity"":1,""confidence"":3}","[0,1]","../img/tt/318tt.jpg","",""
"4598.320000000007","","","recognition","survey-text","79","375598","0.0-6.0-3.10","2557399","co39508","norming","","","{""guess"":""steering wheel""}","","../img/tt/318tt.jpg","",""
"null","../img/gs/318gs.jpg","null","reveal","image-keyboard-response","80","377600","0.0-6.0-4.10","2557399","co39508","norming","","","","","","",""
"null","../img/tt/318tt.jpg","null","mooney2","image-keyboard-response","81","379605","0.0-6.0-5.10","2557399","co39508","norming","","","","","","",""
"3926.375000000058","","","post_reveal_questions","survey-likert","82","383534","0.0-6.0-6.10","2557399","co39508","norming","","","{""aha"":2}","[0]","../img/tt/318tt.jpg","",""
"null","<div style=""font-size:60px;""> </div>","null","fixation","html-keyboard-response","83","383739","0.0-6.0-0.11","2557399","co39508","norming","","","","","","",""
"null","../img/tt/1148tt.jpg","null","mooney1","image-keyboard-response","84","386749","0.0-6.0-1.11","2557399","co39508","norming","","","","","","",""
"5278.180000000051","","","post_mooney1_questions","survey-likert","85","392030","0.0-6.0-2.11","2557399","co39508","norming","","","{""curiosity"":6,""confidence"":2}","[0,1]","../img/tt/1148tt.jpg","",""
"2381.940000000235","","","recognition","survey-text","86","394412","0.0-6.0-3.11","2557399","co39508","norming","","","{""guess"":""man""}","","../img/tt/1148tt.jpg","",""
"null","../img/gs/1148gs.jpg","null","reveal","image-keyboard-response","87","396413","0.0-6.0-4.11","2557399","co39508","norming","","","","","","",""
"null","../img/tt/1148tt.jpg","null","mooney2","image-keyboard-response","88","398421","0.0-6.0-5.11","2557399","co39508","norming","","","","","","",""
"2604.1549999999697","","","post_reveal_questions","survey-likert","89","401028","0.0-6.0-6.11","2557399","co39508","norming","","","{""aha"":1}","[0]","../img/tt/1148tt.jpg","",""
"null","<div style=""font-size:60px;""> </div>","null","fixation","html-keyboard-response","90","401229","0.0-6.0-0.12","2557399","co39508","norming","","","","","","",""
"null","../img/tt/357tt.jpg","null","mooney1","image-keyboard-response","91","404234","0.0-6.0-1.12","2557399","co39508","norming","","","","","","",""
"4287.099999999977","","","post_mooney1_questions","survey-likert","92","408524","0.0-6.0-2.12","2557399","co39508","norming","","","{""curiosity"":4,""confidence"":0}","[0,1]","../img/tt/357tt.jpg","",""
"4141.949999999953","","","recognition","survey-text","93","412668","0.0-6.0-3.12","2557399","co39508","norming","","","{""guess"":""footbal table""}","","../img/tt/357tt.jpg","",""
"null","../img/gs/357gs.jpg","null","reveal","image-keyboard-response","94","414669","0.0-6.0-4.12","2557399","co39508","norming","","","","","","",""
"null","../img/tt/357tt.jpg","null","mooney2","image-keyboard-response","95","416673","0.0-6.0-5.12","2557399","co39508","norming","","","","","","",""
"3929.020000000077","","","post_reveal_questions","survey-likert","96","420604","0.0-6.0-6.12","2557399","co39508","norming","","","{""aha"":2}","[0]","../img/tt/357tt.jpg","",""
"null","<div style=""font-size:60px;""> </div>","null","fixation","html-keyboard-response","97","420805","0.0-6.0-0.13","2557399","co39508","norming","","","","","","",""
"null","../img/tt/1161tt.jpg","null","mooney1","image-keyboard-response","98","423808","0.0-6.0-1.13","2557399","co39508","norming","","","","","","",""
"5097.600000000035","","","post_mooney1_questions","survey-likert","99","428908","0.0-6.0-2.13","2557399","co39508","norming","","","{""curiosity"":2,""confidence"":1}","[0,1]","../img/tt/1161tt.jpg","",""
"2078.240000000049","","","recognition","survey-text","100","430988","0.0-6.0-3.13","2557399","co39508","norming","","","{""guess"":""rocks""}","","../img/tt/1161tt.jpg","",""
"null","../img/gs/1161gs.jpg","null","reveal","image-keyboard-response","101","432996","0.0-6.0-4.13","2557399","co39508","norming","","","","","","",""
"null","../img/tt/1161tt.jpg","null","mooney2","image-keyboard-response","102","434998","0.0-6.0-5.13","2557399","co39508","norming","","","","","","",""
"3643.054999999993","","","post_reveal_questions","survey-likert","103","438644","0.0-6.0-6.13","2557399","co39508","norming","","","{""aha"":3}","[0]","../img/tt/1161tt.jpg","",""
"null","<div style=""font-size:60px;""> </div>","null","fixation","html-keyboard-response","104","438852","0.0-6.0-0.14","2557399","co39508","norming","","","","","","",""
"null","../img/tt/1188tt.jpg","null","mooney1","image-keyboard-response","105","441863","0.0-6.0-1.14","2557399","co39508","norming","","","","","","",""
"5201.520000000077","","","post_mooney1_questions","survey-likert","106","447068","0.0-6.0-2.14","2557399","co39508","norming","","","{""curiosity"":1,""confidence"":0}","[0,1]","../img/tt/1188tt.jpg","",""
"3117.9850000001024","","","recognition","survey-text","107","450187","0.0-6.0-3.14","2557399","co39508","norming","","","{""guess"":""animal""}","","../img/tt/1188tt.jpg","",""
"null","../img/gs/1188gs.jpg","null","reveal","image-keyboard-response","108","452197","0.0-6.0-4.14","2557399","co39508","norming","","","","","","",""
"null","../img/tt/1188tt.jpg","null","mooney2","image-keyboard-response","109","454209","0.0-6.0-5.14","2557399","co39508","norming","","","","","","",""
"4090.4150000001537","","","post_reveal_questions","survey-likert","110","458302","0.0-6.0-6.14","2557399","co39508","norming","","","{""aha"":0}","[0]","../img/tt/1188tt.jpg","",""
"null","<div style=""font-size:60px;""> </div>","null","fixation","html-keyboard-response","111","458503","0.0-6.0-0.15","2557399","co39508","norming","","","","","","",""
"null","../img/tt/1096tt.jpg","null","mooney1","image-keyboard-response","112","461506","0.0-6.0-1.15","2557399","co39508","norming","","","","","","",""
"4242.915000000037","","","post_mooney1_questions","survey-likert","113","465750","0.0-6.0-2.15","2557399","co39508","norming","","","{""curiosity"":2,""confidence"":2}","[0,1]","../img/tt/1096tt.jpg","",""
"2726.265000000014","","","recognition","survey-text","114","468478","0.0-6.0-3.15","2557399","co39508","norming","","","{""guess"":""bird cage""}","","../img/tt/1096tt.jpg","",""
"null","../img/gs/1096gs.jpg","null","reveal","image-keyboard-response","115","470489","0.0-6.0-4.15","2557399","co39508","norming","","","","","","",""
"null","../img/tt/1096tt.jpg","null","mooney2","image-keyboard-response","116","472490","0.0-6.0-5.15","2557399","co39508","norming","","","","","","",""
"2657.265000000072","","","post_reveal_questions","survey-likert","117","475150","0.0-6.0-6.15","2557399","co39508","norming","","","{""aha"":0}","[0]","../img/tt/1096tt.jpg","",""
"null","<div style=""font-size:60px;""> </div>","null","fixation","html-keyboard-response","118","475351","0.0-6.0-0.16","2557399","co39508","norming","","","","","","",""
"null","../img/tt/416tt.jpg","null","mooney1","image-keyboard-response","119","478359","0.0-6.0-1.16","2557399","co39508","norming","","","","","","",""
"4685.6700000001","","","post_mooney1_questions","survey-likert","120","483046","0.0-6.0-2.16","2557399","co39508","norming","","","{""curiosity"":2,""confidence"":1}","[0,1]","../img/tt/416tt.jpg","",""
"1718.1050000000978","","","recognition","survey-text","121","484766","0.0-6.0-3.16","2557399","co39508","norming","","","{""guess"":""golf""}","","../img/tt/416tt.jpg","",""
"null","../img/gs/416gs.jpg","null","reveal","image-keyboard-response","122","486770","0.0-6.0-4.16","2557399","co39508","norming","","","","","","",""
"null","../img/tt/416tt.jpg","null","mooney2","image-keyboard-response","123","488781","0.0-6.0-5.16","2557399","co39508","norming","","","","","","",""
"3334.2549999999464","","","post_reveal_questions","survey-likert","124","492118","0.0-6.0-6.16","2557399","co39508","norming","","","{""aha"":0}","[0]","../img/tt/416tt.jpg","",""
"null","<div style=""font-size:60px;""> </div>","null","fixation","html-keyboard-response","125","492320","0.0-6.0-0.17","2557399","co39508","norming","","","","","","",""
"null","../img/tt/040tt.jpg","null","mooney1","image-keyboard-response","126","495329","0.0-6.0-1.17","2557399","co39508","norming","","","","","","",""
"6427.289999999863","","","post_mooney1_questions","survey-likert","127","501758","0.0-6.0-2.17","2557399","co39508","norming","","","{""curiosity"":5,""confidence"":3}","[0,1]","../img/tt/040tt.jpg","",""
"3534.159999999916","","","recognition","survey-text","128","505294","0.0-6.0-3.17","2557399","co39508","norming","","","{""guess"":""bird""}","","../img/tt/040tt.jpg","",""
"null","../img/gs/040gs.jpg","null","reveal","image-keyboard-response","129","507299","0.0-6.0-4.17","2557399","co39508","norming","","","","","","",""
"null","../img/tt/040tt.jpg","null","mooney2","image-keyboard-response","130","509308","0.0-6.0-5.17","2557399","co39508","norming","","","","","","",""
"2711.105000000098","","","post_reveal_questions","survey-likert","131","512022","0.0-6.0-6.17","2557399","co39508","norming","","","{""aha"":6}","[0]","../img/tt/040tt.jpg","",""
"null","<div style=""font-size:60px;""> </div>","null","fixation","html-keyboard-response","132","512224","0.0-6.0-0.18","2557399","co39508","norming","","","","","","",""
"null","../img/tt/1046tt.jpg","null","mooney1","image-keyboard-response","133","515234","0.0-6.0-1.18","2557399","co39508","norming","","","","","","",""
"4353.095000000147","","","post_mooney1_questions","survey-likert","134","519590","0.0-6.0-2.18","2557399","co39508","norming","","","{""curiosity"":4,""confidence"":3}","[0,1]","../img/tt/1046tt.jpg","",""
"5238.02999999997","","","recognition","survey-text","135","524830","0.0-6.0-3.18","2557399","co39508","norming","","","{""guess"":""zwijn""}","","../img/tt/1046tt.jpg","",""
"null","../img/gs/1046gs.jpg","null","reveal","image-keyboard-response","136","526832","0.0-6.0-4.18","2557399","co39508","norming","","","","","","",""
"null","../img/tt/1046tt.jpg","null","mooney2","image-keyboard-response","137","528834","0.0-6.0-5.18","2557399","co39508","norming","","","","","","",""
"3049.5599999999395","","","post_reveal_questions","survey-likert","138","531886","0.0-6.0-6.18","2557399","co39508","norming","","","{""aha"":1}","[0]","../img/tt/1046tt.jpg","",""
"null","<div style=""font-size:60px;""> </div>","null","fixation","html-keyboard-response","139","532095","0.0-6.0-0.19","2557399","co39508","norming","","","","","","",""
"null","../img/tt/1309tt.jpg","null","mooney1","image-keyboard-response","140","535100","0.0-6.0-1.19","2557399","co39508","norming","","","","","","",""
"3118.9349999999395","","","post_mooney1_questions","survey-likert","141","538222","0.0-6.0-2.19","2557399","co39508","norming","","","{""curiosity"":4,""confidence"":3}","[0,1]","../img/tt/1309tt.jpg","",""
"1646.300000000163","","","recognition","survey-text","142","539870","0.0-6.0-3.19","2557399","co39508","norming","","","{""guess"":""car""}","","../img/tt/1309tt.jpg","",""
"null","../img/gs/1309gs.jpg","null","reveal","image-keyboard-response","143","541879","0.0-6.0-4.19","2557399","co39508","norming","","","","","","",""
"null","../img/tt/1309tt.jpg","null","mooney2","image-keyboard-response","144","543889","0.0-6.0-5.19","2557399","co39508","norming","","","","","","",""
"3041.9549999998417","","","post_reveal_questions","survey-likert","145","546934","0.0-6.0-6.19","2557399","co39508","norming","","","{""aha"":2}","[0]","../img/tt/1309tt.jpg","",""
"null","<div style=""font-size:60px;""> </div>","null","fixation","html-keyboard-response","146","547142","0.0-6.0-0.20","2557399","co39508","norming","","","","","","",""
"null","../img/tt/296tt.jpg","null","mooney1","image-keyboard-response","147","550147","0.0-6.0-1.20","2557399","co39508","norming","","","","","","",""
"4784.485000000102","","","post_mooney1_questions","survey-likert","148","554934","0.0-6.0-2.20","2557399","co39508","norming","","","{""curiosity"":1,""confidence"":4}","[0,1]","../img/tt/296tt.jpg","",""
"2358.145000000135","","","recognition","survey-text","149","557294","0.0-6.0-3.20","2557399","co39508","norming","","","{""guess"":""bus seat""}","","../img/tt/296tt.jpg","",""
"null","../img/gs/296gs.jpg","null","reveal","image-keyboard-response","150","559304","0.0-6.0-4.20","2557399","co39508","norming","","","","","","",""
"null","../img/tt/296tt.jpg","null","mooney2","image-keyboard-response","151","561307","0.0-6.0-5.20","2557399","co39508","norming","","","","","","",""
"2784.4049999999115","","","post_reveal_questions","survey-likert","152","564094","0.0-6.0-6.20","2557399","co39508","norming","","","{""aha"":1}","[0]","../img/tt/296tt.jpg","",""
"null","<div style=""font-size:60px;""> </div>","null","fixation","html-keyboard-response","153","564301","0.0-6.0-0.21","2557399","co39508","norming","","","","","","",""
"null","../img/tt/124tt.jpg","null","mooney1","image-keyboard-response","154","567307","0.0-6.0-1.21","2557399","co39508","norming","","","","","","",""
"7151.4949999997625","","","post_mooney1_questions","survey-likert","155","574462","0.0-6.0-2.21","2557399","co39508","norming","","","{""curiosity"":3,""confidence"":2}","[0,1]","../img/tt/124tt.jpg","",""
"4558.429999999818","","","recognition","survey-text","156","579020","0.0-6.0-3.21","2557399","co39508","norming","","","{""guess"":""row boat""}","","../img/tt/124tt.jpg","",""
"null","../img/gs/124gs.jpg","null","reveal","image-keyboard-response","157","581029","0.0-6.0-4.21","2557399","co39508","norming","","","","","","",""
"null","../img/tt/124tt.jpg","null","mooney2","image-keyboard-response","158","583031","0.0-6.0-5.21","2557399","co39508","norming","","","","","","",""
"2482.1100000001024","","","post_reveal_questions","survey-likert","159","585516","0.0-6.0-6.21","2557399","co39508","norming","","","{""aha"":4}","[0]","../img/tt/124tt.jpg","",""
"null","<div style=""font-size:60px;""> </div>","null","fixation","html-keyboard-response","160","585717","0.0-6.0-0.22","2557399","co39508","norming","","","","","","",""
"null","../img/tt/1362tt.jpg","null","mooney1","image-keyboard-response","161","588725","0.0-6.0-1.22","2557399","co39508","norming","","","","","","",""
"6603.57500000007","","","post_mooney1_questions","survey-likert","162","595332","0.0-6.0-2.22","2557399","co39508","norming","","","{""curiosity"":2,""confidence"":5}","[0,1]","../img/tt/1362tt.jpg","",""
"3974.0299999999115","","","recognition","survey-text","163","599308","0.0-6.0-3.22","2557399","co39508","norming","","","{""guess"":""pots and pans""}","","../img/tt/1362tt.jpg","",""
"null","../img/gs/1362gs.jpg","null","reveal","image-keyboard-response","164","601314","0.0-6.0-4.22","2557399","co39508","norming","","","","","","",""
"null","../img/tt/1362tt.jpg","null","mooney2","image-keyboard-response","165","603317","0.0-6.0-5.22","2557399","co39508","norming","","","","","","",""
"2931.7399999999907","","","post_reveal_questions","survey-likert","166","606252","0.0-6.0-6.22","2557399","co39508","norming","","","{""aha"":5}","[0]","../img/tt/1362tt.jpg","",""
"null","<div style=""font-size:60px;""> </div>","null","fixation","html-keyboard-response","167","606453","0.0-6.0-0.23","2557399","co39508","norming","","","","","","",""
"null","../img/tt/096tt.jpg","null","mooney1","image-keyboard-response","168","609456","0.0-6.0-1.23","2557399","co39508","norming","","","","","","",""
"4049.564999999944","","","post_mooney1_questions","survey-likert","169","613508","0.0-6.0-2.23","2557399","co39508","norming","","","{""curiosity"":2,""confidence"":4}","[0,1]","../img/tt/096tt.jpg","",""
"1926.0349999999162","","","recognition","survey-text","170","615436","0.0-6.0-3.23","2557399","co39508","norming","","","{""guess"":""saw""}","","../img/tt/096tt.jpg","",""
"null","../img/gs/096gs.jpg","null","reveal","image-keyboard-response","171","617437","0.0-6.0-4.23","2557399","co39508","norming","","","","","","",""
"null","../img/tt/096tt.jpg","null","mooney2","image-keyboard-response","172","619441","0.0-6.0-5.23","2557399","co39508","norming","","","","","","",""
"2135.7299999999814","","","post_reveal_questions","survey-likert","173","621580","0.0-6.0-6.23","2557399","co39508","norming","","","{""aha"":2}","[0]","../img/tt/096tt.jpg","",""
"null","<div style=""font-size:60px;""> </div>","null","fixation","html-keyboard-response","174","621781","0.0-6.0-0.24","2557399","co39508","norming","","","","","","",""
"null","../img/tt/1102tt.jpg","null","mooney1","image-keyboard-response","175","624788","0.0-6.0-1.24","2557399","co39508","norming","","","","","","",""
"5941.4199999999255","","","post_mooney1_questions","survey-likert","176","630732","0.0-6.0-2.24","2557399","co39508","norming","","","{""curiosity"":3,""confidence"":2}","[0,1]","../img/tt/1102tt.jpg","",""
"1694.1549999999115","","","recognition","survey-text","177","632428","0.0-6.0-3.24","2557399","co39508","norming","","","{""guess"":""tree""}","","../img/tt/1102tt.jpg","",""
"null","../img/gs/1102gs.jpg","null","reveal","image-keyboard-response","178","634437","0.0-6.0-4.24","2557399","co39508","norming","","","","","","",""
"null","../img/tt/1102tt.jpg","null","mooney2","image-keyboard-response","179","636443","0.0-6.0-5.24","2557399","co39508","norming","","","","","","",""
"2089.1049999999814","","","post_reveal_questions","survey-likert","180","638534","0.0-6.0-6.24","2557399","co39508","norming","","","{""aha"":6}","[0]","../img/tt/1102tt.jpg","",""
"null","<div style=""font-size:60px;""> </div>","null","fixation","html-keyboard-response","181","638735","0.0-6.0-0.25","2557399","co39508","norming","","","","","","",""
"null","../img/tt/1241tt.jpg","null","mooney1","image-keyboard-response","182","641738","0.0-6.0-1.25","2557399","co39508","norming","","","","","","",""
"7049.124999999767","","","post_mooney1_questions","survey-likert","183","648790","0.0-6.0-2.25","2557399","co39508","norming","","","{""curiosity"":2,""confidence"":0}","[0,1]","../img/tt/1241tt.jpg","",""
"973.9899999999907","","","recognition","survey-text","184","649766","0.0-6.0-3.25","2557399","co39508","norming","","","{""guess"":""""}","","../img/tt/1241tt.jpg","",""
"null","../img/gs/1241gs.jpg","null","reveal","image-keyboard-response","185","651773","0.0-6.0-4.25","2557399","co39508","norming","","","","","","",""
"null","../img/tt/1241tt.jpg","null","mooney2","image-keyboard-response","186","653781","0.0-6.0-5.25","2557399","co39508","norming","","","","","","",""
"3214.329999999958","","","post_reveal_questions","survey-likert","187","656998","0.0-6.0-6.25","2557399","co39508","norming","","","{""aha"":2}","[0]","../img/tt/1241tt.jpg","",""
"null","<div style=""font-size:60px;""> </div>","null","fixation","html-keyboard-response","188","657207","0.0-6.0-0.26","2557399","co39508","norming","","","","","","",""
"null","../img/tt/1363tt.jpg","null","mooney1","image-keyboard-response","189","660217","0.0-6.0-1.26","2557399","co39508","norming","","","","","","",""
"4394.055000000051","","","post_mooney1_questions","survey-likert","190","664614","0.0-6.0-2.26","2557399","co39508","norming","","","{""curiosity"":0,""confidence"":2}","[0,1]","../img/tt/1363tt.jpg","",""
"2918.320000000065","","","recognition","survey-text","191","667534","0.0-6.0-3.26","2557399","co39508","norming","","","{""guess"":""teacup""}","","../img/tt/1363tt.jpg","",""
"null","../img/gs/1363gs.jpg","null","reveal","image-keyboard-response","192","669544","0.0-6.0-4.26","2557399","co39508","norming","","","","","","",""
"null","../img/tt/1363tt.jpg","null","mooney2","image-keyboard-response","193","671545","0.0-6.0-5.26","2557399","co39508","norming","","","","","","",""
"1778.3349999999627","","","post_reveal_questions","survey-likert","194","673326","0.0-6.0-6.26","2557399","co39508","norming","","","{""aha"":1}","[0]","../img/tt/1363tt.jpg","",""
"null","<div style=""font-size:60px;""> </div>","null","fixation","html-keyboard-response","195","673533","0.0-6.0-0.27","2557399","co39508","norming","","","","","","",""
"null","../img/tt/1175tt.jpg","null","mooney1","image-keyboard-response","196","676544","0.0-6.0-1.27","2557399","co39508","norming","","","","","","",""
"6306.9550000000745","","","post_mooney1_questions","survey-likert","197","682854","0.0-6.0-2.27","2557399","co39508","norming","","","{""curiosity"":1,""confidence"":0}","[0,1]","../img/tt/1175tt.jpg","",""
"3302.0000000001164","","","recognition","survey-text","198","686158","0.0-6.0-3.27","2557399","co39508","norming","","","{""guess"":""""}","","../img/tt/1175tt.jpg","",""
"null","../img/gs/1175gs.jpg","null","reveal","image-keyboard-response","199","688166","0.0-6.0-4.27","2557399","co39508","norming","","","","","","",""
"null","../img/tt/1175tt.jpg","null","mooney2","image-keyboard-response","200","690174","0.0-6.0-5.27","2557399","co39508","norming","","","","","","",""
"1813.410000000149","","","post_reveal_questions","survey-likert","201","691990","0.0-6.0-6.27","2557399","co39508","norming","","","{""aha"":4}","[0]","../img/tt/1175tt.jpg","",""
"null","<div style=""font-size:60px;""> </div>","null","fixation","html-keyboard-response","202","692191","0.0-6.0-0.28","2557399","co39508","norming","","","","","","",""
"null","../img/tt/1070tt.jpg","null","mooney1","image-keyboard-response","203","695197","0.0-6.0-1.28","2557399","co39508","norming","","","","","","",""
"3805.504999999772","","","post_mooney1_questions","survey-likert","204","699003","0.0-6.0-2.28","2557399","co39508","norming","","","{""curiosity"":0,""confidence"":5}","[0,1]","../img/tt/1070tt.jpg","",""
"1374.1749999999302","","","recognition","survey-text","205","700378","0.0-6.0-3.28","2557399","co39508","norming","","","{""guess"":""cake""}","","../img/tt/1070tt.jpg","",""
"null","../img/gs/1070gs.jpg","null","reveal","image-keyboard-response","206","702386","0.0-6.0-4.28","2557399","co39508","norming","","","","","","",""
"null","../img/tt/1070tt.jpg","null","mooney2","image-keyboard-response","207","704395","0.0-6.0-5.28","2557399","co39508","norming","","","","","","",""
"3206.000000000233","","","post_reveal_questions","survey-likert","208","707602","0.0-6.0-6.28","2557399","co39508","norming","","","{""aha"":1}","[0]","../img/tt/1070tt.jpg","",""
"null","<div style=""font-size:60px;""> </div>","null","fixation","html-keyboard-response","209","707803","0.0-6.0-0.29","2557399","co39508","norming","","","","","","",""
"null","../img/tt/1353tt.jpg","null","mooney1","image-keyboard-response","210","710807","0.0-6.0-1.29","2557399","co39508","norming","","","","","","",""
"3784.655000000377","","","post_mooney1_questions","survey-likert","211","714595","0.0-6.0-2.29","2557399","co39508","norming","","","{""curiosity"":4,""confidence"":2}","[0,1]","../img/tt/1353tt.jpg","",""
"2181.715000000084","","","recognition","survey-text","212","716778","0.0-6.0-3.29","2557399","co39508","norming","","","{""guess"":""violin""}","","../img/tt/1353tt.jpg","",""
"null","../img/gs/1353gs.jpg","null","reveal","image-keyboard-response","213","718788","0.0-6.0-4.29","2557399","co39508","norming","","","","","","",""
"null","../img/tt/1353tt.jpg","null","mooney2","image-keyboard-response","214","720794","0.0-6.0-5.29","2557399","co39508","norming","","","","","","",""
"3206.0050000000047","","","post_reveal_questions","survey-likert","215","724002","0.0-6.0-6.29","2557399","co39508","norming","","","{""aha"":0}","[0]","../img/tt/1353tt.jpg","",""
"null","<div style=""font-size:60px;""> </div>","null","fixation","html-keyboard-response","216","724204","0.0-6.0-0.30","2557399","co39508","norming","","","","","","",""
"null","../img/tt/1097tt.jpg","null","mooney1","image-keyboard-response","217","727207","0.0-6.0-1.30","2557399","co39508","norming","","","","","","",""
"5824.5449999999255","","","post_mooney1_questions","survey-likert","218","733035","0.0-6.0-2.30","2557399","co39508","norming","","","{""curiosity"":3,""confidence"":5}","[0,1]","../img/tt/1097tt.jpg","",""
"2510.1600000002654","","","recognition","survey-text","219","735546","0.0-6.0-3.30","2557399","co39508","norming","","","{""guess"":""surfer""}","","../img/tt/1097tt.jpg","",""
"null","../img/gs/1097gs.jpg","null","reveal","image-keyboard-response","220","737548","0.0-6.0-4.30","2557399","co39508","norming","","","","","","",""
"null","../img/tt/1097tt.jpg","null","mooney2","image-keyboard-response","221","739559","0.0-6.0-5.30","2557399","co39508","norming","","","","","","",""
"4736.635000000242","","","post_reveal_questions","survey-likert","222","744298","0.0-6.0-6.30","2557399","co39508","norming","","","{""aha"":1}","[0]","../img/tt/1097tt.jpg","",""
"null","<div style=""font-size:60px;""> </div>","null","fixation","html-keyboard-response","223","744509","0.0-6.0-0.31","2557399","co39508","norming","","","","","","",""
"null","../img/tt/481tt.jpg","null","mooney1","image-keyboard-response","224","747513","0.0-6.0-1.31","2557399","co39508","norming","","","","","","",""
"5014.845000000205","","","post_mooney1_questions","survey-likert","225","752530","0.0-6.0-2.31","2557399","co39508","norming","","","{""curiosity"":3,""confidence"":1}","[0,1]","../img/tt/481tt.jpg","",""
"1830.1050000000978","","","recognition","survey-text","226","754362","0.0-6.0-3.31","2557399","co39508","norming","","","{""guess"":""baby""}","","../img/tt/481tt.jpg","",""
"null","../img/gs/481gs.jpg","null","reveal","image-keyboard-response","227","756367","0.0-6.0-4.31","2557399","co39508","norming","","","","","","",""
"null","../img/tt/481tt.jpg","null","mooney2","image-keyboard-response","228","758378","0.0-6.0-5.31","2557399","co39508","norming","","","","","","",""
"2603.7000000001863","","","post_reveal_questions","survey-likert","229","760982","0.0-6.0-6.31","2557399","co39508","norming","","","{""aha"":0}","[0]","../img/tt/481tt.jpg","",""
"null","<div style=""font-size:60px;""> </div>","null","fixation","html-keyboard-response","230","761185","0.0-6.0-0.32","2557399","co39508","norming","","","","","","",""
"null","../img/tt/1205tt.jpg","null","mooney1","image-keyboard-response","231","764193","0.0-6.0-1.32","2557399","co39508","norming","","","","","","",""
"4402.390000000247","","","post_mooney1_questions","survey-likert","232","768598","0.0-6.0-2.32","2557399","co39508","norming","","","{""curiosity"":2,""confidence"":4}","[0,1]","../img/tt/1205tt.jpg","",""
"2870.2099999999627","","","recognition","survey-text","233","771470","0.0-6.0-3.32","2557399","co39508","norming","","","{""guess"":""dancers""}","","../img/tt/1205tt.jpg","",""
"null","../img/gs/1205gs.jpg","null","reveal","image-keyboard-response","234","773474","0.0-6.0-4.32","2557399","co39508","norming","","","","","","",""
"null","../img/tt/1205tt.jpg","null","mooney2","image-keyboard-response","235","775485","0.0-6.0-5.32","2557399","co39508","norming","","","","","","",""
"2943.0349999997998","","","post_reveal_questions","survey-likert","236","778430","0.0-6.0-6.32","2557399","co39508","norming","","","{""aha"":4}","[0]","../img/tt/1205tt.jpg","",""
"null","<div style=""font-size:60px;""> </div>","null","fixation","html-keyboard-response","237","778633","0.0-6.0-0.33","2557399","co39508","norming","","","","","","",""
"null","../img/tt/315tt.jpg","null","mooney1","image-keyboard-response","238","781644","0.0-6.0-1.33","2557399","co39508","norming","","","","","","",""
"5672.010000000242","","","post_mooney1_questions","survey-likert","239","787319","0.0-6.0-2.33","2557399","co39508","norming","","","{""curiosity"":4,""confidence"":0}","[0,1]","../img/tt/315tt.jpg","",""
"3605.564999999944","","","recognition","survey-text","240","790926","0.0-6.0-3.33","2557399","co39508","norming","","","{""guess"":""close up""}","","../img/tt/315tt.jpg","",""
"null","../img/gs/315gs.jpg","null","reveal","image-keyboard-response","241","792928","0.0-6.0-4.33","2557399","co39508","norming","","","","","","",""
"null","../img/tt/315tt.jpg","null","mooney2","image-keyboard-response","242","794930","0.0-6.0-5.33","2557399","co39508","norming","","","","","","",""
"2129.9000000003725","","","post_reveal_questions","survey-likert","243","797062","0.0-6.0-6.33","2557399","co39508","norming","","","{""aha"":5}","[0]","../img/tt/315tt.jpg","",""
"null","<div style=""font-size:60px;""> </div>","null","fixation","html-keyboard-response","244","797267","0.0-6.0-0.34","2557399","co39508","norming","","","","","","",""
"null","../img/tt/053tt.jpg","null","mooney1","image-keyboard-response","245","800275","0.0-6.0-1.34","2557399","co39508","norming","","","","","","",""
"3522.6700000002747","","","post_mooney1_questions","survey-likert","246","803798","0.0-6.0-2.34","2557399","co39508","norming","","","{""curiosity"":4,""confidence"":1}","[0,1]","../img/tt/053tt.jpg","",""
"1942.520000000135","","","recognition","survey-text","247","805742","0.0-6.0-3.34","2557399","co39508","norming","","","{""guess"":""dogs""}","","../img/tt/053tt.jpg","",""
"null","../img/gs/053gs.jpg","null","reveal","image-keyboard-response","248","807752","0.0-6.0-4.34","2557399","co39508","norming","","","","","","",""
"null","../img/tt/053tt.jpg","null","mooney2","image-keyboard-response","249","809755","0.0-6.0-5.34","2557399","co39508","norming","","","","","","",""
"3361.179999999935","","","post_reveal_questions","survey-likert","250","813118","0.0-6.0-6.34","2557399","co39508","norming","","","{""aha"":2}","[0]","../img/tt/053tt.jpg","",""
"null","<div style=""font-size:60px;""> </div>","null","fixation","html-keyboard-response","251","813325","0.0-6.0-0.35","2557399","co39508","norming","","","","","","",""
"null","../img/tt/1033tt.jpg","null","mooney1","image-keyboard-response","252","816330","0.0-6.0-1.35","2557399","co39508","norming","","","","","","",""
"5826.969999999623","","","post_mooney1_questions","survey-likert","253","822160","0.0-6.0-2.35","2557399","co39508","norming","","","{""curiosity"":1,""confidence"":6}","[0,1]","../img/tt/1033tt.jpg","",""
"4094.2650000001304","","","recognition","survey-text","254","826256","0.0-6.0-3.35","2557399","co39508","norming","","","{""guess"":""hockey fight""}","","../img/tt/1033tt.jpg","",""
"null","../img/gs/1033gs.jpg","null","reveal","image-keyboard-response","255","828261","0.0-6.0-4.35","2557399","co39508","norming","","","","","","",""
"null","../img/tt/1033tt.jpg","null","mooney2","image-keyboard-response","256","830265","0.0-6.0-5.35","2557399","co39508","norming","","","","","","",""
"3165.599999999744","","","post_reveal_questions","survey-likert","257","833432","0.0-6.0-6.35","2557399","co39508","norming","","","{""aha"":2}","[0]","../img/tt/1033tt.jpg","",""
"null","<div style=""font-size:60px;""> </div>","null","fixation","html-keyboard-response","258","833634","0.0-6.0-0.36","2557399","co39508","norming","","","","","","",""
"null","../img/tt/1307tt.jpg","null","mooney1","image-keyboard-response","259","836643","0.0-6.0-1.36","2557399","co39508","norming","","","","","","",""
"7627.945000000182","","","post_mooney1_questions","survey-likert","260","844272","0.0-6.0-2.36","2557399","co39508","norming","","","{""curiosity"":3,""confidence"":2}","[0,1]","../img/tt/1307tt.jpg","",""
"8429.47499999986","","","recognition","survey-text","261","852704","0.0-6.0-3.36","2557399","co39508","norming","","","{""guess"":""statue of liberty""}","","../img/tt/1307tt.jpg","",""
"null","../img/gs/1307gs.jpg","null","reveal","image-keyboard-response","262","854709","0.0-6.0-4.36","2557399","co39508","norming","","","","","","",""
"null","../img/tt/1307tt.jpg","null","mooney2","image-keyboard-response","263","856712","0.0-6.0-5.36","2557399","co39508","norming","","","","","","",""
"3829.3550000003306","","","post_reveal_questions","survey-likert","264","860544","0.0-6.0-6.36","2557399","co39508","norming","","","{""aha"":1}","[0]","../img/tt/1307tt.jpg","",""
"null","<div style=""font-size:60px;""> </div>","null","fixation","html-keyboard-response","265","860746","0.0-6.0-0.37","2557399","co39508","norming","","","","","","",""
"null","../img/tt/1290tt.jpg","null","mooney1","image-keyboard-response","266","863756","0.0-6.0-1.37","2557399","co39508","norming","","","","","","",""
"3608.830000000191","","","post_mooney1_questions","survey-likert","267","867368","0.0-6.0-2.37","2557399","co39508","norming","","","{""curiosity"":1,""confidence"":1}","[0,1]","../img/tt/1290tt.jpg","",""
"4662.115000000107","","","recognition","survey-text","268","872032","0.0-6.0-3.37","2557399","co39508","norming","","","{""guess"":""""}","","../img/tt/1290tt.jpg","",""
"null","../img/gs/1290gs.jpg","null","reveal","image-keyboard-response","269","874035","0.0-6.0-4.37","2557399","co39508","norming","","","","","","",""
"null","../img/tt/1290tt.jpg","null","mooney2","image-keyboard-response","270","876037","0.0-6.0-5.37","2557399","co39508","norming","","","","","","",""
"2281.3849999997765","","","post_reveal_questions","survey-likert","271","878320","0.0-6.0-6.37","2557399","co39508","norming","","","{""aha"":2}","[0]","../img/tt/1290tt.jpg","",""
"null","<div style=""font-size:60px;""> </div>","null","fixation","html-keyboard-response","272","878526","0.0-6.0-0.38","2557399","co39508","norming","","","","","","",""
"null","../img/tt/603tt.jpg","null","mooney1","image-keyboard-response","273","881537","0.0-6.0-1.38","2557399","co39508","norming","","","","","","",""
"4782.8950000002515","","","post_mooney1_questions","survey-likert","274","886323","0.0-6.0-2.38","2557399","co39508","norming","","","{""curiosity"":4,""confidence"":2}","[0,1]","../img/tt/603tt.jpg","",""
"2350.3300000003073","","","recognition","survey-text","275","888675","0.0-6.0-3.38","2557399","co39508","norming","","","{""guess"":""big cat""}","","../img/tt/603tt.jpg","",""
"null","../img/gs/603gs.jpg","null","reveal","image-keyboard-response","276","890681","0.0-6.0-4.38","2557399","co39508","norming","","","","","","",""
"null","../img/tt/603tt.jpg","null","mooney2","image-keyboard-response","277","892683","0.0-6.0-5.38","2557399","co39508","norming","","","","","","",""
"3005.7000000001863","","","post_reveal_questions","survey-likert","278","895691","0.0-6.0-6.38","2557399","co39508","norming","","","{""aha"":4}","[0]","../img/tt/603tt.jpg","",""
"null","<div style=""font-size:60px;""> </div>","null","fixation","html-keyboard-response","279","895893","0.0-6.0-0.39","2557399","co39508","norming","","","","","","",""
"null","../img/tt/098tt.jpg","null","mooney1","image-keyboard-response","280","898900","0.0-6.0-1.39","2557399","co39508","norming","","","","","","",""
"3699.5700000001816","","","post_mooney1_questions","survey-likert","281","902603","0.0-6.0-2.39","2557399","co39508","norming","","","{""curiosity"":1,""confidence"":2}","[0,1]","../img/tt/098tt.jpg","",""
"982.184999999823","","","recognition","survey-text","282","903587","0.0-6.0-3.39","2557399","co39508","norming","","","{""guess"":""""}","","../img/tt/098tt.jpg","",""
"null","../img/gs/098gs.jpg","null","reveal","image-keyboard-response","283","905596","0.0-6.0-4.39","2557399","co39508","norming","","","","","","",""
"null","../img/tt/098tt.jpg","null","mooney2","image-keyboard-response","284","907602","0.0-6.0-5.39","2557399","co39508","norming","","","","","","",""
"4399.655000000144","","","post_reveal_questions","survey-likert","285","912002","0.0-6.0-6.39","2557399","co39508","norming","","","{""aha"":1}","[0]","../img/tt/098tt.jpg","",""
"null","<div style=""font-size:60px;""> </div>","null","fixation","html-keyboard-response","286","912209","0.0-6.0-0.40","2557399","co39508","norming","","","","","","",""
"null","../img/tt/1123tt.jpg","null","mooney1","image-keyboard-response","287","915219","0.0-6.0-1.40","2557399","co39508","norming","","","","","","",""
"5974.739999999641","","","post_mooney1_questions","survey-likert","288","921194","0.0-6.0-2.40","2557399","co39508","norming","","","{""curiosity"":1,""confidence"":4}","[0,1]","../img/tt/1123tt.jpg","",""
"3061.7550000002375","","","recognition","survey-text","289","924258","0.0-6.0-3.40","2557399","co39508","norming","","","{""guess"":""basketball""}","","../img/tt/1123tt.jpg","",""
"null","../img/gs/1123gs.jpg","null","reveal","image-keyboard-response","290","926263","0.0-6.0-4.40","2557399","co39508","norming","","","","","","",""
"null","../img/tt/1123tt.jpg","null","mooney2","image-keyboard-response","291","928267","0.0-6.0-5.40","2557399","co39508","norming","","","","","","",""
"3534.0649999998277","","","post_reveal_questions","survey-likert","292","931802","0.0-6.0-6.40","2557399","co39508","norming","","","{""aha"":3}","[0]","../img/tt/1123tt.jpg","",""
"null","<div style=""font-size:60px;""> </div>","null","fixation","html-keyboard-response","293","932012","0.0-6.0-0.41","2557399","co39508","norming","","","","","","",""
"null","../img/tt/1159tt.jpg","null","mooney1","image-keyboard-response","294","935015","0.0-6.0-1.41","2557399","co39508","norming","","","","","","",""
"5793.154999999795","","","post_mooney1_questions","survey-likert","295","940811","0.0-6.0-2.41","2557399","co39508","norming","","","{""curiosity"":1,""confidence"":5}","[0,1]","../img/tt/1159tt.jpg","",""
"1894.0949999996228","","","recognition","survey-text","296","942707","0.0-6.0-3.41","2557399","co39508","norming","","","{""guess"":""skater""}","","../img/tt/1159tt.jpg","",""
"null","../img/gs/1159gs.jpg","null","reveal","image-keyboard-response","297","944715","0.0-6.0-4.41","2557399","co39508","norming","","","","","","",""
"null","../img/tt/1159tt.jpg","null","mooney2","image-keyboard-response","298","946718","0.0-6.0-5.41","2557399","co39508","norming","","","","","","",""
"3464.8249999999534","","","post_reveal_questions","survey-likert","299","950187","0.0-6.0-6.41","2557399","co39508","norming","","","{""aha"":1}","[0]","../img/tt/1159tt.jpg","",""
"null","<div style=""font-size:60px;""> </div>","null","fixation","html-keyboard-response","300","950393","0.0-6.0-0.42","2557399","co39508","norming","","","","","","",""
"null","../img/tt/064tt.jpg","null","mooney1","image-keyboard-response","301","953394","0.0-6.0-1.42","2557399","co39508","norming","","","","","","",""
"6566.41500000027","","","post_mooney1_questions","survey-likert","302","959963","0.0-6.0-2.42","2557399","co39508","norming","","","{""curiosity"":1,""confidence"":2}","[0,1]","../img/tt/064tt.jpg","",""
"5909.784999999916","","","recognition","survey-text","303","965875","0.0-6.0-3.42","2557399","co39508","norming","","","{""guess"":""mountin top""}","","../img/tt/064tt.jpg","",""
"null","../img/gs/064gs.jpg","null","reveal","image-keyboard-response","304","967884","0.0-6.0-4.42","2557399","co39508","norming","","","","","","",""
"null","../img/tt/064tt.jpg","null","mooney2","image-keyboard-response","305","969892","0.0-6.0-5.42","2557399","co39508","norming","","","","","","",""
"3508.3649999996414","","","post_reveal_questions","survey-likert","306","973403","0.0-6.0-6.42","2557399","co39508","norming","","","{""aha"":1}","[0]","../img/tt/064tt.jpg","",""
"null","<div style=""font-size:60px;""> </div>","null","fixation","html-keyboard-response","307","973607","0.0-6.0-0.43","2557399","co39508","norming","","","","","","",""
"null","../img/tt/1053tt.jpg","null","mooney1","image-keyboard-response","308","976616","0.0-6.0-1.43","2557399","co39508","norming","","","","","","",""
"5271.720000000205","","","post_mooney1_questions","survey-likert","309","981891","0.0-6.0-2.43","2557399","co39508","norming","","","{""curiosity"":3,""confidence"":2}","[0,1]","../img/tt/1053tt.jpg","",""
"3325.1199999999953","","","recognition","survey-text","310","985219","0.0-6.0-3.43","2557399","co39508","norming","","","{""guess"":""animal""}","","../img/tt/1053tt.jpg","",""
"null","../img/gs/1053gs.jpg","null","reveal","image-keyboard-response","311","987225","0.0-6.0-4.43","2557399","co39508","norming","","","","","","",""
"null","../img/tt/1053tt.jpg","null","mooney2","image-keyboard-response","312","989235","0.0-6.0-5.43","2557399","co39508","norming","","","","","","",""
"2452.945000000065","","","post_reveal_questions","survey-likert","313","991691","0.0-6.0-6.43","2557399","co39508","norming","","","{""aha"":6}","[0]","../img/tt/1053tt.jpg","",""
"null","<div style=""font-size:60px;""> </div>","null","fixation","html-keyboard-response","314","991892","0.0-6.0-0.44","2557399","co39508","norming","","","","","","",""
"null","../img/tt/094tt.jpg","null","mooney1","image-keyboard-response","315","994897","0.0-6.0-1.44","2557399","co39508","norming","","","","","","",""
"11095.994999999646","","","post_mooney1_questions","survey-likert","316","1005997","0.0-6.0-2.44","2557399","co39508","norming","","","{""curiosity"":2,""confidence"":3}","[0,1]","../img/tt/094tt.jpg","",""
"2374.0200000002515","","","recognition","survey-text","317","1008373","0.0-6.0-3.44","2557399","co39508","norming","","","{""guess"":""fox""}","","../img/tt/094tt.jpg","",""
"null","../img/gs/094gs.jpg","null","reveal","image-keyboard-response","318","1010376","0.0-6.0-4.44","2557399","co39508","norming","","","","","","",""
"null","../img/tt/094tt.jpg","null","mooney2","image-keyboard-response","319","1012378","0.0-6.0-5.44","2557399","co39508","norming","","","","","","",""
"2122.664999999921","","","post_reveal_questions","survey-likert","320","1014501","0.0-6.0-6.44","2557399","co39508","norming","","","{""aha"":5}","[0]","../img/tt/094tt.jpg","",""
"null","<div style=""font-size:60px;""> </div>","null","fixation","html-keyboard-response","321","1014703","0.0-6.0-0.45","2557399","co39508","norming","","","","","","",""
"null","../img/tt/406tt.jpg","null","mooney1","image-keyboard-response","322","1017709","0.0-6.0-1.45","2557399","co39508","norming","","","","","","",""
"4421.604999999981","","","post_mooney1_questions","survey-likert","323","1022133","0.0-6.0-2.45","2557399","co39508","norming","","","{""curiosity"":2,""confidence"":6}","[0,1]","../img/tt/406tt.jpg","",""
"1502.2649999995483","","","recognition","survey-text","324","1023637","0.0-6.0-3.45","2557399","co39508","norming","","","{""guess"":""bat""}","","../img/tt/406tt.jpg","",""
"null","../img/gs/406gs.jpg","null","reveal","image-keyboard-response","325","1025639","0.0-6.0-4.45","2557399","co39508","norming","","","","","","",""
"null","../img/tt/406tt.jpg","null","mooney2","image-keyboard-response","326","1027642","0.0-6.0-5.45","2557399","co39508","norming","","","","","","",""
"2377.4050000001444","","","post_reveal_questions","survey-likert","327","1030021","0.0-6.0-6.45","2557399","co39508","norming","","","{""aha"":0}","[0]","../img/tt/406tt.jpg","",""
"null","<div style=""font-size:60px;""> </div>","null","fixation","html-keyboard-response","328","1030227","0.0-6.0-0.46","2557399","co39508","norming","","","","","","",""
"null","../img/tt/1080tt.jpg","null","mooney1","image-keyboard-response","329","1033230","0.0-6.0-1.46","2557399","co39508","norming","","","","","","",""
"6436.255000000121","","","post_mooney1_questions","survey-likert","330","1039669","0.0-6.0-2.46","2557399","co39508","norming","","","{""curiosity"":4,""confidence"":1}","[0,1]","../img/tt/1080tt.jpg","",""
"3678.074999999837","","","recognition","survey-text","331","1043349","0.0-6.0-3.46","2557399","co39508","norming","","","{""guess"":""camels""}","","../img/tt/1080tt.jpg","",""
"null","../img/gs/1080gs.jpg","null","reveal","image-keyboard-response","332","1045360","0.0-6.0-4.46","2557399","co39508","norming","","","","","","",""
"null","../img/tt/1080tt.jpg","null","mooney2","image-keyboard-response","333","1047371","0.0-6.0-5.46","2557399","co39508","norming","","","","","","",""
"2575.820000000065","","","post_reveal_questions","survey-likert","334","1049949","0.0-6.0-6.46","2557399","co39508","norming","","","{""aha"":1}","[0]","../img/tt/1080tt.jpg","",""
"null","<div style=""font-size:60px;""> </div>","null","fixation","html-keyboard-response","335","1050151","0.0-6.0-0.47","2557399","co39508","norming","","","","","","",""
"null","../img/tt/273tt.jpg","null","mooney1","image-keyboard-response","336","1053158","0.0-6.0-1.47","2557399","co39508","norming","","","","","","",""
"5884.469999999972","","","post_mooney1_questions","survey-likert","337","1059045","0.0-6.0-2.47","2557399","co39508","norming","","","{""curiosity"":1,""confidence"":4}","[0,1]","../img/tt/273tt.jpg","",""
"2414.1149999999907","","","recognition","survey-text","338","1061461","0.0-6.0-3.47","2557399","co39508","norming","","","{""guess"":""teeth""}","","../img/tt/273tt.jpg","",""
"null","../img/gs/273gs.jpg","null","reveal","image-keyboard-response","339","1063471","0.0-6.0-4.47","2557399","co39508","norming","","","","","","",""
"null","../img/tt/273tt.jpg","null","mooney2","image-keyboard-response","340","1065476","0.0-6.0-5.47","2557399","co39508","norming","","","","","","",""
"2425.875","","","post_reveal_questions","survey-likert","341","1067904","0.0-6.0-6.47","2557399","co39508","norming","","","{""aha"":1}","[0]","../img/tt/273tt.jpg","",""
"null","<div style=""font-size:60px;""> </div>","null","fixation","html-keyboard-response","342","1068105","0.0-6.0-0.48","2557399","co39508","norming","","","","","","",""
"null","../img/tt/1255tt.jpg","null","mooney1","image-keyboard-response","343","1071113","0.0-6.0-1.48","2557399","co39508","norming","","","","","","",""
"7091.699999999953","","","post_mooney1_questions","survey-likert","344","1078208","0.0-6.0-2.48","2557399","co39508","norming","","","{""curiosity"":1,""confidence"":0}","[0,1]","../img/tt/1255tt.jpg","",""
"2117.9650000003166","","","recognition","survey-text","345","1080328","0.0-6.0-3.48","2557399","co39508","norming","","","{""guess"":""park""}","","../img/tt/1255tt.jpg","",""
"null","../img/gs/1255gs.jpg","null","reveal","image-keyboard-response","346","1082335","0.0-6.0-4.48","2557399","co39508","norming","","","","","","",""
"null","../img/tt/1255tt.jpg","null","mooney2","image-keyboard-response","347","1084335","0.0-6.0-5.48","2557399","co39508","norming","","","","","","",""
"4015.6999999999534","","","post_reveal_questions","survey-likert","348","1088352","0.0-6.0-6.48","2557399","co39508","norming","","","{""aha"":1}","[0]","../img/tt/1255tt.jpg","",""
"null","<div style=""font-size:60px;""> </div>","null","fixation","html-keyboard-response","349","1088555","0.0-6.0-0.49","2557399","co39508","norming","","","","","","",""
"null","../img/tt/126tt.jpg","null","mooney1","image-keyboard-response","350","1091558","0.0-6.0-1.49","2557399","co39508","norming","","","","","","",""
"5743.065000000177","","","post_mooney1_questions","survey-likert","351","1097304","0.0-6.0-2.49","2557399","co39508","norming","","","{""curiosity"":1,""confidence"":3}","[0,1]","../img/tt/126tt.jpg","",""
"2541.9900000002235","","","recognition","survey-text","352","1099848","0.0-6.0-3.49","2557399","co39508","norming","","","{""guess"":""animal""}","","../img/tt/126tt.jpg","",""
"null","../img/gs/126gs.jpg","null","reveal","image-keyboard-response","353","1101859","0.0-6.0-4.49","2557399","co39508","norming","","","","","","",""
"null","../img/tt/126tt.jpg","null","mooney2","image-keyboard-response","354","1103870","0.0-6.0-5.49","2557399","co39508","norming","","","","","","",""
"2721.6550000002608","","","post_reveal_questions","survey-likert","355","1106592","0.0-6.0-6.49","2557399","co39508","norming","","","{""aha"":1}","[0]","../img/tt/126tt.jpg","",""
"null","<div style=""font-size:60px;""> </div>","null","fixation","html-keyboard-response","356","1106793","0.0-6.0-0.50","2557399","co39508","norming","","","","","","",""
"null","../img/tt/082tt.jpg","null","mooney1","image-keyboard-response","357","1109802","0.0-6.0-1.50","2557399","co39508","norming","","","","","","",""
"3435.054999999935","","","post_mooney1_questions","survey-likert","358","1113240","0.0-6.0-2.50","2557399","co39508","norming","","","{""curiosity"":3,""confidence"":0}","[0,1]","../img/tt/082tt.jpg","",""
"2078.5400000000373","","","recognition","survey-text","359","1115320","0.0-6.0-3.50","2557399","co39508","norming","","","{""guess"":""parrot""}","","../img/tt/082tt.jpg","",""
"null","../img/gs/082gs.jpg","null","reveal","image-keyboard-response","360","1117325","0.0-6.0-4.50","2557399","co39508","norming","","","","","","",""
"null","../img/tt/082tt.jpg","null","mooney2","image-keyboard-response","361","1119327","0.0-6.0-5.50","2557399","co39508","norming","","","","","","",""
"1886.5150000001304","","","post_reveal_questions","survey-likert","362","1121216","0.0-6.0-6.50","2557399","co39508","norming","","","{""aha"":1}","[0]","../img/tt/082tt.jpg","",""
"null","<div style=""font-size:60px;""> </div>","null","fixation","html-keyboard-response","363","1121418","0.0-6.0-0.51","2557399","co39508","norming","","","","","","",""
"null","../img/tt/1262tt.jpg","null","mooney1","image-keyboard-response","364","1124430","0.0-6.0-1.51","2557399","co39508","norming","","","","","","",""
"7328.8549999997485","","","post_mooney1_questions","survey-likert","365","1131761","0.0-6.0-2.51","2557399","co39508","norming","","","{""curiosity"":1,""confidence"":0}","[0,1]","../img/tt/1262tt.jpg","",""
"7078.074999999953","","","recognition","survey-text","366","1138840","0.0-6.0-3.51","2557399","co39508","norming","","","{""guess"":""animal""}","","../img/tt/1262tt.jpg","",""
"null","../img/gs/1262gs.jpg","null","reveal","image-keyboard-response","367","1140844","0.0-6.0-4.51","2557399","co39508","norming","","","","","","",""
"null","../img/tt/1262tt.jpg","null","mooney2","image-keyboard-response","368","1142847","0.0-6.0-5.51","2557399","co39508","norming","","","","","","",""
"1782.4300000001676","","","post_reveal_questions","survey-likert","369","1144632","0.0-6.0-6.51","2557399","co39508","norming","","","{""aha"":1}","[0]","../img/tt/1262tt.jpg","",""
"null","<div style=""font-size:60px;""> </div>","null","fixation","html-keyboard-response","370","1144839","0.0-6.0-0.52","2557399","co39508","norming","","","","","","",""
"null","../img/tt/1272tt.jpg","null","mooney1","image-keyboard-response","371","1147841","0.0-6.0-1.52","2557399","co39508","norming","","","","","","",""
"6702.050000000279","","","post_mooney1_questions","survey-likert","372","1154544","0.0-6.0-2.52","2557399","co39508","norming","","","{""curiosity"":3,""confidence"":1}","[0,1]","../img/tt/1272tt.jpg","",""
"3030.1450000002515","","","recognition","survey-text","373","1157576","0.0-6.0-3.52","2557399","co39508","norming","","","{""guess"":""ice skater""}","","../img/tt/1272tt.jpg","",""
"null","../img/gs/1272gs.jpg","null","reveal","image-keyboard-response","374","1159577","0.0-6.0-4.52","2557399","co39508","norming","","","","","","",""
"null","../img/tt/1272tt.jpg","null","mooney2","image-keyboard-response","375","1161586","0.0-6.0-5.52","2557399","co39508","norming","","","","","","",""
"3603.560000000056","","","post_reveal_questions","survey-likert","376","1165192","0.0-6.0-6.52","2557399","co39508","norming","","","{""aha"":6}","[0]","../img/tt/1272tt.jpg","",""
"null","<div style=""font-size:60px;""> </div>","null","fixation","html-keyboard-response","377","1165394","0.0-6.0-0.53","2557399","co39508","norming","","","","","","",""
"null","../img/tt/1226tt.jpg","null","mooney1","image-keyboard-response","378","1168398","0.0-6.0-1.53","2557399","co39508","norming","","","","","","",""
"5417.060000000289","","","post_mooney1_questions","survey-likert","379","1173816","0.0-6.0-2.53","2557399","co39508","norming","","","{""curiosity"":2,""confidence"":1}","[0,1]","../img/tt/1226tt.jpg","",""
"1822.4149999995716","","","recognition","survey-text","380","1175640","0.0-6.0-3.53","2557399","co39508","norming","","","{""guess"":""geese""}","","../img/tt/1226tt.jpg","",""
"null","../img/gs/1226gs.jpg","null","reveal","image-keyboard-response","381","1177648","0.0-6.0-4.53","2557399","co39508","norming","","","","","","",""
"null","../img/tt/1226tt.jpg","null","mooney2","image-keyboard-response","382","1179652","0.0-6.0-5.53","2557399","co39508","norming","","","","","","",""
"1441.8700000001118","","","post_reveal_questions","survey-likert","383","1181096","0.0-6.0-6.53","2557399","co39508","norming","","","{""aha"":2}","[0]","../img/tt/1226tt.jpg","",""
"null","<div style=""font-size:60px;""> </div>","null","fixation","html-keyboard-response","384","1181298","0.0-6.0-0.54","2557399","co39508","norming","","","","","","",""
"null","../img/tt/194tt.jpg","null","mooney1","image-keyboard-response","385","1184301","0.0-6.0-1.54","2557399","co39508","norming","","","","","","",""
"4929.994999999879","","","post_mooney1_questions","survey-likert","386","1189232","0.0-6.0-2.54","2557399","co39508","norming","","","{""curiosity"":2,""confidence"":0}","[0,1]","../img/tt/194tt.jpg","",""
"1813.9500000001863","","","recognition","survey-text","387","1191039","0.0-6.0-3.54","2557399","co39508","norming","","","{""guess"":""rifle""}","","../img/tt/194tt.jpg","",""
"null","../img/gs/194gs.jpg","null","reveal","image-keyboard-response","388","1193049","0.0-6.0-4.54","2557399","co39508","norming","","","","","","",""
"null","../img/tt/194tt.jpg","null","mooney2","image-keyboard-response","389","1195058","0.0-6.0-5.54","2557399","co39508","norming","","","","","","",""
"5234.190000000177","","","post_reveal_questions","survey-likert","390","1200294","0.0-6.0-6.54","2557399","co39508","norming","","","{""aha"":0}","[0]","../img/tt/194tt.jpg","",""
"null","<div style=""font-size:60px;""> </div>","null","fixation","html-keyboard-response","391","1200497","0.0-6.0-0.55","2557399","co39508","norming","","","","","","",""
"null","../img/tt/1228tt.jpg","null","mooney1","image-keyboard-response","392","1203504","0.0-6.0-1.55","2557399","co39508","norming","","","","","","",""
"3675.9849999998696","","","post_mooney1_questions","survey-likert","393","1207183","0.0-6.0-2.55","2557399","co39508","norming","","","{""curiosity"":0,""confidence"":0}","[0,1]","../img/tt/1228tt.jpg","",""
"2254.214999999851","","","recognition","survey-text","394","1209439","0.0-6.0-3.55","2557399","co39508","norming","","","{""guess"":""dancers""}","","../img/tt/1228tt.jpg","",""
"null","../img/gs/1228gs.jpg","null","reveal","image-keyboard-response","395","1211448","0.0-6.0-4.55","2557399","co39508","norming","","","","","","",""
"null","../img/tt/1228tt.jpg","null","mooney2","image-keyboard-response","396","1213452","0.0-6.0-5.55","2557399","co39508","norming","","","","","","",""
"1752.744999999879","","","post_reveal_questions","survey-likert","397","1215207","0.0-6.0-6.55","2557399","co39508","norming","","","{""aha"":3}","[0]","../img/tt/1228tt.jpg","",""
"null","<div style=""font-size:60px;""> </div>","null","fixation","html-keyboard-response","398","1215408","0.0-6.0-0.56","2557399","co39508","norming","","","","","","",""
"null","../img/tt/020tt.jpg","null","mooney1","image-keyboard-response","399","1218412","0.0-6.0-1.56","2557399","co39508","norming","","","","","","",""
"3505.505000000121","","","post_mooney1_questions","survey-likert","400","1221919","0.0-6.0-2.56","2557399","co39508","norming","","","{""curiosity"":3,""confidence"":1}","[0,1]","../img/tt/020tt.jpg","",""
"1502.1299999998882","","","recognition","survey-text","401","1223423","0.0-6.0-3.56","2557399","co39508","norming","","","{""guess"":""pig""}","","../img/tt/020tt.jpg","",""
"null","../img/gs/020gs.jpg","null","reveal","image-keyboard-response","402","1225424","0.0-6.0-4.56","2557399","co39508","norming","","","","","","",""
"null","../img/tt/020tt.jpg","null","mooney2","image-keyboard-response","403","1227427","0.0-6.0-5.56","2557399","co39508","norming","","","","","","",""
"1761.7549999998882","","","post_reveal_questions","survey-likert","404","1229191","0.0-6.0-6.56","2557399","co39508","norming","","","{""aha"":3}","[0]","../img/tt/020tt.jpg","",""
"null","<div style=""font-size:60px;""> </div>","null","fixation","html-keyboard-response","405","1229397","0.0-6.0-0.57","2557399","co39508","norming","","","","","","",""
"null","../img/tt/436tt.jpg","null","mooney1","image-keyboard-response","406","1232404","0.0-6.0-1.57","2557399","co39508","norming","","","","","","",""
"3513.6800000001676","","","post_mooney1_questions","survey-likert","407","1235919","0.0-6.0-2.57","2557399","co39508","norming","","","{""curiosity"":2,""confidence"":1}","[0,1]","../img/tt/436tt.jpg","",""
"1854.1649999998044","","","recognition","survey-text","408","1237775","0.0-6.0-3.57","2557399","co39508","norming","","","{""guess"":""shoe""}","","../img/tt/436tt.jpg","",""
"null","../img/gs/436gs.jpg","null","reveal","image-keyboard-response","409","1239780","0.0-6.0-4.57","2557399","co39508","norming","","","","","","",""
"null","../img/tt/436tt.jpg","null","mooney2","image-keyboard-response","410","1241783","0.0-6.0-5.57","2557399","co39508","norming","","","","","","",""
"4269.02500000014","","","post_reveal_questions","survey-likert","411","1246055","0.0-6.0-6.57","2557399","co39508","norming","","","{""aha"":1}","[0]","../img/tt/436tt.jpg","",""
"null","<div style=""font-size:60px;""> </div>","null","fixation","html-keyboard-response","412","1246258","0.0-6.0-0.58","2557399","co39508","norming","","","","","","",""
"null","../img/tt/1239tt.jpg","null","mooney1","image-keyboard-response","413","1249269","0.0-6.0-1.58","2557399","co39508","norming","","","","","","",""
"4927.225000000326","","","post_mooney1_questions","survey-likert","414","1254203","0.0-6.0-2.58","2557399","co39508","norming","","","{""curiosity"":3,""confidence"":5}","[0,1]","../img/tt/1239tt.jpg","",""
"1750.0649999997113","","","recognition","survey-text","415","1255955","0.0-6.0-3.58","2557399","co39508","norming","","","{""guess"":""dog""}","","../img/tt/1239tt.jpg","",""
"null","../img/gs/1239gs.jpg","null","reveal","image-keyboard-response","416","1257961","0.0-6.0-4.58","2557399","co39508","norming","","","","","","",""
"null","../img/tt/1239tt.jpg","null","mooney2","image-keyboard-response","417","1259970","0.0-6.0-5.58","2557399","co39508","norming","","","","","","",""
"5886.760000000009","","","post_reveal_questions","survey-likert","418","1265859","0.0-6.0-6.58","2557399","co39508","norming","","","{""aha"":2}","[0]","../img/tt/1239tt.jpg","",""
"null","<div style=""font-size:60px;""> </div>","null","fixation","html-keyboard-response","419","1266062","0.0-6.0-0.59","2557399","co39508","norming","","","","","","",""
"null","../img/tt/598tt.jpg","null","mooney1","image-keyboard-response","420","1269067","0.0-6.0-1.59","2557399","co39508","norming","","","","","","",""
"3853.79000000027","","","post_mooney1_questions","survey-likert","421","1272923","0.0-6.0-2.59","2557399","co39508","norming","","","{""curiosity"":4,""confidence"":1}","[0,1]","../img/tt/598tt.jpg","",""
"2166.070000000298","","","recognition","survey-text","422","1275091","0.0-6.0-3.59","2557399","co39508","norming","","","{""guess"":""bucket""}","","../img/tt/598tt.jpg","",""
"null","../img/gs/598gs.jpg","null","reveal","image-keyboard-response","423","1277095","0.0-6.0-4.59","2557399","co39508","norming","","","","","","",""
"null","../img/tt/598tt.jpg","null","mooney2","image-keyboard-response","424","1279098","0.0-6.0-5.59","2557399","co39508","norming","","","","","","",""
"4421.339999999851","","","post_reveal_questions","survey-likert","425","1283523","0.0-6.0-6.59","2557399","co39508","norming","","","{""aha"":2}","[0]","../img/tt/598tt.jpg","",""
"null","<div style=""font-size:60px;""> </div>","null","fixation","html-keyboard-response","426","1283733","0.0-6.0-0.60","2557399","co39508","norming","","","","","","",""
"null","../img/tt/552tt.jpg","null","mooney1","image-keyboard-response","427","1286741","0.0-6.0-1.60","2557399","co39508","norming","","","","","","",""
"4978.9550000000745","","","post_mooney1_questions","survey-likert","428","1291723","0.0-6.0-2.60","2557399","co39508","norming","","","{""curiosity"":1,""confidence"":1}","[0,1]","../img/tt/552tt.jpg","",""
"2725.8549999999814","","","recognition","survey-text","429","1294451","0.0-6.0-3.60","2557399","co39508","norming","","","{""guess"":""goose""}","","../img/tt/552tt.jpg","",""
"null","../img/gs/552gs.jpg","null","reveal","image-keyboard-response","430","1296452","0.0-6.0-4.60","2557399","co39508","norming","","","","","","",""
"null","../img/tt/552tt.jpg","null","mooney2","image-keyboard-response","431","1298455","0.0-6.0-5.60","2557399","co39508","norming","","","","","","",""
"3001.744999999879","","","post_reveal_questions","survey-likert","432","1301459","0.0-6.0-6.60","2557399","co39508","norming","","","{""aha"":0}","[0]","../img/tt/552tt.jpg","",""
"null","<div style=""font-size:60px;""> </div>","null","fixation","html-keyboard-response","433","1301667","0.0-6.0-0.61","2557399","co39508","norming","","","","","","",""
"null","../img/tt/1242tt.jpg","null","mooney1","image-keyboard-response","434","1304674","0.0-6.0-1.61","2557399","co39508","norming","","","","","","",""
"5038.445000000298","","","post_mooney1_questions","survey-likert","435","1309715","0.0-6.0-2.61","2557399","co39508","norming","","","{""curiosity"":3,""confidence"":1}","[0,1]","../img/tt/1242tt.jpg","",""
"2254.089999999851","","","recognition","survey-text","436","1311974","0.0-6.0-3.61","2557399","co39508","norming","","","{""guess"":""dog""}","","../img/tt/1242tt.jpg","",""
"null","../img/gs/1242gs.jpg","null","reveal","image-keyboard-response","437","1313982","0.0-6.0-4.61","2557399","co39508","norming","","","","","","",""
"null","../img/tt/1242tt.jpg","null","mooney2","image-keyboard-response","438","1315993","0.0-6.0-5.61","2557399","co39508","norming","","","","","","",""
"2418.5","","","post_reveal_questions","survey-likert","439","1318414","0.0-6.0-6.61","2557399","co39508","norming","","","{""aha"":1}","[0]","../img/tt/1242tt.jpg","",""
"null","<div style=""font-size:60px;""> </div>","null","fixation","html-keyboard-response","440","1318620","0.0-6.0-0.62","2557399","co39508","norming","","","","","","",""
"null","../img/tt/222tt.jpg","null","mooney1","image-keyboard-response","441","1321626","0.0-6.0-1.62","2557399","co39508","norming","","","","","","",""
"4280.4799999997485","","","post_mooney1_questions","survey-likert","442","1325910","0.0-6.0-2.62","2557399","co39508","norming","","","{""curiosity"":3,""confidence"":2}","[0,1]","../img/tt/222tt.jpg","",""
"3070.0250000001397","","","recognition","survey-text","443","1328982","0.0-6.0-3.62","2557399","co39508","norming","","","{""guess"":""bathtub""}","","../img/tt/222tt.jpg","",""
"null","../img/gs/222gs.jpg","null","reveal","image-keyboard-response","444","1330986","0.0-6.0-4.62","2557399","co39508","norming","","","","","","",""
"null","../img/tt/222tt.jpg","null","mooney2","image-keyboard-response","445","1332988","0.0-6.0-5.62","2557399","co39508","norming","","","","","","",""
"2703.494999999879","","","post_reveal_questions","survey-likert","446","1335694","0.0-6.0-6.62","2557399","co39508","norming","","","{""aha"":5}","[0]","../img/tt/222tt.jpg","",""
"null","<div style=""font-size:60px;""> </div>","null","fixation","html-keyboard-response","447","1335895","0.0-6.0-0.63","2557399","co39508","norming","","","","","","",""
"null","../img/tt/440tt.jpg","null","mooney1","image-keyboard-response","448","1338901","0.0-6.0-1.63","2557399","co39508","norming","","","","","","",""
"3413.274999999907","","","post_mooney1_questions","survey-likert","449","1342318","0.0-6.0-2.63","2557399","co39508","norming","","","{""curiosity"":2,""confidence"":1}","[0,1]","../img/tt/440tt.jpg","",""
"2326.3899999996647","","","recognition","survey-text","450","1344646","0.0-6.0-3.63","2557399","co39508","norming","","","{""guess"":""basket""}","","../img/tt/440tt.jpg","",""
"null","../img/gs/440gs.jpg","null","reveal","image-keyboard-response","451","1346650","0.0-6.0-4.63","2557399","co39508","norming","","","","","","",""
"null","../img/tt/440tt.jpg","null","mooney2","image-keyboard-response","452","1348658","0.0-6.0-5.63","2557399","co39508","norming","","","","","","",""
"2456.989999999525","","","post_reveal_questions","survey-likert","453","1351118","0.0-6.0-6.63","2557399","co39508","norming","","","{""aha"":1}","[0]","../img/tt/440tt.jpg","",""
"null","<div style=""font-size:60px;""> </div>","null","fixation","html-keyboard-response","454","1351323","0.0-6.0-0.64","2557399","co39508","norming","","","","","","",""
"null","../img/tt/1063tt.jpg","null","mooney1","image-keyboard-response","455","1354329","0.0-6.0-1.64","2557399","co39508","norming","","","","","","",""
"4235.920000000158","","","post_mooney1_questions","survey-likert","456","1358566","0.0-6.0-2.64","2557399","co39508","norming","","","{""curiosity"":2,""confidence"":1}","[0,1]","../img/tt/1063tt.jpg","",""
"2366.090000000084","","","recognition","survey-text","457","1360934","0.0-6.0-3.64","2557399","co39508","norming","","","{""guess"":""horse""}","","../img/tt/1063tt.jpg","",""
"null","../img/gs/1063gs.jpg","null","reveal","image-keyboard-response","458","1362941","0.0-6.0-4.64","2557399","co39508","norming","","","","","","",""
"null","../img/tt/1063tt.jpg","null","mooney2","image-keyboard-response","459","1364943","0.0-6.0-5.64","2557399","co39508","norming","","","","","","",""
"1819.8200000000652","","","post_reveal_questions","survey-likert","460","1366766","0.0-6.0-6.64","2557399","co39508","norming","","","{""aha"":6}","[0]","../img/tt/1063tt.jpg","",""
"null","<div style=""font-size:60px;""> </div>","null","fixation","html-keyboard-response","461","1366967","0.0-6.0-0.65","2557399","co39508","norming","","","","","","",""
"null","../img/tt/1078tt.jpg","null","mooney1","image-keyboard-response","462","1369970","0.0-6.0-1.65","2557399","co39508","norming","","","","","","",""
"3184.7249999998603","","","post_mooney1_questions","survey-likert","463","1373158","0.0-6.0-2.65","2557399","co39508","norming","","","{""curiosity"":2,""confidence"":3}","[0,1]","../img/tt/1078tt.jpg","",""
"5341.909999999683","","","recognition","survey-text","464","1378501","0.0-6.0-3.65","2557399","co39508","norming","","","{""guess"":""skater""}","","../img/tt/1078tt.jpg","",""
"null","../img/gs/1078gs.jpg","null","reveal","image-keyboard-response","465","1380508","0.0-6.0-4.65","2557399","co39508","norming","","","","","","",""
"null","../img/tt/1078tt.jpg","null","mooney2","image-keyboard-response","466","1382510","0.0-6.0-5.65","2557399","co39508","norming","","","","","","",""
"1669.0250000001397","","","post_reveal_questions","survey-likert","467","1384181","0.0-6.0-6.65","2557399","co39508","norming","","","{""aha"":3}","[0]","../img/tt/1078tt.jpg","",""
"null","<div style=""font-size:60px;""> </div>","null","fixation","html-keyboard-response","468","1384385","0.0-6.0-0.66","2557399","co39508","norming","","","","","","",""
"null","../img/tt/1366tt.jpg","null","mooney1","image-keyboard-response","469","1387386","0.0-6.0-1.66","2557399","co39508","norming","","","","","","",""
"3768.5100000000093","","","post_mooney1_questions","survey-likert","470","1391157","0.0-6.0-2.66","2557399","co39508","norming","","","{""curiosity"":1,""confidence"":0}","[0,1]","../img/tt/1366tt.jpg","",""
"2894.2099999999627","","","recognition","survey-text","471","1394053","0.0-6.0-3.66","2557399","co39508","norming","","","{""guess"":""dishes""}","","../img/tt/1366tt.jpg","",""
"null","../img/gs/1366gs.jpg","null","reveal","image-keyboard-response","472","1396062","0.0-6.0-4.66","2557399","co39508","norming","","","","","","",""
"null","../img/tt/1366tt.jpg","null","mooney2","image-keyboard-response","473","1398065","0.0-6.0-5.66","2557399","co39508","norming","","","","","","",""
"2761.4099999996834","","","post_reveal_questions","survey-likert","474","1400829","0.0-6.0-6.66","2557399","co39508","norming","","","{""aha"":2}","[0]","../img/tt/1366tt.jpg","",""
"null","<div style=""font-size:60px;""> </div>","null","fixation","html-keyboard-response","475","1401031","0.0-6.0-0.67","2557399","co39508","norming","","","","","","",""
"null","../img/tt/108tt.jpg","null","mooney1","image-keyboard-response","476","1404039","0.0-6.0-1.67","2557399","co39508","norming","","","","","","",""
"3739.8299999998417","","","post_mooney1_questions","survey-likert","477","1407782","0.0-6.0-2.67","2557399","co39508","norming","","","{""curiosity"":2,""confidence"":1}","[0,1]","../img/tt/108tt.jpg","",""
"1630.1049999997485","","","recognition","survey-text","478","1409413","0.0-6.0-3.67","2557399","co39508","norming","","","{""guess"":""dog""}","","../img/tt/108tt.jpg","",""
"null","../img/gs/108gs.jpg","null","reveal","image-keyboard-response","479","1411420","0.0-6.0-4.67","2557399","co39508","norming","","","","","","",""
"null","../img/tt/108tt.jpg","null","mooney2","image-keyboard-response","480","1413423","0.0-6.0-5.67","2557399","co39508","norming","","","","","","",""
"1804.1850000000559","","","post_reveal_questions","survey-likert","481","1415229","0.0-6.0-6.67","2557399","co39508","norming","","","{""aha"":4}","[0]","../img/tt/108tt.jpg","",""
"null","<div style=""font-size:60px;""> </div>","null","fixation","html-keyboard-response","482","1415440","0.0-6.0-0.68","2557399","co39508","norming","","","","","","",""
"null","../img/tt/1251tt.jpg","null","mooney1","image-keyboard-response","483","1418447","0.0-6.0-1.68","2557399","co39508","norming","","","","","","",""
"4299.964999999618","","","post_mooney1_questions","survey-likert","484","1422749","0.0-6.0-2.68","2557399","co39508","norming","","","{""curiosity"":2,""confidence"":3}","[0,1]","../img/tt/1251tt.jpg","",""
"4230.145000000019","","","recognition","survey-text","485","1426981","0.0-6.0-3.68","2557399","co39508","norming","","","{""guess"":""sitting bear""}","","../img/tt/1251tt.jpg","",""
"null","../img/gs/1251gs.jpg","null","reveal","image-keyboard-response","486","1428983","0.0-6.0-4.68","2557399","co39508","norming","","","","","","",""
"null","../img/tt/1251tt.jpg","null","mooney2","image-keyboard-response","487","1430985","0.0-6.0-5.68","2557399","co39508","norming","","","","","","",""
"3353.1399999998976","","","post_reveal_questions","survey-likert","488","1434343","0.0-6.0-6.68","2557399","co39508","norming","","","{""aha"":0}","[0]","../img/tt/1251tt.jpg","",""
"null","<div style=""font-size:60px;""> </div>","null","fixation","html-keyboard-response","489","1434552","0.0-6.0-0.69","2557399","co39508","norming","","","","","","",""
"null","../img/tt/307tt.jpg","null","mooney1","image-keyboard-response","490","1437556","0.0-6.0-1.69","2557399","co39508","norming","","","","","","",""
"3072.1650000000373","","","post_mooney1_questions","survey-likert","491","1440631","0.0-6.0-2.69","2557399","co39508","norming","","","{""curiosity"":2,""confidence"":1}","[0,1]","../img/tt/307tt.jpg","",""
"2382.4549999998417","","","recognition","survey-text","492","1443015","0.0-6.0-3.69","2557399","co39508","norming","","","{""guess"":""shooes""}","","../img/tt/307tt.jpg","",""
"null","../img/gs/307gs.jpg","null","reveal","image-keyboard-response","493","1445023","0.0-6.0-4.69","2557399","co39508","norming","","","","","","",""
"null","../img/tt/307tt.jpg","null","mooney2","image-keyboard-response","494","1447026","0.0-6.0-5.69","2557399","co39508","norming","","","","","","",""
"1650.744999999879","","","post_reveal_questions","survey-likert","495","1448679","0.0-6.0-6.69","2557399","co39508","norming","","","{""aha"":3}","[0]","../img/tt/307tt.jpg","",""
"null","<div style=""font-size:60px;""> </div>","null","fixation","html-keyboard-response","496","1448882","0.0-6.0-0.70","2557399","co39508","norming","","","","","","",""
"null","../img/tt/580tt.jpg","null","mooney1","image-keyboard-response","497","1451888","0.0-6.0-1.70","2557399","co39508","norming","","","","","","",""
"3732.434999999823","","","post_mooney1_questions","survey-likert","498","1455623","0.0-6.0-2.70","2557399","co39508","norming","","","{""curiosity"":0,""confidence"":4}","[0,1]","../img/tt/580tt.jpg","",""
"7190.145000000019","","","recognition","survey-text","499","1462815","0.0-6.0-3.70","2557399","co39508","norming","","","{""guess"":""""}","","../img/tt/580tt.jpg","",""
"null","../img/gs/580gs.jpg","null","reveal","image-keyboard-response","500","1464820","0.0-6.0-4.70","2557399","co39508","norming","","","","","","",""
"null","../img/tt/580tt.jpg","null","mooney2","image-keyboard-response","501","1466823","0.0-6.0-5.70","2557399","co39508","norming","","","","","","",""
"1709.0400000000373","","","post_reveal_questions","survey-likert","502","1468535","0.0-6.0-6.70","2557399","co39508","norming","","","{""aha"":1}","[0]","../img/tt/580tt.jpg","",""
"null","<div style=""font-size:60px;""> </div>","null","fixation","html-keyboard-response","503","1468745","0.0-6.0-0.71","2557399","co39508","norming","","","","","","",""
"null","../img/tt/1084tt.jpg","null","mooney1","image-keyboard-response","504","1471752","0.0-6.0-1.71","2557399","co39508","norming","","","","","","",""
"3308.284999999916","","","post_mooney1_questions","survey-likert","505","1475063","0.0-6.0-2.71","2557399","co39508","norming","","","{""curiosity"":3,""confidence"":5}","[0,1]","../img/tt/1084tt.jpg","",""
"2158.280000000028","","","recognition","survey-text","506","1477223","0.0-6.0-3.71","2557399","co39508","norming","","","{""guess"":""cake""}","","../img/tt/1084tt.jpg","",""
"null","../img/gs/1084gs.jpg","null","reveal","image-keyboard-response","507","1479229","0.0-6.0-4.71","2557399","co39508","norming","","","","","","",""
"null","../img/tt/1084tt.jpg","null","mooney2","image-keyboard-response","508","1481234","0.0-6.0-5.71","2557399","co39508","norming","","","","","","",""
"2178.364999999758","","","post_reveal_questions","survey-likert","509","1483415","0.0-6.0-6.71","2557399","co39508","norming","","","{""aha"":1}","[0]","../img/tt/1084tt.jpg","",""
"null","<div style=""font-size:60px;""> </div>","null","fixation","html-keyboard-response","510","1483617","0.0-6.0-0.72","2557399","co39508","norming","","","","","","",""
"null","../img/tt/301tt.jpg","null","mooney1","image-keyboard-response","511","1486629","0.0-6.0-1.72","2557399","co39508","norming","","","","","","",""
"3239.0500000000466","","","post_mooney1_questions","survey-likert","512","1489871","0.0-6.0-2.72","2557399","co39508","norming","","","{""curiosity"":2,""confidence"":4}","[0,1]","../img/tt/301tt.jpg","",""
"2518.5200000000186","","","recognition","survey-text","513","1492391","0.0-6.0-3.72","2557399","co39508","norming","","","{""guess"":""bells""}","","../img/tt/301tt.jpg","",""
"null","../img/gs/301gs.jpg","null","reveal","image-keyboard-response","514","1494394","0.0-6.0-4.72","2557399","co39508","norming","","","","","","",""
"null","../img/tt/301tt.jpg","null","mooney2","image-keyboard-response","515","1496394","0.0-6.0-5.72","2557399","co39508","norming","","","","","","",""
"2868.570000000065","","","post_reveal_questions","survey-likert","516","1499264","0.0-6.0-6.72","2557399","co39508","norming","","","{""aha"":0}","[0]","../img/tt/301tt.jpg","",""
"null","<div style=""font-size:60px;""> </div>","null","fixation","html-keyboard-response","517","1499466","0.0-6.0-0.73","2557399","co39508","norming","","","","","","",""
"null","../img/tt/084tt.jpg","null","mooney1","image-keyboard-response","518","1502470","0.0-6.0-1.73","2557399","co39508","norming","","","","","","",""
"3765.255000000354","","","post_mooney1_questions","survey-likert","519","1506240","0.0-6.0-2.73","2557399","co39508","norming","","","{""curiosity"":2,""confidence"":4}","[0,1]","../img/tt/084tt.jpg","",""
"1782.0200000000186","","","recognition","survey-text","520","1508024","0.0-6.0-3.73","2557399","co39508","norming","","","{""guess"":""duck""}","","../img/tt/084tt.jpg","",""
"null","../img/gs/084gs.jpg","null","reveal","image-keyboard-response","521","1510031","0.0-6.0-4.73","2557399","co39508","norming","","","","","","",""
"null","../img/tt/084tt.jpg","null","mooney2","image-keyboard-response","522","1512042","0.0-6.0-5.73","2557399","co39508","norming","","","","","","",""
"1971.404999999795","","","post_reveal_questions","survey-likert","523","1514016","0.0-6.0-6.73","2557399","co39508","norming","","","{""aha"":1}","[0]","../img/tt/084tt.jpg","",""
"null","<div style=""font-size:60px;""> </div>","null","fixation","html-keyboard-response","524","1514219","0.0-6.0-0.74","2557399","co39508","norming","","","","","","",""
"null","../img/tt/1069tt.jpg","null","mooney1","image-keyboard-response","525","1517229","0.0-6.0-1.74","2557399","co39508","norming","","","","","","",""
"5392.195000000298","","","post_mooney1_questions","survey-likert","526","1522624","0.0-6.0-2.74","2557399","co39508","norming","","","{""curiosity"":2,""confidence"":5}","[0,1]","../img/tt/1069tt.jpg","",""
"3350.215000000084","","","recognition","survey-text","527","1525976","0.0-6.0-3.74","2557399","co39508","norming","","","{""guess"":""bowling""}","","../img/tt/1069tt.jpg","",""
"null","../img/gs/1069gs.jpg","null","reveal","image-keyboard-response","528","1527978","0.0-6.0-4.74","2557399","co39508","norming","","","","","","",""
"null","../img/tt/1069tt.jpg","null","mooney2","image-keyboard-response","529","1529980","0.0-6.0-5.74","2557399","co39508","norming","","","","","","",""
"1921.7299999999814","","","post_reveal_questions","survey-likert","530","1531904","0.0-6.0-6.74","2557399","co39508","norming","","","{""aha"":5}","[0]","../img/tt/1069tt.jpg","",""
"null","<div style=""font-size:60px;""> </div>","null","fixation","html-keyboard-response","531","1532113","0.0-6.0-0.75","2557399","co39508","norming","","","","","","",""
"null","../img/tt/524tt.jpg","null","mooney1","image-keyboard-response","532","1535117","0.0-6.0-1.75","2557399","co39508","norming","","","","","","",""
"4271.814999999944","","","post_mooney1_questions","survey-likert","533","1539392","0.0-6.0-2.75","2557399","co39508","norming","","","{""curiosity"":1,""confidence"":2}","[0,1]","../img/tt/524tt.jpg","",""
"2677.9900000002235","","","recognition","survey-text","534","1542072","0.0-6.0-3.75","2557399","co39508","norming","","","{""guess"":""cow""}","","../img/tt/524tt.jpg","",""
"null","../img/gs/524gs.jpg","null","reveal","image-keyboard-response","535","1544073","0.0-6.0-4.75","2557399","co39508","norming","","","","","","",""
"null","../img/tt/524tt.jpg","null","mooney2","image-keyboard-response","536","1546075","0.0-6.0-5.75","2557399","co39508","norming","","","","","","",""
"1826.2250000000931","","","post_reveal_questions","survey-likert","537","1547904","0.0-6.0-6.75","2557399","co39508","norming","","","{""aha"":3}","[0]","../img/tt/524tt.jpg","",""
"null","<div style=""font-size:60px;""> </div>","null","fixation","html-keyboard-response","538","1548105","0.0-6.0-0.76","2557399","co39508","norming","","","","","","",""
"null","../img/tt/031tt.jpg","null","mooney1","image-keyboard-response","539","1551108","0.0-6.0-1.76","2557399","co39508","norming","","","","","","",""
"3608.6999999997206","","","post_mooney1_questions","survey-likert","540","1554720","0.0-6.0-2.76","2557399","co39508","norming","","","{""curiosity"":2,""confidence"":5}","[0,1]","../img/tt/031tt.jpg","",""
"2150.064999999944","","","recognition","survey-text","541","1556872","0.0-6.0-3.76","2557399","co39508","norming","","","{""guess"":""bear""}","","../img/tt/031tt.jpg","",""
"null","../img/gs/031gs.jpg","null","reveal","image-keyboard-response","542","1558873","0.0-6.0-4.76","2557399","co39508","norming","","","","","","",""
"null","../img/tt/031tt.jpg","null","mooney2","image-keyboard-response","543","1560880","0.0-6.0-5.76","2557399","co39508","norming","","","","","","",""
"2902.594999999972","","","post_reveal_questions","survey-likert","544","1563784","0.0-6.0-6.76","2557399","co39508","norming","","","{""aha"":1}","[0]","../img/tt/031tt.jpg","",""
"null","<div style=""font-size:60px;""> </div>","null","fixation","html-keyboard-response","545","1563985","0.0-6.0-0.77","2557399","co39508","norming","","","","","","",""
"null","../img/tt/036tt.jpg","null","mooney1","image-keyboard-response","546","1566988","0.0-6.0-1.77","2557399","co39508","norming","","","","","","",""
"6312.704999999842","","","post_mooney1_questions","survey-likert","547","1573304","0.0-6.0-2.77","2557399","co39508","norming","","","{""curiosity"":1,""confidence"":6}","[0,1]","../img/tt/036tt.jpg","",""
"4270.079999999842","","","recognition","survey-text","548","1577576","0.0-6.0-3.77","2557399","co39508","norming","","","{""guess"":""lighting""}","","../img/tt/036tt.jpg","",""
"null","../img/gs/036gs.jpg","null","reveal","image-keyboard-response","549","1579579","0.0-6.0-4.77","2557399","co39508","norming","","","","","","",""
"null","../img/tt/036tt.jpg","null","mooney2","image-keyboard-response","550","1581581","0.0-6.0-5.77","2557399","co39508","norming","","","","","","",""
"1888.6299999998882","","","post_reveal_questions","survey-likert","551","1583472","0.0-6.0-6.77","2557399","co39508","norming","","","{""aha"":4}","[0]","../img/tt/036tt.jpg","",""
