"rt","stimulus","key_press","test_part","trial_type","trial_index","time_elapsed","internal_node_id","totalTime","subject","experiment_name","button_pressed","success","responses","question_order","currentStim","old","correct"
"12605.789999999615","Welcome to the experiment. This is an online experiment so please don't close the tab/window until we say goodbye.  Press any key to begin.","40","instructions","html-keyboard-response","0","12639","0.0-0.0","2648616","co39682","norming","","","","","","",""
"31874.339999999847","<div style='word-wrap: break-word; width: 900px'><h3>Please consider this information carefully before deciding whether to participate in this research</h3><ul style='text-align: left; font-size: .8em;'><li><b>Purpose of the research</b>: To examine how people process images.</li><li><b>What you will do in this research</b>:  Stimuli (images) will be presented on the computer and you will be asked different questions about them.</li><li><b>Time required</b>: Participation will take between 45 and 60 minutes to complete.</li><li><b>Risks</b>:  There are no anticipated risks associated with participating in this study. The effects of participating should be comparable to those you would experience from viewing a computer monitor for 30 minutes and using a mouse or keyboard.</li><li><b>Benefits</b>:  This study provides no benefits to you individually except for the credit. The study provides important information about the nature of perception and learning.</li><li><b>Confidentiality</b>:  Your participation in this study will remain confidential. No personally identifiable information will be associated with your data. Your de-identified data may be shared with other researchers and used in future projects.</li><li><b>Participation and withdrawal</b>:  Your participation in this study is completely voluntary and you may refuse to participate or you may choose to withdraw at any time without penalty.</li><li><b>How to contact the researchers</b>: If you have questions or concerns about your participation or payment, or want to request a summary of research findings, please contact Sander Van de Cruys (KU Leuven), at sander.vandecruys@kuleuven.be.</li></ul><p>The nature and purpose of this research have been sufficiently explained and I agree to participate in this study.  I understand that I am free to withdraw at any time without incurring any penalty.</p><p>Please consent by clicking the button below to continue. Otherwise, please exit the study at this time.</p></div>","","instructions","html-button-response","1","44516","0.0-1.0","2648616","co39682","norming","0","","","","","",""
"","","","instructions","fullscreen","2","49269","0.0-2.0","2648616","co39682","norming","","true","","","","",""
"42764.710000000385","","","sona","survey-html-form","3","92037","0.0-3.0","2648616","co39682","norming","","","[{""name"":""sonaid"",""value"":""39682""},{""name"":""debrief"",""value"":""no""},{""name"":""datajoin"",""value"":""yes""}]","","","",""
"68518.97000000009","<div style='word-wrap: break-word; width: 900px'><h3>Instructions</h3><p>This experiment will have 3 parts. In the first part you will see a series of distorted images like the one below on the left. As you can see in the righthand image, the distorted images are derived from actual photographs. In what follows, you will <strong>briefly</strong> be presented with <strong>only</strong> the distorted image.</p> <div style='float: left; margin-right: 20px;'><img src='../img/018tt.jpg' height='250' width='250'></img></div><div style='float: right; margin-left: 20px;'><img src='../img/018gs.jpg' height='250' width='250'></img></div><p>Subsequently you will be asked a few questions about the image: One question on how <strong>curious</strong> you are about the solution and one on how <strong>confident</strong> you are that you know the solution.</p>Next, we ask you to make a guess on what is in the image. Note that it is OK to name just the <strong>basic level category</strong>. For example when you see a parrot in the image, 'parrot' will obviously be a correct answer but also correct is 'bird'. However, 'animal' will <strong>not</strong> be counted as a correct response. For the example above, 'rose' would be correct or 'flower', but not 'plant'. When soccer players are depicted, 'soccer', 'football', 'soccer players' will be correct, but not 'humans', 'outdoors', or 'sports'. You do not need to describe the image in full, just name the main object in it <strong>in one or two words</strong>. All images depict objects from one of the following broad level categories: animals, inanimate objects, plants, sports, vehicles, and food. Recognizing means knowing <strong>more</strong> than these broad labels for a given image. But we always encourage you to <strong>make a guess</strong> if you can. Note that you are allowed to use <strong>Dutch and English</strong> in your answers, whatever comes easiest for you.</p><p>Press any key to continue.</p></div>","32","instructions","html-keyboard-response","4","160557","0.0-4.0","2648616","co39682","norming","","","","","","",""
"206.3050000006042","<div style='word-wrap: break-word; width: 900px'><h3>Instructions</h3> <p>Next, the solution image will be revealed to you and you'll be asked to indicate how strong your <strong>aha-experience</strong> was after seeing the solution. This describes the positive feeling of the 'click' you sometimes experience, when the pieces of the 'puzzle' fall together and you suddenly have 'insight' in the image.</p><img src='aha.jpg' height='188' width='250'></img><p>Note that there are no right or wrong answers. We are interested in what <strong>you</strong> see in the image and how <strong>you</strong> feel about it.</p><p>Press any key to start the experiment.</p></div>","32","instructions","html-keyboard-response","5","160765","0.0-5.0","2648616","co39682","norming","","","","","","",""
"null","<div style=""font-size:60px;""> </div>","null","fixation","html-keyboard-response","6","160967","0.0-6.0-0.0","2648616","co39682","norming","","","","","","",""
"null","../img/tt/1143tt.jpg","null","mooney1","image-keyboard-response","7","163970","0.0-6.0-1.0","2648616","co39682","norming","","","","","","",""
"9719.484999999608","","","post_mooney1_questions","survey-likert","8","173693","0.0-6.0-2.0","2648616","co39682","norming","","","{""curiosity"":6,""confidence"":0}","[0,1]","../img/tt/1143tt.jpg","",""
"27677.620000000374","","","recognition","survey-text","9","201372","0.0-6.0-3.0","2648616","co39682","norming","","","{""guess"":""""}","","../img/tt/1143tt.jpg","",""
"null","../img/gs/1143gs.jpg","null","reveal","image-keyboard-response","10","203374","0.0-6.0-4.0","2648616","co39682","norming","","","","","","",""
"null","../img/tt/1143tt.jpg","null","mooney2","image-keyboard-response","11","205375","0.0-6.0-5.0","2648616","co39682","norming","","","","","","",""
"5082.884999999806","","","post_reveal_questions","survey-likert","12","210460","0.0-6.0-6.0","2648616","co39682","norming","","","{""aha"":6}","[0]","../img/tt/1143tt.jpg","",""
"null","<div style=""font-size:60px;""> </div>","null","fixation","html-keyboard-response","13","210666","0.0-6.0-0.1","2648616","co39682","norming","","","","","","",""
"null","../img/tt/078tt.jpg","null","mooney1","image-keyboard-response","14","213668","0.0-6.0-1.1","2648616","co39682","norming","","","","","","",""
"5478.550000000716","","","post_mooney1_questions","survey-likert","15","219149","0.0-6.0-2.1","2648616","co39682","norming","","","{""curiosity"":3,""confidence"":0}","[0,1]","../img/tt/078tt.jpg","",""
"998.1100000004517","","","recognition","survey-text","16","220149","0.0-6.0-3.1","2648616","co39682","norming","","","{""guess"":""""}","","../img/tt/078tt.jpg","",""
"null","../img/gs/078gs.jpg","null","reveal","image-keyboard-response","17","222151","0.0-6.0-4.1","2648616","co39682","norming","","","","","","",""
"null","../img/tt/078tt.jpg","null","mooney2","image-keyboard-response","18","224153","0.0-6.0-5.1","2648616","co39682","norming","","","","","","",""
"2058.3249999999534","","","post_reveal_questions","survey-likert","19","226213","0.0-6.0-6.1","2648616","co39682","norming","","","{""aha"":0}","[0]","../img/tt/078tt.jpg","",""
"null","<div style=""font-size:60px;""> </div>","null","fixation","html-keyboard-response","20","226414","0.0-6.0-0.2","2648616","co39682","norming","","","","","","",""
"null","../img/tt/1125tt.jpg","null","mooney1","image-keyboard-response","21","229416","0.0-6.0-1.2","2648616","co39682","norming","","","","","","",""
"6706.439999999915","","","post_mooney1_questions","survey-likert","22","236125","0.0-6.0-2.2","2648616","co39682","norming","","","{""curiosity"":4,""confidence"":2}","[0,1]","../img/tt/1125tt.jpg","",""
"9358.124999999738","","","recognition","survey-text","23","245485","0.0-6.0-3.2","2648616","co39682","norming","","","{""guess"":""kinderen""}","","../img/tt/1125tt.jpg","",""
"null","../img/gs/1125gs.jpg","null","reveal","image-keyboard-response","24","247487","0.0-6.0-4.2","2648616","co39682","norming","","","","","","",""
"null","../img/tt/1125tt.jpg","null","mooney2","image-keyboard-response","25","249489","0.0-6.0-5.2","2648616","co39682","norming","","","","","","",""
"2522.839999999618","","","post_reveal_questions","survey-likert","26","252013","0.0-6.0-6.2","2648616","co39682","norming","","","{""aha"":1}","[0]","../img/tt/1125tt.jpg","",""
"null","<div style=""font-size:60px;""> </div>","null","fixation","html-keyboard-response","27","252215","0.0-6.0-0.3","2648616","co39682","norming","","","","","","",""
"null","../img/tt/082tt.jpg","null","mooney1","image-keyboard-response","28","255217","0.0-6.0-1.3","2648616","co39682","norming","","","","","","",""
"3753.364999999554","","","post_mooney1_questions","survey-likert","29","258973","0.0-6.0-2.3","2648616","co39682","norming","","","{""curiosity"":4,""confidence"":0}","[0,1]","../img/tt/082tt.jpg","",""
"830.1050000000105","","","recognition","survey-text","30","259805","0.0-6.0-3.3","2648616","co39682","norming","","","{""guess"":""""}","","../img/tt/082tt.jpg","",""
"null","../img/gs/082gs.jpg","null","reveal","image-keyboard-response","31","261807","0.0-6.0-4.3","2648616","co39682","norming","","","","","","",""
"null","../img/tt/082tt.jpg","null","mooney2","image-keyboard-response","32","263809","0.0-6.0-5.3","2648616","co39682","norming","","","","","","",""
"3882.1699999998673","","","post_reveal_questions","survey-likert","33","267693","0.0-6.0-6.3","2648616","co39682","norming","","","{""aha"":1}","[0]","../img/tt/082tt.jpg","",""
"null","<div style=""font-size:60px;""> </div>","null","fixation","html-keyboard-response","34","267894","0.0-6.0-0.4","2648616","co39682","norming","","","","","","",""
"null","../img/tt/007tt.jpg","null","mooney1","image-keyboard-response","35","270896","0.0-6.0-1.4","2648616","co39682","norming","","","","","","",""
"4930.395000000368","","","post_mooney1_questions","survey-likert","36","275829","0.0-6.0-2.4","2648616","co39682","norming","","","{""curiosity"":3,""confidence"":1}","[0,1]","../img/tt/007tt.jpg","",""
"6686.220000000554","","","recognition","survey-text","37","282518","0.0-6.0-3.4","2648616","co39682","norming","","","{""guess"":""duif""}","","../img/tt/007tt.jpg","",""
"null","../img/gs/007gs.jpg","null","reveal","image-keyboard-response","38","284519","0.0-6.0-4.4","2648616","co39682","norming","","","","","","",""
"null","../img/tt/007tt.jpg","null","mooney2","image-keyboard-response","39","286523","0.0-6.0-5.4","2648616","co39682","norming","","","","","","",""
"2456.745000000403","","","post_reveal_questions","survey-likert","40","288982","0.0-6.0-6.4","2648616","co39682","norming","","","{""aha"":1}","[0]","../img/tt/007tt.jpg","",""
"null","<div style=""font-size:60px;""> </div>","null","fixation","html-keyboard-response","41","289185","0.0-6.0-0.5","2648616","co39682","norming","","","","","","",""
"null","../img/tt/1191tt.jpg","null","mooney1","image-keyboard-response","42","292187","0.0-6.0-1.5","2648616","co39682","norming","","","","","","",""
"4256.6800000004005","","","post_mooney1_questions","survey-likert","43","296446","0.0-6.0-2.5","2648616","co39682","norming","","","{""curiosity"":2,""confidence"":3}","[0,1]","../img/tt/1191tt.jpg","",""
"5085.860000000161","","","recognition","survey-text","44","301534","0.0-6.0-3.5","2648616","co39682","norming","","","{""guess"":""skiërs""}","","../img/tt/1191tt.jpg","",""
"null","../img/gs/1191gs.jpg","null","reveal","image-keyboard-response","45","303536","0.0-6.0-4.5","2648616","co39682","norming","","","","","","",""
"null","../img/tt/1191tt.jpg","null","mooney2","image-keyboard-response","46","305538","0.0-6.0-5.5","2648616","co39682","norming","","","","","","",""
"2851.3249999996624","","","post_reveal_questions","survey-likert","47","308390","0.0-6.0-6.5","2648616","co39682","norming","","","{""aha"":1}","[0]","../img/tt/1191tt.jpg","",""
"null","<div style=""font-size:60px;""> </div>","null","fixation","html-keyboard-response","48","308591","0.0-6.0-0.6","2648616","co39682","norming","","","","","","",""
"null","../img/tt/076tt.jpg","null","mooney1","image-keyboard-response","49","311594","0.0-6.0-1.6","2648616","co39682","norming","","","","","","",""
"4835.495000000228","","","post_mooney1_questions","survey-likert","50","316430","0.0-6.0-2.6","2648616","co39682","norming","","","{""curiosity"":3,""confidence"":2}","[0,1]","../img/tt/076tt.jpg","",""
"7189.995000000636","","","recognition","survey-text","51","323622","0.0-6.0-3.6","2648616","co39682","norming","","","{""guess"":""rolschaatsen""}","","../img/tt/076tt.jpg","",""
"null","../img/gs/076gs.jpg","null","reveal","image-keyboard-response","52","325624","0.0-6.0-4.6","2648616","co39682","norming","","","","","","",""
"null","../img/tt/076tt.jpg","null","mooney2","image-keyboard-response","53","327625","0.0-6.0-5.6","2648616","co39682","norming","","","","","","",""
"6387.409999999392","","","post_reveal_questions","survey-likert","54","334014","0.0-6.0-6.6","2648616","co39682","norming","","","{""aha"":1}","[0]","../img/tt/076tt.jpg","",""
"null","<div style=""font-size:60px;""> </div>","null","fixation","html-keyboard-response","55","334216","0.0-6.0-0.7","2648616","co39682","norming","","","","","","",""
"null","../img/tt/189tt.jpg","null","mooney1","image-keyboard-response","56","337218","0.0-6.0-1.7","2648616","co39682","norming","","","","","","",""
"4801.785000000615","","","post_mooney1_questions","survey-likert","57","342022","0.0-6.0-2.7","2648616","co39682","norming","","","{""curiosity"":4,""confidence"":2}","[0,1]","../img/tt/189tt.jpg","",""
"5837.730000000214","","","recognition","survey-text","58","347862","0.0-6.0-3.7","2648616","co39682","norming","","","{""guess"":""eenhoorn""}","","../img/tt/189tt.jpg","",""
"null","../img/gs/189gs.jpg","null","reveal","image-keyboard-response","59","349863","0.0-6.0-4.7","2648616","co39682","norming","","","","","","",""
"null","../img/tt/189tt.jpg","null","mooney2","image-keyboard-response","60","351865","0.0-6.0-5.7","2648616","co39682","norming","","","","","","",""
"3586.984999999928","","","post_reveal_questions","survey-likert","61","355454","0.0-6.0-6.7","2648616","co39682","norming","","","{""aha"":0}","[0]","../img/tt/189tt.jpg","",""
"null","<div style=""font-size:60px;""> </div>","null","fixation","html-keyboard-response","62","355655","0.0-6.0-0.8","2648616","co39682","norming","","","","","","",""
"null","../img/tt/049tt.jpg","null","mooney1","image-keyboard-response","63","358658","0.0-6.0-1.8","2648616","co39682","norming","","","","","","",""
"4425.829999999201","","","post_mooney1_questions","survey-likert","64","363086","0.0-6.0-2.8","2648616","co39682","norming","","","{""curiosity"":5,""confidence"":0}","[0,1]","../img/tt/049tt.jpg","",""
"694.0599999997648","","","recognition","survey-text","65","363782","0.0-6.0-3.8","2648616","co39682","norming","","","{""guess"":""""}","","../img/tt/049tt.jpg","",""
"null","../img/gs/049gs.jpg","null","reveal","image-keyboard-response","66","365783","0.0-6.0-4.8","2648616","co39682","norming","","","","","","",""
"null","../img/tt/049tt.jpg","null","mooney2","image-keyboard-response","67","367785","0.0-6.0-5.8","2648616","co39682","norming","","","","","","",""
"2739.2950000002747","","","post_reveal_questions","survey-likert","68","370526","0.0-6.0-6.8","2648616","co39682","norming","","","{""aha"":1}","[0]","../img/tt/049tt.jpg","",""
"null","<div style=""font-size:60px;""> </div>","null","fixation","html-keyboard-response","69","370729","0.0-6.0-0.9","2648616","co39682","norming","","","","","","",""
"null","../img/tt/044tt.jpg","null","mooney1","image-keyboard-response","70","373731","0.0-6.0-1.9","2648616","co39682","norming","","","","","","",""
"4449.105000000622","","","post_mooney1_questions","survey-likert","71","378182","0.0-6.0-2.9","2648616","co39682","norming","","","{""curiosity"":4,""confidence"":0}","[0,1]","../img/tt/044tt.jpg","",""
"2230.0400000003283","","","recognition","survey-text","72","380414","0.0-6.0-3.9","2648616","co39682","norming","","","{""guess"":""""}","","../img/tt/044tt.jpg","",""
"null","../img/gs/044gs.jpg","null","reveal","image-keyboard-response","73","382415","0.0-6.0-4.9","2648616","co39682","norming","","","","","","",""
"null","../img/tt/044tt.jpg","null","mooney2","image-keyboard-response","74","384417","0.0-6.0-5.9","2648616","co39682","norming","","","","","","",""
"2378.850000000093","","","post_reveal_questions","survey-likert","75","386798","0.0-6.0-6.9","2648616","co39682","norming","","","{""aha"":2}","[0]","../img/tt/044tt.jpg","",""
"null","<div style=""font-size:60px;""> </div>","null","fixation","html-keyboard-response","76","386999","0.0-6.0-0.10","2648616","co39682","norming","","","","","","",""
"null","../img/tt/1235tt.jpg","null","mooney1","image-keyboard-response","77","390002","0.0-6.0-1.10","2648616","co39682","norming","","","","","","",""
"4505.864999999176","","","post_mooney1_questions","survey-likert","78","394510","0.0-6.0-2.10","2648616","co39682","norming","","","{""curiosity"":3,""confidence"":2}","[0,1]","../img/tt/1235tt.jpg","",""
"3102.0900000003166","","","recognition","survey-text","79","397614","0.0-6.0-3.10","2648616","co39682","norming","","","{""guess"":""man""}","","../img/tt/1235tt.jpg","",""
"null","../img/gs/1235gs.jpg","null","reveal","image-keyboard-response","80","399616","0.0-6.0-4.10","2648616","co39682","norming","","","","","","",""
"null","../img/tt/1235tt.jpg","null","mooney2","image-keyboard-response","81","401620","0.0-6.0-5.10","2648616","co39682","norming","","","","","","",""
"2994.735000000219","","","post_reveal_questions","survey-likert","82","404615","0.0-6.0-6.10","2648616","co39682","norming","","","{""aha"":1}","[0]","../img/tt/1235tt.jpg","",""
"null","<div style=""font-size:60px;""> </div>","null","fixation","html-keyboard-response","83","404816","0.0-6.0-0.11","2648616","co39682","norming","","","","","","",""
"null","../img/tt/318tt.jpg","null","mooney1","image-keyboard-response","84","407819","0.0-6.0-1.11","2648616","co39682","norming","","","","","","",""
"5802.185000000405","","","post_mooney1_questions","survey-likert","85","413623","0.0-6.0-2.11","2648616","co39682","norming","","","{""curiosity"":4,""confidence"":0}","[0,1]","../img/tt/318tt.jpg","",""
"1029.9100000002072","","","recognition","survey-text","86","414655","0.0-6.0-3.11","2648616","co39682","norming","","","{""guess"":""""}","","../img/tt/318tt.jpg","",""
"null","../img/gs/318gs.jpg","null","reveal","image-keyboard-response","87","416657","0.0-6.0-4.11","2648616","co39682","norming","","","","","","",""
"null","../img/tt/318tt.jpg","null","mooney2","image-keyboard-response","88","418658","0.0-6.0-5.11","2648616","co39682","norming","","","","","","",""
"2643.1000000002095","","","post_reveal_questions","survey-likert","89","421303","0.0-6.0-6.11","2648616","co39682","norming","","","{""aha"":2}","[0]","../img/tt/318tt.jpg","",""
"null","<div style=""font-size:60px;""> </div>","null","fixation","html-keyboard-response","90","421505","0.0-6.0-0.12","2648616","co39682","norming","","","","","","",""
"null","../img/tt/1217tt.jpg","null","mooney1","image-keyboard-response","91","424507","0.0-6.0-1.12","2648616","co39682","norming","","","","","","",""
"8242.080000000016","","","post_mooney1_questions","survey-likert","92","432752","0.0-6.0-2.12","2648616","co39682","norming","","","{""curiosity"":3,""confidence"":1}","[0,1]","../img/tt/1217tt.jpg","",""
"2118.0750000003027","","","recognition","survey-text","93","434871","0.0-6.0-3.12","2648616","co39682","norming","","","{""guess"":""koe""}","","../img/tt/1217tt.jpg","",""
"null","../img/gs/1217gs.jpg","null","reveal","image-keyboard-response","94","436872","0.0-6.0-4.12","2648616","co39682","norming","","","","","","",""
"null","../img/tt/1217tt.jpg","null","mooney2","image-keyboard-response","95","438874","0.0-6.0-5.12","2648616","co39682","norming","","","","","","",""
"2931.704999999958","","","post_reveal_questions","survey-likert","96","441807","0.0-6.0-6.12","2648616","co39682","norming","","","{""aha"":2}","[0]","../img/tt/1217tt.jpg","",""
"null","<div style=""font-size:60px;""> </div>","null","fixation","html-keyboard-response","97","442021","0.0-6.0-0.13","2648616","co39682","norming","","","","","","",""
"null","../img/tt/416tt.jpg","null","mooney1","image-keyboard-response","98","445025","0.0-6.0-1.13","2648616","co39682","norming","","","","","","",""
"4180.554999999935","","","post_mooney1_questions","survey-likert","99","449207","0.0-6.0-2.13","2648616","co39682","norming","","","{""curiosity"":5,""confidence"":0}","[0,1]","../img/tt/416tt.jpg","",""
"742.1899999999441","","","recognition","survey-text","100","449951","0.0-6.0-3.13","2648616","co39682","norming","","","{""guess"":""""}","","../img/tt/416tt.jpg","",""
"null","../img/gs/416gs.jpg","null","reveal","image-keyboard-response","101","451953","0.0-6.0-4.13","2648616","co39682","norming","","","","","","",""
"null","../img/tt/416tt.jpg","null","mooney2","image-keyboard-response","102","453954","0.0-6.0-5.13","2648616","co39682","norming","","","","","","",""
"2035.4200000001583","","","post_reveal_questions","survey-likert","103","455991","0.0-6.0-6.13","2648616","co39682","norming","","","{""aha"":1}","[0]","../img/tt/416tt.jpg","",""
"null","<div style=""font-size:60px;""> </div>","null","fixation","html-keyboard-response","104","456194","0.0-6.0-0.14","2648616","co39682","norming","","","","","","",""
"null","../img/tt/1070tt.jpg","null","mooney1","image-keyboard-response","105","459197","0.0-6.0-1.14","2648616","co39682","norming","","","","","","",""
"5534.729999999399","","","post_mooney1_questions","survey-likert","106","464735","0.0-6.0-2.14","2648616","co39682","norming","","","{""curiosity"":3,""confidence"":1}","[0,1]","../img/tt/1070tt.jpg","",""
"3062.090000000375","","","recognition","survey-text","107","467799","0.0-6.0-3.14","2648616","co39682","norming","","","{""guess"":""boek""}","","../img/tt/1070tt.jpg","",""
"null","../img/gs/1070gs.jpg","null","reveal","image-keyboard-response","108","469801","0.0-6.0-4.14","2648616","co39682","norming","","","","","","",""
"null","../img/tt/1070tt.jpg","null","mooney2","image-keyboard-response","109","471811","0.0-6.0-5.14","2648616","co39682","norming","","","","","","",""
"2242.349999999511","","","post_reveal_questions","survey-likert","110","474055","0.0-6.0-6.14","2648616","co39682","norming","","","{""aha"":0}","[0]","../img/tt/1070tt.jpg","",""
"null","<div style=""font-size:60px;""> </div>","null","fixation","html-keyboard-response","111","474257","0.0-6.0-0.15","2648616","co39682","norming","","","","","","",""
"null","../img/tt/1202tt.jpg","null","mooney1","image-keyboard-response","112","477261","0.0-6.0-1.15","2648616","co39682","norming","","","","","","",""
"4032.640000000363","","","post_mooney1_questions","survey-likert","113","481295","0.0-6.0-2.15","2648616","co39682","norming","","","{""curiosity"":4,""confidence"":0}","[0,1]","../img/tt/1202tt.jpg","",""
"1470.1450000001932","","","recognition","survey-text","114","482767","0.0-6.0-3.15","2648616","co39682","norming","","","{""guess"":""""}","","../img/tt/1202tt.jpg","",""
"null","../img/gs/1202gs.jpg","null","reveal","image-keyboard-response","115","484768","0.0-6.0-4.15","2648616","co39682","norming","","","","","","",""
"null","../img/tt/1202tt.jpg","null","mooney2","image-keyboard-response","116","486770","0.0-6.0-5.15","2648616","co39682","norming","","","","","","",""
"2099.0849999998463","","","post_reveal_questions","survey-likert","117","488871","0.0-6.0-6.15","2648616","co39682","norming","","","{""aha"":0}","[0]","../img/tt/1202tt.jpg","",""
"null","<div style=""font-size:60px;""> </div>","null","fixation","html-keyboard-response","118","489073","0.0-6.0-0.16","2648616","co39682","norming","","","","","","",""
"null","../img/tt/1228tt.jpg","null","mooney1","image-keyboard-response","119","492075","0.0-6.0-1.16","2648616","co39682","norming","","","","","","",""
"5338.0299999999115","","","post_mooney1_questions","survey-likert","120","497415","0.0-6.0-2.16","2648616","co39682","norming","","","{""curiosity"":2,""confidence"":0}","[0,1]","../img/tt/1228tt.jpg","",""
"670.1649999995716","","","recognition","survey-text","121","498087","0.0-6.0-3.16","2648616","co39682","norming","","","{""guess"":""""}","","../img/tt/1228tt.jpg","",""
"null","../img/gs/1228gs.jpg","null","reveal","image-keyboard-response","122","500094","0.0-6.0-4.16","2648616","co39682","norming","","","","","","",""
"null","../img/tt/1228tt.jpg","null","mooney2","image-keyboard-response","123","502095","0.0-6.0-5.16","2648616","co39682","norming","","","","","","",""
"2615.2249999995693","","","post_reveal_questions","survey-likert","124","504711","0.0-6.0-6.16","2648616","co39682","norming","","","{""aha"":0}","[0]","../img/tt/1228tt.jpg","",""
"null","<div style=""font-size:60px;""> </div>","null","fixation","html-keyboard-response","125","504913","0.0-6.0-0.17","2648616","co39682","norming","","","","","","",""
"null","../img/tt/1044tt.jpg","null","mooney1","image-keyboard-response","126","507917","0.0-6.0-1.17","2648616","co39682","norming","","","","","","",""
"6232.7750000003725","","","post_mooney1_questions","survey-likert","127","514151","0.0-6.0-2.17","2648616","co39682","norming","","","{""curiosity"":0,""confidence"":0}","[0,1]","../img/tt/1044tt.jpg","",""
"814.1649999998044","","","recognition","survey-text","128","514967","0.0-6.0-3.17","2648616","co39682","norming","","","{""guess"":""""}","","../img/tt/1044tt.jpg","",""
"null","../img/gs/1044gs.jpg","null","reveal","image-keyboard-response","129","516969","0.0-6.0-4.17","2648616","co39682","norming","","","","","","",""
"null","../img/tt/1044tt.jpg","null","mooney2","image-keyboard-response","130","518972","0.0-6.0-5.17","2648616","co39682","norming","","","","","","",""
"2305.775000000722","","","post_reveal_questions","survey-likert","131","521279","0.0-6.0-6.17","2648616","co39682","norming","","","{""aha"":0}","[0]","../img/tt/1044tt.jpg","",""
"null","<div style=""font-size:60px;""> </div>","null","fixation","html-keyboard-response","132","521481","0.0-6.0-0.18","2648616","co39682","norming","","","","","","",""
"null","../img/tt/300tt.jpg","null","mooney1","image-keyboard-response","133","524484","0.0-6.0-1.18","2648616","co39682","norming","","","","","","",""
"3145.9399999994785","","","post_mooney1_questions","survey-likert","134","527632","0.0-6.0-2.18","2648616","co39682","norming","","","{""curiosity"":3,""confidence"":0}","[0,1]","../img/tt/300tt.jpg","",""
"606.2750000001397","","","recognition","survey-text","135","528240","0.0-6.0-3.18","2648616","co39682","norming","","","{""guess"":""""}","","../img/tt/300tt.jpg","",""
"null","../img/gs/300gs.jpg","null","reveal","image-keyboard-response","136","530241","0.0-6.0-4.18","2648616","co39682","norming","","","","","","",""
"null","../img/tt/300tt.jpg","null","mooney2","image-keyboard-response","137","532244","0.0-6.0-5.18","2648616","co39682","norming","","","","","","",""
"3978.8349999998463","","","post_reveal_questions","survey-likert","138","536224","0.0-6.0-6.18","2648616","co39682","norming","","","{""aha"":1}","[0]","../img/tt/300tt.jpg","",""
"null","<div style=""font-size:60px;""> </div>","null","fixation","html-keyboard-response","139","536426","0.0-6.0-0.19","2648616","co39682","norming","","","","","","",""
"null","../img/tt/534tt.jpg","null","mooney1","image-keyboard-response","140","539431","0.0-6.0-1.19","2648616","co39682","norming","","","","","","",""
"5086.014999999898","","","post_mooney1_questions","survey-likert","141","544520","0.0-6.0-2.19","2648616","co39682","norming","","","{""curiosity"":3,""confidence"":1}","[0,1]","../img/tt/534tt.jpg","",""
"4494.160000000149","","","recognition","survey-text","142","549016","0.0-6.0-3.19","2648616","co39682","norming","","","{""guess"":""prikkeldraad""}","","../img/tt/534tt.jpg","",""
"null","../img/gs/534gs.jpg","null","reveal","image-keyboard-response","143","551017","0.0-6.0-4.19","2648616","co39682","norming","","","","","","",""
"null","../img/tt/534tt.jpg","null","mooney2","image-keyboard-response","144","553019","0.0-6.0-5.19","2648616","co39682","norming","","","","","","",""
"2283.2900000003865","","","post_reveal_questions","survey-likert","145","555304","0.0-6.0-6.19","2648616","co39682","norming","","","{""aha"":0}","[0]","../img/tt/534tt.jpg","",""
"null","<div style=""font-size:60px;""> </div>","null","fixation","html-keyboard-response","146","555505","0.0-6.0-0.20","2648616","co39682","norming","","","","","","",""
"null","../img/tt/1097tt.jpg","null","mooney1","image-keyboard-response","147","558507","0.0-6.0-1.20","2648616","co39682","norming","","","","","","",""
"6411.3899999993155","","","post_mooney1_questions","survey-likert","148","564920","0.0-6.0-2.20","2648616","co39682","norming","","","{""curiosity"":1,""confidence"":0}","[0,1]","../img/tt/1097tt.jpg","",""
"829.9049999995623","","","recognition","survey-text","149","565752","0.0-6.0-3.20","2648616","co39682","norming","","","{""guess"":""""}","","../img/tt/1097tt.jpg","",""
"null","../img/gs/1097gs.jpg","null","reveal","image-keyboard-response","150","567755","0.0-6.0-4.20","2648616","co39682","norming","","","","","","",""
"null","../img/tt/1097tt.jpg","null","mooney2","image-keyboard-response","151","569758","0.0-6.0-5.20","2648616","co39682","norming","","","","","","",""
"2689.155000000028","","","post_reveal_questions","survey-likert","152","572448","0.0-6.0-6.20","2648616","co39682","norming","","","{""aha"":0}","[0]","../img/tt/1097tt.jpg","",""
"null","<div style=""font-size:60px;""> </div>","null","fixation","html-keyboard-response","153","572649","0.0-6.0-0.21","2648616","co39682","norming","","","","","","",""
"null","../img/tt/1055tt.jpg","null","mooney1","image-keyboard-response","154","575652","0.0-6.0-1.21","2648616","co39682","norming","","","","","","",""
"5274.374999999884","","","post_mooney1_questions","survey-likert","155","580929","0.0-6.0-2.21","2648616","co39682","norming","","","{""curiosity"":3,""confidence"":3}","[0,1]","../img/tt/1055tt.jpg","",""
"13646.0900000002","","","recognition","survey-text","156","594576","0.0-6.0-3.21","2648616","co39682","norming","","","{""guess"":""zon ondergaan""}","","../img/tt/1055tt.jpg","",""
"null","../img/gs/1055gs.jpg","null","reveal","image-keyboard-response","157","596579","0.0-6.0-4.21","2648616","co39682","norming","","","","","","",""
"null","../img/tt/1055tt.jpg","null","mooney2","image-keyboard-response","158","598580","0.0-6.0-5.21","2648616","co39682","norming","","","","","","",""
"4218.85000000021","","","post_reveal_questions","survey-likert","159","602800","0.0-6.0-6.21","2648616","co39682","norming","","","{""aha"":0}","[0]","../img/tt/1055tt.jpg","",""
"null","<div style=""font-size:60px;""> </div>","null","fixation","html-keyboard-response","160","603003","0.0-6.0-0.22","2648616","co39682","norming","","","","","","",""
"null","../img/tt/1270tt.jpg","null","mooney1","image-keyboard-response","161","606018","0.0-6.0-1.22","2648616","co39682","norming","","","","","","",""
"5684.679999999353","","","post_mooney1_questions","survey-likert","162","611704","0.0-6.0-2.22","2648616","co39682","norming","","","{""curiosity"":2,""confidence"":0}","[0,1]","../img/tt/1270tt.jpg","",""
"1749.9950000001118","","","recognition","survey-text","163","613456","0.0-6.0-3.22","2648616","co39682","norming","","","{""guess"":""man""}","","../img/tt/1270tt.jpg","",""
"null","../img/gs/1270gs.jpg","null","reveal","image-keyboard-response","164","615457","0.0-6.0-4.22","2648616","co39682","norming","","","","","","",""
"null","../img/tt/1270tt.jpg","null","mooney2","image-keyboard-response","165","617459","0.0-6.0-5.22","2648616","co39682","norming","","","","","","",""
"3260.1049999993993","","","post_reveal_questions","survey-likert","166","620720","0.0-6.0-6.22","2648616","co39682","norming","","","{""aha"":1}","[0]","../img/tt/1270tt.jpg","",""
"null","<div style=""font-size:60px;""> </div>","null","fixation","html-keyboard-response","167","620924","0.0-6.0-0.23","2648616","co39682","norming","","","","","","",""
"null","../img/tt/507tt.jpg","null","mooney1","image-keyboard-response","168","623927","0.0-6.0-1.23","2648616","co39682","norming","","","","","","",""
"4032.4900000005728","","","post_mooney1_questions","survey-likert","169","627960","0.0-6.0-2.23","2648616","co39682","norming","","","{""curiosity"":2,""confidence"":0}","[0,1]","../img/tt/507tt.jpg","",""
"1997.8599999995204","","","recognition","survey-text","170","629960","0.0-6.0-3.23","2648616","co39682","norming","","","{""guess"":""""}","","../img/tt/507tt.jpg","",""
"null","../img/gs/507gs.jpg","null","reveal","image-keyboard-response","171","631962","0.0-6.0-4.23","2648616","co39682","norming","","","","","","",""
"null","../img/tt/507tt.jpg","null","mooney2","image-keyboard-response","172","633977","0.0-6.0-5.23","2648616","co39682","norming","","","","","","",""
"2966.2349999998696","","","post_reveal_questions","survey-likert","173","636944","0.0-6.0-6.23","2648616","co39682","norming","","","{""aha"":2}","[0]","../img/tt/507tt.jpg","",""
"null","<div style=""font-size:60px;""> </div>","null","fixation","html-keyboard-response","174","637146","0.0-6.0-0.24","2648616","co39682","norming","","","","","","",""
"null","../img/tt/079tt.jpg","null","mooney1","image-keyboard-response","175","640149","0.0-6.0-1.24","2648616","co39682","norming","","","","","","",""
"5873.3099999999395","","","post_mooney1_questions","survey-likert","176","646025","0.0-6.0-2.24","2648616","co39682","norming","","","{""curiosity"":2,""confidence"":0}","[0,1]","../img/tt/079tt.jpg","",""
"997.8350000000792","","","recognition","survey-text","177","647025","0.0-6.0-3.24","2648616","co39682","norming","","","{""guess"":""""}","","../img/tt/079tt.jpg","",""
"null","../img/gs/079gs.jpg","null","reveal","image-keyboard-response","178","649027","0.0-6.0-4.24","2648616","co39682","norming","","","","","","",""
"null","../img/tt/079tt.jpg","null","mooney2","image-keyboard-response","179","651029","0.0-6.0-5.24","2648616","co39682","norming","","","","","","",""
"2545.5600000005215","","","post_reveal_questions","survey-likert","180","653577","0.0-6.0-6.24","2648616","co39682","norming","","","{""aha"":0}","[0]","../img/tt/079tt.jpg","",""
"null","<div style=""font-size:60px;""> </div>","null","fixation","html-keyboard-response","181","653780","0.0-6.0-0.25","2648616","co39682","norming","","","","","","",""
"null","../img/tt/1012tt.jpg","null","mooney1","image-keyboard-response","182","656782","0.0-6.0-1.25","2648616","co39682","norming","","","","","","",""
"6472.890000000014","","","post_mooney1_questions","survey-likert","183","663257","0.0-6.0-2.25","2648616","co39682","norming","","","{""curiosity"":4,""confidence"":0}","[0,1]","../img/tt/1012tt.jpg","",""
"1277.9950000003446","","","recognition","survey-text","184","664537","0.0-6.0-3.25","2648616","co39682","norming","","","{""guess"":""""}","","../img/tt/1012tt.jpg","",""
"null","../img/gs/1012gs.jpg","null","reveal","image-keyboard-response","185","666544","0.0-6.0-4.25","2648616","co39682","norming","","","","","","",""
"null","../img/tt/1012tt.jpg","null","mooney2","image-keyboard-response","186","668545","0.0-6.0-5.25","2648616","co39682","norming","","","","","","",""
"2549.524999999441","","","post_reveal_questions","survey-likert","187","671097","0.0-6.0-6.25","2648616","co39682","norming","","","{""aha"":0}","[0]","../img/tt/1012tt.jpg","",""
"null","<div style=""font-size:60px;""> </div>","null","fixation","html-keyboard-response","188","671298","0.0-6.0-0.26","2648616","co39682","norming","","","","","","",""
"null","../img/tt/1173tt.jpg","null","mooney1","image-keyboard-response","189","674301","0.0-6.0-1.26","2648616","co39682","norming","","","","","","",""
"5073.319999999483","","","post_mooney1_questions","survey-likert","190","679377","0.0-6.0-2.26","2648616","co39682","norming","","","{""curiosity"":3,""confidence"":2}","[0,1]","../img/tt/1173tt.jpg","",""
"4189.879999999888","","","recognition","survey-text","191","683569","0.0-6.0-3.26","2648616","co39682","norming","","","{""guess"":""meisjes""}","","../img/tt/1173tt.jpg","",""
"null","../img/gs/1173gs.jpg","null","reveal","image-keyboard-response","192","685570","0.0-6.0-4.26","2648616","co39682","norming","","","","","","",""
"null","../img/tt/1173tt.jpg","null","mooney2","image-keyboard-response","193","687571","0.0-6.0-5.26","2648616","co39682","norming","","","","","","",""
"3789.0399999995716","","","post_reveal_questions","survey-likert","194","691361","0.0-6.0-6.26","2648616","co39682","norming","","","{""aha"":2}","[0]","../img/tt/1173tt.jpg","",""
"null","<div style=""font-size:60px;""> </div>","null","fixation","html-keyboard-response","195","691562","0.0-6.0-0.27","2648616","co39682","norming","","","","","","",""
"null","../img/tt/1366tt.jpg","null","mooney1","image-keyboard-response","196","694563","0.0-6.0-1.27","2648616","co39682","norming","","","","","","",""
"6319.994999999879","","","post_mooney1_questions","survey-likert","197","700889","0.0-6.0-2.27","2648616","co39682","norming","","","{""curiosity"":4,""confidence"":0}","[0,1]","../img/tt/1366tt.jpg","",""
"1477.9899999994086","","","recognition","survey-text","198","702369","0.0-6.0-3.27","2648616","co39682","norming","","","{""guess"":""""}","","../img/tt/1366tt.jpg","",""
"null","../img/gs/1366gs.jpg","null","reveal","image-keyboard-response","199","704371","0.0-6.0-4.27","2648616","co39682","norming","","","","","","",""
"null","../img/tt/1366tt.jpg","null","mooney2","image-keyboard-response","200","706383","0.0-6.0-5.27","2648616","co39682","norming","","","","","","",""
"4527.944999999832","","","post_reveal_questions","survey-likert","201","710913","0.0-6.0-6.27","2648616","co39682","norming","","","{""aha"":0}","[0]","../img/tt/1366tt.jpg","",""
"null","<div style=""font-size:60px;""> </div>","null","fixation","html-keyboard-response","202","711115","0.0-6.0-0.28","2648616","co39682","norming","","","","","","",""
"null","../img/tt/603tt.jpg","null","mooney1","image-keyboard-response","203","714118","0.0-6.0-1.28","2648616","co39682","norming","","","","","","",""
"3265.2400000005728","","","post_mooney1_questions","survey-likert","204","717385","0.0-6.0-2.28","2648616","co39682","norming","","","{""curiosity"":4,""confidence"":0}","[0,1]","../img/tt/603tt.jpg","",""
"974.1050000002142","","","recognition","survey-text","205","718361","0.0-6.0-3.28","2648616","co39682","norming","","","{""guess"":""""}","","../img/tt/603tt.jpg","",""
"null","../img/gs/603gs.jpg","null","reveal","image-keyboard-response","206","720366","0.0-6.0-4.28","2648616","co39682","norming","","","","","","",""
"null","../img/tt/603tt.jpg","null","mooney2","image-keyboard-response","207","722369","0.0-6.0-5.28","2648616","co39682","norming","","","","","","",""
"1901.8599999998696","","","post_reveal_questions","survey-likert","208","724273","0.0-6.0-6.28","2648616","co39682","norming","","","{""aha"":0}","[0]","../img/tt/603tt.jpg","",""
"null","<div style=""font-size:60px;""> </div>","null","fixation","html-keyboard-response","209","724474","0.0-6.0-0.29","2648616","co39682","norming","","","","","","",""
"null","../img/tt/1127tt.jpg","null","mooney1","image-keyboard-response","210","727481","0.0-6.0-1.29","2648616","co39682","norming","","","","","","",""
"4413.424999999814","","","post_mooney1_questions","survey-likert","211","731897","0.0-6.0-2.29","2648616","co39682","norming","","","{""curiosity"":3,""confidence"":2}","[0,1]","../img/tt/1127tt.jpg","",""
"5686.2649999993155","","","recognition","survey-text","212","737585","0.0-6.0-3.29","2648616","co39682","norming","","","{""guess"":""karate""}","","../img/tt/1127tt.jpg","",""
"null","../img/gs/1127gs.jpg","null","reveal","image-keyboard-response","213","739587","0.0-6.0-4.29","2648616","co39682","norming","","","","","","",""
"null","../img/tt/1127tt.jpg","null","mooney2","image-keyboard-response","214","741588","0.0-6.0-5.29","2648616","co39682","norming","","","","","","",""
"2508.2349999992875","","","post_reveal_questions","survey-likert","215","744097","0.0-6.0-6.29","2648616","co39682","norming","","","{""aha"":3}","[0]","../img/tt/1127tt.jpg","",""
"null","<div style=""font-size:60px;""> </div>","null","fixation","html-keyboard-response","216","744313","0.0-6.0-0.30","2648616","co39682","norming","","","","","","",""
"null","../img/tt/1205tt.jpg","null","mooney1","image-keyboard-response","217","747317","0.0-6.0-1.30","2648616","co39682","norming","","","","","","",""
"9522.145000000019","","","post_mooney1_questions","survey-likert","218","756841","0.0-6.0-2.30","2648616","co39682","norming","","","{""curiosity"":3,""confidence"":0}","[0,1]","../img/tt/1205tt.jpg","",""
"838.1400000008289","","","recognition","survey-text","219","757681","0.0-6.0-3.30","2648616","co39682","norming","","","{""guess"":""""}","","../img/tt/1205tt.jpg","",""
"null","../img/gs/1205gs.jpg","null","reveal","image-keyboard-response","220","759683","0.0-6.0-4.30","2648616","co39682","norming","","","","","","",""
"null","../img/tt/1205tt.jpg","null","mooney2","image-keyboard-response","221","761685","0.0-6.0-5.30","2648616","co39682","norming","","","","","","",""
"3649.3000000000466","","","post_reveal_questions","survey-likert","222","765337","0.0-6.0-6.30","2648616","co39682","norming","","","{""aha"":1}","[0]","../img/tt/1205tt.jpg","",""
"null","<div style=""font-size:60px;""> </div>","null","fixation","html-keyboard-response","223","765539","0.0-6.0-0.31","2648616","co39682","norming","","","","","","",""
"null","../img/tt/1260tt.jpg","null","mooney1","image-keyboard-response","224","768541","0.0-6.0-1.31","2648616","co39682","norming","","","","","","",""
"2969.780000000377","","","post_mooney1_questions","survey-likert","225","771514","0.0-6.0-2.31","2648616","co39682","norming","","","{""curiosity"":2,""confidence"":0}","[0,1]","../img/tt/1260tt.jpg","",""
"1494.3850000000093","","","recognition","survey-text","226","773010","0.0-6.0-3.31","2648616","co39682","norming","","","{""guess"":""""}","","../img/tt/1260tt.jpg","",""
"null","../img/gs/1260gs.jpg","null","reveal","image-keyboard-response","227","775011","0.0-6.0-4.31","2648616","co39682","norming","","","","","","",""
"null","../img/tt/1260tt.jpg","null","mooney2","image-keyboard-response","228","777013","0.0-6.0-5.31","2648616","co39682","norming","","","","","","",""
"2906.40500000061","","","post_reveal_questions","survey-likert","229","779921","0.0-6.0-6.31","2648616","co39682","norming","","","{""aha"":0}","[0]","../img/tt/1260tt.jpg","",""
"null","<div style=""font-size:60px;""> </div>","null","fixation","html-keyboard-response","230","780123","0.0-6.0-0.32","2648616","co39682","norming","","","","","","",""
"null","../img/tt/552tt.jpg","null","mooney1","image-keyboard-response","231","783125","0.0-6.0-1.32","2648616","co39682","norming","","","","","","",""
"6626.274999999558","","","post_mooney1_questions","survey-likert","232","789754","0.0-6.0-2.32","2648616","co39682","norming","","","{""curiosity"":2,""confidence"":5}","[0,1]","../img/tt/552tt.jpg","",""
"3181.905000000377","","","recognition","survey-text","233","792937","0.0-6.0-3.32","2648616","co39682","norming","","","{""guess"":""eekhoorn""}","","../img/tt/552tt.jpg","",""
"null","../img/gs/552gs.jpg","null","reveal","image-keyboard-response","234","794939","0.0-6.0-4.32","2648616","co39682","norming","","","","","","",""
"null","../img/tt/552tt.jpg","null","mooney2","image-keyboard-response","235","796941","0.0-6.0-5.32","2648616","co39682","norming","","","","","","",""
"2874.3850000000093","","","post_reveal_questions","survey-likert","236","799817","0.0-6.0-6.32","2648616","co39682","norming","","","{""aha"":2}","[0]","../img/tt/552tt.jpg","",""
"null","<div style=""font-size:60px;""> </div>","null","fixation","html-keyboard-response","237","800019","0.0-6.0-0.33","2648616","co39682","norming","","","","","","",""
"null","../img/tt/1254tt.jpg","null","mooney1","image-keyboard-response","238","803023","0.0-6.0-1.33","2648616","co39682","norming","","","","","","",""
"4400.3549999997485","","","post_mooney1_questions","survey-likert","239","807426","0.0-6.0-2.33","2648616","co39682","norming","","","{""curiosity"":3,""confidence"":2}","[0,1]","../img/tt/1254tt.jpg","",""
"2334.0799999997253","","","recognition","survey-text","240","809762","0.0-6.0-3.33","2648616","co39682","norming","","","{""guess"":""konijn""}","","../img/tt/1254tt.jpg","",""
"null","../img/gs/1254gs.jpg","null","reveal","image-keyboard-response","241","811773","0.0-6.0-4.33","2648616","co39682","norming","","","","","","",""
"null","../img/tt/1254tt.jpg","null","mooney2","image-keyboard-response","242","813775","0.0-6.0-5.33","2648616","co39682","norming","","","","","","",""
"4488.369999999995","","","post_reveal_questions","survey-likert","243","818265","0.0-6.0-6.33","2648616","co39682","norming","","","{""aha"":2}","[0]","../img/tt/1254tt.jpg","",""
"null","<div style=""font-size:60px;""> </div>","null","fixation","html-keyboard-response","244","818467","0.0-6.0-0.34","2648616","co39682","norming","","","","","","",""
"null","../img/tt/085tt.jpg","null","mooney1","image-keyboard-response","245","821470","0.0-6.0-1.34","2648616","co39682","norming","","","","","","",""
"3137.5600000001723","","","post_mooney1_questions","survey-likert","246","824610","0.0-6.0-2.34","2648616","co39682","norming","","","{""curiosity"":3,""confidence"":3}","[0,1]","../img/tt/085tt.jpg","",""
"3950.17499999993","","","recognition","survey-text","247","828561","0.0-6.0-3.34","2648616","co39682","norming","","","{""guess"":""skelet""}","","../img/tt/085tt.jpg","",""
"null","../img/gs/085gs.jpg","null","reveal","image-keyboard-response","248","830563","0.0-6.0-4.34","2648616","co39682","norming","","","","","","",""
"null","../img/tt/085tt.jpg","null","mooney2","image-keyboard-response","249","832565","0.0-6.0-5.34","2648616","co39682","norming","","","","","","",""
"1762.7549999997718","","","post_reveal_questions","survey-likert","250","834329","0.0-6.0-6.34","2648616","co39682","norming","","","{""aha"":0}","[0]","../img/tt/085tt.jpg","",""
"null","<div style=""font-size:60px;""> </div>","null","fixation","html-keyboard-response","251","834531","0.0-6.0-0.35","2648616","co39682","norming","","","","","","",""
"null","../img/tt/1226tt.jpg","null","mooney1","image-keyboard-response","252","837538","0.0-6.0-1.35","2648616","co39682","norming","","","","","","",""
"3517.9550000003073","","","post_mooney1_questions","survey-likert","253","841057","0.0-6.0-2.35","2648616","co39682","norming","","","{""curiosity"":4,""confidence"":3}","[0,1]","../img/tt/1226tt.jpg","",""
"3838.1749999998137","","","recognition","survey-text","254","844897","0.0-6.0-3.35","2648616","co39682","norming","","","{""guess"":""heks""}","","../img/tt/1226tt.jpg","",""
"null","../img/gs/1226gs.jpg","null","reveal","image-keyboard-response","255","846899","0.0-6.0-4.35","2648616","co39682","norming","","","","","","",""
"null","../img/tt/1226tt.jpg","null","mooney2","image-keyboard-response","256","848900","0.0-6.0-5.35","2648616","co39682","norming","","","","","","",""
"4562.965000000084","","","post_reveal_questions","survey-likert","257","853465","0.0-6.0-6.35","2648616","co39682","norming","","","{""aha"":0}","[0]","../img/tt/1226tt.jpg","",""
"null","<div style=""font-size:60px;""> </div>","null","fixation","html-keyboard-response","258","853666","0.0-6.0-0.36","2648616","co39682","norming","","","","","","",""
"null","../img/tt/063tt.jpg","null","mooney1","image-keyboard-response","259","856669","0.0-6.0-1.36","2648616","co39682","norming","","","","","","",""
"3449.994999999879","","","post_mooney1_questions","survey-likert","260","860121","0.0-6.0-2.36","2648616","co39682","norming","","","{""curiosity"":4,""confidence"":0}","[0,1]","../img/tt/063tt.jpg","",""
"1038.0299999996787","","","recognition","survey-text","261","861161","0.0-6.0-3.36","2648616","co39682","norming","","","{""guess"":""""}","","../img/tt/063tt.jpg","",""
"null","../img/gs/063gs.jpg","null","reveal","image-keyboard-response","262","863163","0.0-6.0-4.36","2648616","co39682","norming","","","","","","",""
"null","../img/tt/063tt.jpg","null","mooney2","image-keyboard-response","263","865165","0.0-6.0-5.36","2648616","co39682","norming","","","","","","",""
"5442.289999999921","","","post_reveal_questions","survey-likert","264","870609","0.0-6.0-6.36","2648616","co39682","norming","","","{""aha"":0}","[0]","../img/tt/063tt.jpg","",""
"null","<div style=""font-size:60px;""> </div>","null","fixation","html-keyboard-response","265","870810","0.0-6.0-0.37","2648616","co39682","norming","","","","","","",""
"null","../img/tt/1107tt.jpg","null","mooney1","image-keyboard-response","266","873813","0.0-6.0-1.37","2648616","co39682","norming","","","","","","",""
"4778.250000000349","","","post_mooney1_questions","survey-likert","267","878593","0.0-6.0-2.37","2648616","co39682","norming","","","{""curiosity"":2,""confidence"":0}","[0,1]","../img/tt/1107tt.jpg","",""
"1093.9899999994086","","","recognition","survey-text","268","879689","0.0-6.0-3.37","2648616","co39682","norming","","","{""guess"":""""}","","../img/tt/1107tt.jpg","",""
"null","../img/gs/1107gs.jpg","null","reveal","image-keyboard-response","269","881691","0.0-6.0-4.37","2648616","co39682","norming","","","","","","",""
"null","../img/tt/1107tt.jpg","null","mooney2","image-keyboard-response","270","883692","0.0-6.0-5.37","2648616","co39682","norming","","","","","","",""
"2515.1900000000605","","","post_reveal_questions","survey-likert","271","886209","0.0-6.0-6.37","2648616","co39682","norming","","","{""aha"":0}","[0]","../img/tt/1107tt.jpg","",""
"null","<div style=""font-size:60px;""> </div>","null","fixation","html-keyboard-response","272","886413","0.0-6.0-0.38","2648616","co39682","norming","","","","","","",""
"null","../img/tt/559tt.jpg","null","mooney1","image-keyboard-response","273","889422","0.0-6.0-1.38","2648616","co39682","norming","","","","","","",""
"4136.954999999958","","","post_mooney1_questions","survey-likert","274","893562","0.0-6.0-2.38","2648616","co39682","norming","","","{""curiosity"":4,""confidence"":1}","[0,1]","../img/tt/559tt.jpg","",""
"550.1599999996834","","","recognition","survey-text","275","894113","0.0-6.0-3.38","2648616","co39682","norming","","","{""guess"":""""}","","../img/tt/559tt.jpg","",""
"null","../img/gs/559gs.jpg","null","reveal","image-keyboard-response","276","896115","0.0-6.0-4.38","2648616","co39682","norming","","","","","","",""
"null","../img/tt/559tt.jpg","null","mooney2","image-keyboard-response","277","898116","0.0-6.0-5.38","2648616","co39682","norming","","","","","","",""
"2508.334999999497","","","post_reveal_questions","survey-likert","278","900626","0.0-6.0-6.38","2648616","co39682","norming","","","{""aha"":0}","[0]","../img/tt/559tt.jpg","",""
"null","<div style=""font-size:60px;""> </div>","null","fixation","html-keyboard-response","279","900836","0.0-6.0-0.39","2648616","co39682","norming","","","","","","",""
"null","../img/tt/1027tt.jpg","null","mooney1","image-keyboard-response","280","903839","0.0-6.0-1.39","2648616","co39682","norming","","","","","","",""
"4056.4699999995064","","","post_mooney1_questions","survey-likert","281","907898","0.0-6.0-2.39","2648616","co39682","norming","","","{""curiosity"":4,""confidence"":2}","[0,1]","../img/tt/1027tt.jpg","",""
"3094.33499999973","","","recognition","survey-text","282","910994","0.0-6.0-3.39","2648616","co39682","norming","","","{""guess"":""prikkeldraad""}","","../img/tt/1027tt.jpg","",""
"null","../img/gs/1027gs.jpg","null","reveal","image-keyboard-response","283","912995","0.0-6.0-4.39","2648616","co39682","norming","","","","","","",""
"null","../img/tt/1027tt.jpg","null","mooney2","image-keyboard-response","284","914996","0.0-6.0-5.39","2648616","co39682","norming","","","","","","",""
"1723.5400000000373","","","post_reveal_questions","survey-likert","285","916721","0.0-6.0-6.39","2648616","co39682","norming","","","{""aha"":3}","[0]","../img/tt/1027tt.jpg","",""
"null","<div style=""font-size:60px;""> </div>","null","fixation","html-keyboard-response","286","916922","0.0-6.0-0.40","2648616","co39682","norming","","","","","","",""
"null","../img/tt/1255tt.jpg","null","mooney1","image-keyboard-response","287","919926","0.0-6.0-1.40","2648616","co39682","norming","","","","","","",""
"5576.719999999972","","","post_mooney1_questions","survey-likert","288","925505","0.0-6.0-2.40","2648616","co39682","norming","","","{""curiosity"":1,""confidence"":0}","[0,1]","../img/tt/1255tt.jpg","",""
"934.320000000298","","","recognition","survey-text","289","926441","0.0-6.0-3.40","2648616","co39682","norming","","","{""guess"":""""}","","../img/tt/1255tt.jpg","",""
"null","../img/gs/1255gs.jpg","null","reveal","image-keyboard-response","290","928445","0.0-6.0-4.40","2648616","co39682","norming","","","","","","",""
"null","../img/tt/1255tt.jpg","null","mooney2","image-keyboard-response","291","930447","0.0-6.0-5.40","2648616","co39682","norming","","","","","","",""
"2424.6999999994878","","","post_reveal_questions","survey-likert","292","932873","0.0-6.0-6.40","2648616","co39682","norming","","","{""aha"":0}","[0]","../img/tt/1255tt.jpg","",""
"null","<div style=""font-size:60px;""> </div>","null","fixation","html-keyboard-response","293","933075","0.0-6.0-0.41","2648616","co39682","norming","","","","","","",""
"null","../img/tt/019tt.jpg","null","mooney1","image-keyboard-response","294","936078","0.0-6.0-1.41","2648616","co39682","norming","","","","","","",""
"4825.144999999786","","","post_mooney1_questions","survey-likert","295","940906","0.0-6.0-2.41","2648616","co39682","norming","","","{""curiosity"":1,""confidence"":5}","[0,1]","../img/tt/019tt.jpg","",""
"2566.0250000000233","","","recognition","survey-text","296","943473","0.0-6.0-3.41","2648616","co39682","norming","","","{""guess"":""tang""}","","../img/tt/019tt.jpg","",""
"null","../img/gs/019gs.jpg","null","reveal","image-keyboard-response","297","945475","0.0-6.0-4.41","2648616","co39682","norming","","","","","","",""
"null","../img/tt/019tt.jpg","null","mooney2","image-keyboard-response","298","947477","0.0-6.0-5.41","2648616","co39682","norming","","","","","","",""
"3058.205000000191","","","post_reveal_questions","survey-likert","299","950538","0.0-6.0-6.41","2648616","co39682","norming","","","{""aha"":3}","[0]","../img/tt/019tt.jpg","",""
"null","<div style=""font-size:60px;""> </div>","null","fixation","html-keyboard-response","300","950739","0.0-6.0-0.42","2648616","co39682","norming","","","","","","",""
"null","../img/tt/1128tt.jpg","null","mooney1","image-keyboard-response","301","953741","0.0-6.0-1.42","2648616","co39682","norming","","","","","","",""
"3938.519999999786","","","post_mooney1_questions","survey-likert","302","957682","0.0-6.0-2.42","2648616","co39682","norming","","","{""curiosity"":4,""confidence"":0}","[0,1]","../img/tt/1128tt.jpg","",""
"814.199999999837","","","recognition","survey-text","303","958498","0.0-6.0-3.42","2648616","co39682","norming","","","{""guess"":""""}","","../img/tt/1128tt.jpg","",""
"null","../img/gs/1128gs.jpg","null","reveal","image-keyboard-response","304","960499","0.0-6.0-4.42","2648616","co39682","norming","","","","","","",""
"null","../img/tt/1128tt.jpg","null","mooney2","image-keyboard-response","305","962502","0.0-6.0-5.42","2648616","co39682","norming","","","","","","",""
"3735.695000000298","","","post_reveal_questions","survey-likert","306","966242","0.0-6.0-6.42","2648616","co39682","norming","","","{""aha"":5}","[0]","../img/tt/1128tt.jpg","",""
"null","<div style=""font-size:60px;""> </div>","null","fixation","html-keyboard-response","307","966444","0.0-6.0-0.43","2648616","co39682","norming","","","","","","",""
"null","../img/tt/094tt.jpg","null","mooney1","image-keyboard-response","308","969446","0.0-6.0-1.43","2648616","co39682","norming","","","","","","",""
"3577.135000000475","","","post_mooney1_questions","survey-likert","309","973026","0.0-6.0-2.43","2648616","co39682","norming","","","{""curiosity"":3,""confidence"":3}","[0,1]","../img/tt/094tt.jpg","",""
"2189.945000000065","","","recognition","survey-text","310","975218","0.0-6.0-3.43","2648616","co39682","norming","","","{""guess"":""kor""}","","../img/tt/094tt.jpg","",""
"null","../img/gs/094gs.jpg","null","reveal","image-keyboard-response","311","977220","0.0-6.0-4.43","2648616","co39682","norming","","","","","","",""
"null","../img/tt/094tt.jpg","null","mooney2","image-keyboard-response","312","979221","0.0-6.0-5.43","2648616","co39682","norming","","","","","","",""
"3099.4400000000605","","","post_reveal_questions","survey-likert","313","982322","0.0-6.0-6.43","2648616","co39682","norming","","","{""aha"":0}","[0]","../img/tt/094tt.jpg","",""
"null","<div style=""font-size:60px;""> </div>","null","fixation","html-keyboard-response","314","982523","0.0-6.0-0.44","2648616","co39682","norming","","","","","","",""
"null","../img/tt/524tt.jpg","null","mooney1","image-keyboard-response","315","985527","0.0-6.0-1.44","2648616","co39682","norming","","","","","","",""
"5402.030000000144","","","post_mooney1_questions","survey-likert","316","990930","0.0-6.0-2.44","2648616","co39682","norming","","","{""curiosity"":0,""confidence"":0}","[0,1]","../img/tt/524tt.jpg","",""
"1030.0450000005076","","","recognition","survey-text","317","991962","0.0-6.0-3.44","2648616","co39682","norming","","","{""guess"":""""}","","../img/tt/524tt.jpg","",""
"null","../img/gs/524gs.jpg","null","reveal","image-keyboard-response","318","993963","0.0-6.0-4.44","2648616","co39682","norming","","","","","","",""
"null","../img/tt/524tt.jpg","null","mooney2","image-keyboard-response","319","995965","0.0-6.0-5.44","2648616","co39682","norming","","","","","","",""
"3474.9549999997253","","","post_reveal_questions","survey-likert","320","999442","0.0-6.0-6.44","2648616","co39682","norming","","","{""aha"":0}","[0]","../img/tt/524tt.jpg","",""
"null","<div style=""font-size:60px;""> </div>","null","fixation","html-keyboard-response","321","999643","0.0-6.0-0.45","2648616","co39682","norming","","","","","","",""
"null","../img/tt/091tt.jpg","null","mooney1","image-keyboard-response","322","1002645","0.0-6.0-1.45","2648616","co39682","norming","","","","","","",""
"3610.2099999998463","","","post_mooney1_questions","survey-likert","323","1006258","0.0-6.0-2.45","2648616","co39682","norming","","","{""curiosity"":2,""confidence"":0}","[0,1]","../img/tt/091tt.jpg","",""
"1134.0100000007078","","","recognition","survey-text","324","1007394","0.0-6.0-3.45","2648616","co39682","norming","","","{""guess"":""""}","","../img/tt/091tt.jpg","",""
"null","../img/gs/091gs.jpg","null","reveal","image-keyboard-response","325","1009404","0.0-6.0-4.45","2648616","co39682","norming","","","","","","",""
"null","../img/tt/091tt.jpg","null","mooney2","image-keyboard-response","326","1011411","0.0-6.0-5.45","2648616","co39682","norming","","","","","","",""
"2196.1950000004144","","","post_reveal_questions","survey-likert","327","1013610","0.0-6.0-6.45","2648616","co39682","norming","","","{""aha"":0}","[0]","../img/tt/091tt.jpg","",""
"null","<div style=""font-size:60px;""> </div>","null","fixation","html-keyboard-response","328","1013812","0.0-6.0-0.46","2648616","co39682","norming","","","","","","",""
"null","../img/tt/112tt.jpg","null","mooney1","image-keyboard-response","329","1016814","0.0-6.0-1.46","2648616","co39682","norming","","","","","","",""
"2921.0350000002654","","","post_mooney1_questions","survey-likert","330","1019738","0.0-6.0-2.46","2648616","co39682","norming","","","{""curiosity"":4,""confidence"":2}","[0,1]","../img/tt/112tt.jpg","",""
"10294.280000000028","","","recognition","survey-text","331","1030034","0.0-6.0-3.46","2648616","co39682","norming","","","{""guess"":""fles alcohol""}","","../img/tt/112tt.jpg","",""
"null","../img/gs/112gs.jpg","null","reveal","image-keyboard-response","332","1032036","0.0-6.0-4.46","2648616","co39682","norming","","","","","","",""
"null","../img/tt/112tt.jpg","null","mooney2","image-keyboard-response","333","1034038","0.0-6.0-5.46","2648616","co39682","norming","","","","","","",""
"2594.395000000135","","","post_reveal_questions","survey-likert","334","1036634","0.0-6.0-6.46","2648616","co39682","norming","","","{""aha"":0}","[0]","../img/tt/112tt.jpg","",""
"null","<div style=""font-size:60px;""> </div>","null","fixation","html-keyboard-response","335","1036836","0.0-6.0-0.47","2648616","co39682","norming","","","","","","",""
"null","../img/tt/001tt.jpg","null","mooney1","image-keyboard-response","336","1039838","0.0-6.0-1.47","2648616","co39682","norming","","","","","","",""
"3897.484999999404","","","post_mooney1_questions","survey-likert","337","1043738","0.0-6.0-2.47","2648616","co39682","norming","","","{""curiosity"":2,""confidence"":3}","[0,1]","../img/tt/001tt.jpg","",""
"3125.2900000000373","","","recognition","survey-text","338","1046866","0.0-6.0-3.47","2648616","co39682","norming","","","{""guess"":""stier""}","","../img/tt/001tt.jpg","",""
"null","../img/gs/001gs.jpg","null","reveal","image-keyboard-response","339","1048868","0.0-6.0-4.47","2648616","co39682","norming","","","","","","",""
"null","../img/tt/001tt.jpg","null","mooney2","image-keyboard-response","340","1050870","0.0-6.0-5.47","2648616","co39682","norming","","","","","","",""
"2457.6849999993574","","","post_reveal_questions","survey-likert","341","1053330","0.0-6.0-6.47","2648616","co39682","norming","","","{""aha"":0}","[0]","../img/tt/001tt.jpg","",""
"null","<div style=""font-size:60px;""> </div>","null","fixation","html-keyboard-response","342","1053532","0.0-6.0-0.48","2648616","co39682","norming","","","","","","",""
"null","../img/tt/010tt.jpg","null","mooney1","image-keyboard-response","343","1056535","0.0-6.0-1.48","2648616","co39682","norming","","","","","","",""
"3264.769999999786","","","post_mooney1_questions","survey-likert","344","1059802","0.0-6.0-2.48","2648616","co39682","norming","","","{""curiosity"":4,""confidence"":2}","[0,1]","../img/tt/010tt.jpg","",""
"2150.29499999946","","","recognition","survey-text","345","1061954","0.0-6.0-3.48","2648616","co39682","norming","","","{""guess"":""kikker""}","","../img/tt/010tt.jpg","",""
"null","../img/gs/010gs.jpg","null","reveal","image-keyboard-response","346","1063956","0.0-6.0-4.48","2648616","co39682","norming","","","","","","",""
"null","../img/tt/010tt.jpg","null","mooney2","image-keyboard-response","347","1065958","0.0-6.0-5.48","2648616","co39682","norming","","","","","","",""
"2577.6149999999907","","","post_reveal_questions","survey-likert","348","1068538","0.0-6.0-6.48","2648616","co39682","norming","","","{""aha"":1}","[0]","../img/tt/010tt.jpg","",""
"null","<div style=""font-size:60px;""> </div>","null","fixation","html-keyboard-response","349","1068739","0.0-6.0-0.49","2648616","co39682","norming","","","","","","",""
"null","../img/tt/053tt.jpg","null","mooney1","image-keyboard-response","350","1071743","0.0-6.0-1.49","2648616","co39682","norming","","","","","","",""
"6376.830000000307","","","post_mooney1_questions","survey-likert","351","1078122","0.0-6.0-2.49","2648616","co39682","norming","","","{""curiosity"":4,""confidence"":5}","[0,1]","../img/tt/053tt.jpg","",""
"7061.850000000093","","","recognition","survey-text","352","1085186","0.0-6.0-3.49","2648616","co39682","norming","","","{""guess"":""kajakken waterval""}","","../img/tt/053tt.jpg","",""
"null","../img/gs/053gs.jpg","null","reveal","image-keyboard-response","353","1087187","0.0-6.0-4.49","2648616","co39682","norming","","","","","","",""
"null","../img/tt/053tt.jpg","null","mooney2","image-keyboard-response","354","1089190","0.0-6.0-5.49","2648616","co39682","norming","","","","","","",""
"5009.909999999683","","","post_reveal_questions","survey-likert","355","1094202","0.0-6.0-6.49","2648616","co39682","norming","","","{""aha"":3}","[0]","../img/tt/053tt.jpg","",""
"null","<div style=""font-size:60px;""> </div>","null","fixation","html-keyboard-response","356","1094403","0.0-6.0-0.50","2648616","co39682","norming","","","","","","",""
"null","../img/tt/406tt.jpg","null","mooney1","image-keyboard-response","357","1097407","0.0-6.0-1.50","2648616","co39682","norming","","","","","","",""
"4952.720000000205","","","post_mooney1_questions","survey-likert","358","1102362","0.0-6.0-2.50","2648616","co39682","norming","","","{""curiosity"":2,""confidence"":0}","[0,1]","../img/tt/406tt.jpg","",""
"758.1400000008289","","","recognition","survey-text","359","1103122","0.0-6.0-3.50","2648616","co39682","norming","","","{""guess"":""""}","","../img/tt/406tt.jpg","",""
"null","../img/gs/406gs.jpg","null","reveal","image-keyboard-response","360","1105125","0.0-6.0-4.50","2648616","co39682","norming","","","","","","",""
"null","../img/tt/406tt.jpg","null","mooney2","image-keyboard-response","361","1107127","0.0-6.0-5.50","2648616","co39682","norming","","","","","","",""
"2465.3100000002887","","","post_reveal_questions","survey-likert","362","1109594","0.0-6.0-6.50","2648616","co39682","norming","","","{""aha"":1}","[0]","../img/tt/406tt.jpg","",""
"null","<div style=""font-size:60px;""> </div>","null","fixation","html-keyboard-response","363","1109795","0.0-6.0-0.51","2648616","co39682","norming","","","","","","",""
"null","../img/tt/357tt.jpg","null","mooney1","image-keyboard-response","364","1112797","0.0-6.0-1.51","2648616","co39682","norming","","","","","","",""
"3794.195000000531","","","post_mooney1_questions","survey-likert","365","1116594","0.0-6.0-2.51","2648616","co39682","norming","","","{""curiosity"":0,""confidence"":0}","[0,1]","../img/tt/357tt.jpg","",""
"878.0500000000466","","","recognition","survey-text","366","1117474","0.0-6.0-3.51","2648616","co39682","norming","","","{""guess"":""""}","","../img/tt/357tt.jpg","",""
"null","../img/gs/357gs.jpg","null","reveal","image-keyboard-response","367","1119479","0.0-6.0-4.51","2648616","co39682","norming","","","","","","",""
"null","../img/tt/357tt.jpg","null","mooney2","image-keyboard-response","368","1121481","0.0-6.0-5.51","2648616","co39682","norming","","","","","","",""
"1542.8200000005309","","","post_reveal_questions","survey-likert","369","1123026","0.0-6.0-6.51","2648616","co39682","norming","","","{""aha"":0}","[0]","../img/tt/357tt.jpg","",""
"null","<div style=""font-size:60px;""> </div>","null","fixation","html-keyboard-response","370","1123228","0.0-6.0-0.52","2648616","co39682","norming","","","","","","",""
"null","../img/tt/056tt.jpg","null","mooney1","image-keyboard-response","371","1126231","0.0-6.0-1.52","2648616","co39682","norming","","","","","","",""
"4768.884999999544","","","post_mooney1_questions","survey-likert","372","1131002","0.0-6.0-2.52","2648616","co39682","norming","","","{""curiosity"":2,""confidence"":3}","[0,1]","../img/tt/056tt.jpg","",""
"5206.139999999199","","","recognition","survey-text","373","1136210","0.0-6.0-3.52","2648616","co39682","norming","","","{""guess"":""surfen""}","","../img/tt/056tt.jpg","",""
"null","../img/gs/056gs.jpg","null","reveal","image-keyboard-response","374","1138212","0.0-6.0-4.52","2648616","co39682","norming","","","","","","",""
"null","../img/tt/056tt.jpg","null","mooney2","image-keyboard-response","375","1140213","0.0-6.0-5.52","2648616","co39682","norming","","","","","","",""
"4018.485000000568","","","post_reveal_questions","survey-likert","376","1144234","0.0-6.0-6.52","2648616","co39682","norming","","","{""aha"":1}","[0]","../img/tt/056tt.jpg","",""
"null","<div style=""font-size:60px;""> </div>","null","fixation","html-keyboard-response","377","1144435","0.0-6.0-0.53","2648616","co39682","norming","","","","","","",""
"null","../img/tt/135tt.jpg","null","mooney1","image-keyboard-response","378","1147440","0.0-6.0-1.53","2648616","co39682","norming","","","","","","",""
"4856.090000000084","","","post_mooney1_questions","survey-likert","379","1152298","0.0-6.0-2.53","2648616","co39682","norming","","","{""curiosity"":3,""confidence"":4}","[0,1]","../img/tt/135tt.jpg","",""
"6357.949999999721","","","recognition","survey-text","380","1158658","0.0-6.0-3.53","2648616","co39682","norming","","","{""guess"":""wc bril""}","","../img/tt/135tt.jpg","",""
"null","../img/gs/135gs.jpg","null","reveal","image-keyboard-response","381","1160663","0.0-6.0-4.53","2648616","co39682","norming","","","","","","",""
"null","../img/tt/135tt.jpg","null","mooney2","image-keyboard-response","382","1162665","0.0-6.0-5.53","2648616","co39682","norming","","","","","","",""
"2670.185000000056","","","post_reveal_questions","survey-likert","383","1165338","0.0-6.0-6.53","2648616","co39682","norming","","","{""aha"":2}","[0]","../img/tt/135tt.jpg","",""
"null","<div style=""font-size:60px;""> </div>","null","fixation","html-keyboard-response","384","1165539","0.0-6.0-0.54","2648616","co39682","norming","","","","","","",""
"null","../img/tt/008tt.jpg","null","mooney1","image-keyboard-response","385","1168540","0.0-6.0-1.54","2648616","co39682","norming","","","","","","",""
"4986.214999999851","","","post_mooney1_questions","survey-likert","386","1173530","0.0-6.0-2.54","2648616","co39682","norming","","","{""curiosity"":4,""confidence"":2}","[0,1]","../img/tt/008tt.jpg","",""
"3462.1899999992456","","","recognition","survey-text","387","1176994","0.0-6.0-3.54","2648616","co39682","norming","","","{""guess"":""wapen""}","","../img/tt/008tt.jpg","",""
"null","../img/gs/008gs.jpg","null","reveal","image-keyboard-response","388","1178995","0.0-6.0-4.54","2648616","co39682","norming","","","","","","",""
"null","../img/tt/008tt.jpg","null","mooney2","image-keyboard-response","389","1180997","0.0-6.0-5.54","2648616","co39682","norming","","","","","","",""
"3250.8849999995437","","","post_reveal_questions","survey-likert","390","1184250","0.0-6.0-6.54","2648616","co39682","norming","","","{""aha"":2}","[0]","../img/tt/008tt.jpg","",""
"null","<div style=""font-size:60px;""> </div>","null","fixation","html-keyboard-response","391","1184452","0.0-6.0-0.55","2648616","co39682","norming","","","","","","",""
"null","../img/tt/1072tt.jpg","null","mooney1","image-keyboard-response","392","1187455","0.0-6.0-1.55","2648616","co39682","norming","","","","","","",""
"4944.329999999376","","","post_mooney1_questions","survey-likert","393","1192402","0.0-6.0-2.55","2648616","co39682","norming","","","{""curiosity"":3,""confidence"":1}","[0,1]","../img/tt/1072tt.jpg","",""
"7982.1949999995995","","","recognition","survey-text","394","1200386","0.0-6.0-3.55","2648616","co39682","norming","","","{""guess"":""wandelpad""}","","../img/tt/1072tt.jpg","",""
"null","../img/gs/1072gs.jpg","null","reveal","image-keyboard-response","395","1202387","0.0-6.0-4.55","2648616","co39682","norming","","","","","","",""
"null","../img/tt/1072tt.jpg","null","mooney2","image-keyboard-response","396","1204389","0.0-6.0-5.55","2648616","co39682","norming","","","","","","",""
"2266.6749999998137","","","post_reveal_questions","survey-likert","397","1206658","0.0-6.0-6.55","2648616","co39682","norming","","","{""aha"":0}","[0]","../img/tt/1072tt.jpg","",""
"null","<div style=""font-size:60px;""> </div>","null","fixation","html-keyboard-response","398","1206860","0.0-6.0-0.56","2648616","co39682","norming","","","","","","",""
"null","../img/tt/1241tt.jpg","null","mooney1","image-keyboard-response","399","1209863","0.0-6.0-1.56","2648616","co39682","norming","","","","","","",""
"3929.1400000001304","","","post_mooney1_questions","survey-likert","400","1213794","0.0-6.0-2.56","2648616","co39682","norming","","","{""curiosity"":3,""confidence"":0}","[0,1]","../img/tt/1241tt.jpg","",""
"966.2499999995343","","","recognition","survey-text","401","1214762","0.0-6.0-3.56","2648616","co39682","norming","","","{""guess"":""""}","","../img/tt/1241tt.jpg","",""
"null","../img/gs/1241gs.jpg","null","reveal","image-keyboard-response","402","1216764","0.0-6.0-4.56","2648616","co39682","norming","","","","","","",""
"null","../img/tt/1241tt.jpg","null","mooney2","image-keyboard-response","403","1218766","0.0-6.0-5.56","2648616","co39682","norming","","","","","","",""
"3505.6349999995437","","","post_reveal_questions","survey-likert","404","1222274","0.0-6.0-6.56","2648616","co39682","norming","","","{""aha"":0}","[0]","../img/tt/1241tt.jpg","",""
"null","<div style=""font-size:60px;""> </div>","null","fixation","html-keyboard-response","405","1222477","0.0-6.0-0.57","2648616","co39682","norming","","","","","","",""
"null","../img/tt/279tt.jpg","null","mooney1","image-keyboard-response","406","1225480","0.0-6.0-1.57","2648616","co39682","norming","","","","","","",""
"8543.97000000067","","","post_mooney1_questions","survey-likert","407","1234026","0.0-6.0-2.57","2648616","co39682","norming","","","{""curiosity"":4,""confidence"":3}","[0,1]","../img/tt/279tt.jpg","",""
"8806.064999999711","","","recognition","survey-text","408","1242834","0.0-6.0-3.57","2648616","co39682","norming","","","{""guess"":""luiaard""}","","../img/tt/279tt.jpg","",""
"null","../img/gs/279gs.jpg","null","reveal","image-keyboard-response","409","1244835","0.0-6.0-4.57","2648616","co39682","norming","","","","","","",""
"null","../img/tt/279tt.jpg","null","mooney2","image-keyboard-response","410","1246837","0.0-6.0-5.57","2648616","co39682","norming","","","","","","",""
"3154.4000000003725","","","post_reveal_questions","survey-likert","411","1249994","0.0-6.0-6.57","2648616","co39682","norming","","","{""aha"":1}","[0]","../img/tt/279tt.jpg","",""
"null","<div style=""font-size:60px;""> </div>","null","fixation","html-keyboard-response","412","1250195","0.0-6.0-0.58","2648616","co39682","norming","","","","","","",""
"null","../img/tt/1275tt.jpg","null","mooney1","image-keyboard-response","413","1253198","0.0-6.0-1.58","2648616","co39682","norming","","","","","","",""
"6330.170000000158","","","post_mooney1_questions","survey-likert","414","1259531","0.0-6.0-2.58","2648616","co39682","norming","","","{""curiosity"":3,""confidence"":2}","[0,1]","../img/tt/1275tt.jpg","",""
"7174.114999999758","","","recognition","survey-text","415","1266707","0.0-6.0-3.58","2648616","co39682","norming","","","{""guess"":""bananen aap""}","","../img/tt/1275tt.jpg","",""
"null","../img/gs/1275gs.jpg","null","reveal","image-keyboard-response","416","1268709","0.0-6.0-4.58","2648616","co39682","norming","","","","","","",""
"null","../img/tt/1275tt.jpg","null","mooney2","image-keyboard-response","417","1270711","0.0-6.0-5.58","2648616","co39682","norming","","","","","","",""
"3473.154999999795","","","post_reveal_questions","survey-likert","418","1274187","0.0-6.0-6.58","2648616","co39682","norming","","","{""aha"":1}","[0]","../img/tt/1275tt.jpg","",""
"null","<div style=""font-size:60px;""> </div>","null","fixation","html-keyboard-response","419","1274388","0.0-6.0-0.59","2648616","co39682","norming","","","","","","",""
"null","../img/tt/442tt.jpg","null","mooney1","image-keyboard-response","420","1277392","0.0-6.0-1.59","2648616","co39682","norming","","","","","","",""
"3920.649999999907","","","post_mooney1_questions","survey-likert","421","1281315","0.0-6.0-2.59","2648616","co39682","norming","","","{""curiosity"":3,""confidence"":0}","[0,1]","../img/tt/442tt.jpg","",""
"877.9499999999534","","","recognition","survey-text","422","1282195","0.0-6.0-3.59","2648616","co39682","norming","","","{""guess"":""""}","","../img/tt/442tt.jpg","",""
"null","../img/gs/442gs.jpg","null","reveal","image-keyboard-response","423","1284197","0.0-6.0-4.59","2648616","co39682","norming","","","","","","",""
"null","../img/tt/442tt.jpg","null","mooney2","image-keyboard-response","424","1286198","0.0-6.0-5.59","2648616","co39682","norming","","","","","","",""
"2586.5999999996275","","","post_reveal_questions","survey-likert","425","1288787","0.0-6.0-6.59","2648616","co39682","norming","","","{""aha"":1}","[0]","../img/tt/442tt.jpg","",""
"null","<div style=""font-size:60px;""> </div>","null","fixation","html-keyboard-response","426","1288988","0.0-6.0-0.60","2648616","co39682","norming","","","","","","",""
"null","../img/tt/1146tt.jpg","null","mooney1","image-keyboard-response","427","1291991","0.0-6.0-1.60","2648616","co39682","norming","","","","","","",""
"4601.545000000391","","","post_mooney1_questions","survey-likert","428","1296595","0.0-6.0-2.60","2648616","co39682","norming","","","{""curiosity"":4,""confidence"":4}","[0,1]","../img/tt/1146tt.jpg","",""
"10605.844999999972","","","recognition","survey-text","429","1307203","0.0-6.0-3.60","2648616","co39682","norming","","","{""guess"":""zwembad springplank""}","","../img/tt/1146tt.jpg","",""
"null","../img/gs/1146gs.jpg","null","reveal","image-keyboard-response","430","1309204","0.0-6.0-4.60","2648616","co39682","norming","","","","","","",""
"null","../img/tt/1146tt.jpg","null","mooney2","image-keyboard-response","431","1311207","0.0-6.0-5.60","2648616","co39682","norming","","","","","","",""
"2745.83499999973","","","post_reveal_questions","survey-likert","432","1313947","0.0-6.0-6.60","2648616","co39682","norming","","","{""aha"":1}","[0]","../img/tt/1146tt.jpg","",""
"null","<div style=""font-size:60px;""> </div>","null","fixation","html-keyboard-response","433","1314148","0.0-6.0-0.61","2648616","co39682","norming","","","","","","",""
"null","../img/tt/1242tt.jpg","null","mooney1","image-keyboard-response","434","1317150","0.0-6.0-1.61","2648616","co39682","norming","","","","","","",""
"5258.925000000047","","","post_mooney1_questions","survey-likert","435","1322411","0.0-6.0-2.61","2648616","co39682","norming","","","{""curiosity"":1,""confidence"":0}","[0,1]","../img/tt/1242tt.jpg","",""
"590.0699999993667","","","recognition","survey-text","436","1323002","0.0-6.0-3.61","2648616","co39682","norming","","","{""guess"":""""}","","../img/tt/1242tt.jpg","",""
"null","../img/gs/1242gs.jpg","null","reveal","image-keyboard-response","437","1325004","0.0-6.0-4.61","2648616","co39682","norming","","","","","","",""
"null","../img/tt/1242tt.jpg","null","mooney2","image-keyboard-response","438","1327005","0.0-6.0-5.61","2648616","co39682","norming","","","","","","",""
"2435.2499999995343","","","post_reveal_questions","survey-likert","439","1329442","0.0-6.0-6.61","2648616","co39682","norming","","","{""aha"":0}","[0]","../img/tt/1242tt.jpg","",""
"null","<div style=""font-size:60px;""> </div>","null","fixation","html-keyboard-response","440","1329644","0.0-6.0-0.62","2648616","co39682","norming","","","","","","",""
"null","../img/tt/055tt.jpg","null","mooney1","image-keyboard-response","441","1332646","0.0-6.0-1.62","2648616","co39682","norming","","","","","","",""
"5522.100000000326","","","post_mooney1_questions","survey-likert","442","1338171","0.0-6.0-2.62","2648616","co39682","norming","","","{""curiosity"":3,""confidence"":3}","[0,1]","../img/tt/055tt.jpg","",""
"4366","","","recognition","survey-text","443","1342539","0.0-6.0-3.62","2648616","co39682","norming","","","{""guess"":""rij zadel""}","","../img/tt/055tt.jpg","",""
"null","../img/gs/055gs.jpg","null","reveal","image-keyboard-response","444","1344540","0.0-6.0-4.62","2648616","co39682","norming","","","","","","",""
"null","../img/tt/055tt.jpg","null","mooney2","image-keyboard-response","445","1346542","0.0-6.0-5.62","2648616","co39682","norming","","","","","","",""
"1418.4950000001118","","","post_reveal_questions","survey-likert","446","1347962","0.0-6.0-6.62","2648616","co39682","norming","","","{""aha"":4}","[0]","../img/tt/055tt.jpg","",""
"null","<div style=""font-size:60px;""> </div>","null","fixation","html-keyboard-response","447","1348164","0.0-6.0-0.63","2648616","co39682","norming","","","","","","",""
"null","../img/tt/140tt.jpg","null","mooney1","image-keyboard-response","448","1351165","0.0-6.0-1.63","2648616","co39682","norming","","","","","","",""
"4138.340000000317","","","post_mooney1_questions","survey-likert","449","1355307","0.0-6.0-2.63","2648616","co39682","norming","","","{""curiosity"":2,""confidence"":1}","[0,1]","../img/tt/140tt.jpg","",""
"2430.1250000009313","","","recognition","survey-text","450","1357738","0.0-6.0-3.63","2648616","co39682","norming","","","{""guess"":""vorken""}","","../img/tt/140tt.jpg","",""
"null","../img/gs/140gs.jpg","null","reveal","image-keyboard-response","451","1359740","0.0-6.0-4.63","2648616","co39682","norming","","","","","","",""
"null","../img/tt/140tt.jpg","null","mooney2","image-keyboard-response","452","1361741","0.0-6.0-5.63","2648616","co39682","norming","","","","","","",""
"4547.210000000661","","","post_reveal_questions","survey-likert","453","1366290","0.0-6.0-6.63","2648616","co39682","norming","","","{""aha"":3}","[0]","../img/tt/140tt.jpg","",""
"null","<div style=""font-size:60px;""> </div>","null","fixation","html-keyboard-response","454","1366492","0.0-6.0-0.64","2648616","co39682","norming","","","","","","",""
"null","../img/tt/358tt.jpg","null","mooney1","image-keyboard-response","455","1369494","0.0-6.0-1.64","2648616","co39682","norming","","","","","","",""
"5505.505000000121","","","post_mooney1_questions","survey-likert","456","1375012","0.0-6.0-2.64","2648616","co39682","norming","","","{""curiosity"":3,""confidence"":4}","[0,1]","../img/tt/358tt.jpg","",""
"5438.274999999441","","","recognition","survey-text","457","1380452","0.0-6.0-3.64","2648616","co39682","norming","","","{""guess"":""vliegeren""}","","../img/tt/358tt.jpg","",""
"null","../img/gs/358gs.jpg","null","reveal","image-keyboard-response","458","1382455","0.0-6.0-4.64","2648616","co39682","norming","","","","","","",""
"null","../img/tt/358tt.jpg","null","mooney2","image-keyboard-response","459","1384457","0.0-6.0-5.64","2648616","co39682","norming","","","","","","",""
"3697.435000000056","","","post_reveal_questions","survey-likert","460","1388156","0.0-6.0-6.64","2648616","co39682","norming","","","{""aha"":0}","[0]","../img/tt/358tt.jpg","",""
"null","<div style=""font-size:60px;""> </div>","null","fixation","html-keyboard-response","461","1388358","0.0-6.0-0.65","2648616","co39682","norming","","","","","","",""
"null","../img/tt/013tt.jpg","null","mooney1","image-keyboard-response","462","1391361","0.0-6.0-1.65","2648616","co39682","norming","","","","","","",""
"3705.0799999998417","","","post_mooney1_questions","survey-likert","463","1395069","0.0-6.0-2.65","2648616","co39682","norming","","","{""curiosity"":1,""confidence"":0}","[0,1]","../img/tt/013tt.jpg","",""
"1909.8700000003446","","","recognition","survey-text","464","1396980","0.0-6.0-3.65","2648616","co39682","norming","","","{""guess"":""""}","","../img/tt/013tt.jpg","",""
"null","../img/gs/013gs.jpg","null","reveal","image-keyboard-response","465","1398982","0.0-6.0-4.65","2648616","co39682","norming","","","","","","",""
"null","../img/tt/013tt.jpg","null","mooney2","image-keyboard-response","466","1400983","0.0-6.0-5.65","2648616","co39682","norming","","","","","","",""
"3410.7249999998603","","","post_reveal_questions","survey-likert","467","1404396","0.0-6.0-6.65","2648616","co39682","norming","","","{""aha"":1}","[0]","../img/tt/013tt.jpg","",""
"null","<div style=""font-size:60px;""> </div>","null","fixation","html-keyboard-response","468","1404598","0.0-6.0-0.66","2648616","co39682","norming","","","","","","",""
"null","../img/tt/1211tt.jpg","null","mooney1","image-keyboard-response","469","1407600","0.0-6.0-1.66","2648616","co39682","norming","","","","","","",""
"5131.059999999823","","","post_mooney1_questions","survey-likert","470","1412732","0.0-6.0-2.66","2648616","co39682","norming","","","{""curiosity"":0,""confidence"":0}","[0,1]","../img/tt/1211tt.jpg","",""
"709.8299999998417","","","recognition","survey-text","471","1413444","0.0-6.0-3.66","2648616","co39682","norming","","","{""guess"":""""}","","../img/tt/1211tt.jpg","",""
"null","../img/gs/1211gs.jpg","null","reveal","image-keyboard-response","472","1415446","0.0-6.0-4.66","2648616","co39682","norming","","","","","","",""
"null","../img/tt/1211tt.jpg","null","mooney2","image-keyboard-response","473","1417448","0.0-6.0-5.66","2648616","co39682","norming","","","","","","",""
"2186.3850000000093","","","post_reveal_questions","survey-likert","474","1419636","0.0-6.0-6.66","2648616","co39682","norming","","","{""aha"":0}","[0]","../img/tt/1211tt.jpg","",""
"null","<div style=""font-size:60px;""> </div>","null","fixation","html-keyboard-response","475","1419837","0.0-6.0-0.67","2648616","co39682","norming","","","","","","",""
"null","../img/tt/184tt.jpg","null","mooney1","image-keyboard-response","476","1422840","0.0-6.0-1.67","2648616","co39682","norming","","","","","","",""
"3225.2150000003166","","","post_mooney1_questions","survey-likert","477","1426069","0.0-6.0-2.67","2648616","co39682","norming","","","{""curiosity"":2,""confidence"":0}","[0,1]","../img/tt/184tt.jpg","",""
"1909.9150000000373","","","recognition","survey-text","478","1427980","0.0-6.0-3.67","2648616","co39682","norming","","","{""guess"":""""}","","../img/tt/184tt.jpg","",""
"null","../img/gs/184gs.jpg","null","reveal","image-keyboard-response","479","1429982","0.0-6.0-4.67","2648616","co39682","norming","","","","","","",""
"null","../img/tt/184tt.jpg","null","mooney2","image-keyboard-response","480","1431986","0.0-6.0-5.67","2648616","co39682","norming","","","","","","",""
"1983.405000000028","","","post_reveal_questions","survey-likert","481","1433973","0.0-6.0-6.67","2648616","co39682","norming","","","{""aha"":0}","[0]","../img/tt/184tt.jpg","",""
"null","<div style=""font-size:60px;""> </div>","null","fixation","html-keyboard-response","482","1434175","0.0-6.0-0.68","2648616","co39682","norming","","","","","","",""
"null","../img/tt/319tt.jpg","null","mooney1","image-keyboard-response","483","1437178","0.0-6.0-1.68","2648616","co39682","norming","","","","","","",""
"4439.3650000002235","","","post_mooney1_questions","survey-likert","484","1441621","0.0-6.0-2.68","2648616","co39682","norming","","","{""curiosity"":2,""confidence"":3}","[0,1]","../img/tt/319tt.jpg","",""
"2398.2600000000093","","","recognition","survey-text","485","1444021","0.0-6.0-3.68","2648616","co39682","norming","","","{""guess"":""koe""}","","../img/tt/319tt.jpg","",""
"null","../img/gs/319gs.jpg","null","reveal","image-keyboard-response","486","1446022","0.0-6.0-4.68","2648616","co39682","norming","","","","","","",""
"null","../img/tt/319tt.jpg","null","mooney2","image-keyboard-response","487","1448024","0.0-6.0-5.68","2648616","co39682","norming","","","","","","",""
"2458.5500000002794","","","post_reveal_questions","survey-likert","488","1450485","0.0-6.0-6.68","2648616","co39682","norming","","","{""aha"":1}","[0]","../img/tt/319tt.jpg","",""
"null","<div style=""font-size:60px;""> </div>","null","fixation","html-keyboard-response","489","1450687","0.0-6.0-0.69","2648616","co39682","norming","","","","","","",""
"null","../img/tt/1307tt.jpg","null","mooney1","image-keyboard-response","490","1453689","0.0-6.0-1.69","2648616","co39682","norming","","","","","","",""
"3458.6199999994133","","","post_mooney1_questions","survey-likert","491","1457149","0.0-6.0-2.69","2648616","co39682","norming","","","{""curiosity"":2,""confidence"":2}","[0,1]","../img/tt/1307tt.jpg","",""
"5014.239999999525","","","recognition","survey-text","492","1462165","0.0-6.0-3.69","2648616","co39682","norming","","","{""guess"":""spinnenwiel""}","","../img/tt/1307tt.jpg","",""
"null","../img/gs/1307gs.jpg","null","reveal","image-keyboard-response","493","1464166","0.0-6.0-4.69","2648616","co39682","norming","","","","","","",""
"null","../img/tt/1307tt.jpg","null","mooney2","image-keyboard-response","494","1466168","0.0-6.0-5.69","2648616","co39682","norming","","","","","","",""
"2434.23000000068","","","post_reveal_questions","survey-likert","495","1468605","0.0-6.0-6.69","2648616","co39682","norming","","","{""aha"":0}","[0]","../img/tt/1307tt.jpg","",""
"null","<div style=""font-size:60px;""> </div>","null","fixation","html-keyboard-response","496","1468806","0.0-6.0-0.70","2648616","co39682","norming","","","","","","",""
"null","../img/tt/1261tt.jpg","null","mooney1","image-keyboard-response","497","1471809","0.0-6.0-1.70","2648616","co39682","norming","","","","","","",""
"5264.825000000186","","","post_mooney1_questions","survey-likert","498","1477077","0.0-6.0-2.70","2648616","co39682","norming","","","{""curiosity"":3,""confidence"":1}","[0,1]","../img/tt/1261tt.jpg","",""
"4782.055000000633","","","recognition","survey-text","499","1481861","0.0-6.0-3.70","2648616","co39682","norming","","","{""guess"":""kelderraam""}","","../img/tt/1261tt.jpg","",""
"null","../img/gs/1261gs.jpg","null","reveal","image-keyboard-response","500","1483862","0.0-6.0-4.70","2648616","co39682","norming","","","","","","",""
"null","../img/tt/1261tt.jpg","null","mooney2","image-keyboard-response","501","1485864","0.0-6.0-5.70","2648616","co39682","norming","","","","","","",""
"2938.535000000149","","","post_reveal_questions","survey-likert","502","1488805","0.0-6.0-6.70","2648616","co39682","norming","","","{""aha"":1}","[0]","../img/tt/1261tt.jpg","",""
"null","<div style=""font-size:60px;""> </div>","null","fixation","html-keyboard-response","503","1489006","0.0-6.0-0.71","2648616","co39682","norming","","","","","","",""
"null","../img/tt/1061tt.jpg","null","mooney1","image-keyboard-response","504","1492009","0.0-6.0-1.71","2648616","co39682","norming","","","","","","",""
"5745.300000000512","","","post_mooney1_questions","survey-likert","505","1497758","0.0-6.0-2.71","2648616","co39682","norming","","","{""curiosity"":3,""confidence"":2}","[0,1]","../img/tt/1061tt.jpg","",""
"3494.094999999972","","","recognition","survey-text","506","1501254","0.0-6.0-3.71","2648616","co39682","norming","","","{""guess"":""oorlogskamp""}","","../img/tt/1061tt.jpg","",""
"null","../img/gs/1061gs.jpg","null","reveal","image-keyboard-response","507","1503256","0.0-6.0-4.71","2648616","co39682","norming","","","","","","",""
"null","../img/tt/1061tt.jpg","null","mooney2","image-keyboard-response","508","1505266","0.0-6.0-5.71","2648616","co39682","norming","","","","","","",""
"2769.619999999879","","","post_reveal_questions","survey-likert","509","1508038","0.0-6.0-6.71","2648616","co39682","norming","","","{""aha"":1}","[0]","../img/tt/1061tt.jpg","",""
"null","<div style=""font-size:60px;""> </div>","null","fixation","html-keyboard-response","510","1508241","0.0-6.0-0.72","2648616","co39682","norming","","","","","","",""
"null","../img/tt/1269tt.jpg","null","mooney1","image-keyboard-response","511","1511243","0.0-6.0-1.72","2648616","co39682","norming","","","","","","",""
"4599.939999999944","","","post_mooney1_questions","survey-likert","512","1515846","0.0-6.0-2.72","2648616","co39682","norming","","","{""curiosity"":4,""confidence"":0}","[0,1]","../img/tt/1269tt.jpg","",""
"534.195000000298","","","recognition","survey-text","513","1516382","0.0-6.0-3.72","2648616","co39682","norming","","","{""guess"":""""}","","../img/tt/1269tt.jpg","",""
"null","../img/gs/1269gs.jpg","null","reveal","image-keyboard-response","514","1518383","0.0-6.0-4.72","2648616","co39682","norming","","","","","","",""
"null","../img/tt/1269tt.jpg","null","mooney2","image-keyboard-response","515","1520385","0.0-6.0-5.72","2648616","co39682","norming","","","","","","",""
"3922.8700000003446","","","post_reveal_questions","survey-likert","516","1524310","0.0-6.0-6.72","2648616","co39682","norming","","","{""aha"":1}","[0]","../img/tt/1269tt.jpg","",""
"null","<div style=""font-size:60px;""> </div>","null","fixation","html-keyboard-response","517","1524511","0.0-6.0-0.73","2648616","co39682","norming","","","","","","",""
"null","../img/tt/194tt.jpg","null","mooney1","image-keyboard-response","518","1527515","0.0-6.0-1.73","2648616","co39682","norming","","","","","","",""
"4152.595000000438","","","post_mooney1_questions","survey-likert","519","1531670","0.0-6.0-2.73","2648616","co39682","norming","","","{""curiosity"":4,""confidence"":5}","[0,1]","../img/tt/194tt.jpg","",""
"9949.959999999963","","","recognition","survey-text","520","1541622","0.0-6.0-3.73","2648616","co39682","norming","","","{""guess"":""harp spelen""}","","../img/tt/194tt.jpg","",""
"null","../img/gs/194gs.jpg","null","reveal","image-keyboard-response","521","1543624","0.0-6.0-4.73","2648616","co39682","norming","","","","","","",""
"null","../img/tt/194tt.jpg","null","mooney2","image-keyboard-response","522","1545627","0.0-6.0-5.73","2648616","co39682","norming","","","","","","",""
"2378.41500000027","","","post_reveal_questions","survey-likert","523","1548006","0.0-6.0-6.73","2648616","co39682","norming","","","{""aha"":3}","[0]","../img/tt/194tt.jpg","",""
"null","<div style=""font-size:60px;""> </div>","null","fixation","html-keyboard-response","524","1548208","0.0-6.0-0.74","2648616","co39682","norming","","","","","","",""
"null","../img/tt/1033tt.jpg","null","mooney1","image-keyboard-response","525","1551211","0.0-6.0-1.74","2648616","co39682","norming","","","","","","",""
"6800.539999999339","","","post_mooney1_questions","survey-likert","526","1558015","0.0-6.0-2.74","2648616","co39682","norming","","","{""curiosity"":4,""confidence"":1}","[0,1]","../img/tt/1033tt.jpg","",""
"5589.9799999997485","","","recognition","survey-text","527","1563607","0.0-6.0-3.74","2648616","co39682","norming","","","{""guess"":""ridder worden""}","","../img/tt/1033tt.jpg","",""
"null","../img/gs/1033gs.jpg","null","reveal","image-keyboard-response","528","1565622","0.0-6.0-4.74","2648616","co39682","norming","","","","","","",""
"null","../img/tt/1033tt.jpg","null","mooney2","image-keyboard-response","529","1567623","0.0-6.0-5.74","2648616","co39682","norming","","","","","","",""
"3390.6300000005867","","","post_reveal_questions","survey-likert","530","1571015","0.0-6.0-6.74","2648616","co39682","norming","","","{""aha"":0}","[0]","../img/tt/1033tt.jpg","",""
"null","<div style=""font-size:60px;""> </div>","null","fixation","html-keyboard-response","531","1571216","0.0-6.0-0.75","2648616","co39682","norming","","","","","","",""
"null","../img/tt/584tt.jpg","null","mooney1","image-keyboard-response","532","1574219","0.0-6.0-1.75","2648616","co39682","norming","","","","","","",""
"5688.660000000615","","","post_mooney1_questions","survey-likert","533","1579911","0.0-6.0-2.75","2648616","co39682","norming","","","{""curiosity"":5,""confidence"":0}","[0,1]","../img/tt/584tt.jpg","",""
"1062.184999999823","","","recognition","survey-text","534","1580975","0.0-6.0-3.75","2648616","co39682","norming","","","{""guess"":""""}","","../img/tt/584tt.jpg","",""
"null","../img/gs/584gs.jpg","null","reveal","image-keyboard-response","535","1582976","0.0-6.0-4.75","2648616","co39682","norming","","","","","","",""
"null","../img/tt/584tt.jpg","null","mooney2","image-keyboard-response","536","1584977","0.0-6.0-5.75","2648616","co39682","norming","","","","","","",""
"3555.1100000003353","","","post_reveal_questions","survey-likert","537","1588535","0.0-6.0-6.75","2648616","co39682","norming","","","{""aha"":2}","[0]","../img/tt/584tt.jpg","",""
"null","<div style=""font-size:60px;""> </div>","null","fixation","html-keyboard-response","538","1588737","0.0-6.0-0.76","2648616","co39682","norming","","","","","","",""
"null","../img/tt/567tt.jpg","null","mooney1","image-keyboard-response","539","1591741","0.0-6.0-1.76","2648616","co39682","norming","","","","","","",""
"7631.594999999972","","","post_mooney1_questions","survey-likert","540","1599375","0.0-6.0-2.76","2648616","co39682","norming","","","{""curiosity"":4,""confidence"":3}","[0,1]","../img/tt/567tt.jpg","",""
"4901.990000000456","","","recognition","survey-text","541","1604279","0.0-6.0-3.76","2648616","co39682","norming","","","{""guess"":""autospiegel""}","","../img/tt/567tt.jpg","",""
"null","../img/gs/567gs.jpg","null","reveal","image-keyboard-response","542","1606280","0.0-6.0-4.76","2648616","co39682","norming","","","","","","",""
"null","../img/tt/567tt.jpg","null","mooney2","image-keyboard-response","543","1608283","0.0-6.0-5.76","2648616","co39682","norming","","","","","","",""
"2353.709999999497","","","post_reveal_questions","survey-likert","544","1610639","0.0-6.0-6.76","2648616","co39682","norming","","","{""aha"":2}","[0]","../img/tt/567tt.jpg","",""
"null","<div style=""font-size:60px;""> </div>","null","fixation","html-keyboard-response","545","1610840","0.0-6.0-0.77","2648616","co39682","norming","","","","","","",""
"null","../img/tt/1283tt.jpg","null","mooney1","image-keyboard-response","546","1613843","0.0-6.0-1.77","2648616","co39682","norming","","","","","","",""
"6161.404999999795","","","post_mooney1_questions","survey-likert","547","1620007","0.0-6.0-2.77","2648616","co39682","norming","","","{""curiosity"":3,""confidence"":3}","[0,1]","../img/tt/1283tt.jpg","",""
"2493.8350000001956","","","recognition","survey-text","548","1622503","0.0-6.0-3.77","2648616","co39682","norming","","","{""guess"":""brand""}","","../img/tt/1283tt.jpg","",""
"null","../img/gs/1283gs.jpg","null","reveal","image-keyboard-response","549","1624504","0.0-6.0-4.77","2648616","co39682","norming","","","","","","",""
"null","../img/tt/1283tt.jpg","null","mooney2","image-keyboard-response","550","1626506","0.0-6.0-5.77","2648616","co39682","norming","","","","","","",""
"2200.9950000001118","","","post_reveal_questions","survey-likert","551","1628710","0.0-6.0-6.77","2648616","co39682","norming","","","{""aha"":1}","[0]","../img/tt/1283tt.jpg","",""
"null","<div style=""font-size:60px;""> </div>","null","fixation","html-keyboard-response","552","1628913","0.0-6.0-0.78","2648616","co39682","norming","","","","","","",""
