"rt","stimulus","key_press","test_part","trial_type","trial_index","time_elapsed","internal_node_id","totalTime","subject","experiment_name","button_pressed","success","responses","question_order","currentStim","old","correct"
"7170.140000000174","Welcome to the experiment. This is an online experiment so please don't close the tab/window until we say goodbye.  Press any key to begin.","13","instructions","html-keyboard-response","0","7227","0.0-0.0","2692617","co39211","norming","","","","","","",""
"37478.42499999933","<div style='word-wrap: break-word; width: 900px'><h3>Please consider this information carefully before deciding whether to participate in this research</h3><ul style='text-align: left; font-size: .8em;'><li><b>Purpose of the research</b>: To examine how people process images.</li><li><b>What you will do in this research</b>:  Stimuli (images) will be presented on the computer and you will be asked different questions about them.</li><li><b>Time required</b>: Participation will take between 45 and 60 minutes to complete.</li><li><b>Risks</b>:  There are no anticipated risks associated with participating in this study. The effects of participating should be comparable to those you would experience from viewing a computer monitor for 30 minutes and using a mouse or keyboard.</li><li><b>Benefits</b>:  This study provides no benefits to you individually except for the credit. The study provides important information about the nature of perception and learning.</li><li><b>Confidentiality</b>:  Your participation in this study will remain confidential. No personally identifiable information will be associated with your data. Your de-identified data may be shared with other researchers and used in future projects.</li><li><b>Participation and withdrawal</b>:  Your participation in this study is completely voluntary and you may refuse to participate or you may choose to withdraw at any time without penalty.</li><li><b>How to contact the researchers</b>: If you have questions or concerns about your participation or payment, or want to request a summary of research findings, please contact Sander Van de Cruys (KU Leuven), at sander.vandecruys@kuleuven.be.</li></ul><p>The nature and purpose of this research have been sufficiently explained and I agree to participate in this study.  I understand that I am free to withdraw at any time without incurring any penalty.</p><p>Please consent by clicking the button below to continue. Otherwise, please exit the study at this time.</p></div>","","instructions","html-button-response","1","44700","0.0-1.0","2692617","co39211","norming","0","","","","","",""
"","","","instructions","fullscreen","2","55453","0.0-2.0","2692617","co39211","norming","","true","","","","",""
"23052.06999999973","","","sona","survey-html-form","3","78508","0.0-3.0","2692617","co39211","norming","","","[{""name"":""sonaid"",""value"":""39211""},{""name"":""debrief"",""value"":""yes""},{""name"":""datajoin"",""value"":""yes""}]","","","",""
"89938.75000000115","<div style='word-wrap: break-word; width: 900px'><h3>Instructions</h3><p>This experiment will have 3 parts. In the first part you will see a series of distorted images like the one below on the left. As you can see in the righthand image, the distorted images are derived from actual photographs. In what follows, you will <strong>briefly</strong> be presented with <strong>only</strong> the distorted image.</p> <div style='float: left; margin-right: 20px;'><img src='../img/018tt.jpg' height='250' width='250'></img></div><div style='float: right; margin-left: 20px;'><img src='../img/018gs.jpg' height='250' width='250'></img></div><p>Subsequently you will be asked a few questions about the image: One question on how <strong>curious</strong> you are about the solution and one on how <strong>confident</strong> you are that you know the solution.</p>Next, we ask you to make a guess on what is in the image. Note that it is OK to name just the <strong>basic level category</strong>. For example when you see a parrot in the image, 'parrot' will obviously be a correct answer but also correct is 'bird'. However, 'animal' will <strong>not</strong> be counted as a correct response. For the example above, 'rose' would be correct or 'flower', but not 'plant'. When soccer players are depicted, 'soccer', 'football', 'soccer players' will be correct, but not 'humans', 'outdoors', or 'sports'. You do not need to describe the image in full, just name the main object in it <strong>in one or two words</strong>. All images depict objects from one of the following broad level categories: animals, inanimate objects, plants, sports, vehicles, and food. Recognizing means knowing <strong>more</strong> than these broad labels for a given image. But we always encourage you to <strong>make a guess</strong> if you can. Note that you are allowed to use <strong>Dutch and English</strong> in your answers, whatever comes easiest for you.</p><p>Press any key to continue.</p></div>","13","instructions","html-keyboard-response","4","168460","0.0-4.0","2692617","co39211","norming","","","","","","",""
"85039.17999999976","<div style='word-wrap: break-word; width: 900px'><h3>Instructions</h3> <p>Next, the solution image will be revealed to you and you'll be asked to indicate how strong your <strong>aha-experience</strong> was after seeing the solution. This describes the positive feeling of the 'click' you sometimes experience, when the pieces of the 'puzzle' fall together and you suddenly have 'insight' in the image.</p><img src='aha.jpg' height='188' width='250'></img><p>Note that there are no right or wrong answers. We are interested in what <strong>you</strong> see in the image and how <strong>you</strong> feel about it.</p><p>Press any key to start the experiment.</p></div>","13","instructions","html-keyboard-response","5","253505","0.0-5.0","2692617","co39211","norming","","","","","","",""
"null","<div style=""font-size:60px;""> </div>","null","fixation","html-keyboard-response","6","253714","0.0-6.0-0.0","2692617","co39211","norming","","","","","","",""
"null","../img/tt/549tt.jpg","null","mooney1","image-keyboard-response","7","256720","0.0-6.0-1.0","2692617","co39211","norming","","","","","","",""
"9214.560000000318","","","post_mooney1_questions","survey-likert","8","265938","0.0-6.0-2.0","2692617","co39211","norming","","","{""curiosity"":5,""confidence"":1}","[0,1]","../img/tt/549tt.jpg","",""
"5357.275000000314","","","recognition","survey-text","9","271297","0.0-6.0-3.0","2692617","co39211","norming","","","{""guess"":""""}","","../img/tt/549tt.jpg","",""
"null","../img/gs/549gs.jpg","null","reveal","image-keyboard-response","10","273299","0.0-6.0-4.0","2692617","co39211","norming","","","","","","",""
"null","../img/tt/549tt.jpg","null","mooney2","image-keyboard-response","11","275301","0.0-6.0-5.0","2692617","co39211","norming","","","","","","",""
"3641.7699999983306","","","post_reveal_questions","survey-likert","12","278945","0.0-6.0-6.0","2692617","co39211","norming","","","{""aha"":4}","[0]","../img/tt/549tt.jpg","",""
"null","<div style=""font-size:60px;""> </div>","null","fixation","html-keyboard-response","13","279153","0.0-6.0-0.1","2692617","co39211","norming","","","","","","",""
"null","../img/tt/1276tt.jpg","null","mooney1","image-keyboard-response","14","282155","0.0-6.0-1.1","2692617","co39211","norming","","","","","","",""
"11676.054999999877","","","post_mooney1_questions","survey-likert","15","293833","0.0-6.0-2.1","2692617","co39211","norming","","","{""curiosity"":5,""confidence"":1}","[0,1]","../img/tt/1276tt.jpg","",""
"4069.910000000149","","","recognition","survey-text","16","297905","0.0-6.0-3.1","2692617","co39211","norming","","","{""guess"":""""}","","../img/tt/1276tt.jpg","",""
"null","../img/gs/1276gs.jpg","null","reveal","image-keyboard-response","17","299910","0.0-6.0-4.1","2692617","co39211","norming","","","","","","",""
"null","../img/tt/1276tt.jpg","null","mooney2","image-keyboard-response","18","301912","0.0-6.0-5.1","2692617","co39211","norming","","","","","","",""
"3735.445000000298","","","post_reveal_questions","survey-likert","19","305649","0.0-6.0-6.1","2692617","co39211","norming","","","{""aha"":2}","[0]","../img/tt/1276tt.jpg","",""
"null","<div style=""font-size:60px;""> </div>","null","fixation","html-keyboard-response","20","305852","0.0-6.0-0.2","2692617","co39211","norming","","","","","","",""
"null","../img/tt/010tt.jpg","null","mooney1","image-keyboard-response","21","308859","0.0-6.0-1.2","2692617","co39211","norming","","","","","","",""
"11173.210000000836","","","post_mooney1_questions","survey-likert","22","320038","0.0-6.0-2.2","2692617","co39211","norming","","","{""curiosity"":5,""confidence"":1}","[0,1]","../img/tt/010tt.jpg","",""
"5646.029999999853","","","recognition","survey-text","23","325686","0.0-6.0-3.2","2692617","co39211","norming","","","{""guess"":""""}","","../img/tt/010tt.jpg","",""
"null","../img/gs/010gs.jpg","null","reveal","image-keyboard-response","24","327695","0.0-6.0-4.2","2692617","co39211","norming","","","","","","",""
"null","../img/tt/010tt.jpg","null","mooney2","image-keyboard-response","25","329697","0.0-6.0-5.2","2692617","co39211","norming","","","","","","",""
"3459.66000000044","","","post_reveal_questions","survey-likert","26","333159","0.0-6.0-6.2","2692617","co39211","norming","","","{""aha"":5}","[0]","../img/tt/010tt.jpg","",""
"null","<div style=""font-size:60px;""> </div>","null","fixation","html-keyboard-response","27","333361","0.0-6.0-0.3","2692617","co39211","norming","","","","","","",""
"null","../img/tt/590tt.jpg","null","mooney1","image-keyboard-response","28","336362","0.0-6.0-1.3","2692617","co39211","norming","","","","","","",""
"5225.340000000899","","","post_mooney1_questions","survey-likert","29","341590","0.0-6.0-2.3","2692617","co39211","norming","","","{""curiosity"":5,""confidence"":1}","[0,1]","../img/tt/590tt.jpg","",""
"4998.139999999723","","","recognition","survey-text","30","346590","0.0-6.0-3.3","2692617","co39211","norming","","","{""guess"":""fiets""}","","../img/tt/590tt.jpg","",""
"null","../img/gs/590gs.jpg","null","reveal","image-keyboard-response","31","348591","0.0-6.0-4.3","2692617","co39211","norming","","","","","","",""
"null","../img/tt/590tt.jpg","null","mooney2","image-keyboard-response","32","350595","0.0-6.0-5.3","2692617","co39211","norming","","","","","","",""
"2313.865000000049","","","post_reveal_questions","survey-likert","33","352910","0.0-6.0-6.3","2692617","co39211","norming","","","{""aha"":4}","[0]","../img/tt/590tt.jpg","",""
"null","<div style=""font-size:60px;""> </div>","null","fixation","html-keyboard-response","34","353114","0.0-6.0-0.4","2692617","co39211","norming","","","","","","",""
"null","../img/tt/063tt.jpg","null","mooney1","image-keyboard-response","35","356125","0.0-6.0-1.4","2692617","co39211","norming","","","","","","",""
"5327.4249999994645","","","post_mooney1_questions","survey-likert","36","361454","0.0-6.0-2.4","2692617","co39211","norming","","","{""curiosity"":4,""confidence"":1}","[0,1]","../img/tt/063tt.jpg","",""
"1774.1249999999418","","","recognition","survey-text","37","363230","0.0-6.0-3.4","2692617","co39211","norming","","","{""guess"":""""}","","../img/tt/063tt.jpg","",""
"null","../img/gs/063gs.jpg","null","reveal","image-keyboard-response","38","365231","0.0-6.0-4.4","2692617","co39211","norming","","","","","","",""
"null","../img/tt/063tt.jpg","null","mooney2","image-keyboard-response","39","367237","0.0-6.0-5.4","2692617","co39211","norming","","","","","","",""
"3671.614999999292","","","post_reveal_questions","survey-likert","40","370911","0.0-6.0-6.4","2692617","co39211","norming","","","{""aha"":1}","[0]","../img/tt/063tt.jpg","",""
"null","<div style=""font-size:60px;""> </div>","null","fixation","html-keyboard-response","41","371113","0.0-6.0-0.5","2692617","co39211","norming","","","","","","",""
"null","../img/tt/1251tt.jpg","null","mooney1","image-keyboard-response","42","374123","0.0-6.0-1.5","2692617","co39211","norming","","","","","","",""
"6368.60999999952","","","post_mooney1_questions","survey-likert","43","380496","0.0-6.0-2.5","2692617","co39211","norming","","","{""curiosity"":3,""confidence"":1}","[0,1]","../img/tt/1251tt.jpg","",""
"558.24500000017","","","recognition","survey-text","44","381056","0.0-6.0-3.5","2692617","co39211","norming","","","{""guess"":""""}","","../img/tt/1251tt.jpg","",""
"null","../img/gs/1251gs.jpg","null","reveal","image-keyboard-response","45","383058","0.0-6.0-4.5","2692617","co39211","norming","","","","","","",""
"null","../img/tt/1251tt.jpg","null","mooney2","image-keyboard-response","46","385061","0.0-6.0-5.5","2692617","co39211","norming","","","","","","",""
"2792.730000001029","","","post_reveal_questions","survey-likert","47","387856","0.0-6.0-6.5","2692617","co39211","norming","","","{""aha"":5}","[0]","../img/tt/1251tt.jpg","",""
"null","<div style=""font-size:60px;""> </div>","null","fixation","html-keyboard-response","48","388058","0.0-6.0-0.6","2692617","co39211","norming","","","","","","",""
"null","../img/tt/1236tt.jpg","null","mooney1","image-keyboard-response","49","391067","0.0-6.0-1.6","2692617","co39211","norming","","","","","","",""
"5292.48000000004","","","post_mooney1_questions","survey-likert","50","396360","0.0-6.0-2.6","2692617","co39211","norming","","","{""curiosity"":5,""confidence"":0}","[0,1]","../img/tt/1236tt.jpg","",""
"854.1100000002189","","","recognition","survey-text","51","397216","0.0-6.0-3.6","2692617","co39211","norming","","","{""guess"":""""}","","../img/tt/1236tt.jpg","",""
"null","../img/gs/1236gs.jpg","null","reveal","image-keyboard-response","52","399217","0.0-6.0-4.6","2692617","co39211","norming","","","","","","",""
"null","../img/tt/1236tt.jpg","null","mooney2","image-keyboard-response","53","401220","0.0-6.0-5.6","2692617","co39211","norming","","","","","","",""
"2402.2949999998673","","","post_reveal_questions","survey-likert","54","403624","0.0-6.0-6.6","2692617","co39211","norming","","","{""aha"":5}","[0]","../img/tt/1236tt.jpg","",""
"null","<div style=""font-size:60px;""> </div>","null","fixation","html-keyboard-response","55","403826","0.0-6.0-0.7","2692617","co39211","norming","","","","","","",""
"null","../img/tt/273tt.jpg","null","mooney1","image-keyboard-response","56","406836","0.0-6.0-1.7","2692617","co39211","norming","","","","","","",""
"5265.670000000682","","","post_mooney1_questions","survey-likert","57","412105","0.0-6.0-2.7","2692617","co39211","norming","","","{""curiosity"":5,""confidence"":1}","[0,1]","../img/tt/273tt.jpg","",""
"5669.975000000733","","","recognition","survey-text","58","417776","0.0-6.0-3.7","2692617","co39211","norming","","","{""guess"":""vogel""}","","../img/tt/273tt.jpg","",""
"null","../img/gs/273gs.jpg","null","reveal","image-keyboard-response","59","419778","0.0-6.0-4.7","2692617","co39211","norming","","","","","","",""
"null","../img/tt/273tt.jpg","null","mooney2","image-keyboard-response","60","421780","0.0-6.0-5.7","2692617","co39211","norming","","","","","","",""
"2682.0499999994063","","","post_reveal_questions","survey-likert","61","424464","0.0-6.0-6.7","2692617","co39211","norming","","","{""aha"":3}","[0]","../img/tt/273tt.jpg","",""
"null","<div style=""font-size:60px;""> </div>","null","fixation","html-keyboard-response","62","424666","0.0-6.0-0.8","2692617","co39211","norming","","","","","","",""
"null","../img/tt/094tt.jpg","null","mooney1","image-keyboard-response","63","427677","0.0-6.0-1.8","2692617","co39211","norming","","","","","","",""
"4521.024999999965","","","post_mooney1_questions","survey-likert","64","432200","0.0-6.0-2.8","2692617","co39211","norming","","","{""curiosity"":5,""confidence"":1}","[0,1]","../img/tt/094tt.jpg","",""
"4006.224999999162","","","recognition","survey-text","65","436208","0.0-6.0-3.8","2692617","co39211","norming","","","{""guess"":""vogel""}","","../img/tt/094tt.jpg","",""
"null","../img/gs/094gs.jpg","null","reveal","image-keyboard-response","66","438218","0.0-6.0-4.8","2692617","co39211","norming","","","","","","",""
"null","../img/tt/094tt.jpg","null","mooney2","image-keyboard-response","67","440231","0.0-6.0-5.8","2692617","co39211","norming","","","","","","",""
"3018.739999999525","","","post_reveal_questions","survey-likert","68","443252","0.0-6.0-6.8","2692617","co39211","norming","","","{""aha"":1}","[0]","../img/tt/094tt.jpg","",""
"null","<div style=""font-size:60px;""> </div>","null","fixation","html-keyboard-response","69","443454","0.0-6.0-0.9","2692617","co39211","norming","","","","","","",""
"null","../img/tt/044tt.jpg","null","mooney1","image-keyboard-response","70","446458","0.0-6.0-1.9","2692617","co39211","norming","","","","","","",""
"2983.5350000011967","","","post_mooney1_questions","survey-likert","71","449444","0.0-6.0-2.9","2692617","co39211","norming","","","{""curiosity"":5,""confidence"":1}","[0,1]","../img/tt/044tt.jpg","",""
"854.294999999227","","","recognition","survey-text","72","450300","0.0-6.0-3.9","2692617","co39211","norming","","","{""guess"":""""}","","../img/tt/044tt.jpg","",""
"null","../img/gs/044gs.jpg","null","reveal","image-keyboard-response","73","452310","0.0-6.0-4.9","2692617","co39211","norming","","","","","","",""
"null","../img/tt/044tt.jpg","null","mooney2","image-keyboard-response","74","454321","0.0-6.0-5.9","2692617","co39211","norming","","","","","","",""
"3641.2550000004703","","","post_reveal_questions","survey-likert","75","457964","0.0-6.0-6.9","2692617","co39211","norming","","","{""aha"":0}","[0]","../img/tt/044tt.jpg","",""
"null","<div style=""font-size:60px;""> </div>","null","fixation","html-keyboard-response","76","458166","0.0-6.0-0.10","2692617","co39211","norming","","","","","","",""
"null","../img/tt/1171tt.jpg","null","mooney1","image-keyboard-response","77","461170","0.0-6.0-1.10","2692617","co39211","norming","","","","","","",""
"4568.00499999919","","","post_mooney1_questions","survey-likert","78","465740","0.0-6.0-2.10","2692617","co39211","norming","","","{""curiosity"":5,""confidence"":0}","[0,1]","../img/tt/1171tt.jpg","",""
"1910.1700000010314","","","recognition","survey-text","79","467652","0.0-6.0-3.10","2692617","co39211","norming","","","{""guess"":""""}","","../img/tt/1171tt.jpg","",""
"null","../img/gs/1171gs.jpg","null","reveal","image-keyboard-response","80","469654","0.0-6.0-4.10","2692617","co39211","norming","","","","","","",""
"null","../img/tt/1171tt.jpg","null","mooney2","image-keyboard-response","81","471657","0.0-6.0-5.10","2692617","co39211","norming","","","","","","",""
"6761.250000001397","","","post_reveal_questions","survey-likert","82","478420","0.0-6.0-6.10","2692617","co39211","norming","","","{""aha"":0}","[0]","../img/tt/1171tt.jpg","",""
"null","<div style=""font-size:60px;""> </div>","null","fixation","html-keyboard-response","83","478625","0.0-6.0-0.11","2692617","co39211","norming","","","","","","",""
"null","../img/tt/1070tt.jpg","null","mooney1","image-keyboard-response","84","481630","0.0-6.0-1.11","2692617","co39211","norming","","","","","","",""
"5643.05000000057","","","post_mooney1_questions","survey-likert","85","487276","0.0-6.0-2.11","2692617","co39211","norming","","","{""curiosity"":5,""confidence"":1}","[0,1]","../img/tt/1070tt.jpg","",""
"1510.299999999872","","","recognition","survey-text","86","488788","0.0-6.0-3.11","2692617","co39211","norming","","","{""guess"":""""}","","../img/tt/1070tt.jpg","",""
"null","../img/gs/1070gs.jpg","null","reveal","image-keyboard-response","87","490790","0.0-6.0-4.11","2692617","co39211","norming","","","","","","",""
"null","../img/tt/1070tt.jpg","null","mooney2","image-keyboard-response","88","492801","0.0-6.0-5.11","2692617","co39211","norming","","","","","","",""
"2273.1750000002794","","","post_reveal_questions","survey-likert","89","495076","0.0-6.0-6.11","2692617","co39211","norming","","","{""aha"":2}","[0]","../img/tt/1070tt.jpg","",""
"null","<div style=""font-size:60px;""> </div>","null","fixation","html-keyboard-response","90","495277","0.0-6.0-0.12","2692617","co39211","norming","","","","","","",""
"null","../img/tt/1278tt.jpg","null","mooney1","image-keyboard-response","91","498281","0.0-6.0-1.12","2692617","co39211","norming","","","","","","",""
"7384.415000000445","","","post_mooney1_questions","survey-likert","92","505668","0.0-6.0-2.12","2692617","co39211","norming","","","{""curiosity"":5,""confidence"":0}","[0,1]","../img/tt/1278tt.jpg","",""
"814.0450000010314","","","recognition","survey-text","93","506484","0.0-6.0-3.12","2692617","co39211","norming","","","{""guess"":""""}","","../img/tt/1278tt.jpg","",""
"null","../img/gs/1278gs.jpg","null","reveal","image-keyboard-response","94","508491","0.0-6.0-4.12","2692617","co39211","norming","","","","","","",""
"null","../img/tt/1278tt.jpg","null","mooney2","image-keyboard-response","95","510492","0.0-6.0-5.12","2692617","co39211","norming","","","","","","",""
"2461.3950000002515","","","post_reveal_questions","survey-likert","96","512956","0.0-6.0-6.12","2692617","co39211","norming","","","{""aha"":6}","[0]","../img/tt/1278tt.jpg","",""
"null","<div style=""font-size:60px;""> </div>","null","fixation","html-keyboard-response","97","513159","0.0-6.0-0.13","2692617","co39211","norming","","","","","","",""
"null","../img/tt/053tt.jpg","null","mooney1","image-keyboard-response","98","516163","0.0-6.0-1.13","2692617","co39211","norming","","","","","","",""
"6102.785000000906","","","post_mooney1_questions","survey-likert","99","522268","0.0-6.0-2.13","2692617","co39211","norming","","","{""curiosity"":5,""confidence"":1}","[0,1]","../img/tt/053tt.jpg","",""
"9566.205000001006","","","recognition","survey-text","100","531836","0.0-6.0-3.13","2692617","co39211","norming","","","{""guess"":""""}","","../img/tt/053tt.jpg","",""
"null","../img/gs/053gs.jpg","null","reveal","image-keyboard-response","101","533837","0.0-6.0-4.13","2692617","co39211","norming","","","","","","",""
"null","../img/tt/053tt.jpg","null","mooney2","image-keyboard-response","102","535840","0.0-6.0-5.13","2692617","co39211","norming","","","","","","",""
"1889.7500000002328","","","post_reveal_questions","survey-likert","103","537732","0.0-6.0-6.13","2692617","co39211","norming","","","{""aha"":5}","[0]","../img/tt/053tt.jpg","",""
"null","<div style=""font-size:60px;""> </div>","null","fixation","html-keyboard-response","104","537933","0.0-6.0-0.14","2692617","co39211","norming","","","","","","",""
"null","../img/tt/1239tt.jpg","null","mooney1","image-keyboard-response","105","540935","0.0-6.0-1.14","2692617","co39211","norming","","","","","","",""
"5003.969999999739","","","post_mooney1_questions","survey-likert","106","545940","0.0-6.0-2.14","2692617","co39211","norming","","","{""curiosity"":5,""confidence"":0}","[0,1]","../img/tt/1239tt.jpg","",""
"853.9899999996414","","","recognition","survey-text","107","546796","0.0-6.0-3.14","2692617","co39211","norming","","","{""guess"":""""}","","../img/tt/1239tt.jpg","",""
"null","../img/gs/1239gs.jpg","null","reveal","image-keyboard-response","108","548797","0.0-6.0-4.14","2692617","co39211","norming","","","","","","",""
"null","../img/tt/1239tt.jpg","null","mooney2","image-keyboard-response","109","550799","0.0-6.0-5.14","2692617","co39211","norming","","","","","","",""
"3914.75999999966","","","post_reveal_questions","survey-likert","110","554716","0.0-6.0-6.14","2692617","co39211","norming","","","{""aha"":1}","[0]","../img/tt/1239tt.jpg","",""
"null","<div style=""font-size:60px;""> </div>","null","fixation","html-keyboard-response","111","554926","0.0-6.0-0.15","2692617","co39211","norming","","","","","","",""
"null","../img/tt/1363tt.jpg","null","mooney1","image-keyboard-response","112","557929","0.0-6.0-1.15","2692617","co39211","norming","","","","","","",""
"6825.140000000829","","","post_mooney1_questions","survey-likert","113","564748","0.0-6.0-2.15","2692617","co39211","norming","","","{""curiosity"":4,""confidence"":1}","[0,1]","../img/tt/1363tt.jpg","",""
"7413.810000000056","","","recognition","survey-text","114","572163","0.0-6.0-3.15","2692617","co39211","norming","","","{""guess"":""eend""}","","../img/tt/1363tt.jpg","",""
"null","../img/gs/1363gs.jpg","null","reveal","image-keyboard-response","115","574165","0.0-6.0-4.15","2692617","co39211","norming","","","","","","",""
"null","../img/tt/1363tt.jpg","null","mooney2","image-keyboard-response","116","576167","0.0-6.0-5.15","2692617","co39211","norming","","","","","","",""
"1698.3700000001118","","","post_reveal_questions","survey-likert","117","577868","0.0-6.0-6.15","2692617","co39211","norming","","","{""aha"":0}","[0]","../img/tt/1363tt.jpg","",""
"null","<div style=""font-size:60px;""> </div>","null","fixation","html-keyboard-response","118","578074","0.0-6.0-0.16","2692617","co39211","norming","","","","","","",""
"null","../img/tt/318tt.jpg","null","mooney1","image-keyboard-response","119","581082","0.0-6.0-1.16","2692617","co39211","norming","","","","","","",""
"8334.64999999886","","","post_mooney1_questions","survey-likert","120","589420","0.0-6.0-2.16","2692617","co39211","norming","","","{""curiosity"":5,""confidence"":0}","[0,1]","../img/tt/318tt.jpg","",""
"1173.500000000815","","","recognition","survey-text","121","590596","0.0-6.0-3.16","2692617","co39211","norming","","","{""guess"":""""}","","../img/tt/318tt.jpg","",""
"null","../img/gs/318gs.jpg","null","reveal","image-keyboard-response","122","592597","0.0-6.0-4.16","2692617","co39211","norming","","","","","","",""
"null","../img/tt/318tt.jpg","null","mooney2","image-keyboard-response","123","594602","0.0-6.0-5.16","2692617","co39211","norming","","","","","","",""
"1527.5350000010803","","","post_reveal_questions","survey-likert","124","596132","0.0-6.0-6.16","2692617","co39211","norming","","","{""aha"":1}","[0]","../img/tt/318tt.jpg","",""
"null","<div style=""font-size:60px;""> </div>","null","fixation","html-keyboard-response","125","596340","0.0-6.0-0.17","2692617","co39211","norming","","","","","","",""
"null","../img/tt/418tt.jpg","null","mooney1","image-keyboard-response","126","599352","0.0-6.0-1.17","2692617","co39211","norming","","","","","","",""
"5017.244999999064","","","post_mooney1_questions","survey-likert","127","604372","0.0-6.0-2.17","2692617","co39211","norming","","","{""curiosity"":6,""confidence"":0}","[0,1]","../img/tt/418tt.jpg","",""
"1157.905000000028","","","recognition","survey-text","128","605532","0.0-6.0-3.17","2692617","co39211","norming","","","{""guess"":""""}","","../img/tt/418tt.jpg","",""
"null","../img/gs/418gs.jpg","null","reveal","image-keyboard-response","129","607534","0.0-6.0-4.17","2692617","co39211","norming","","","","","","",""
"null","../img/tt/418tt.jpg","null","mooney2","image-keyboard-response","130","609536","0.0-6.0-5.17","2692617","co39211","norming","","","","","","",""
"2377.664999999921","","","post_reveal_questions","survey-likert","131","611916","0.0-6.0-6.17","2692617","co39211","norming","","","{""aha"":0}","[0]","../img/tt/418tt.jpg","",""
"null","<div style=""font-size:60px;""> </div>","null","fixation","html-keyboard-response","132","612119","0.0-6.0-0.18","2692617","co39211","norming","","","","","","",""
"null","../img/tt/1189tt.jpg","null","mooney1","image-keyboard-response","133","615121","0.0-6.0-1.18","2692617","co39211","norming","","","","","","",""
"6471.97499999858","","","post_mooney1_questions","survey-likert","134","621596","0.0-6.0-2.18","2692617","co39211","norming","","","{""curiosity"":5,""confidence"":0}","[0,1]","../img/tt/1189tt.jpg","",""
"878.0399999995716","","","recognition","survey-text","135","622484","0.0-6.0-3.18","2692617","co39211","norming","","","{""guess"":""""}","","../img/tt/1189tt.jpg","",""
"null","../img/gs/1189gs.jpg","null","reveal","image-keyboard-response","136","624491","0.0-6.0-4.18","2692617","co39211","norming","","","","","","",""
"null","../img/tt/1189tt.jpg","null","mooney2","image-keyboard-response","137","626494","0.0-6.0-5.18","2692617","co39211","norming","","","","","","",""
"2268.2349999995204","","","post_reveal_questions","survey-likert","138","628764","0.0-6.0-6.18","2692617","co39211","norming","","","{""aha"":0}","[0]","../img/tt/1189tt.jpg","",""
"null","<div style=""font-size:60px;""> </div>","null","fixation","html-keyboard-response","139","628965","0.0-6.0-0.19","2692617","co39211","norming","","","","","","",""
"null","../img/tt/1247tt.jpg","null","mooney1","image-keyboard-response","140","631966","0.0-6.0-1.19","2692617","co39211","norming","","","","","","",""
"6467.474999999511","","","post_mooney1_questions","survey-likert","141","638436","0.0-6.0-2.19","2692617","co39211","norming","","","{""curiosity"":6,""confidence"":0}","[0,1]","../img/tt/1247tt.jpg","",""
"869.994999999064","","","recognition","survey-text","142","639308","0.0-6.0-3.19","2692617","co39211","norming","","","{""guess"":""""}","","../img/tt/1247tt.jpg","",""
"null","../img/gs/1247gs.jpg","null","reveal","image-keyboard-response","143","641311","0.0-6.0-4.19","2692617","co39211","norming","","","","","","",""
"null","../img/tt/1247tt.jpg","null","mooney2","image-keyboard-response","144","643320","0.0-6.0-5.19","2692617","co39211","norming","","","","","","",""
"2457.1949999990175","","","post_reveal_questions","survey-likert","145","645780","0.0-6.0-6.19","2692617","co39211","norming","","","{""aha"":4}","[0]","../img/tt/1247tt.jpg","",""
"null","<div style=""font-size:60px;""> </div>","null","fixation","html-keyboard-response","146","645981","0.0-6.0-0.20","2692617","co39211","norming","","","","","","",""
"null","../img/tt/357tt.jpg","null","mooney1","image-keyboard-response","147","648989","0.0-6.0-1.20","2692617","co39211","norming","","","","","","",""
"4021.7350000003353","","","post_mooney1_questions","survey-likert","148","653012","0.0-6.0-2.20","2692617","co39211","norming","","","{""curiosity"":6,""confidence"":0}","[0,1]","../img/tt/357tt.jpg","",""
"614.360000001383","","","recognition","survey-text","149","653628","0.0-6.0-3.20","2692617","co39211","norming","","","{""guess"":""""}","","../img/tt/357tt.jpg","",""
"null","../img/gs/357gs.jpg","null","reveal","image-keyboard-response","150","655631","0.0-6.0-4.20","2692617","co39211","norming","","","","","","",""
"null","../img/tt/357tt.jpg","null","mooney2","image-keyboard-response","151","657641","0.0-6.0-5.20","2692617","co39211","norming","","","","","","",""
"2609.0349999994505","","","post_reveal_questions","survey-likert","152","660252","0.0-6.0-6.20","2692617","co39211","norming","","","{""aha"":0}","[0]","../img/tt/357tt.jpg","",""
"null","<div style=""font-size:60px;""> </div>","null","fixation","html-keyboard-response","153","660454","0.0-6.0-0.21","2692617","co39211","norming","","","","","","",""
"null","../img/tt/552tt.jpg","null","mooney1","image-keyboard-response","154","663456","0.0-6.0-1.21","2692617","co39211","norming","","","","","","",""
"7160.644999999902","","","post_mooney1_questions","survey-likert","155","670620","0.0-6.0-2.21","2692617","co39211","norming","","","{""curiosity"":6,""confidence"":0}","[0,1]","../img/tt/552tt.jpg","",""
"1030.020000000135","","","recognition","survey-text","156","671652","0.0-6.0-3.21","2692617","co39211","norming","","","{""guess"":""""}","","../img/tt/552tt.jpg","",""
"null","../img/gs/552gs.jpg","null","reveal","image-keyboard-response","157","673654","0.0-6.0-4.21","2692617","co39211","norming","","","","","","",""
"null","../img/tt/552tt.jpg","null","mooney2","image-keyboard-response","158","675656","0.0-6.0-5.21","2692617","co39211","norming","","","","","","",""
"2689.9549999998417","","","post_reveal_questions","survey-likert","159","678348","0.0-6.0-6.21","2692617","co39211","norming","","","{""aha"":6}","[0]","../img/tt/552tt.jpg","",""
"null","<div style=""font-size:60px;""> </div>","null","fixation","html-keyboard-response","160","678550","0.0-6.0-0.22","2692617","co39211","norming","","","","","","",""
"null","../img/tt/1061tt.jpg","null","mooney1","image-keyboard-response","161","681554","0.0-6.0-1.22","2692617","co39211","norming","","","","","","",""
"7791.494999999413","","","post_mooney1_questions","survey-likert","162","689347","0.0-6.0-2.22","2692617","co39211","norming","","","{""curiosity"":5,""confidence"":1}","[0,1]","../img/tt/1061tt.jpg","",""
"4166.174999998417","","","recognition","survey-text","163","693515","0.0-6.0-3.22","2692617","co39211","norming","","","{""guess"":""golf""}","","../img/tt/1061tt.jpg","",""
"null","../img/gs/1061gs.jpg","null","reveal","image-keyboard-response","164","695520","0.0-6.0-4.22","2692617","co39211","norming","","","","","","",""
"null","../img/tt/1061tt.jpg","null","mooney2","image-keyboard-response","165","697530","0.0-6.0-5.22","2692617","co39211","norming","","","","","","",""
"1726.915000001085","","","post_reveal_questions","survey-likert","166","699259","0.0-6.0-6.22","2692617","co39211","norming","","","{""aha"":4}","[0]","../img/tt/1061tt.jpg","",""
"null","<div style=""font-size:60px;""> </div>","null","fixation","html-keyboard-response","167","699461","0.0-6.0-0.23","2692617","co39211","norming","","","","","","",""
"null","../img/tt/1275tt.jpg","null","mooney1","image-keyboard-response","168","702471","0.0-6.0-1.23","2692617","co39211","norming","","","","","","",""
"3554.0000000001164","","","post_mooney1_questions","survey-likert","169","706028","0.0-6.0-2.23","2692617","co39211","norming","","","{""curiosity"":5,""confidence"":1}","[0,1]","../img/tt/1275tt.jpg","",""
"5157.865000000922","","","recognition","survey-text","170","711187","0.0-6.0-3.23","2692617","co39211","norming","","","{""guess"":""leeuw""}","","../img/tt/1275tt.jpg","",""
"null","../img/gs/1275gs.jpg","null","reveal","image-keyboard-response","171","713193","0.0-6.0-4.23","2692617","co39211","norming","","","","","","",""
"null","../img/tt/1275tt.jpg","null","mooney2","image-keyboard-response","172","715195","0.0-6.0-5.23","2692617","co39211","norming","","","","","","",""
"1349.760000001057","","","post_reveal_questions","survey-likert","173","716547","0.0-6.0-6.23","2692617","co39211","norming","","","{""aha"":1}","[0]","../img/tt/1275tt.jpg","",""
"null","<div style=""font-size:60px;""> </div>","null","fixation","html-keyboard-response","174","716756","0.0-6.0-0.24","2692617","co39211","norming","","","","","","",""
"null","../img/tt/1107tt.jpg","null","mooney1","image-keyboard-response","175","719758","0.0-6.0-1.24","2692617","co39211","norming","","","","","","",""
"3994.829999999609","","","post_mooney1_questions","survey-likert","176","723756","0.0-6.0-2.24","2692617","co39211","norming","","","{""curiosity"":5,""confidence"":1}","[0,1]","../img/tt/1107tt.jpg","",""
"4261.819999999716","","","recognition","survey-text","177","728019","0.0-6.0-3.24","2692617","co39211","norming","","","{""guess"":""kat""}","","../img/tt/1107tt.jpg","",""
"null","../img/gs/1107gs.jpg","null","reveal","image-keyboard-response","178","730021","0.0-6.0-4.24","2692617","co39211","norming","","","","","","",""
"null","../img/tt/1107tt.jpg","null","mooney2","image-keyboard-response","179","732029","0.0-6.0-5.24","2692617","co39211","norming","","","","","","",""
"3868.0100000001257","","","post_reveal_questions","survey-likert","180","735899","0.0-6.0-6.24","2692617","co39211","norming","","","{""aha"":5}","[0]","../img/tt/1107tt.jpg","",""
"null","<div style=""font-size:60px;""> </div>","null","fixation","html-keyboard-response","181","736104","0.0-6.0-0.25","2692617","co39211","norming","","","","","","",""
"null","../img/tt/477tt.jpg","null","mooney1","image-keyboard-response","182","739110","0.0-6.0-1.25","2692617","co39211","norming","","","","","","",""
"5970.4549999986775","","","post_mooney1_questions","survey-likert","183","745084","0.0-6.0-2.25","2692617","co39211","norming","","","{""curiosity"":5,""confidence"":0}","[0,1]","../img/tt/477tt.jpg","",""
"989.6649999992223","","","recognition","survey-text","184","746075","0.0-6.0-3.25","2692617","co39211","norming","","","{""guess"":""""}","","../img/tt/477tt.jpg","",""
"null","../img/gs/477gs.jpg","null","reveal","image-keyboard-response","185","748077","0.0-6.0-4.25","2692617","co39211","norming","","","","","","",""
"null","../img/tt/477tt.jpg","null","mooney2","image-keyboard-response","186","750079","0.0-6.0-5.25","2692617","co39211","norming","","","","","","",""
"1426.390000000596","","","post_reveal_questions","survey-likert","187","751508","0.0-6.0-6.25","2692617","co39211","norming","","","{""aha"":0}","[0]","../img/tt/477tt.jpg","",""
"null","<div style=""font-size:60px;""> </div>","null","fixation","html-keyboard-response","188","751715","0.0-6.0-0.26","2692617","co39211","norming","","","","","","",""
"null","../img/tt/438tt.jpg","null","mooney1","image-keyboard-response","189","754719","0.0-6.0-1.26","2692617","co39211","norming","","","","","","",""
"8546.355000000447","","","post_mooney1_questions","survey-likert","190","763268","0.0-6.0-2.26","2692617","co39211","norming","","","{""curiosity"":5,""confidence"":0}","[0,1]","../img/tt/438tt.jpg","",""
"781.7000000013504","","","recognition","survey-text","191","764051","0.0-6.0-3.26","2692617","co39211","norming","","","{""guess"":""""}","","../img/tt/438tt.jpg","",""
"null","../img/gs/438gs.jpg","null","reveal","image-keyboard-response","192","766057","0.0-6.0-4.26","2692617","co39211","norming","","","","","","",""
"null","../img/tt/438tt.jpg","null","mooney2","image-keyboard-response","193","768058","0.0-6.0-5.26","2692617","co39211","norming","","","","","","",""
"1638.9900000012713","","","post_reveal_questions","survey-likert","194","769700","0.0-6.0-6.26","2692617","co39211","norming","","","{""aha"":5}","[0]","../img/tt/438tt.jpg","",""
"null","<div style=""font-size:60px;""> </div>","null","fixation","html-keyboard-response","195","769904","0.0-6.0-0.27","2692617","co39211","norming","","","","","","",""
"null","../img/tt/1102tt.jpg","null","mooney1","image-keyboard-response","196","772907","0.0-6.0-1.27","2692617","co39211","norming","","","","","","",""
"7735.935000000638","","","post_mooney1_questions","survey-likert","197","780644","0.0-6.0-2.27","2692617","co39211","norming","","","{""curiosity"":5,""confidence"":0}","[0,1]","../img/tt/1102tt.jpg","",""
"494.18999999947846","","","recognition","survey-text","198","781140","0.0-6.0-3.27","2692617","co39211","norming","","","{""guess"":""""}","","../img/tt/1102tt.jpg","",""
"null","../img/gs/1102gs.jpg","null","reveal","image-keyboard-response","199","783141","0.0-6.0-4.27","2692617","co39211","norming","","","","","","",""
"null","../img/tt/1102tt.jpg","null","mooney2","image-keyboard-response","200","785143","0.0-6.0-5.27","2692617","co39211","norming","","","","","","",""
"2474.909999998985","","","post_reveal_questions","survey-likert","201","787620","0.0-6.0-6.27","2692617","co39211","norming","","","{""aha"":1}","[0]","../img/tt/1102tt.jpg","",""
"null","<div style=""font-size:60px;""> </div>","null","fixation","html-keyboard-response","202","787821","0.0-6.0-0.28","2692617","co39211","norming","","","","","","",""
"null","../img/tt/1290tt.jpg","null","mooney1","image-keyboard-response","203","790823","0.0-6.0-1.28","2692617","co39211","norming","","","","","","",""
"3633.980000000447","","","post_mooney1_questions","survey-likert","204","794460","0.0-6.0-2.28","2692617","co39211","norming","","","{""curiosity"":5,""confidence"":0}","[0,1]","../img/tt/1290tt.jpg","",""
"534.1150000003399","","","recognition","survey-text","205","794995","0.0-6.0-3.28","2692617","co39211","norming","","","{""guess"":""""}","","../img/tt/1290tt.jpg","",""
"null","../img/gs/1290gs.jpg","null","reveal","image-keyboard-response","206","796997","0.0-6.0-4.28","2692617","co39211","norming","","","","","","",""
"null","../img/tt/1290tt.jpg","null","mooney2","image-keyboard-response","207","799000","0.0-6.0-5.28","2692617","co39211","norming","","","","","","",""
"2666.4299999992363","","","post_reveal_questions","survey-likert","208","801668","0.0-6.0-6.28","2692617","co39211","norming","","","{""aha"":5}","[0]","../img/tt/1290tt.jpg","",""
"null","<div style=""font-size:60px;""> </div>","null","fixation","html-keyboard-response","209","801869","0.0-6.0-0.29","2692617","co39211","norming","","","","","","",""
"null","../img/tt/1283tt.jpg","null","mooney1","image-keyboard-response","210","804879","0.0-6.0-1.29","2692617","co39211","norming","","","","","","",""
"4059.374999998836","","","post_mooney1_questions","survey-likert","211","808931","0.0-6.0-2.29","2692617","co39211","norming","","","{""curiosity"":6,""confidence"":0}","[0,1]","../img/tt/1283tt.jpg","",""
"653.6500000001397","","","recognition","survey-text","212","809586","0.0-6.0-3.29","2692617","co39211","norming","","","{""guess"":""""}","","../img/tt/1283tt.jpg","",""
"null","../img/gs/1283gs.jpg","null","reveal","image-keyboard-response","213","811588","0.0-6.0-4.29","2692617","co39211","norming","","","","","","",""
"null","../img/tt/1283tt.jpg","null","mooney2","image-keyboard-response","214","813593","0.0-6.0-5.29","2692617","co39211","norming","","","","","","",""
"2135.105000001262","","","post_reveal_questions","survey-likert","215","815730","0.0-6.0-6.29","2692617","co39211","norming","","","{""aha"":4}","[0]","../img/tt/1283tt.jpg","",""
"null","<div style=""font-size:60px;""> </div>","null","fixation","html-keyboard-response","216","815933","0.0-6.0-0.30","2692617","co39211","norming","","","","","","",""
"null","../img/tt/584tt.jpg","null","mooney1","image-keyboard-response","217","818937","0.0-6.0-1.30","2692617","co39211","norming","","","","","","",""
"4056.36500000034","","","post_mooney1_questions","survey-likert","218","822994","0.0-6.0-2.30","2692617","co39211","norming","","","{""curiosity"":6,""confidence"":0}","[0,1]","../img/tt/584tt.jpg","",""
"478.2500000001164","","","recognition","survey-text","219","823474","0.0-6.0-3.30","2692617","co39211","norming","","","{""guess"":""""}","","../img/tt/584tt.jpg","",""
"null","../img/gs/584gs.jpg","null","reveal","image-keyboard-response","220","825481","0.0-6.0-4.30","2692617","co39211","norming","","","","","","",""
"null","../img/tt/584tt.jpg","null","mooney2","image-keyboard-response","221","827482","0.0-6.0-5.30","2692617","co39211","norming","","","","","","",""
"1446.0500000003958","","","post_reveal_questions","survey-likert","222","828930","0.0-6.0-6.30","2692617","co39211","norming","","","{""aha"":2}","[0]","../img/tt/584tt.jpg","",""
"null","<div style=""font-size:60px;""> </div>","null","fixation","html-keyboard-response","223","829131","0.0-6.0-0.31","2692617","co39211","norming","","","","","","",""
"null","../img/tt/1237tt.jpg","null","mooney1","image-keyboard-response","224","832141","0.0-6.0-1.31","2692617","co39211","norming","","","","","","",""
"5058.160000000498","","","post_mooney1_questions","survey-likert","225","837202","0.0-6.0-2.31","2692617","co39211","norming","","","{""curiosity"":5,""confidence"":0}","[0,1]","../img/tt/1237tt.jpg","",""
"678.1549999995623","","","recognition","survey-text","226","837882","0.0-6.0-3.31","2692617","co39211","norming","","","{""guess"":""""}","","../img/tt/1237tt.jpg","",""
"null","../img/gs/1237gs.jpg","null","reveal","image-keyboard-response","227","839884","0.0-6.0-4.31","2692617","co39211","norming","","","","","","",""
"null","../img/tt/1237tt.jpg","null","mooney2","image-keyboard-response","228","841885","0.0-6.0-5.31","2692617","co39211","norming","","","","","","",""
"1826.6049999983516","","","post_reveal_questions","survey-likert","229","843714","0.0-6.0-6.31","2692617","co39211","norming","","","{""aha"":1}","[0]","../img/tt/1237tt.jpg","",""
"null","<div style=""font-size:60px;""> </div>","null","fixation","html-keyboard-response","230","843917","0.0-6.0-0.32","2692617","co39211","norming","","","","","","",""
"null","../img/tt/603tt.jpg","null","mooney1","image-keyboard-response","231","846921","0.0-6.0-1.32","2692617","co39211","norming","","","","","","",""
"5152.589999999618","","","post_mooney1_questions","survey-likert","232","852075","0.0-6.0-2.32","2692617","co39211","norming","","","{""curiosity"":5,""confidence"":0}","[0,1]","../img/tt/603tt.jpg","",""
"686.0749999997206","","","recognition","survey-text","233","852762","0.0-6.0-3.32","2692617","co39211","norming","","","{""guess"":""""}","","../img/tt/603tt.jpg","",""
"null","../img/gs/603gs.jpg","null","reveal","image-keyboard-response","234","854764","0.0-6.0-4.32","2692617","co39211","norming","","","","","","",""
"null","../img/tt/603tt.jpg","null","mooney2","image-keyboard-response","235","856767","0.0-6.0-5.32","2692617","co39211","norming","","","","","","",""
"2632.60500000068","","","post_reveal_questions","survey-likert","236","859402","0.0-6.0-6.32","2692617","co39211","norming","","","{""aha"":2}","[0]","../img/tt/603tt.jpg","",""
"null","<div style=""font-size:60px;""> </div>","null","fixation","html-keyboard-response","237","859611","0.0-6.0-0.33","2692617","co39211","norming","","","","","","",""
"null","../img/tt/1096tt.jpg","null","mooney1","image-keyboard-response","238","862615","0.0-6.0-1.33","2692617","co39211","norming","","","","","","",""
"7000.345000000438","","","post_mooney1_questions","survey-likert","239","869624","0.0-6.0-2.33","2692617","co39211","norming","","","{""curiosity"":6,""confidence"":0}","[0,1]","../img/tt/1096tt.jpg","",""
"710.1050000000978","","","recognition","survey-text","240","870336","0.0-6.0-3.33","2692617","co39211","norming","","","{""guess"":""""}","","../img/tt/1096tt.jpg","",""
"null","../img/gs/1096gs.jpg","null","reveal","image-keyboard-response","241","872337","0.0-6.0-4.33","2692617","co39211","norming","","","","","","",""
"null","../img/tt/1096tt.jpg","null","mooney2","image-keyboard-response","242","874340","0.0-6.0-5.33","2692617","co39211","norming","","","","","","",""
"1625.6899999988964","","","post_reveal_questions","survey-likert","243","875968","0.0-6.0-6.33","2692617","co39211","norming","","","{""aha"":1}","[0]","../img/tt/1096tt.jpg","",""
"null","<div style=""font-size:60px;""> </div>","null","fixation","html-keyboard-response","244","876169","0.0-6.0-0.34","2692617","co39211","norming","","","","","","",""
"null","../img/tt/1049tt.jpg","null","mooney1","image-keyboard-response","245","879173","0.0-6.0-1.34","2692617","co39211","norming","","","","","","",""
"3072.6599999997998","","","post_mooney1_questions","survey-likert","246","882248","0.0-6.0-2.34","2692617","co39211","norming","","","{""curiosity"":5,""confidence"":0}","[0,1]","../img/tt/1049tt.jpg","",""
"637.5150000003632","","","recognition","survey-text","247","882887","0.0-6.0-3.34","2692617","co39211","norming","","","{""guess"":""""}","","../img/tt/1049tt.jpg","",""
"null","../img/gs/1049gs.jpg","null","reveal","image-keyboard-response","248","884888","0.0-6.0-4.34","2692617","co39211","norming","","","","","","",""
"null","../img/tt/1049tt.jpg","null","mooney2","image-keyboard-response","249","886889","0.0-6.0-5.34","2692617","co39211","norming","","","","","","",""
"1741.2999999996973","","","post_reveal_questions","survey-likert","250","888632","0.0-6.0-6.34","2692617","co39211","norming","","","{""aha"":0}","[0]","../img/tt/1049tt.jpg","",""
"null","<div style=""font-size:60px;""> </div>","null","fixation","html-keyboard-response","251","888841","0.0-6.0-0.35","2692617","co39211","norming","","","","","","",""
"null","../img/tt/1173tt.jpg","null","mooney1","image-keyboard-response","252","891847","0.0-6.0-1.35","2692617","co39211","norming","","","","","","",""
"5190.285000000615","","","post_mooney1_questions","survey-likert","253","897040","0.0-6.0-2.35","2692617","co39211","norming","","","{""curiosity"":5,""confidence"":1}","[0,1]","../img/tt/1173tt.jpg","",""
"829.8749999994179","","","recognition","survey-text","254","897871","0.0-6.0-3.35","2692617","co39211","norming","","","{""guess"":""""}","","../img/tt/1173tt.jpg","",""
"null","../img/gs/1173gs.jpg","null","reveal","image-keyboard-response","255","899877","0.0-6.0-4.35","2692617","co39211","norming","","","","","","",""
"null","../img/tt/1173tt.jpg","null","mooney2","image-keyboard-response","256","901879","0.0-6.0-5.35","2692617","co39211","norming","","","","","","",""
"2454.390000000829","","","post_reveal_questions","survey-likert","257","904336","0.0-6.0-6.35","2692617","co39211","norming","","","{""aha"":4}","[0]","../img/tt/1173tt.jpg","",""
"null","<div style=""font-size:60px;""> </div>","null","fixation","html-keyboard-response","258","904537","0.0-6.0-0.36","2692617","co39211","norming","","","","","","",""
"null","../img/tt/036tt.jpg","null","mooney1","image-keyboard-response","259","907542","0.0-6.0-1.36","2692617","co39211","norming","","","","","","",""
"7480.799999999348","","","post_mooney1_questions","survey-likert","260","915024","0.0-6.0-2.36","2692617","co39211","norming","","","{""curiosity"":4,""confidence"":0}","[0,1]","../img/tt/036tt.jpg","",""
"661.4900000003399","","","recognition","survey-text","261","915687","0.0-6.0-3.36","2692617","co39211","norming","","","{""guess"":""""}","","../img/tt/036tt.jpg","",""
"null","../img/gs/036gs.jpg","null","reveal","image-keyboard-response","262","917690","0.0-6.0-4.36","2692617","co39211","norming","","","","","","",""
"null","../img/tt/036tt.jpg","null","mooney2","image-keyboard-response","263","919696","0.0-6.0-5.36","2692617","co39211","norming","","","","","","",""
"1750.3049999995856","","","post_reveal_questions","survey-likert","264","921447","0.0-6.0-6.36","2692617","co39211","norming","","","{""aha"":1}","[0]","../img/tt/036tt.jpg","",""
"null","<div style=""font-size:60px;""> </div>","null","fixation","html-keyboard-response","265","921649","0.0-6.0-0.37","2692617","co39211","norming","","","","","","",""
"null","../img/tt/1004tt.jpg","null","mooney1","image-keyboard-response","266","924656","0.0-6.0-1.37","2692617","co39211","norming","","","","","","",""
"5670.589999999735","","","post_mooney1_questions","survey-likert","267","930327","0.0-6.0-2.37","2692617","co39211","norming","","","{""curiosity"":5,""confidence"":0}","[0,1]","../img/tt/1004tt.jpg","",""
"533.1599999989849","","","recognition","survey-text","268","930862","0.0-6.0-3.37","2692617","co39211","norming","","","{""guess"":""""}","","../img/tt/1004tt.jpg","",""
"null","../img/gs/1004gs.jpg","null","reveal","image-keyboard-response","269","932865","0.0-6.0-4.37","2692617","co39211","norming","","","","","","",""
"null","../img/tt/1004tt.jpg","null","mooney2","image-keyboard-response","270","934873","0.0-6.0-5.37","2692617","co39211","norming","","","","","","",""
"2412.580000000191","","","post_reveal_questions","survey-likert","271","937286","0.0-6.0-6.37","2692617","co39211","norming","","","{""aha"":2}","[0]","../img/tt/1004tt.jpg","",""
"null","<div style=""font-size:60px;""> </div>","null","fixation","html-keyboard-response","272","937488","0.0-6.0-0.38","2692617","co39211","norming","","","","","","",""
"null","../img/tt/140tt.jpg","null","mooney1","image-keyboard-response","273","940496","0.0-6.0-1.38","2692617","co39211","norming","","","","","","",""
"4171.540000001201","","","post_mooney1_questions","survey-likert","274","944671","0.0-6.0-2.38","2692617","co39211","norming","","","{""curiosity"":5,""confidence"":1}","[0,1]","../img/tt/140tt.jpg","",""
"3894.009999999893","","","recognition","survey-text","275","948566","0.0-6.0-3.38","2692617","co39211","norming","","","{""guess"":""stoel""}","","../img/tt/140tt.jpg","",""
"null","../img/gs/140gs.jpg","null","reveal","image-keyboard-response","276","950575","0.0-6.0-4.38","2692617","co39211","norming","","","","","","",""
"null","../img/tt/140tt.jpg","null","mooney2","image-keyboard-response","277","952578","0.0-6.0-5.38","2692617","co39211","norming","","","","","","",""
"1538.6199999992969","","","post_reveal_questions","survey-likert","278","954118","0.0-6.0-6.38","2692617","co39211","norming","","","{""aha"":2}","[0]","../img/tt/140tt.jpg","",""
"null","<div style=""font-size:60px;""> </div>","null","fixation","html-keyboard-response","279","954319","0.0-6.0-0.39","2692617","co39211","norming","","","","","","",""
"null","../img/tt/056tt.jpg","null","mooney1","image-keyboard-response","280","957323","0.0-6.0-1.39","2692617","co39211","norming","","","","","","",""
"2816.3150000000605","","","post_mooney1_questions","survey-likert","281","960142","0.0-6.0-2.39","2692617","co39211","norming","","","{""curiosity"":5,""confidence"":0}","[0,1]","../img/tt/056tt.jpg","",""
"534.3499999998603","","","recognition","survey-text","282","960678","0.0-6.0-3.39","2692617","co39211","norming","","","{""guess"":""""}","","../img/tt/056tt.jpg","",""
"null","../img/gs/056gs.jpg","null","reveal","image-keyboard-response","283","962681","0.0-6.0-4.39","2692617","co39211","norming","","","","","","",""
"null","../img/tt/056tt.jpg","null","mooney2","image-keyboard-response","284","964683","0.0-6.0-5.39","2692617","co39211","norming","","","","","","",""
"7385.384999999544","","","post_reveal_questions","survey-likert","285","972071","0.0-6.0-6.39","2692617","co39211","norming","","","{""aha"":2}","[0]","../img/tt/056tt.jpg","",""
"null","<div style=""font-size:60px;""> </div>","null","fixation","html-keyboard-response","286","972279","0.0-6.0-0.40","2692617","co39211","norming","","","","","","",""
"null","../img/tt/380tt.jpg","null","mooney1","image-keyboard-response","287","975289","0.0-6.0-1.40","2692617","co39211","norming","","","","","","",""
"6762.960000000079","","","post_mooney1_questions","survey-likert","288","982055","0.0-6.0-2.40","2692617","co39211","norming","","","{""curiosity"":5,""confidence"":0}","[0,1]","../img/tt/380tt.jpg","",""
"910.0699999999488","","","recognition","survey-text","289","982966","0.0-6.0-3.40","2692617","co39211","norming","","","{""guess"":""""}","","../img/tt/380tt.jpg","",""
"null","../img/gs/380gs.jpg","null","reveal","image-keyboard-response","290","984969","0.0-6.0-4.40","2692617","co39211","norming","","","","","","",""
"null","../img/tt/380tt.jpg","null","mooney2","image-keyboard-response","291","986971","0.0-6.0-5.40","2692617","co39211","norming","","","","","","",""
"1426.3849999988452","","","post_reveal_questions","survey-likert","292","988398","0.0-6.0-6.40","2692617","co39211","norming","","","{""aha"":4}","[0]","../img/tt/380tt.jpg","",""
"null","<div style=""font-size:60px;""> </div>","null","fixation","html-keyboard-response","293","988605","0.0-6.0-0.41","2692617","co39211","norming","","","","","","",""
"null","../img/tt/019tt.jpg","null","mooney1","image-keyboard-response","294","991612","0.0-6.0-1.41","2692617","co39211","norming","","","","","","",""
"5951.24000000034","","","post_mooney1_questions","survey-likert","295","997564","0.0-6.0-2.41","2692617","co39211","norming","","","{""curiosity"":4,""confidence"":1}","[0,1]","../img/tt/019tt.jpg","",""
"493.98999999905936","","","recognition","survey-text","296","998060","0.0-6.0-3.41","2692617","co39211","norming","","","{""guess"":""""}","","../img/tt/019tt.jpg","",""
"null","../img/gs/019gs.jpg","null","reveal","image-keyboard-response","297","1000061","0.0-6.0-4.41","2692617","co39211","norming","","","","","","",""
"null","../img/tt/019tt.jpg","null","mooney2","image-keyboard-response","298","1002071","0.0-6.0-5.41","2692617","co39211","norming","","","","","","",""
"2010.8799999997718","","","post_reveal_questions","survey-likert","299","1004084","0.0-6.0-6.41","2692617","co39211","norming","","","{""aha"":5}","[0]","../img/tt/019tt.jpg","",""
"null","<div style=""font-size:60px;""> </div>","null","fixation","html-keyboard-response","300","1004286","0.0-6.0-0.42","2692617","co39211","norming","","","","","","",""
"null","../img/tt/1243tt.jpg","null","mooney1","image-keyboard-response","301","1007291","0.0-6.0-1.42","2692617","co39211","norming","","","","","","",""
"4197.2650000007125","","","post_mooney1_questions","survey-likert","302","1011492","0.0-6.0-2.42","2692617","co39211","norming","","","{""curiosity"":5,""confidence"":0}","[0,1]","../img/tt/1243tt.jpg","",""
"470.20000000158325","","","recognition","survey-text","303","1011964","0.0-6.0-3.42","2692617","co39211","norming","","","{""guess"":""""}","","../img/tt/1243tt.jpg","",""
"null","../img/gs/1243gs.jpg","null","reveal","image-keyboard-response","304","1013965","0.0-6.0-4.42","2692617","co39211","norming","","","","","","",""
"null","../img/tt/1243tt.jpg","null","mooney2","image-keyboard-response","305","1015967","0.0-6.0-5.42","2692617","co39211","norming","","","","","","",""
"2680.449999999837","","","post_reveal_questions","survey-likert","306","1018652","0.0-6.0-6.42","2692617","co39211","norming","","","{""aha"":5}","[0]","../img/tt/1243tt.jpg","",""
"null","<div style=""font-size:60px;""> </div>","null","fixation","html-keyboard-response","307","1018854","0.0-6.0-0.43","2692617","co39211","norming","","","","","","",""
"null","../img/tt/1228tt.jpg","null","mooney1","image-keyboard-response","308","1021857","0.0-6.0-1.43","2692617","co39211","norming","","","","","","",""
"3391.8400000002002","","","post_mooney1_questions","survey-likert","309","1025252","0.0-6.0-2.43","2692617","co39211","norming","","","{""curiosity"":5,""confidence"":0}","[0,1]","../img/tt/1228tt.jpg","",""
"1846.3849999989616","","","recognition","survey-text","310","1027100","0.0-6.0-3.43","2692617","co39211","norming","","","{""guess"":""""}","","../img/tt/1228tt.jpg","",""
"null","../img/gs/1228gs.jpg","null","reveal","image-keyboard-response","311","1029111","0.0-6.0-4.43","2692617","co39211","norming","","","","","","",""
"null","../img/tt/1228tt.jpg","null","mooney2","image-keyboard-response","312","1031121","0.0-6.0-5.43","2692617","co39211","norming","","","","","","",""
"1607.9200000003912","","","post_reveal_questions","survey-likert","313","1032732","0.0-6.0-6.43","2692617","co39211","norming","","","{""aha"":0}","[0]","../img/tt/1228tt.jpg","",""
"null","<div style=""font-size:60px;""> </div>","null","fixation","html-keyboard-response","314","1032933","0.0-6.0-0.44","2692617","co39211","norming","","","","","","",""
"null","../img/tt/468tt.jpg","null","mooney1","image-keyboard-response","315","1035941","0.0-6.0-1.44","2692617","co39211","norming","","","","","","",""
"4155.4099999994505","","","post_mooney1_questions","survey-likert","316","1040100","0.0-6.0-2.44","2692617","co39211","norming","","","{""curiosity"":5,""confidence"":2}","[0,1]","../img/tt/468tt.jpg","",""
"4837.749999998836","","","recognition","survey-text","317","1044940","0.0-6.0-3.44","2692617","co39211","norming","","","{""guess"":""vleermuis""}","","../img/tt/468tt.jpg","",""
"null","../img/gs/468gs.jpg","null","reveal","image-keyboard-response","318","1046942","0.0-6.0-4.44","2692617","co39211","norming","","","","","","",""
"null","../img/tt/468tt.jpg","null","mooney2","image-keyboard-response","319","1048944","0.0-6.0-5.44","2692617","co39211","norming","","","","","","",""
"1762.8100000000559","","","post_reveal_questions","survey-likert","320","1050708","0.0-6.0-6.44","2692617","co39211","norming","","","{""aha"":0}","[0]","../img/tt/468tt.jpg","",""
"null","<div style=""font-size:60px;""> </div>","null","fixation","html-keyboard-response","321","1050911","0.0-6.0-0.45","2692617","co39211","norming","","","","","","",""
"null","../img/tt/1268tt.jpg","null","mooney1","image-keyboard-response","322","1053914","0.0-6.0-1.45","2692617","co39211","norming","","","","","","",""
"6073.065000000643","","","post_mooney1_questions","survey-likert","323","1059988","0.0-6.0-2.45","2692617","co39211","norming","","","{""curiosity"":5,""confidence"":0}","[0,1]","../img/tt/1268tt.jpg","",""
"838.0550000001676","","","recognition","survey-text","324","1060827","0.0-6.0-3.45","2692617","co39211","norming","","","{""guess"":""""}","","../img/tt/1268tt.jpg","",""
"null","../img/gs/1268gs.jpg","null","reveal","image-keyboard-response","325","1062829","0.0-6.0-4.45","2692617","co39211","norming","","","","","","",""
"null","../img/tt/1268tt.jpg","null","mooney2","image-keyboard-response","326","1064831","0.0-6.0-5.45","2692617","co39211","norming","","","","","","",""
"2970.450000000652","","","post_reveal_questions","survey-likert","327","1067804","0.0-6.0-6.45","2692617","co39211","norming","","","{""aha"":0}","[0]","../img/tt/1268tt.jpg","",""
"null","<div style=""font-size:60px;""> </div>","null","fixation","html-keyboard-response","328","1068012","0.0-6.0-0.46","2692617","co39211","norming","","","","","","",""
"null","../img/tt/1226tt.jpg","null","mooney1","image-keyboard-response","329","1071021","0.0-6.0-1.46","2692617","co39211","norming","","","","","","",""
"3796.9300000004005","","","post_mooney1_questions","survey-likert","330","1074820","0.0-6.0-2.46","2692617","co39211","norming","","","{""curiosity"":5,""confidence"":0}","[0,1]","../img/tt/1226tt.jpg","",""
"358.18000000109896","","","recognition","survey-text","331","1075180","0.0-6.0-3.46","2692617","co39211","norming","","","{""guess"":""""}","","../img/tt/1226tt.jpg","",""
"null","../img/gs/1226gs.jpg","null","reveal","image-keyboard-response","332","1077181","0.0-6.0-4.46","2692617","co39211","norming","","","","","","",""
"null","../img/tt/1226tt.jpg","null","mooney2","image-keyboard-response","333","1079183","0.0-6.0-5.46","2692617","co39211","norming","","","","","","",""
"1402.2999999998137","","","post_reveal_questions","survey-likert","334","1080588","0.0-6.0-6.46","2692617","co39211","norming","","","{""aha"":4}","[0]","../img/tt/1226tt.jpg","",""
"null","<div style=""font-size:60px;""> </div>","null","fixation","html-keyboard-response","335","1080789","0.0-6.0-0.47","2692617","co39211","norming","","","","","","",""
"null","../img/tt/1232tt.jpg","null","mooney1","image-keyboard-response","336","1083791","0.0-6.0-1.47","2692617","co39211","norming","","","","","","",""
"3289.1950000012293","","","post_mooney1_questions","survey-likert","337","1087084","0.0-6.0-2.47","2692617","co39211","norming","","","{""curiosity"":5,""confidence"":0}","[0,1]","../img/tt/1232tt.jpg","",""
"389.9049999997951","","","recognition","survey-text","338","1087476","0.0-6.0-3.47","2692617","co39211","norming","","","{""guess"":""""}","","../img/tt/1232tt.jpg","",""
"null","../img/gs/1232gs.jpg","null","reveal","image-keyboard-response","339","1089477","0.0-6.0-4.47","2692617","co39211","norming","","","","","","",""
"null","../img/tt/1232tt.jpg","null","mooney2","image-keyboard-response","340","1091478","0.0-6.0-5.47","2692617","co39211","norming","","","","","","",""
"1914.8449999995064","","","post_reveal_questions","survey-likert","341","1093396","0.0-6.0-6.47","2692617","co39211","norming","","","{""aha"":4}","[0]","../img/tt/1232tt.jpg","",""
"null","<div style=""font-size:60px;""> </div>","null","fixation","html-keyboard-response","342","1093598","0.0-6.0-0.48","2692617","co39211","norming","","","","","","",""
"null","../img/tt/085tt.jpg","null","mooney1","image-keyboard-response","343","1096602","0.0-6.0-1.48","2692617","co39211","norming","","","","","","",""
"3310.779999999795","","","post_mooney1_questions","survey-likert","344","1099916","0.0-6.0-2.48","2692617","co39211","norming","","","{""curiosity"":5,""confidence"":0}","[0,1]","../img/tt/085tt.jpg","",""
"581.9699999992736","","","recognition","survey-text","345","1100499","0.0-6.0-3.48","2692617","co39211","norming","","","{""guess"":""""}","","../img/tt/085tt.jpg","",""
"null","../img/gs/085gs.jpg","null","reveal","image-keyboard-response","346","1102501","0.0-6.0-4.48","2692617","co39211","norming","","","","","","",""
"null","../img/tt/085tt.jpg","null","mooney2","image-keyboard-response","347","1104510","0.0-6.0-5.48","2692617","co39211","norming","","","","","","",""
"1818.605000000447","","","post_reveal_questions","survey-likert","348","1106331","0.0-6.0-6.48","2692617","co39211","norming","","","{""aha"":1}","[0]","../img/tt/085tt.jpg","",""
"null","<div style=""font-size:60px;""> </div>","null","fixation","html-keyboard-response","349","1106541","0.0-6.0-0.49","2692617","co39211","norming","","","","","","",""
"null","../img/tt/1366tt.jpg","null","mooney1","image-keyboard-response","350","1109548","0.0-6.0-1.49","2692617","co39211","norming","","","","","","",""
"4492.210000000196","","","post_mooney1_questions","survey-likert","351","1114039","0.0-6.0-2.49","2692617","co39211","norming","","","{""curiosity"":5,""confidence"":0}","[0,1]","../img/tt/1366tt.jpg","",""
"2797.875000000233","","","recognition","survey-text","352","1116838","0.0-6.0-3.49","2692617","co39211","norming","","","{""guess"":""""}","","../img/tt/1366tt.jpg","",""
"null","../img/gs/1366gs.jpg","null","reveal","image-keyboard-response","353","1118846","0.0-6.0-4.49","2692617","co39211","norming","","","","","","",""
"null","../img/tt/1366tt.jpg","null","mooney2","image-keyboard-response","354","1120847","0.0-6.0-5.49","2692617","co39211","norming","","","","","","",""
"1893.3749999995343","","","post_reveal_questions","survey-likert","355","1122742","0.0-6.0-6.49","2692617","co39211","norming","","","{""aha"":0}","[0]","../img/tt/1366tt.jpg","",""
"null","<div style=""font-size:60px;""> </div>","null","fixation","html-keyboard-response","356","1122945","0.0-6.0-0.50","2692617","co39211","norming","","","","","","",""
"null","../img/tt/121tt.jpg","null","mooney1","image-keyboard-response","357","1125947","0.0-6.0-1.50","2692617","co39211","norming","","","","","","",""
"4271.985000001267","","","post_mooney1_questions","survey-likert","358","1130223","0.0-6.0-2.50","2692617","co39211","norming","","","{""curiosity"":5,""confidence"":0}","[0,1]","../img/tt/121tt.jpg","",""
"773.4350000009872","","","recognition","survey-text","359","1130998","0.0-6.0-3.50","2692617","co39211","norming","","","{""guess"":""""}","","../img/tt/121tt.jpg","",""
"null","../img/gs/121gs.jpg","null","reveal","image-keyboard-response","360","1132999","0.0-6.0-4.50","2692617","co39211","norming","","","","","","",""
"null","../img/tt/121tt.jpg","null","mooney2","image-keyboard-response","361","1135005","0.0-6.0-5.50","2692617","co39211","norming","","","","","","",""
"1647.9350000009872","","","post_reveal_questions","survey-likert","362","1136654","0.0-6.0-6.50","2692617","co39211","norming","","","{""aha"":2}","[0]","../img/tt/121tt.jpg","",""
"null","<div style=""font-size:60px;""> </div>","null","fixation","html-keyboard-response","363","1136855","0.0-6.0-0.51","2692617","co39211","norming","","","","","","",""
"null","../img/tt/049tt.jpg","null","mooney1","image-keyboard-response","364","1139860","0.0-6.0-1.51","2692617","co39211","norming","","","","","","",""
"3664.054999999469","","","post_mooney1_questions","survey-likert","365","1143527","0.0-6.0-2.51","2692617","co39211","norming","","","{""curiosity"":5,""confidence"":0}","[0,1]","../img/tt/049tt.jpg","",""
"981.9550000012387","","","recognition","survey-text","366","1144510","0.0-6.0-3.51","2692617","co39211","norming","","","{""guess"":""""}","","../img/tt/049tt.jpg","",""
"null","../img/gs/049gs.jpg","null","reveal","image-keyboard-response","367","1146512","0.0-6.0-4.51","2692617","co39211","norming","","","","","","",""
"null","../img/tt/049tt.jpg","null","mooney2","image-keyboard-response","368","1148513","0.0-6.0-5.51","2692617","co39211","norming","","","","","","",""
"3274.6999999999534","","","post_reveal_questions","survey-likert","369","1151791","0.0-6.0-6.51","2692617","co39211","norming","","","{""aha"":1}","[0]","../img/tt/049tt.jpg","",""
"null","<div style=""font-size:60px;""> </div>","null","fixation","html-keyboard-response","370","1151998","0.0-6.0-0.52","2692617","co39211","norming","","","","","","",""
"null","../img/tt/1199tt.jpg","null","mooney1","image-keyboard-response","371","1155002","0.0-6.0-1.52","2692617","co39211","norming","","","","","","",""
"3987.5849999987986","","","post_mooney1_questions","survey-likert","372","1158991","0.0-6.0-2.52","2692617","co39211","norming","","","{""curiosity"":5,""confidence"":0}","[0,1]","../img/tt/1199tt.jpg","",""
"629.7549999998882","","","recognition","survey-text","373","1159622","0.0-6.0-3.52","2692617","co39211","norming","","","{""guess"":""""}","","../img/tt/1199tt.jpg","",""
"null","../img/gs/1199gs.jpg","null","reveal","image-keyboard-response","374","1161624","0.0-6.0-4.52","2692617","co39211","norming","","","","","","",""
"null","../img/tt/1199tt.jpg","null","mooney2","image-keyboard-response","375","1163632","0.0-6.0-5.52","2692617","co39211","norming","","","","","","",""
"3452.9450000007637","","","post_reveal_questions","survey-likert","376","1167086","0.0-6.0-6.52","2692617","co39211","norming","","","{""aha"":4}","[0]","../img/tt/1199tt.jpg","",""
"null","<div style=""font-size:60px;""> </div>","null","fixation","html-keyboard-response","377","1167288","0.0-6.0-0.53","2692617","co39211","norming","","","","","","",""
"null","../img/tt/1122tt.jpg","null","mooney1","image-keyboard-response","378","1170293","0.0-6.0-1.53","2692617","co39211","norming","","","","","","",""
"3838.669999998994","","","post_mooney1_questions","survey-likert","379","1174145","0.0-6.0-2.53","2692617","co39211","norming","","","{""curiosity"":5,""confidence"":0}","[0,1]","../img/tt/1122tt.jpg","",""
"894.1099999991711","","","recognition","survey-text","380","1175041","0.0-6.0-3.53","2692617","co39211","norming","","","{""guess"":""""}","","../img/tt/1122tt.jpg","",""
"null","../img/gs/1122gs.jpg","null","reveal","image-keyboard-response","381","1177043","0.0-6.0-4.53","2692617","co39211","norming","","","","","","",""
"null","../img/tt/1122tt.jpg","null","mooney2","image-keyboard-response","382","1179044","0.0-6.0-5.53","2692617","co39211","norming","","","","","","",""
"1571.1749999991152","","","post_reveal_questions","survey-likert","383","1180617","0.0-6.0-6.53","2692617","co39211","norming","","","{""aha"":5}","[0]","../img/tt/1122tt.jpg","",""
"null","<div style=""font-size:60px;""> </div>","null","fixation","html-keyboard-response","384","1180818","0.0-6.0-0.54","2692617","co39211","norming","","","","","","",""
"null","../img/tt/1159tt.jpg","null","mooney1","image-keyboard-response","385","1183825","0.0-6.0-1.54","2692617","co39211","norming","","","","","","",""
"4316.964999999851","","","post_mooney1_questions","survey-likert","386","1188145","0.0-6.0-2.54","2692617","co39211","norming","","","{""curiosity"":6,""confidence"":0}","[0,1]","../img/tt/1159tt.jpg","",""
"918.0949999990407","","","recognition","survey-text","387","1189065","0.0-6.0-3.54","2692617","co39211","norming","","","{""guess"":""""}","","../img/tt/1159tt.jpg","",""
"null","../img/gs/1159gs.jpg","null","reveal","image-keyboard-response","388","1191066","0.0-6.0-4.54","2692617","co39211","norming","","","","","","",""
"null","../img/tt/1159tt.jpg","null","mooney2","image-keyboard-response","389","1193076","0.0-6.0-5.54","2692617","co39211","norming","","","","","","",""
"1970.5149999989662","","","post_reveal_questions","survey-likert","390","1195049","0.0-6.0-6.54","2692617","co39211","norming","","","{""aha"":2}","[0]","../img/tt/1159tt.jpg","",""
"null","<div style=""font-size:60px;""> </div>","null","fixation","html-keyboard-response","391","1195251","0.0-6.0-0.55","2692617","co39211","norming","","","","","","",""
"null","../img/tt/1072tt.jpg","null","mooney1","image-keyboard-response","392","1198256","0.0-6.0-1.55","2692617","co39211","norming","","","","","","",""
"4309.659999998985","","","post_mooney1_questions","survey-likert","393","1202569","0.0-6.0-2.55","2692617","co39211","norming","","","{""curiosity"":5,""confidence"":0}","[0,1]","../img/tt/1072tt.jpg","",""
"1165.2500000002328","","","recognition","survey-text","394","1203737","0.0-6.0-3.55","2692617","co39211","norming","","","{""guess"":""""}","","../img/tt/1072tt.jpg","",""
"null","../img/gs/1072gs.jpg","null","reveal","image-keyboard-response","395","1205746","0.0-6.0-4.55","2692617","co39211","norming","","","","","","",""
"null","../img/tt/1072tt.jpg","null","mooney2","image-keyboard-response","396","1207756","0.0-6.0-5.55","2692617","co39211","norming","","","","","","",""
"1826.165000000503","","","post_reveal_questions","survey-likert","397","1209585","0.0-6.0-6.55","2692617","co39211","norming","","","{""aha"":2}","[0]","../img/tt/1072tt.jpg","",""
"null","<div style=""font-size:60px;""> </div>","null","fixation","html-keyboard-response","398","1209788","0.0-6.0-0.56","2692617","co39211","norming","","","","","","",""
"null","../img/tt/1309tt.jpg","null","mooney1","image-keyboard-response","399","1212796","0.0-6.0-1.56","2692617","co39211","norming","","","","","","",""
"4209.425000000978","","","post_mooney1_questions","survey-likert","400","1217009","0.0-6.0-2.56","2692617","co39211","norming","","","{""curiosity"":5,""confidence"":1}","[0,1]","../img/tt/1309tt.jpg","",""
"2502.259999999311","","","recognition","survey-text","401","1219513","0.0-6.0-3.56","2692617","co39211","norming","","","{""guess"":""auto""}","","../img/tt/1309tt.jpg","",""
"null","../img/gs/1309gs.jpg","null","reveal","image-keyboard-response","402","1221516","0.0-6.0-4.56","2692617","co39211","norming","","","","","","",""
"null","../img/tt/1309tt.jpg","null","mooney2","image-keyboard-response","403","1223519","0.0-6.0-5.56","2692617","co39211","norming","","","","","","",""
"2079.784999999916","","","post_reveal_questions","survey-likert","404","1225601","0.0-6.0-6.56","2692617","co39211","norming","","","{""aha"":4}","[0]","../img/tt/1309tt.jpg","",""
"null","<div style=""font-size:60px;""> </div>","null","fixation","html-keyboard-response","405","1225803","0.0-6.0-0.57","2692617","co39211","norming","","","","","","",""
"null","../img/tt/007tt.jpg","null","mooney1","image-keyboard-response","406","1228806","0.0-6.0-1.57","2692617","co39211","norming","","","","","","",""
"3576.280000001192","","","post_mooney1_questions","survey-likert","407","1232385","0.0-6.0-2.57","2692617","co39211","norming","","","{""curiosity"":5,""confidence"":0}","[0,1]","../img/tt/007tt.jpg","",""
"749.9800000006799","","","recognition","survey-text","408","1233137","0.0-6.0-3.57","2692617","co39211","norming","","","{""guess"":""""}","","../img/tt/007tt.jpg","",""
"null","../img/gs/007gs.jpg","null","reveal","image-keyboard-response","409","1235142","0.0-6.0-4.57","2692617","co39211","norming","","","","","","",""
"null","../img/tt/007tt.jpg","null","mooney2","image-keyboard-response","410","1237144","0.0-6.0-5.57","2692617","co39211","norming","","","","","","",""
"4537.769999999087","","","post_reveal_questions","survey-likert","411","1241684","0.0-6.0-6.57","2692617","co39211","norming","","","{""aha"":4}","[0]","../img/tt/007tt.jpg","",""
"null","<div style=""font-size:60px;""> </div>","null","fixation","html-keyboard-response","412","1241886","0.0-6.0-0.58","2692617","co39211","norming","","","","","","",""
"null","../img/tt/112tt.jpg","null","mooney1","image-keyboard-response","413","1244889","0.0-6.0-1.58","2692617","co39211","norming","","","","","","",""
"5176.375000000931","","","post_mooney1_questions","survey-likert","414","1250069","0.0-6.0-2.58","2692617","co39211","norming","","","{""curiosity"":5,""confidence"":0}","[0,1]","../img/tt/112tt.jpg","",""
"661.4449999995995","","","recognition","survey-text","415","1250732","0.0-6.0-3.58","2692617","co39211","norming","","","{""guess"":""""}","","../img/tt/112tt.jpg","",""
"null","../img/gs/112gs.jpg","null","reveal","image-keyboard-response","416","1252739","0.0-6.0-4.58","2692617","co39211","norming","","","","","","",""
"null","../img/tt/112tt.jpg","null","mooney2","image-keyboard-response","417","1254741","0.0-6.0-5.58","2692617","co39211","norming","","","","","","",""
"1045.6100000010338","","","post_reveal_questions","survey-likert","418","1255788","0.0-6.0-6.58","2692617","co39211","norming","","","{""aha"":5}","[0]","../img/tt/112tt.jpg","",""
"null","<div style=""font-size:60px;""> </div>","null","fixation","html-keyboard-response","419","1255990","0.0-6.0-0.59","2692617","co39211","norming","","","","","","",""
"null","../img/tt/1069tt.jpg","null","mooney1","image-keyboard-response","420","1258992","0.0-6.0-1.59","2692617","co39211","norming","","","","","","",""
"5882.985000000102","","","post_mooney1_questions","survey-likert","421","1264877","0.0-6.0-2.59","2692617","co39211","norming","","","{""curiosity"":5,""confidence"":1}","[0,1]","../img/tt/1069tt.jpg","",""
"3854.04000000027","","","recognition","survey-text","422","1268732","0.0-6.0-3.59","2692617","co39211","norming","","","{""guess"":""vogel""}","","../img/tt/1069tt.jpg","",""
"null","../img/gs/1069gs.jpg","null","reveal","image-keyboard-response","423","1270739","0.0-6.0-4.59","2692617","co39211","norming","","","","","","",""
"null","../img/tt/1069tt.jpg","null","mooney2","image-keyboard-response","424","1272750","0.0-6.0-5.59","2692617","co39211","norming","","","","","","",""
"2493.6900000011083","","","post_reveal_questions","survey-likert","425","1275244","0.0-6.0-6.59","2692617","co39211","norming","","","{""aha"":1}","[0]","../img/tt/1069tt.jpg","",""
"null","<div style=""font-size:60px;""> </div>","null","fixation","html-keyboard-response","426","1275447","0.0-6.0-0.60","2692617","co39211","norming","","","","","","",""
"null","../img/tt/1255tt.jpg","null","mooney1","image-keyboard-response","427","1278449","0.0-6.0-1.60","2692617","co39211","norming","","","","","","",""
"3985.8449999992736","","","post_mooney1_questions","survey-likert","428","1282436","0.0-6.0-2.60","2692617","co39211","norming","","","{""curiosity"":5,""confidence"":0}","[0,1]","../img/tt/1255tt.jpg","",""
"998.4899999997579","","","recognition","survey-text","429","1283437","0.0-6.0-3.60","2692617","co39211","norming","","","{""guess"":""""}","","../img/tt/1255tt.jpg","",""
"null","../img/gs/1255gs.jpg","null","reveal","image-keyboard-response","430","1285439","0.0-6.0-4.60","2692617","co39211","norming","","","","","","",""
"null","../img/tt/1255tt.jpg","null","mooney2","image-keyboard-response","431","1287441","0.0-6.0-5.60","2692617","co39211","norming","","","","","","",""
"1681.4049999993294","","","post_reveal_questions","survey-likert","432","1289125","0.0-6.0-6.60","2692617","co39211","norming","","","{""aha"":0}","[0]","../img/tt/1255tt.jpg","",""
"null","<div style=""font-size:60px;""> </div>","null","fixation","html-keyboard-response","433","1289326","0.0-6.0-0.61","2692617","co39211","norming","","","","","","",""
"null","../img/tt/1151tt.jpg","null","mooney1","image-keyboard-response","434","1292333","0.0-6.0-1.61","2692617","co39211","norming","","","","","","",""
"3796.659999999916","","","post_mooney1_questions","survey-likert","435","1296136","0.0-6.0-2.61","2692617","co39211","norming","","","{""curiosity"":6,""confidence"":0}","[0,1]","../img/tt/1151tt.jpg","",""
"709.7250000005588","","","recognition","survey-text","436","1296847","0.0-6.0-3.61","2692617","co39211","norming","","","{""guess"":""""}","","../img/tt/1151tt.jpg","",""
"null","../img/gs/1151gs.jpg","null","reveal","image-keyboard-response","437","1298849","0.0-6.0-4.61","2692617","co39211","norming","","","","","","",""
"null","../img/tt/1151tt.jpg","null","mooney2","image-keyboard-response","438","1300852","0.0-6.0-5.61","2692617","co39211","norming","","","","","","",""
"2872.4150000000373","","","post_reveal_questions","survey-likert","439","1303727","0.0-6.0-6.61","2692617","co39211","norming","","","{""aha"":5}","[0]","../img/tt/1151tt.jpg","",""
"null","<div style=""font-size:60px;""> </div>","null","fixation","html-keyboard-response","440","1303937","0.0-6.0-0.62","2692617","co39211","norming","","","","","","",""
"null","../img/tt/1161tt.jpg","null","mooney1","image-keyboard-response","441","1306941","0.0-6.0-1.62","2692617","co39211","norming","","","","","","",""
"4218.070000000764","","","post_mooney1_questions","survey-likert","442","1311160","0.0-6.0-2.62","2692617","co39211","norming","","","{""curiosity"":6,""confidence"":0}","[0,1]","../img/tt/1161tt.jpg","",""
"469.87000000081025","","","recognition","survey-text","443","1311631","0.0-6.0-3.62","2692617","co39211","norming","","","{""guess"":""""}","","../img/tt/1161tt.jpg","",""
"null","../img/gs/1161gs.jpg","null","reveal","image-keyboard-response","444","1313634","0.0-6.0-4.62","2692617","co39211","norming","","","","","","",""
"null","../img/tt/1161tt.jpg","null","mooney2","image-keyboard-response","445","1315636","0.0-6.0-5.62","2692617","co39211","norming","","","","","","",""
"2184.1550000009593","","","post_reveal_questions","survey-likert","446","1317823","0.0-6.0-6.62","2692617","co39211","norming","","","{""aha"":6}","[0]","../img/tt/1161tt.jpg","",""
"null","<div style=""font-size:60px;""> </div>","null","fixation","html-keyboard-response","447","1318026","0.0-6.0-0.63","2692617","co39211","norming","","","","","","",""
"null","../img/tt/405tt.jpg","null","mooney1","image-keyboard-response","448","1321028","0.0-6.0-1.63","2692617","co39211","norming","","","","","","",""
"6138.395000000019","","","post_mooney1_questions","survey-likert","449","1327168","0.0-6.0-2.63","2692617","co39211","norming","","","{""curiosity"":5,""confidence"":0}","[0,1]","../img/tt/405tt.jpg","",""
"933.9750000000931","","","recognition","survey-text","450","1328103","0.0-6.0-3.63","2692617","co39211","norming","","","{""guess"":""""}","","../img/tt/405tt.jpg","",""
"null","../img/gs/405gs.jpg","null","reveal","image-keyboard-response","451","1330113","0.0-6.0-4.63","2692617","co39211","norming","","","","","","",""
"null","../img/tt/405tt.jpg","null","mooney2","image-keyboard-response","452","1332115","0.0-6.0-5.63","2692617","co39211","norming","","","","","","",""
"1665.484999999404","","","post_reveal_questions","survey-likert","453","1333783","0.0-6.0-6.63","2692617","co39211","norming","","","{""aha"":1}","[0]","../img/tt/405tt.jpg","",""
"null","<div style=""font-size:60px;""> </div>","null","fixation","html-keyboard-response","454","1333989","0.0-6.0-0.64","2692617","co39211","norming","","","","","","",""
"null","../img/tt/1254tt.jpg","null","mooney1","image-keyboard-response","455","1336994","0.0-6.0-1.64","2692617","co39211","norming","","","","","","",""
"4908.415000000037","","","post_mooney1_questions","survey-likert","456","1341904","0.0-6.0-2.64","2692617","co39211","norming","","","{""curiosity"":6,""confidence"":0}","[0,1]","../img/tt/1254tt.jpg","",""
"694.0400000002701","","","recognition","survey-text","457","1342599","0.0-6.0-3.64","2692617","co39211","norming","","","{""guess"":""""}","","../img/tt/1254tt.jpg","",""
"null","../img/gs/1254gs.jpg","null","reveal","image-keyboard-response","458","1344603","0.0-6.0-4.64","2692617","co39211","norming","","","","","","",""
"null","../img/tt/1254tt.jpg","null","mooney2","image-keyboard-response","459","1346614","0.0-6.0-5.64","2692617","co39211","norming","","","","","","",""
"1999.2349999991711","","","post_reveal_questions","survey-likert","460","1348615","0.0-6.0-6.64","2692617","co39211","norming","","","{""aha"":2}","[0]","../img/tt/1254tt.jpg","",""
"null","<div style=""font-size:60px;""> </div>","null","fixation","html-keyboard-response","461","1348824","0.0-6.0-0.65","2692617","co39211","norming","","","","","","",""
"null","../img/tt/515tt.jpg","null","mooney1","image-keyboard-response","462","1351832","0.0-6.0-1.65","2692617","co39211","norming","","","","","","",""
"3171.674999999581","","","post_mooney1_questions","survey-likert","463","1355007","0.0-6.0-2.65","2692617","co39211","norming","","","{""curiosity"":6,""confidence"":0}","[0,1]","../img/tt/515tt.jpg","",""
"782.1499999992084","","","recognition","survey-text","464","1355789","0.0-6.0-3.65","2692617","co39211","norming","","","{""guess"":""""}","","../img/tt/515tt.jpg","",""
"null","../img/gs/515gs.jpg","null","reveal","image-keyboard-response","465","1357791","0.0-6.0-4.65","2692617","co39211","norming","","","","","","",""
"null","../img/tt/515tt.jpg","null","mooney2","image-keyboard-response","466","1359800","0.0-6.0-5.65","2692617","co39211","norming","","","","","","",""
"3914.0349999996834","","","post_reveal_questions","survey-likert","467","1363717","0.0-6.0-6.65","2692617","co39211","norming","","","{""aha"":4}","[0]","../img/tt/515tt.jpg","",""
"null","<div style=""font-size:60px;""> </div>","null","fixation","html-keyboard-response","468","1363918","0.0-6.0-0.66","2692617","co39211","norming","","","","","","",""
"null","../img/tt/118tt.jpg","null","mooney1","image-keyboard-response","469","1366925","0.0-6.0-1.66","2692617","co39211","norming","","","","","","",""
"3902.6649999995716","","","post_mooney1_questions","survey-likert","470","1370829","0.0-6.0-2.66","2692617","co39211","norming","","","{""curiosity"":5,""confidence"":0}","[0,1]","../img/tt/118tt.jpg","",""
"693.8249999985565","","","recognition","survey-text","471","1371525","0.0-6.0-3.66","2692617","co39211","norming","","","{""guess"":""""}","","../img/tt/118tt.jpg","",""
"null","../img/gs/118gs.jpg","null","reveal","image-keyboard-response","472","1373531","0.0-6.0-4.66","2692617","co39211","norming","","","","","","",""
"null","../img/tt/118tt.jpg","null","mooney2","image-keyboard-response","473","1375540","0.0-6.0-5.66","2692617","co39211","norming","","","","","","",""
"2718.145000000717","","","post_reveal_questions","survey-likert","474","1378261","0.0-6.0-6.66","2692617","co39211","norming","","","{""aha"":2}","[0]","../img/tt/118tt.jpg","",""
"null","<div style=""font-size:60px;""> </div>","null","fixation","html-keyboard-response","475","1378462","0.0-6.0-0.67","2692617","co39211","norming","","","","","","",""
"null","../img/tt/108tt.jpg","null","mooney1","image-keyboard-response","476","1381468","0.0-6.0-1.67","2692617","co39211","norming","","","","","","",""
"3669.6599999994505","","","post_mooney1_questions","survey-likert","477","1385141","0.0-6.0-2.67","2692617","co39211","norming","","","{""curiosity"":5,""confidence"":1}","[0,1]","../img/tt/108tt.jpg","",""
"494.7549999996554","","","recognition","survey-text","478","1385637","0.0-6.0-3.67","2692617","co39211","norming","","","{""guess"":""""}","","../img/tt/108tt.jpg","",""
"null","../img/gs/108gs.jpg","null","reveal","image-keyboard-response","479","1387639","0.0-6.0-4.67","2692617","co39211","norming","","","","","","",""
"null","../img/tt/108tt.jpg","null","mooney2","image-keyboard-response","480","1389643","0.0-6.0-5.67","2692617","co39211","norming","","","","","","",""
"1887.3950000016484","","","post_reveal_questions","survey-likert","481","1391533","0.0-6.0-6.67","2692617","co39211","norming","","","{""aha"":1}","[0]","../img/tt/108tt.jpg","",""
"null","<div style=""font-size:60px;""> </div>","null","fixation","html-keyboard-response","482","1391735","0.0-6.0-0.68","2692617","co39211","norming","","","","","","",""
"null","../img/tt/1224tt.jpg","null","mooney1","image-keyboard-response","483","1394742","0.0-6.0-1.68","2692617","co39211","norming","","","","","","",""
"7508.1799999990035","","","post_mooney1_questions","survey-likert","484","1402253","0.0-6.0-2.68","2692617","co39211","norming","","","{""curiosity"":6,""confidence"":1}","[0,1]","../img/tt/1224tt.jpg","",""
"430.1749999995809","","","recognition","survey-text","485","1402685","0.0-6.0-3.68","2692617","co39211","norming","","","{""guess"":""""}","","../img/tt/1224tt.jpg","",""
"null","../img/gs/1224gs.jpg","null","reveal","image-keyboard-response","486","1404691","0.0-6.0-4.68","2692617","co39211","norming","","","","","","",""
"null","../img/tt/1224tt.jpg","null","mooney2","image-keyboard-response","487","1406693","0.0-6.0-5.68","2692617","co39211","norming","","","","","","",""
"2005.7150000010151","","","post_reveal_questions","survey-likert","488","1408701","0.0-6.0-6.68","2692617","co39211","norming","","","{""aha"":6}","[0]","../img/tt/1224tt.jpg","",""
"null","<div style=""font-size:60px;""> </div>","null","fixation","html-keyboard-response","489","1408904","0.0-6.0-0.69","2692617","co39211","norming","","","","","","",""
"null","../img/tt/1181tt.jpg","null","mooney1","image-keyboard-response","490","1411910","0.0-6.0-1.69","2692617","co39211","norming","","","","","","",""
"10571.485000000568","","","post_mooney1_questions","survey-likert","491","1422491","0.0-6.0-2.69","2692617","co39211","norming","","","{""curiosity"":6,""confidence"":1}","[0,1]","../img/tt/1181tt.jpg","",""
"901.9449999998324","","","recognition","survey-text","492","1423395","0.0-6.0-3.69","2692617","co39211","norming","","","{""guess"":""""}","","../img/tt/1181tt.jpg","",""
"null","../img/gs/1181gs.jpg","null","reveal","image-keyboard-response","493","1425397","0.0-6.0-4.69","2692617","co39211","norming","","","","","","",""
"null","../img/tt/1181tt.jpg","null","mooney2","image-keyboard-response","494","1427407","0.0-6.0-5.69","2692617","co39211","norming","","","","","","",""
"1593.769999999553","","","post_reveal_questions","survey-likert","495","1429003","0.0-6.0-6.69","2692617","co39211","norming","","","{""aha"":6}","[0]","../img/tt/1181tt.jpg","",""
"null","<div style=""font-size:60px;""> </div>","null","fixation","html-keyboard-response","496","1429205","0.0-6.0-0.70","2692617","co39211","norming","","","","","","",""
"null","../img/tt/567tt.jpg","null","mooney1","image-keyboard-response","497","1432216","0.0-6.0-1.70","2692617","co39211","norming","","","","","","",""
"6335.085000000661","","","post_mooney1_questions","survey-likert","498","1438555","0.0-6.0-2.70","2692617","co39211","norming","","","{""curiosity"":6,""confidence"":0}","[0,1]","../img/tt/567tt.jpg","",""
"918.170000000624","","","recognition","survey-text","499","1439475","0.0-6.0-3.70","2692617","co39211","norming","","","{""guess"":""""}","","../img/tt/567tt.jpg","",""
"null","../img/gs/567gs.jpg","null","reveal","image-keyboard-response","500","1441477","0.0-6.0-4.70","2692617","co39211","norming","","","","","","",""
"null","../img/tt/567tt.jpg","null","mooney2","image-keyboard-response","501","1443479","0.0-6.0-5.70","2692617","co39211","norming","","","","","","",""
"2041.2649999996647","","","post_reveal_questions","survey-likert","502","1445523","0.0-6.0-6.70","2692617","co39211","norming","","","{""aha"":6}","[0]","../img/tt/567tt.jpg","",""
"null","<div style=""font-size:60px;""> </div>","null","fixation","html-keyboard-response","503","1445729","0.0-6.0-0.71","2692617","co39211","norming","","","","","","",""
"null","../img/tt/1250tt.jpg","null","mooney1","image-keyboard-response","504","1448736","0.0-6.0-1.71","2692617","co39211","norming","","","","","","",""
"4338.254999998724","","","post_mooney1_questions","survey-likert","505","1453075","0.0-6.0-2.71","2692617","co39211","norming","","","{""curiosity"":6,""confidence"":0}","[0,1]","../img/tt/1250tt.jpg","",""
"733.9450000000652","","","recognition","survey-text","506","1453811","0.0-6.0-3.71","2692617","co39211","norming","","","{""guess"":""""}","","../img/tt/1250tt.jpg","",""
"null","../img/gs/1250gs.jpg","null","reveal","image-keyboard-response","507","1455812","0.0-6.0-4.71","2692617","co39211","norming","","","","","","",""
"null","../img/tt/1250tt.jpg","null","mooney2","image-keyboard-response","508","1457815","0.0-6.0-5.71","2692617","co39211","norming","","","","","","",""
"2306.035000001313","","","post_reveal_questions","survey-likert","509","1460123","0.0-6.0-6.71","2692617","co39211","norming","","","{""aha"":4}","[0]","../img/tt/1250tt.jpg","",""
"null","<div style=""font-size:60px;""> </div>","null","fixation","html-keyboard-response","510","1460329","0.0-6.0-0.72","2692617","co39211","norming","","","","","","",""
"null","../img/tt/315tt.jpg","null","mooney1","image-keyboard-response","511","1463337","0.0-6.0-1.72","2692617","co39211","norming","","","","","","",""
"4366.939999999944","","","post_mooney1_questions","survey-likert","512","1467707","0.0-6.0-2.72","2692617","co39211","norming","","","{""curiosity"":6,""confidence"":0}","[0,1]","../img/tt/315tt.jpg","",""
"685.8350000001956","","","recognition","survey-text","513","1468395","0.0-6.0-3.72","2692617","co39211","norming","","","{""guess"":""""}","","../img/tt/315tt.jpg","",""
"null","../img/gs/315gs.jpg","null","reveal","image-keyboard-response","514","1470397","0.0-6.0-4.72","2692617","co39211","norming","","","","","","",""
"null","../img/tt/315tt.jpg","null","mooney2","image-keyboard-response","515","1472399","0.0-6.0-5.72","2692617","co39211","norming","","","","","","",""
"1401.280000000028","","","post_reveal_questions","survey-likert","516","1473803","0.0-6.0-6.72","2692617","co39211","norming","","","{""aha"":5}","[0]","../img/tt/315tt.jpg","",""
"null","<div style=""font-size:60px;""> </div>","null","fixation","html-keyboard-response","517","1474008","0.0-6.0-0.73","2692617","co39211","norming","","","","","","",""
"null","../img/tt/184tt.jpg","null","mooney1","image-keyboard-response","518","1477017","0.0-6.0-1.73","2692617","co39211","norming","","","","","","",""
"5472.925000000047","","","post_mooney1_questions","survey-likert","519","1482488","0.0-6.0-2.73","2692617","co39211","norming","","","{""curiosity"":6,""confidence"":1}","[0,1]","../img/tt/184tt.jpg","",""
"358.07499999995343","","","recognition","survey-text","520","1482848","0.0-6.0-3.73","2692617","co39211","norming","","","{""guess"":""""}","","../img/tt/184tt.jpg","",""
"null","../img/gs/184gs.jpg","null","reveal","image-keyboard-response","521","1484853","0.0-6.0-4.73","2692617","co39211","norming","","","","","","",""
"null","../img/tt/184tt.jpg","null","mooney2","image-keyboard-response","522","1486854","0.0-6.0-5.73","2692617","co39211","norming","","","","","","",""
"2556.95999999973","","","post_reveal_questions","survey-likert","523","1489416","0.0-6.0-6.73","2692617","co39211","norming","","","{""aha"":6}","[0]","../img/tt/184tt.jpg","",""
"null","<div style=""font-size:60px;""> </div>","null","fixation","html-keyboard-response","524","1489623","0.0-6.0-0.74","2692617","co39211","norming","","","","","","",""
"null","../img/tt/1196tt.jpg","null","mooney1","image-keyboard-response","525","1492634","0.0-6.0-1.74","2692617","co39211","norming","","","","","","",""
"9948.370000000112","","","post_mooney1_questions","survey-likert","526","1502586","0.0-6.0-2.74","2692617","co39211","norming","","","{""curiosity"":6,""confidence"":0}","[0,1]","../img/tt/1196tt.jpg","",""
"5204.5150000012945","","","recognition","survey-text","527","1507792","0.0-6.0-3.74","2692617","co39211","norming","","","{""guess"":""""}","","../img/tt/1196tt.jpg","",""
"null","../img/gs/1196gs.jpg","null","reveal","image-keyboard-response","528","1509793","0.0-6.0-4.74","2692617","co39211","norming","","","","","","",""
"null","../img/tt/1196tt.jpg","null","mooney2","image-keyboard-response","529","1511795","0.0-6.0-5.74","2692617","co39211","norming","","","","","","",""
"1915.950000000419","","","post_reveal_questions","survey-likert","530","1513712","0.0-6.0-6.74","2692617","co39211","norming","","","{""aha"":4}","[0]","../img/tt/1196tt.jpg","",""
"null","<div style=""font-size:60px;""> </div>","null","fixation","html-keyboard-response","531","1513913","0.0-6.0-0.75","2692617","co39211","norming","","","","","","",""
"null","../img/tt/1097tt.jpg","null","mooney1","image-keyboard-response","532","1516916","0.0-6.0-1.75","2692617","co39211","norming","","","","","","",""
"12987.26000000001","","","post_mooney1_questions","survey-likert","533","1529904","0.0-6.0-2.75","2692617","co39211","norming","","","{""curiosity"":6,""confidence"":0}","[0,1]","../img/tt/1097tt.jpg","",""
"926.1099999984726","","","recognition","survey-text","534","1530832","0.0-6.0-3.75","2692617","co39211","norming","","","{""guess"":""""}","","../img/tt/1097tt.jpg","",""
"null","../img/gs/1097gs.jpg","null","reveal","image-keyboard-response","535","1532833","0.0-6.0-4.75","2692617","co39211","norming","","","","","","",""
"null","../img/tt/1097tt.jpg","null","mooney2","image-keyboard-response","536","1534837","0.0-6.0-5.75","2692617","co39211","norming","","","","","","",""
"1808.8299999998417","","","post_reveal_questions","survey-likert","537","1536648","0.0-6.0-6.75","2692617","co39211","norming","","","{""aha"":6}","[0]","../img/tt/1097tt.jpg","",""
"null","<div style=""font-size:60px;""> </div>","null","fixation","html-keyboard-response","538","1536856","0.0-6.0-0.76","2692617","co39211","norming","","","","","","",""
"null","../img/tt/052tt.jpg","null","mooney1","image-keyboard-response","539","1539864","0.0-6.0-1.76","2692617","co39211","norming","","","","","","",""
"9638.859999999171","","","post_mooney1_questions","survey-likert","540","1549508","0.0-6.0-2.76","2692617","co39211","norming","","","{""curiosity"":6,""confidence"":0}","[0,1]","../img/tt/052tt.jpg","",""
"725.9150000009686","","","recognition","survey-text","541","1550235","0.0-6.0-3.76","2692617","co39211","norming","","","{""guess"":""""}","","../img/tt/052tt.jpg","",""
"null","../img/gs/052gs.jpg","null","reveal","image-keyboard-response","542","1552237","0.0-6.0-4.76","2692617","co39211","norming","","","","","","",""
"null","../img/tt/052tt.jpg","null","mooney2","image-keyboard-response","543","1554239","0.0-6.0-5.76","2692617","co39211","norming","","","","","","",""
"1922.089999999851","","","post_reveal_questions","survey-likert","544","1556164","0.0-6.0-6.76","2692617","co39211","norming","","","{""aha"":4}","[0]","../img/tt/052tt.jpg","",""
"null","<div style=""font-size:60px;""> </div>","null","fixation","html-keyboard-response","545","1556372","0.0-6.0-0.77","2692617","co39211","norming","","","","","","",""
"null","../img/tt/1154tt.jpg","null","mooney1","image-keyboard-response","546","1559378","0.0-6.0-1.77","2692617","co39211","norming","","","","","","",""
"6350.285000000382","","","post_mooney1_questions","survey-likert","547","1565732","0.0-6.0-2.77","2692617","co39211","norming","","","{""curiosity"":6,""confidence"":0}","[0,1]","../img/tt/1154tt.jpg","",""
"982.1450000000186","","","recognition","survey-text","548","1566716","0.0-6.0-3.77","2692617","co39211","norming","","","{""guess"":""""}","","../img/tt/1154tt.jpg","",""
"null","../img/gs/1154gs.jpg","null","reveal","image-keyboard-response","549","1568718","0.0-6.0-4.77","2692617","co39211","norming","","","","","","",""
"null","../img/tt/1154tt.jpg","null","mooney2","image-keyboard-response","550","1570720","0.0-6.0-5.77","2692617","co39211","norming","","","","","","",""
"2569.379999998957","","","post_reveal_questions","survey-likert","551","1573292","0.0-6.0-6.77","2692617","co39211","norming","","","{""aha"":1}","[0]","../img/tt/1154tt.jpg","",""
"null","<div style=""font-size:60px;""> </div>","null","fixation","html-keyboard-response","552","1573497","0.0-6.0-0.78","2692617","co39211","norming","","","","","","",""
"null","../img/tt/1027tt.jpg","null","mooney1","image-keyboard-response","553","1576501","0.0-6.0-1.78","2692617","co39211","norming","","","","","","",""
"4082.8549999985844","","","post_mooney1_questions","survey-likert","554","1580587","0.0-6.0-2.78","2692617","co39211","norming","","","{""curiosity"":5,""confidence"":1}","[0,1]","../img/tt/1027tt.jpg","",""
