"rt","stimulus","key_press","test_part","trial_type","trial_index","time_elapsed","internal_node_id","totalTime","subject","experiment_name","button_pressed","success","responses","question_order","currentStim","old","correct"
"14464.344999999412","Welcome to the experiment. This is an online experiment so please don't close the tab/window until we say goodbye.  Press any key to begin.","32","instructions","html-keyboard-response","0","14517","0.0-0.0","3373886","co39823","norming","","","","","","",""
"61928.055000000306","<div style='word-wrap: break-word; width: 900px'><h3>Please consider this information carefully before deciding whether to participate in this research</h3><ul style='text-align: left; font-size: .8em;'><li><b>Purpose of the research</b>: To examine how people process images.</li><li><b>What you will do in this research</b>:  Stimuli (images) will be presented on the computer and you will be asked different questions about them.</li><li><b>Time required</b>: Participation will take between 45 and 60 minutes to complete.</li><li><b>Risks</b>:  There are no anticipated risks associated with participating in this study. The effects of participating should be comparable to those you would experience from viewing a computer monitor for 30 minutes and using a mouse or keyboard.</li><li><b>Benefits</b>:  This study provides no benefits to you individually except for the credit. The study provides important information about the nature of perception and learning.</li><li><b>Confidentiality</b>:  Your participation in this study will remain confidential. No personally identifiable information will be associated with your data. Your de-identified data may be shared with other researchers and used in future projects.</li><li><b>Participation and withdrawal</b>:  Your participation in this study is completely voluntary and you may refuse to participate or you may choose to withdraw at any time without penalty.</li><li><b>How to contact the researchers</b>: If you have questions or concerns about your participation or payment, or want to request a summary of research findings, please contact Sander Van de Cruys (KU Leuven), at sander.vandecruys@kuleuven.be.</li></ul><p>The nature and purpose of this research have been sufficiently explained and I agree to participate in this study.  I understand that I am free to withdraw at any time without incurring any penalty.</p><p>Please consent by clicking the button below to continue. Otherwise, please exit the study at this time.</p></div>","","instructions","html-button-response","1","76444","0.0-1.0","3373886","co39823","norming","0","","","","","",""
"","","","instructions","fullscreen","2","81484","0.0-2.0","3373886","co39823","norming","","true","","","","",""
"81550.14500000016","","","sona","survey-html-form","3","163040","0.0-3.0","3373886","co39823","norming","","","[{""name"":""sonaid"",""value"":""39823""},{""name"":""debrief"",""value"":""yes""},{""name"":""datajoin"",""value"":""yes""}]","","","",""
"63834.88499999931","<div style='word-wrap: break-word; width: 900px'><h3>Instructions</h3><p>This experiment will have 3 parts. In the first part you will see a series of distorted images like the one below on the left. As you can see in the righthand image, the distorted images are derived from actual photographs. In what follows, you will <strong>briefly</strong> be presented with <strong>only</strong> the distorted image.</p> <div style='float: left; margin-right: 20px;'><img src='../img/018tt.jpg' height='250' width='250'></img></div><div style='float: right; margin-left: 20px;'><img src='../img/018gs.jpg' height='250' width='250'></img></div><p>Subsequently you will be asked a few questions about the image: One question on how <strong>curious</strong> you are about the solution and one on how <strong>confident</strong> you are that you know the solution.</p>Next, we ask you to make a guess on what is in the image. Note that it is OK to name just the <strong>basic level category</strong>. For example when you see a parrot in the image, 'parrot' will obviously be a correct answer but also correct is 'bird'. However, 'animal' will <strong>not</strong> be counted as a correct response. For the example above, 'rose' would be correct or 'flower', but not 'plant'. When soccer players are depicted, 'soccer', 'football', 'soccer players' will be correct, but not 'humans', 'outdoors', or 'sports'. You do not need to describe the image in full, just name the main object in it <strong>in one or two words</strong>. All images depict objects from one of the following broad level categories: animals, inanimate objects, plants, sports, vehicles, and food. Recognizing means knowing <strong>more</strong> than these broad labels for a given image. But we always encourage you to <strong>make a guess</strong> if you can. Note that you are allowed to use <strong>Dutch and English</strong> in your answers, whatever comes easiest for you.</p><p>Press any key to continue.</p></div>","32","instructions","html-keyboard-response","4","226874","0.0-4.0","3373886","co39823","norming","","","","","","",""
"45966.7300000001","<div style='word-wrap: break-word; width: 900px'><h3>Instructions</h3> <p>Next, the solution image will be revealed to you and you'll be asked to indicate how strong your <strong>aha-experience</strong> was after seeing the solution. This describes the positive feeling of the 'click' you sometimes experience, when the pieces of the 'puzzle' fall together and you suddenly have 'insight' in the image.</p><img src='aha.jpg' height='188' width='250'></img><p>Note that there are no right or wrong answers. We are interested in what <strong>you</strong> see in the image and how <strong>you</strong> feel about it.</p><p>Press any key to start the experiment.</p></div>","32","instructions","html-keyboard-response","5","272842","0.0-5.0","3373886","co39823","norming","","","","","","",""
"null","<div style=""font-size:60px;""> </div>","null","fixation","html-keyboard-response","6","273050","0.0-6.0-0.0","3373886","co39823","norming","","","","","","",""
"null","../img/tt/020tt.jpg","null","mooney1","image-keyboard-response","7","276062","0.0-6.0-1.0","3373886","co39823","norming","","","","","","",""
"13591.17999999947","","","post_mooney1_questions","survey-likert","8","289665","0.0-6.0-2.0","3373886","co39823","norming","","","{""curiosity"":3,""confidence"":0}","[0,1]","../img/tt/020tt.jpg","",""
"5013.535000000091","","","recognition","survey-text","9","294680","0.0-6.0-3.0","3373886","co39823","norming","","","{""guess"":""""}","","../img/tt/020tt.jpg","",""
"null","../img/gs/020gs.jpg","null","reveal","image-keyboard-response","10","296689","0.0-6.0-4.0","3373886","co39823","norming","","","","","","",""
"null","../img/tt/020tt.jpg","null","mooney2","image-keyboard-response","11","298700","0.0-6.0-5.0","3373886","co39823","norming","","","","","","",""
"5306.450000000012","","","post_reveal_questions","survey-likert","12","304008","0.0-6.0-6.0","3373886","co39823","norming","","","{""aha"":4}","[0]","../img/tt/020tt.jpg","",""
"null","<div style=""font-size:60px;""> </div>","null","fixation","html-keyboard-response","13","304210","0.0-6.0-0.1","3373886","co39823","norming","","","","","","",""
"null","../img/tt/1118tt.jpg","null","mooney1","image-keyboard-response","14","307214","0.0-6.0-1.1","3373886","co39823","norming","","","","","","",""
"6000.444999999658","","","post_mooney1_questions","survey-likert","15","313216","0.0-6.0-2.1","3373886","co39823","norming","","","{""curiosity"":5,""confidence"":0}","[0,1]","../img/tt/1118tt.jpg","",""
"670.2699999996112","","","recognition","survey-text","16","313888","0.0-6.0-3.1","3373886","co39823","norming","","","{""guess"":""""}","","../img/tt/1118tt.jpg","",""
"null","../img/gs/1118gs.jpg","null","reveal","image-keyboard-response","17","315890","0.0-6.0-4.1","3373886","co39823","norming","","","","","","",""
"null","../img/tt/1118tt.jpg","null","mooney2","image-keyboard-response","18","317893","0.0-6.0-5.1","3373886","co39823","norming","","","","","","",""
"4793.045000000333","","","post_reveal_questions","survey-likert","19","322688","0.0-6.0-6.1","3373886","co39823","norming","","","{""aha"":0}","[0]","../img/tt/1118tt.jpg","",""
"null","<div style=""font-size:60px;""> </div>","null","fixation","html-keyboard-response","20","322892","0.0-6.0-0.2","3373886","co39823","norming","","","","","","",""
"null","../img/tt/1189tt.jpg","null","mooney1","image-keyboard-response","21","325901","0.0-6.0-1.2","3373886","co39823","norming","","","","","","",""
"7426.365000000282","","","post_mooney1_questions","survey-likert","22","333328","0.0-6.0-2.2","3373886","co39823","norming","","","{""curiosity"":6,""confidence"":1}","[0,1]","../img/tt/1189tt.jpg","",""
"4542.12999999983","","","recognition","survey-text","23","337872","0.0-6.0-3.2","3373886","co39823","norming","","","{""guess"":""alligator""}","","../img/tt/1189tt.jpg","",""
"null","../img/gs/1189gs.jpg","null","reveal","image-keyboard-response","24","339881","0.0-6.0-4.2","3373886","co39823","norming","","","","","","",""
"null","../img/tt/1189tt.jpg","null","mooney2","image-keyboard-response","25","341891","0.0-6.0-5.2","3373886","co39823","norming","","","","","","",""
"3194.6349999998347","","","post_reveal_questions","survey-likert","26","345088","0.0-6.0-6.2","3373886","co39823","norming","","","{""aha"":4}","[0]","../img/tt/1189tt.jpg","",""
"null","<div style=""font-size:60px;""> </div>","null","fixation","html-keyboard-response","27","345290","0.0-6.0-0.3","3373886","co39823","norming","","","","","","",""
"null","../img/tt/1235tt.jpg","null","mooney1","image-keyboard-response","28","348297","0.0-6.0-1.3","3373886","co39823","norming","","","","","","",""
"6108.605000000389","","","post_mooney1_questions","survey-likert","29","354414","0.0-6.0-2.3","3373886","co39823","norming","","","{""curiosity"":6,""confidence"":0}","[0,1]","../img/tt/1235tt.jpg","",""
"3190.114999999467","","","recognition","survey-text","30","357606","0.0-6.0-3.3","3373886","co39823","norming","","","{""guess"":""lion""}","","../img/tt/1235tt.jpg","",""
"null","../img/gs/1235gs.jpg","null","reveal","image-keyboard-response","31","359608","0.0-6.0-4.3","3373886","co39823","norming","","","","","","",""
"null","../img/tt/1235tt.jpg","null","mooney2","image-keyboard-response","32","361612","0.0-6.0-5.3","3373886","co39823","norming","","","","","","",""
"1904.059999999823","","","post_reveal_questions","survey-likert","33","363518","0.0-6.0-6.3","3373886","co39823","norming","","","{""aha"":0}","[0]","../img/tt/1235tt.jpg","",""
"null","<div style=""font-size:60px;""> </div>","null","fixation","html-keyboard-response","34","363719","0.0-6.0-0.4","3373886","co39823","norming","","","","","","",""
"null","../img/tt/315tt.jpg","null","mooney1","image-keyboard-response","35","366721","0.0-6.0-1.4","3373886","co39823","norming","","","","","","",""
"6026.374999999476","","","post_mooney1_questions","survey-likert","36","372750","0.0-6.0-2.4","3373886","co39823","norming","","","{""curiosity"":6,""confidence"":0}","[0,1]","../img/tt/315tt.jpg","",""
"918.1000000007334","","","recognition","survey-text","37","373670","0.0-6.0-3.4","3373886","co39823","norming","","","{""guess"":""""}","","../img/tt/315tt.jpg","",""
"null","../img/gs/315gs.jpg","null","reveal","image-keyboard-response","38","375671","0.0-6.0-4.4","3373886","co39823","norming","","","","","","",""
"null","../img/tt/315tt.jpg","null","mooney2","image-keyboard-response","39","377676","0.0-6.0-5.4","3373886","co39823","norming","","","","","","",""
"1839.7699999996112","","","post_reveal_questions","survey-likert","40","379518","0.0-6.0-6.4","3373886","co39823","norming","","","{""aha"":6}","[0]","../img/tt/315tt.jpg","",""
"null","<div style=""font-size:60px;""> </div>","null","fixation","html-keyboard-response","41","379727","0.0-6.0-0.5","3373886","co39823","norming","","","","","","",""
"null","../img/tt/1033tt.jpg","null","mooney1","image-keyboard-response","42","382735","0.0-6.0-1.5","3373886","co39823","norming","","","","","","",""
"5500.885000000359","","","post_mooney1_questions","survey-likert","43","388238","0.0-6.0-2.5","3373886","co39823","norming","","","{""curiosity"":6,""confidence"":2}","[0,1]","../img/tt/1033tt.jpg","",""
"2350.145000000368","","","recognition","survey-text","44","390590","0.0-6.0-3.5","3373886","co39823","norming","","","{""guess"":""flag""}","","../img/tt/1033tt.jpg","",""
"null","../img/gs/1033gs.jpg","null","reveal","image-keyboard-response","45","392599","0.0-6.0-4.5","3373886","co39823","norming","","","","","","",""
"null","../img/tt/1033tt.jpg","null","mooney2","image-keyboard-response","46","394607","0.0-6.0-5.5","3373886","co39823","norming","","","","","","",""
"1988.6900000001187","","","post_reveal_questions","survey-likert","47","396598","0.0-6.0-6.5","3373886","co39823","norming","","","{""aha"":6}","[0]","../img/tt/1033tt.jpg","",""
"null","<div style=""font-size:60px;""> </div>","null","fixation","html-keyboard-response","48","396800","0.0-6.0-0.6","3373886","co39823","norming","","","","","","",""
"null","../img/tt/1044tt.jpg","null","mooney1","image-keyboard-response","49","399806","0.0-6.0-1.6","3373886","co39823","norming","","","","","","",""
"4061.310000000056","","","post_mooney1_questions","survey-likert","50","403870","0.0-6.0-2.6","3373886","co39823","norming","","","{""curiosity"":6,""confidence"":0}","[0,1]","../img/tt/1044tt.jpg","",""
"622.0949999997392","","","recognition","survey-text","51","404494","0.0-6.0-3.6","3373886","co39823","norming","","","{""guess"":""""}","","../img/tt/1044tt.jpg","",""
"null","../img/gs/1044gs.jpg","null","reveal","image-keyboard-response","52","406497","0.0-6.0-4.6","3373886","co39823","norming","","","","","","",""
"null","../img/tt/1044tt.jpg","null","mooney2","image-keyboard-response","53","408499","0.0-6.0-5.6","3373886","co39823","norming","","","","","","",""
"1857.2799999992712","","","post_reveal_questions","survey-likert","54","410358","0.0-6.0-6.6","3373886","co39823","norming","","","{""aha"":4}","[0]","../img/tt/1044tt.jpg","",""
"null","<div style=""font-size:60px;""> </div>","null","fixation","html-keyboard-response","55","410562","0.0-6.0-0.7","3373886","co39823","norming","","","","","","",""
"null","../img/tt/468tt.jpg","null","mooney1","image-keyboard-response","56","413572","0.0-6.0-1.7","3373886","co39823","norming","","","","","","",""
"4771.0299999999115","","","post_mooney1_questions","survey-likert","57","418344","0.0-6.0-2.7","3373886","co39823","norming","","","{""curiosity"":6,""confidence"":0}","[0,1]","../img/tt/468tt.jpg","",""
"878.0299999998533","","","recognition","survey-text","58","419224","0.0-6.0-3.7","3373886","co39823","norming","","","{""guess"":""""}","","../img/tt/468tt.jpg","",""
"null","../img/gs/468gs.jpg","null","reveal","image-keyboard-response","59","421226","0.0-6.0-4.7","3373886","co39823","norming","","","","","","",""
"null","../img/tt/468tt.jpg","null","mooney2","image-keyboard-response","60","423231","0.0-6.0-5.7","3373886","co39823","norming","","","","","","",""
"2791.9199999996927","","","post_reveal_questions","survey-likert","61","426024","0.0-6.0-6.7","3373886","co39823","norming","","","{""aha"":1}","[0]","../img/tt/468tt.jpg","",""
"null","<div style=""font-size:60px;""> </div>","null","fixation","html-keyboard-response","62","426226","0.0-6.0-0.8","3373886","co39823","norming","","","","","","",""
"null","../img/tt/079tt.jpg","null","mooney1","image-keyboard-response","63","429235","0.0-6.0-1.8","3373886","co39823","norming","","","","","","",""
"5042.860000000452","","","post_mooney1_questions","survey-likert","64","434280","0.0-6.0-2.8","3373886","co39823","norming","","","{""curiosity"":6,""confidence"":0}","[0,1]","../img/tt/079tt.jpg","",""
"2141.965000000724","","","recognition","survey-text","65","436424","0.0-6.0-3.8","3373886","co39823","norming","","","{""guess"":""""}","","../img/tt/079tt.jpg","",""
"null","../img/gs/079gs.jpg","null","reveal","image-keyboard-response","66","438426","0.0-6.0-4.8","3373886","co39823","norming","","","","","","",""
"null","../img/tt/079tt.jpg","null","mooney2","image-keyboard-response","67","440430","0.0-6.0-5.8","3373886","co39823","norming","","","","","","",""
"1464.274999999383","","","post_reveal_questions","survey-likert","68","441896","0.0-6.0-6.8","3373886","co39823","norming","","","{""aha"":4}","[0]","../img/tt/079tt.jpg","",""
"null","<div style=""font-size:60px;""> </div>","null","fixation","html-keyboard-response","69","442100","0.0-6.0-0.9","3373886","co39823","norming","","","","","","",""
"null","../img/tt/053tt.jpg","null","mooney1","image-keyboard-response","70","445102","0.0-6.0-1.9","3373886","co39823","norming","","","","","","",""
"6999.94999999943","","","post_mooney1_questions","survey-likert","71","452104","0.0-6.0-2.9","3373886","co39823","norming","","","{""curiosity"":4,""confidence"":4}","[0,1]","../img/tt/053tt.jpg","",""
"3389.7600000000093","","","recognition","survey-text","72","455496","0.0-6.0-3.9","3373886","co39823","norming","","","{""guess"":""waterfall""}","","../img/tt/053tt.jpg","",""
"null","../img/gs/053gs.jpg","null","reveal","image-keyboard-response","73","457499","0.0-6.0-4.9","3373886","co39823","norming","","","","","","",""
"null","../img/tt/053tt.jpg","null","mooney2","image-keyboard-response","74","459508","0.0-6.0-5.9","3373886","co39823","norming","","","","","","",""
"5003.445000000298","","","post_reveal_questions","survey-likert","75","464512","0.0-6.0-6.9","3373886","co39823","norming","","","{""aha"":0}","[0]","../img/tt/053tt.jpg","",""
"null","<div style=""font-size:60px;""> </div>","null","fixation","html-keyboard-response","76","464714","0.0-6.0-0.10","3373886","co39823","norming","","","","","","",""
"null","../img/tt/1181tt.jpg","null","mooney1","image-keyboard-response","77","467717","0.0-6.0-1.10","3373886","co39823","norming","","","","","","",""
"17048.525000000198","","","post_mooney1_questions","survey-likert","78","484770","0.0-6.0-2.10","3373886","co39823","norming","","","{""curiosity"":2,""confidence"":2}","[0,1]","../img/tt/1181tt.jpg","",""
"4870.175000000047","","","recognition","survey-text","79","489642","0.0-6.0-3.10","3373886","co39823","norming","","","{""guess"":""""}","","../img/tt/1181tt.jpg","",""
"null","../img/gs/1181gs.jpg","null","reveal","image-keyboard-response","80","491644","0.0-6.0-4.10","3373886","co39823","norming","","","","","","",""
"null","../img/tt/1181tt.jpg","null","mooney2","image-keyboard-response","81","493652","0.0-6.0-5.10","3373886","co39823","norming","","","","","","",""
"2435.28000000061","","","post_reveal_questions","survey-likert","82","496090","0.0-6.0-6.10","3373886","co39823","norming","","","{""aha"":4}","[0]","../img/tt/1181tt.jpg","",""
"null","<div style=""font-size:60px;""> </div>","null","fixation","html-keyboard-response","83","496291","0.0-6.0-0.11","3373886","co39823","norming","","","","","","",""
"null","../img/tt/1069tt.jpg","null","mooney1","image-keyboard-response","84","499297","0.0-6.0-1.11","3373886","co39823","norming","","","","","","",""
"4094.5050000000047","","","post_mooney1_questions","survey-likert","85","503394","0.0-6.0-2.11","3373886","co39823","norming","","","{""curiosity"":6,""confidence"":0}","[0,1]","../img/tt/1069tt.jpg","",""
"885.96999999939","","","recognition","survey-text","86","504282","0.0-6.0-3.11","3373886","co39823","norming","","","{""guess"":""""}","","../img/tt/1069tt.jpg","",""
"null","../img/gs/1069gs.jpg","null","reveal","image-keyboard-response","87","506285","0.0-6.0-4.11","3373886","co39823","norming","","","","","","",""
"null","../img/tt/1069tt.jpg","null","mooney2","image-keyboard-response","88","508288","0.0-6.0-5.11","3373886","co39823","norming","","","","","","",""
"2383.9499999994296","","","post_reveal_questions","survey-likert","89","510674","0.0-6.0-6.11","3373886","co39823","norming","","","{""aha"":2}","[0]","../img/tt/1069tt.jpg","",""
"null","<div style=""font-size:60px;""> </div>","null","fixation","html-keyboard-response","90","510879","0.0-6.0-0.12","3373886","co39823","norming","","","","","","",""
"null","../img/tt/044tt.jpg","null","mooney1","image-keyboard-response","91","513884","0.0-6.0-1.12","3373886","co39823","norming","","","","","","",""
"15810.989999999932","","","post_mooney1_questions","survey-likert","92","529698","0.0-6.0-2.12","3373886","co39823","norming","","","{""curiosity"":2,""confidence"":0}","[0,1]","../img/tt/044tt.jpg","",""
"814.109999999404","","","recognition","survey-text","93","530514","0.0-6.0-3.12","3373886","co39823","norming","","","{""guess"":""""}","","../img/tt/044tt.jpg","",""
"null","../img/gs/044gs.jpg","null","reveal","image-keyboard-response","94","532523","0.0-6.0-4.12","3373886","co39823","norming","","","","","","",""
"null","../img/tt/044tt.jpg","null","mooney2","image-keyboard-response","95","534525","0.0-6.0-5.12","3373886","co39823","norming","","","","","","",""
"2371.9249999994645","","","post_reveal_questions","survey-likert","96","536899","0.0-6.0-6.12","3373886","co39823","norming","","","{""aha"":0}","[0]","../img/tt/044tt.jpg","",""
"null","<div style=""font-size:60px;""> </div>","null","fixation","html-keyboard-response","97","537102","0.0-6.0-0.13","3373886","co39823","norming","","","","","","",""
"null","../img/tt/1186tt.jpg","null","mooney1","image-keyboard-response","98","540111","0.0-6.0-1.13","3373886","co39823","norming","","","","","","",""
"10936.76999999932","","","post_mooney1_questions","survey-likert","99","551051","0.0-6.0-2.13","3373886","co39823","norming","","","{""curiosity"":4,""confidence"":2}","[0,1]","../img/tt/1186tt.jpg","",""
"4118.084999999264","","","recognition","survey-text","100","555171","0.0-6.0-3.13","3373886","co39823","norming","","","{""guess"":""surfing""}","","../img/tt/1186tt.jpg","",""
"null","../img/gs/1186gs.jpg","null","reveal","image-keyboard-response","101","557175","0.0-6.0-4.13","3373886","co39823","norming","","","","","","",""
"null","../img/tt/1186tt.jpg","null","mooney2","image-keyboard-response","102","559178","0.0-6.0-5.13","3373886","co39823","norming","","","","","","",""
"2230.390000000596","","","post_reveal_questions","survey-likert","103","561411","0.0-6.0-6.13","3373886","co39823","norming","","","{""aha"":2}","[0]","../img/tt/1186tt.jpg","",""
"null","<div style=""font-size:60px;""> </div>","null","fixation","html-keyboard-response","104","561612","0.0-6.0-0.14","3373886","co39823","norming","","","","","","",""
"null","../img/tt/1228tt.jpg","null","mooney1","image-keyboard-response","105","564613","0.0-6.0-1.14","3373886","co39823","norming","","","","","","",""
"5700.635000000242","","","post_mooney1_questions","survey-likert","106","570315","0.0-6.0-2.14","3373886","co39823","norming","","","{""curiosity"":5,""confidence"":1}","[0,1]","../img/tt/1228tt.jpg","",""
"3086.314999999595","","","recognition","survey-text","107","573403","0.0-6.0-3.14","3373886","co39823","norming","","","{""guess"":""bird flying""}","","../img/tt/1228tt.jpg","",""
"null","../img/gs/1228gs.jpg","null","reveal","image-keyboard-response","108","575410","0.0-6.0-4.14","3373886","co39823","norming","","","","","","",""
"null","../img/tt/1228tt.jpg","null","mooney2","image-keyboard-response","109","577416","0.0-6.0-5.14","3373886","co39823","norming","","","","","","",""
"3921.1649999998044","","","post_reveal_questions","survey-likert","110","581339","0.0-6.0-6.14","3373886","co39823","norming","","","{""aha"":4}","[0]","../img/tt/1228tt.jpg","",""
"null","<div style=""font-size:60px;""> </div>","null","fixation","html-keyboard-response","111","581550","0.0-6.0-0.15","3373886","co39823","norming","","","","","","",""
"null","../img/tt/301tt.jpg","null","mooney1","image-keyboard-response","112","584560","0.0-6.0-1.15","3373886","co39823","norming","","","","","","",""
"7671.414999999804","","","post_mooney1_questions","survey-likert","113","592235","0.0-6.0-2.15","3373886","co39823","norming","","","{""curiosity"":5,""confidence"":0}","[0,1]","../img/tt/301tt.jpg","",""
"550.2999999998137","","","recognition","survey-text","114","592788","0.0-6.0-3.15","3373886","co39823","norming","","","{""guess"":""""}","","../img/tt/301tt.jpg","",""
"null","../img/gs/301gs.jpg","null","reveal","image-keyboard-response","115","594798","0.0-6.0-4.15","3373886","co39823","norming","","","","","","",""
"null","../img/tt/301tt.jpg","null","mooney2","image-keyboard-response","116","596800","0.0-6.0-5.15","3373886","co39823","norming","","","","","","",""
"2369.1100000004517","","","post_reveal_questions","survey-likert","117","599171","0.0-6.0-6.15","3373886","co39823","norming","","","{""aha"":0}","[0]","../img/tt/301tt.jpg","",""
"null","<div style=""font-size:60px;""> </div>","null","fixation","html-keyboard-response","118","599373","0.0-6.0-0.16","3373886","co39823","norming","","","","","","",""
"null","../img/tt/1027tt.jpg","null","mooney1","image-keyboard-response","119","602377","0.0-6.0-1.16","3373886","co39823","norming","","","","","","",""
"3831.435000000056","","","post_mooney1_questions","survey-likert","120","606212","0.0-6.0-2.16","3373886","co39823","norming","","","{""curiosity"":6,""confidence"":1}","[0,1]","../img/tt/1027tt.jpg","",""
"1669.7149999999674","","","recognition","survey-text","121","607884","0.0-6.0-3.16","3373886","co39823","norming","","","{""guess"":""cows""}","","../img/tt/1027tt.jpg","",""
"null","../img/gs/1027gs.jpg","null","reveal","image-keyboard-response","122","609888","0.0-6.0-4.16","3373886","co39823","norming","","","","","","",""
"null","../img/tt/1027tt.jpg","null","mooney2","image-keyboard-response","123","611892","0.0-6.0-5.16","3373886","co39823","norming","","","","","","",""
"3021.6750000008615","","","post_reveal_questions","survey-likert","124","614916","0.0-6.0-6.16","3373886","co39823","norming","","","{""aha"":1}","[0]","../img/tt/1027tt.jpg","",""
"null","<div style=""font-size:60px;""> </div>","null","fixation","html-keyboard-response","125","615117","0.0-6.0-0.17","3373886","co39823","norming","","","","","","",""
"null","../img/tt/1227tt.jpg","null","mooney1","image-keyboard-response","126","618118","0.0-6.0-1.17","3373886","co39823","norming","","","","","","",""
"3907.0050000000047","","","post_mooney1_questions","survey-likert","127","622028","0.0-6.0-2.17","3373886","co39823","norming","","","{""curiosity"":6,""confidence"":0}","[0,1]","../img/tt/1227tt.jpg","",""
"517.8249999999534","","","recognition","survey-text","128","622547","0.0-6.0-3.17","3373886","co39823","norming","","","{""guess"":""""}","","../img/tt/1227tt.jpg","",""
"null","../img/gs/1227gs.jpg","null","reveal","image-keyboard-response","129","624558","0.0-6.0-4.17","3373886","co39823","norming","","","","","","",""
"null","../img/tt/1227tt.jpg","null","mooney2","image-keyboard-response","130","626560","0.0-6.0-5.17","3373886","co39823","norming","","","","","","",""
"1457.559999999823","","","post_reveal_questions","survey-likert","131","628020","0.0-6.0-6.17","3373886","co39823","norming","","","{""aha"":0}","[0]","../img/tt/1227tt.jpg","",""
"null","<div style=""font-size:60px;""> </div>","null","fixation","html-keyboard-response","132","628221","0.0-6.0-0.18","3373886","co39823","norming","","","","","","",""
"null","../img/tt/1226tt.jpg","null","mooney1","image-keyboard-response","133","631224","0.0-6.0-1.18","3373886","co39823","norming","","","","","","",""
"8144.795000000158","","","post_mooney1_questions","survey-likert","134","639372","0.0-6.0-2.18","3373886","co39823","norming","","","{""curiosity"":1,""confidence"":4}","[0,1]","../img/tt/1226tt.jpg","",""
"2062.25","","","recognition","survey-text","135","641436","0.0-6.0-3.18","3373886","co39823","norming","","","{""guess"":""swan""}","","../img/tt/1226tt.jpg","",""
"null","../img/gs/1226gs.jpg","null","reveal","image-keyboard-response","136","643444","0.0-6.0-4.18","3373886","co39823","norming","","","","","","",""
"null","../img/tt/1226tt.jpg","null","mooney2","image-keyboard-response","137","645450","0.0-6.0-5.18","3373886","co39823","norming","","","","","","",""
"3462.824999999604","","","post_reveal_questions","survey-likert","138","648916","0.0-6.0-6.18","3373886","co39823","norming","","","{""aha"":3}","[0]","../img/tt/1226tt.jpg","",""
"null","<div style=""font-size:60px;""> </div>","null","fixation","html-keyboard-response","139","649117","0.0-6.0-0.19","3373886","co39823","norming","","","","","","",""
"null","../img/tt/440tt.jpg","null","mooney1","image-keyboard-response","140","652124","0.0-6.0-1.19","3373886","co39823","norming","","","","","","",""
"4573.38499999966","","","post_mooney1_questions","survey-likert","141","656701","0.0-6.0-2.19","3373886","co39823","norming","","","{""curiosity"":5,""confidence"":0}","[0,1]","../img/tt/440tt.jpg","",""
"758.1399999998976","","","recognition","survey-text","142","657460","0.0-6.0-3.19","3373886","co39823","norming","","","{""guess"":""""}","","../img/tt/440tt.jpg","",""
"null","../img/gs/440gs.jpg","null","reveal","image-keyboard-response","143","659465","0.0-6.0-4.19","3373886","co39823","norming","","","","","","",""
"null","../img/tt/440tt.jpg","null","mooney2","image-keyboard-response","144","661471","0.0-6.0-5.19","3373886","co39823","norming","","","","","","",""
"1778.79000000027","","","post_reveal_questions","survey-likert","145","663252","0.0-6.0-6.19","3373886","co39823","norming","","","{""aha"":4}","[0]","../img/tt/440tt.jpg","",""
"null","<div style=""font-size:60px;""> </div>","null","fixation","html-keyboard-response","146","663453","0.0-6.0-0.20","3373886","co39823","norming","","","","","","",""
"null","../img/tt/040tt.jpg","null","mooney1","image-keyboard-response","147","666460","0.0-6.0-1.20","3373886","co39823","norming","","","","","","",""
"3734.085000000079","","","post_mooney1_questions","survey-likert","148","670196","0.0-6.0-2.20","3373886","co39823","norming","","","{""curiosity"":6,""confidence"":0}","[0,1]","../img/tt/040tt.jpg","",""
"2502.305000000051","","","recognition","survey-text","149","672700","0.0-6.0-3.20","3373886","co39823","norming","","","{""guess"":""""}","","../img/tt/040tt.jpg","",""
"null","../img/gs/040gs.jpg","null","reveal","image-keyboard-response","150","674703","0.0-6.0-4.20","3373886","co39823","norming","","","","","","",""
"null","../img/tt/040tt.jpg","null","mooney2","image-keyboard-response","151","676705","0.0-6.0-5.20","3373886","co39823","norming","","","","","","",""
"1289.2499999998836","","","post_reveal_questions","survey-likert","152","677997","0.0-6.0-6.20","3373886","co39823","norming","","","{""aha"":4}","[0]","../img/tt/040tt.jpg","",""
"null","<div style=""font-size:60px;""> </div>","null","fixation","html-keyboard-response","153","678197","0.0-6.0-0.21","3373886","co39823","norming","","","","","","",""
"null","../img/tt/1268tt.jpg","null","mooney1","image-keyboard-response","154","681198","0.0-6.0-1.21","3373886","co39823","norming","","","","","","",""
"4579.719999999739","","","post_mooney1_questions","survey-likert","155","685781","0.0-6.0-2.21","3373886","co39823","norming","","","{""curiosity"":5,""confidence"":0}","[0,1]","../img/tt/1268tt.jpg","",""
"1429.930000000284","","","recognition","survey-text","156","687212","0.0-6.0-3.21","3373886","co39823","norming","","","{""guess"":""""}","","../img/tt/1268tt.jpg","",""
"null","../img/gs/1268gs.jpg","null","reveal","image-keyboard-response","157","689223","0.0-6.0-4.21","3373886","co39823","norming","","","","","","",""
"null","../img/tt/1268tt.jpg","null","mooney2","image-keyboard-response","158","691225","0.0-6.0-5.21","3373886","co39823","norming","","","","","","",""
"1736.9650000000838","","","post_reveal_questions","survey-likert","159","692964","0.0-6.0-6.21","3373886","co39823","norming","","","{""aha"":5}","[0]","../img/tt/1268tt.jpg","",""
"null","<div style=""font-size:60px;""> </div>","null","fixation","html-keyboard-response","160","693166","0.0-6.0-0.22","3373886","co39823","norming","","","","","","",""
"null","../img/tt/534tt.jpg","null","mooney1","image-keyboard-response","161","696174","0.0-6.0-1.22","3373886","co39823","norming","","","","","","",""
"5819.575000000419","","","post_mooney1_questions","survey-likert","162","701996","0.0-6.0-2.22","3373886","co39823","norming","","","{""curiosity"":6,""confidence"":2}","[0,1]","../img/tt/534tt.jpg","",""
"2270.3000000000466","","","recognition","survey-text","163","704269","0.0-6.0-3.22","3373886","co39823","norming","","","{""guess"":""cactus""}","","../img/tt/534tt.jpg","",""
"null","../img/gs/534gs.jpg","null","reveal","image-keyboard-response","164","706275","0.0-6.0-4.22","3373886","co39823","norming","","","","","","",""
"null","../img/tt/534tt.jpg","null","mooney2","image-keyboard-response","165","708283","0.0-6.0-5.22","3373886","co39823","norming","","","","","","",""
"2695.3899999998976","","","post_reveal_questions","survey-likert","166","710980","0.0-6.0-6.22","3373886","co39823","norming","","","{""aha"":0}","[0]","../img/tt/534tt.jpg","",""
"null","<div style=""font-size:60px;""> </div>","null","fixation","html-keyboard-response","167","711182","0.0-6.0-0.23","3373886","co39823","norming","","","","","","",""
"null","../img/tt/1196tt.jpg","null","mooney1","image-keyboard-response","168","714193","0.0-6.0-1.23","3373886","co39823","norming","","","","","","",""
"5816.295000000508","","","post_mooney1_questions","survey-likert","169","720013","0.0-6.0-2.23","3373886","co39823","norming","","","{""curiosity"":2,""confidence"":3}","[0,1]","../img/tt/1196tt.jpg","",""
"8478.444999999716","","","recognition","survey-text","170","728493","0.0-6.0-3.23","3373886","co39823","norming","","","{""guess"":""fight""}","","../img/tt/1196tt.jpg","",""
"null","../img/gs/1196gs.jpg","null","reveal","image-keyboard-response","171","730501","0.0-6.0-4.23","3373886","co39823","norming","","","","","","",""
"null","../img/tt/1196tt.jpg","null","mooney2","image-keyboard-response","172","732503","0.0-6.0-5.23","3373886","co39823","norming","","","","","","",""
"2812.275000000256","","","post_reveal_questions","survey-likert","173","735317","0.0-6.0-6.23","3373886","co39823","norming","","","{""aha"":0}","[0]","../img/tt/1196tt.jpg","",""
"null","<div style=""font-size:60px;""> </div>","null","fixation","html-keyboard-response","174","735519","0.0-6.0-0.24","3373886","co39823","norming","","","","","","",""
"null","../img/tt/1096tt.jpg","null","mooney1","image-keyboard-response","175","738530","0.0-6.0-1.24","3373886","co39823","norming","","","","","","",""
"3104.434999999241","","","post_mooney1_questions","survey-likert","176","741637","0.0-6.0-2.24","3373886","co39823","norming","","","{""curiosity"":6,""confidence"":0}","[0,1]","../img/tt/1096tt.jpg","",""
"518.2299999996321","","","recognition","survey-text","177","742157","0.0-6.0-3.24","3373886","co39823","norming","","","{""guess"":""""}","","../img/tt/1096tt.jpg","",""
"null","../img/gs/1096gs.jpg","null","reveal","image-keyboard-response","178","744162","0.0-6.0-4.24","3373886","co39823","norming","","","","","","",""
"null","../img/tt/1096tt.jpg","null","mooney2","image-keyboard-response","179","746170","0.0-6.0-5.24","3373886","co39823","norming","","","","","","",""
"1529.8250000005355","","","post_reveal_questions","survey-likert","180","747701","0.0-6.0-6.24","3373886","co39823","norming","","","{""aha"":1}","[0]","../img/tt/1096tt.jpg","",""
"null","<div style=""font-size:60px;""> </div>","null","fixation","html-keyboard-response","181","747902","0.0-6.0-0.25","3373886","co39823","norming","","","","","","",""
"null","../img/tt/1024tt.jpg","null","mooney1","image-keyboard-response","182","750912","0.0-6.0-1.25","3373886","co39823","norming","","","","","","",""
"5314.379999999772","","","post_mooney1_questions","survey-likert","183","756229","0.0-6.0-2.25","3373886","co39823","norming","","","{""curiosity"":1,""confidence"":2}","[0,1]","../img/tt/1024tt.jpg","",""
"3045.979999999865","","","recognition","survey-text","184","759277","0.0-6.0-3.25","3373886","co39823","norming","","","{""guess"":""female""}","","../img/tt/1024tt.jpg","",""
"null","../img/gs/1024gs.jpg","null","reveal","image-keyboard-response","185","761287","0.0-6.0-4.25","3373886","co39823","norming","","","","","","",""
"null","../img/tt/1024tt.jpg","null","mooney2","image-keyboard-response","186","763297","0.0-6.0-5.25","3373886","co39823","norming","","","","","","",""
"5098.065000000177","","","post_reveal_questions","survey-likert","187","768397","0.0-6.0-6.25","3373886","co39823","norming","","","{""aha"":4}","[0]","../img/tt/1024tt.jpg","",""
"null","<div style=""font-size:60px;""> </div>","null","fixation","html-keyboard-response","188","768599","0.0-6.0-0.26","3373886","co39823","norming","","","","","","",""
"null","../img/tt/085tt.jpg","null","mooney1","image-keyboard-response","189","771606","0.0-6.0-1.26","3373886","co39823","norming","","","","","","",""
"4670.13000000047","","","post_mooney1_questions","survey-likert","190","776277","0.0-6.0-2.26","3373886","co39823","norming","","","{""curiosity"":5,""confidence"":3}","[0,1]","../img/tt/085tt.jpg","",""
"2118.145000000368","","","recognition","survey-text","191","778396","0.0-6.0-3.26","3373886","co39823","norming","","","{""guess"":""krekel""}","","../img/tt/085tt.jpg","",""
"null","../img/gs/085gs.jpg","null","reveal","image-keyboard-response","192","780399","0.0-6.0-4.26","3373886","co39823","norming","","","","","","",""
"null","../img/tt/085tt.jpg","null","mooney2","image-keyboard-response","193","782401","0.0-6.0-5.26","3373886","co39823","norming","","","","","","",""
"1369.5250000000233","","","post_reveal_questions","survey-likert","194","783772","0.0-6.0-6.26","3373886","co39823","norming","","","{""aha"":0}","[0]","../img/tt/085tt.jpg","",""
"null","<div style=""font-size:60px;""> </div>","null","fixation","html-keyboard-response","195","783974","0.0-6.0-0.27","3373886","co39823","norming","","","","","","",""
"null","../img/tt/1084tt.jpg","null","mooney1","image-keyboard-response","196","786975","0.0-6.0-1.27","3373886","co39823","norming","","","","","","",""
"9242.395000000251","","","post_mooney1_questions","survey-likert","197","796220","0.0-6.0-2.27","3373886","co39823","norming","","","{""curiosity"":4,""confidence"":1}","[0,1]","../img/tt/1084tt.jpg","",""
"2126.164999999688","","","recognition","survey-text","198","798348","0.0-6.0-3.27","3373886","co39823","norming","","","{""guess"":""food""}","","../img/tt/1084tt.jpg","",""
"null","../img/gs/1084gs.jpg","null","reveal","image-keyboard-response","199","800357","0.0-6.0-4.27","3373886","co39823","norming","","","","","","",""
"null","../img/tt/1084tt.jpg","null","mooney2","image-keyboard-response","200","802359","0.0-6.0-5.27","3373886","co39823","norming","","","","","","",""
"2130.909999999916","","","post_reveal_questions","survey-likert","201","804492","0.0-6.0-6.27","3373886","co39823","norming","","","{""aha"":4}","[0]","../img/tt/1084tt.jpg","",""
"null","<div style=""font-size:60px;""> </div>","null","fixation","html-keyboard-response","202","804693","0.0-6.0-0.28","3373886","co39823","norming","","","","","","",""
"null","../img/tt/1205tt.jpg","null","mooney1","image-keyboard-response","203","807698","0.0-6.0-1.28","3373886","co39823","norming","","","","","","",""
"3919.8699999997625","","","post_mooney1_questions","survey-likert","204","811620","0.0-6.0-2.28","3373886","co39823","norming","","","{""curiosity"":3,""confidence"":2}","[0,1]","../img/tt/1205tt.jpg","",""
"2710.3200000001816","","","recognition","survey-text","205","814332","0.0-6.0-3.28","3373886","co39823","norming","","","{""guess"":""concert""}","","../img/tt/1205tt.jpg","",""
"null","../img/gs/1205gs.jpg","null","reveal","image-keyboard-response","206","816334","0.0-6.0-4.28","3373886","co39823","norming","","","","","","",""
"null","../img/tt/1205tt.jpg","null","mooney2","image-keyboard-response","207","818336","0.0-6.0-5.28","3373886","co39823","norming","","","","","","",""
"1257.6200000002282","","","post_reveal_questions","survey-likert","208","819596","0.0-6.0-6.28","3373886","co39823","norming","","","{""aha"":2}","[0]","../img/tt/1205tt.jpg","",""
"null","<div style=""font-size:60px;""> </div>","null","fixation","html-keyboard-response","209","819797","0.0-6.0-0.29","3373886","co39823","norming","","","","","","",""
"null","../img/tt/007tt.jpg","null","mooney1","image-keyboard-response","210","822804","0.0-6.0-1.29","3373886","co39823","norming","","","","","","",""
"2909.1749999998137","","","post_mooney1_questions","survey-likert","211","825716","0.0-6.0-2.29","3373886","co39823","norming","","","{""curiosity"":6,""confidence"":0}","[0,1]","../img/tt/007tt.jpg","",""
"494.160000000149","","","recognition","survey-text","212","826212","0.0-6.0-3.29","3373886","co39823","norming","","","{""guess"":""""}","","../img/tt/007tt.jpg","",""
"null","../img/gs/007gs.jpg","null","reveal","image-keyboard-response","213","828221","0.0-6.0-4.29","3373886","co39823","norming","","","","","","",""
"null","../img/tt/007tt.jpg","null","mooney2","image-keyboard-response","214","830229","0.0-6.0-5.29","3373886","co39823","norming","","","","","","",""
"3028.6850000002887","","","post_reveal_questions","survey-likert","215","833260","0.0-6.0-6.29","3373886","co39823","norming","","","{""aha"":1}","[0]","../img/tt/007tt.jpg","",""
"null","<div style=""font-size:60px;""> </div>","null","fixation","html-keyboard-response","216","833462","0.0-6.0-0.30","3373886","co39823","norming","","","","","","",""
"null","../img/tt/1217tt.jpg","null","mooney1","image-keyboard-response","217","836465","0.0-6.0-1.30","3373886","co39823","norming","","","","","","",""
"3074.3600000004517","","","post_mooney1_questions","survey-likert","218","839542","0.0-6.0-2.30","3373886","co39823","norming","","","{""curiosity"":6,""confidence"":0}","[0,1]","../img/tt/1217tt.jpg","",""
"526.2750000001397","","","recognition","survey-text","219","840070","0.0-6.0-3.30","3373886","co39823","norming","","","{""guess"":""""}","","../img/tt/1217tt.jpg","",""
"null","../img/gs/1217gs.jpg","null","reveal","image-keyboard-response","220","842073","0.0-6.0-4.30","3373886","co39823","norming","","","","","","",""
"null","../img/tt/1217tt.jpg","null","mooney2","image-keyboard-response","221","844075","0.0-6.0-5.30","3373886","co39823","norming","","","","","","",""
"1704.3250000005355","","","post_reveal_questions","survey-likert","222","845782","0.0-6.0-6.30","3373886","co39823","norming","","","{""aha"":4}","[0]","../img/tt/1217tt.jpg","",""
"null","<div style=""font-size:60px;""> </div>","null","fixation","html-keyboard-response","223","845984","0.0-6.0-0.31","3373886","co39823","norming","","","","","","",""
"null","../img/tt/091tt.jpg","null","mooney1","image-keyboard-response","224","848989","0.0-6.0-1.31","3373886","co39823","norming","","","","","","",""
"2733.3149999994785","","","post_mooney1_questions","survey-likert","225","851726","0.0-6.0-2.31","3373886","co39823","norming","","","{""curiosity"":6,""confidence"":0}","[0,1]","../img/tt/091tt.jpg","",""
"510.6649999998044","","","recognition","survey-text","226","852238","0.0-6.0-3.31","3373886","co39823","norming","","","{""guess"":""""}","","../img/tt/091tt.jpg","",""
"null","../img/gs/091gs.jpg","null","reveal","image-keyboard-response","227","854248","0.0-6.0-4.31","3373886","co39823","norming","","","","","","",""
"null","../img/tt/091tt.jpg","null","mooney2","image-keyboard-response","228","856257","0.0-6.0-5.31","3373886","co39823","norming","","","","","","",""
"2907.0999999993946","","","post_reveal_questions","survey-likert","229","859166","0.0-6.0-6.31","3373886","co39823","norming","","","{""aha"":1}","[0]","../img/tt/091tt.jpg","",""
"null","<div style=""font-size:60px;""> </div>","null","fixation","html-keyboard-response","230","859367","0.0-6.0-0.32","3373886","co39823","norming","","","","","","",""
"null","../img/tt/1091tt.jpg","null","mooney1","image-keyboard-response","231","862370","0.0-6.0-1.32","3373886","co39823","norming","","","","","","",""
"4480.630000000005","","","post_mooney1_questions","survey-likert","232","866854","0.0-6.0-2.32","3373886","co39823","norming","","","{""curiosity"":1,""confidence"":6}","[0,1]","../img/tt/1091tt.jpg","",""
"2517.7199999998556","","","recognition","survey-text","233","869374","0.0-6.0-3.32","3373886","co39823","norming","","","{""guess"":""horse""}","","../img/tt/1091tt.jpg","",""
"null","../img/gs/1091gs.jpg","null","reveal","image-keyboard-response","234","871382","0.0-6.0-4.32","3373886","co39823","norming","","","","","","",""
"null","../img/tt/1091tt.jpg","null","mooney2","image-keyboard-response","235","873386","0.0-6.0-5.32","3373886","co39823","norming","","","","","","",""
"2043.449999999255","","","post_reveal_questions","survey-likert","236","875430","0.0-6.0-6.32","3373886","co39823","norming","","","{""aha"":0}","[0]","../img/tt/1091tt.jpg","",""
"null","<div style=""font-size:60px;""> </div>","null","fixation","html-keyboard-response","237","875631","0.0-6.0-0.33","3373886","co39823","norming","","","","","","",""
"null","../img/tt/412tt.jpg","null","mooney1","image-keyboard-response","238","878638","0.0-6.0-1.33","3373886","co39823","norming","","","","","","",""
"3269.515000000829","","","post_mooney1_questions","survey-likert","239","881910","0.0-6.0-2.33","3373886","co39823","norming","","","{""curiosity"":6,""confidence"":0}","[0,1]","../img/tt/412tt.jpg","",""
"502.07499999937136","","","recognition","survey-text","240","882414","0.0-6.0-3.33","3373886","co39823","norming","","","{""guess"":""""}","","../img/tt/412tt.jpg","",""
"null","../img/gs/412gs.jpg","null","reveal","image-keyboard-response","241","884419","0.0-6.0-4.33","3373886","co39823","norming","","","","","","",""
"null","../img/tt/412tt.jpg","null","mooney2","image-keyboard-response","242","886421","0.0-6.0-5.33","3373886","co39823","norming","","","","","","",""
"1654.9999999997672","","","post_reveal_questions","survey-likert","243","888078","0.0-6.0-6.33","3373886","co39823","norming","","","{""aha"":0}","[0]","../img/tt/412tt.jpg","",""
"null","<div style=""font-size:60px;""> </div>","null","fixation","html-keyboard-response","244","888280","0.0-6.0-0.34","3373886","co39823","norming","","","","","","",""
"null","../img/tt/1251tt.jpg","null","mooney1","image-keyboard-response","245","891291","0.0-6.0-1.34","3373886","co39823","norming","","","","","","",""
"4943.920000000508","","","post_mooney1_questions","survey-likert","246","896238","0.0-6.0-2.34","3373886","co39823","norming","","","{""curiosity"":6,""confidence"":0}","[0,1]","../img/tt/1251tt.jpg","",""
"781.9900000003399","","","recognition","survey-text","247","897022","0.0-6.0-3.34","3373886","co39823","norming","","","{""guess"":""""}","","../img/tt/1251tt.jpg","",""
"null","../img/gs/1251gs.jpg","null","reveal","image-keyboard-response","248","899027","0.0-6.0-4.34","3373886","co39823","norming","","","","","","",""
"null","../img/tt/1251tt.jpg","null","mooney2","image-keyboard-response","249","901028","0.0-6.0-5.34","3373886","co39823","norming","","","","","","",""
"1663.8100000000559","","","post_reveal_questions","survey-likert","250","902695","0.0-6.0-6.34","3373886","co39823","norming","","","{""aha"":3}","[0]","../img/tt/1251tt.jpg","",""
"null","<div style=""font-size:60px;""> </div>","null","fixation","html-keyboard-response","251","902896","0.0-6.0-0.35","3373886","co39823","norming","","","","","","",""
"null","../img/tt/111tt.jpg","null","mooney1","image-keyboard-response","252","905901","0.0-6.0-1.35","3373886","co39823","norming","","","","","","",""
"5680.945000000065","","","post_mooney1_questions","survey-likert","253","911583","0.0-6.0-2.35","3373886","co39823","norming","","","{""curiosity"":6,""confidence"":1}","[0,1]","../img/tt/111tt.jpg","",""
"5533.6500000003725","","","recognition","survey-text","254","917118","0.0-6.0-3.35","3373886","co39823","norming","","","{""guess"":""water""}","","../img/tt/111tt.jpg","",""
"null","../img/gs/111gs.jpg","null","reveal","image-keyboard-response","255","919121","0.0-6.0-4.35","3373886","co39823","norming","","","","","","",""
"null","../img/tt/111tt.jpg","null","mooney2","image-keyboard-response","256","921122","0.0-6.0-5.35","3373886","co39823","norming","","","","","","",""
"1819.1500000002561","","","post_reveal_questions","survey-likert","257","922942","0.0-6.0-6.35","3373886","co39823","norming","","","{""aha"":6}","[0]","../img/tt/111tt.jpg","",""
"null","<div style=""font-size:60px;""> </div>","null","fixation","html-keyboard-response","258","923144","0.0-6.0-0.36","3373886","co39823","norming","","","","","","",""
"null","../img/tt/1089tt.jpg","null","mooney1","image-keyboard-response","259","926145","0.0-6.0-1.36","3373886","co39823","norming","","","","","","",""
"5972.920000000158","","","post_mooney1_questions","survey-likert","260","932119","0.0-6.0-2.36","3373886","co39823","norming","","","{""curiosity"":0,""confidence"":6}","[0,1]","../img/tt/1089tt.jpg","",""
"7542.089999999967","","","recognition","survey-text","261","939663","0.0-6.0-3.36","3373886","co39823","norming","","","{""guess"":""olifanten""}","","../img/tt/1089tt.jpg","",""
"null","../img/gs/1089gs.jpg","null","reveal","image-keyboard-response","262","941668","0.0-6.0-4.36","3373886","co39823","norming","","","","","","",""
"null","../img/tt/1089tt.jpg","null","mooney2","image-keyboard-response","263","943669","0.0-6.0-5.36","3373886","co39823","norming","","","","","","",""
"2008.8349999996135","","","post_reveal_questions","survey-likert","264","945679","0.0-6.0-6.36","3373886","co39823","norming","","","{""aha"":0}","[0]","../img/tt/1089tt.jpg","",""
"null","<div style=""font-size:60px;""> </div>","null","fixation","html-keyboard-response","265","945881","0.0-6.0-0.37","3373886","co39823","norming","","","","","","",""
"null","../img/tt/031tt.jpg","null","mooney1","image-keyboard-response","266","948886","0.0-6.0-1.37","3373886","co39823","norming","","","","","","",""
"3070.094999999972","","","post_mooney1_questions","survey-likert","267","951959","0.0-6.0-2.37","3373886","co39823","norming","","","{""curiosity"":0,""confidence"":6}","[0,1]","../img/tt/031tt.jpg","",""
"3398.3600000001024","","","recognition","survey-text","268","955359","0.0-6.0-3.37","3373886","co39823","norming","","","{""guess"":""a bear""}","","../img/tt/031tt.jpg","",""
"null","../img/gs/031gs.jpg","null","reveal","image-keyboard-response","269","957360","0.0-6.0-4.37","3373886","co39823","norming","","","","","","",""
"null","../img/tt/031tt.jpg","null","mooney2","image-keyboard-response","270","959363","0.0-6.0-5.37","3373886","co39823","norming","","","","","","",""
"2137.604999999865","","","post_reveal_questions","survey-likert","271","961503","0.0-6.0-6.37","3373886","co39823","norming","","","{""aha"":0}","[0]","../img/tt/031tt.jpg","",""
"null","<div style=""font-size:60px;""> </div>","null","fixation","html-keyboard-response","272","961705","0.0-6.0-0.38","3373886","co39823","norming","","","","","","",""
"null","../img/tt/1142tt.jpg","null","mooney1","image-keyboard-response","273","964711","0.0-6.0-1.38","3373886","co39823","norming","","","","","","",""
"4485.094999999972","","","post_mooney1_questions","survey-likert","274","969199","0.0-6.0-2.38","3373886","co39823","norming","","","{""curiosity"":0,""confidence"":6}","[0,1]","../img/tt/1142tt.jpg","",""
"6030.130000000005","","","recognition","survey-text","275","975231","0.0-6.0-3.38","3373886","co39823","norming","","","{""guess"":""a woman jumping""}","","../img/tt/1142tt.jpg","",""
"null","../img/gs/1142gs.jpg","null","reveal","image-keyboard-response","276","977234","0.0-6.0-4.38","3373886","co39823","norming","","","","","","",""
"null","../img/tt/1142tt.jpg","null","mooney2","image-keyboard-response","277","979245","0.0-6.0-5.38","3373886","co39823","norming","","","","","","",""
"1727.4299999999348","","","post_reveal_questions","survey-likert","278","980975","0.0-6.0-6.38","3373886","co39823","norming","","","{""aha"":0}","[0]","../img/tt/1142tt.jpg","",""
"null","<div style=""font-size:60px;""> </div>","null","fixation","html-keyboard-response","279","981177","0.0-6.0-0.39","3373886","co39823","norming","","","","","","",""
"null","../img/tt/307tt.jpg","null","mooney1","image-keyboard-response","280","984184","0.0-6.0-1.39","3373886","co39823","norming","","","","","","",""
"3387.940000000526","","","post_mooney1_questions","survey-likert","281","987575","0.0-6.0-2.39","3373886","co39823","norming","","","{""curiosity"":6,""confidence"":0}","[0,1]","../img/tt/307tt.jpg","",""
"838.5099999995437","","","recognition","survey-text","282","988415","0.0-6.0-3.39","3373886","co39823","norming","","","{""guess"":""""}","","../img/tt/307tt.jpg","",""
"null","../img/gs/307gs.jpg","null","reveal","image-keyboard-response","283","990417","0.0-6.0-4.39","3373886","co39823","norming","","","","","","",""
"null","../img/tt/307tt.jpg","null","mooney2","image-keyboard-response","284","992427","0.0-6.0-5.39","3373886","co39823","norming","","","","","","",""
"2177.929999999935","","","post_reveal_questions","survey-likert","285","994607","0.0-6.0-6.39","3373886","co39823","norming","","","{""aha"":0}","[0]","../img/tt/307tt.jpg","",""
"null","<div style=""font-size:60px;""> </div>","null","fixation","html-keyboard-response","286","994809","0.0-6.0-0.40","3373886","co39823","norming","","","","","","",""
"null","../img/tt/1070tt.jpg","null","mooney1","image-keyboard-response","287","997817","0.0-6.0-1.40","3373886","co39823","norming","","","","","","",""
"2891.2550000004703","","","post_mooney1_questions","survey-likert","288","1000711","0.0-6.0-2.40","3373886","co39823","norming","","","{""curiosity"":6,""confidence"":1}","[0,1]","../img/tt/1070tt.jpg","",""
"2725.8800000000047","","","recognition","survey-text","289","1003439","0.0-6.0-3.40","3373886","co39823","norming","","","{""guess"":""vogelnest""}","","../img/tt/1070tt.jpg","",""
"null","../img/gs/1070gs.jpg","null","reveal","image-keyboard-response","290","1005441","0.0-6.0-4.40","3373886","co39823","norming","","","","","","",""
"null","../img/tt/1070tt.jpg","null","mooney2","image-keyboard-response","291","1007444","0.0-6.0-5.40","3373886","co39823","norming","","","","","","",""
"4424.449999999488","","","post_reveal_questions","survey-likert","292","1011871","0.0-6.0-6.40","3373886","co39823","norming","","","{""aha"":4}","[0]","../img/tt/1070tt.jpg","",""
"null","<div style=""font-size:60px;""> </div>","null","fixation","html-keyboard-response","293","1012081","0.0-6.0-0.41","3373886","co39823","norming","","","","","","",""
"null","../img/tt/416tt.jpg","null","mooney1","image-keyboard-response","294","1015085","0.0-6.0-1.41","3373886","co39823","norming","","","","","","",""
"3383.2000000001863","","","post_mooney1_questions","survey-likert","295","1018471","0.0-6.0-2.41","3373886","co39823","norming","","","{""curiosity"":0,""confidence"":6}","[0,1]","../img/tt/416tt.jpg","",""
"26405.81500000006","","","recognition","survey-text","296","1044872","0.0-6.0-3.41","3373886","co39823","norming","","","{""guess"":""struisvogels""}","","../img/tt/416tt.jpg","",""
"null","../img/gs/416gs.jpg","null","reveal","image-keyboard-response","297","1046882","0.0-6.0-4.41","3373886","co39823","norming","","","","","","",""
"null","../img/tt/416tt.jpg","null","mooney2","image-keyboard-response","298","1048883","0.0-6.0-5.41","3373886","co39823","norming","","","","","","",""
"4115.904999999795","","","post_reveal_questions","survey-likert","299","1053000","0.0-6.0-6.41","3373886","co39823","norming","","","{""aha"":0}","[0]","../img/tt/416tt.jpg","",""
"null","<div style=""font-size:60px;""> </div>","null","fixation","html-keyboard-response","300","1053202","0.0-6.0-0.42","3373886","co39823","norming","","","","","","",""
"null","../img/tt/036tt.jpg","null","mooney1","image-keyboard-response","301","1056204","0.0-6.0-1.42","3373886","co39823","norming","","","","","","",""
"2393.0950000004377","","","post_mooney1_questions","survey-likert","302","1058601","0.0-6.0-2.42","3373886","co39823","norming","","","{""curiosity"":0,""confidence"":6}","[0,1]","../img/tt/036tt.jpg","",""
"2478.119999999879","","","recognition","survey-text","303","1061080","0.0-6.0-3.42","3373886","co39823","norming","","","{""guess"":""bliksem""}","","../img/tt/036tt.jpg","",""
"null","../img/gs/036gs.jpg","null","reveal","image-keyboard-response","304","1063087","0.0-6.0-4.42","3373886","co39823","norming","","","","","","",""
"null","../img/tt/036tt.jpg","null","mooney2","image-keyboard-response","305","1065089","0.0-6.0-5.42","3373886","co39823","norming","","","","","","",""
"1610.110000000568","","","post_reveal_questions","survey-likert","306","1066705","0.0-6.0-6.42","3373886","co39823","norming","","","{""aha"":0}","[0]","../img/tt/036tt.jpg","",""
"null","<div style=""font-size:60px;""> </div>","null","fixation","html-keyboard-response","307","1066906","0.0-6.0-0.43","3373886","co39823","norming","","","","","","",""
"null","../img/tt/1146tt.jpg","null","mooney1","image-keyboard-response","308","1069917","0.0-6.0-1.43","3373886","co39823","norming","","","","","","",""
"6824.350000000792","","","post_mooney1_questions","survey-likert","309","1076745","0.0-6.0-2.43","3373886","co39823","norming","","","{""curiosity"":4,""confidence"":4}","[0,1]","../img/tt/1146tt.jpg","",""
"3470.070000000298","","","recognition","survey-text","310","1080216","0.0-6.0-3.43","3373886","co39823","norming","","","{""guess"":""pijl en boog""}","","../img/tt/1146tt.jpg","",""
"null","../img/gs/1146gs.jpg","null","reveal","image-keyboard-response","311","1082218","0.0-6.0-4.43","3373886","co39823","norming","","","","","","",""
"null","../img/tt/1146tt.jpg","null","mooney2","image-keyboard-response","312","1084220","0.0-6.0-5.43","3373886","co39823","norming","","","","","","",""
"1754.3050000004005","","","post_reveal_questions","survey-likert","313","1085976","0.0-6.0-6.43","3373886","co39823","norming","","","{""aha"":0}","[0]","../img/tt/1146tt.jpg","",""
"null","<div style=""font-size:60px;""> </div>","null","fixation","html-keyboard-response","314","1086178","0.0-6.0-0.44","3373886","co39823","norming","","","","","","",""
"null","../img/tt/1363tt.jpg","null","mooney1","image-keyboard-response","315","1089180","0.0-6.0-1.44","3373886","co39823","norming","","","","","","",""
"4992.90000000014","","","post_mooney1_questions","survey-likert","316","1094176","0.0-6.0-2.44","3373886","co39823","norming","","","{""curiosity"":6,""confidence"":5}","[0,1]","../img/tt/1363tt.jpg","",""
"3654.1300000008196","","","recognition","survey-text","317","1097832","0.0-6.0-3.44","3373886","co39823","norming","","","{""guess"":""een walvis""}","","../img/tt/1363tt.jpg","",""
"null","../img/gs/1363gs.jpg","null","reveal","image-keyboard-response","318","1099835","0.0-6.0-4.44","3373886","co39823","norming","","","","","","",""
"null","../img/tt/1363tt.jpg","null","mooney2","image-keyboard-response","319","1101851","0.0-6.0-5.44","3373886","co39823","norming","","","","","","",""
"4201.065000000177","","","post_reveal_questions","survey-likert","320","1106056","0.0-6.0-6.44","3373886","co39823","norming","","","{""aha"":3}","[0]","../img/tt/1363tt.jpg","",""
"null","<div style=""font-size:60px;""> </div>","null","fixation","html-keyboard-response","321","1106258","0.0-6.0-0.45","3373886","co39823","norming","","","","","","",""
"null","../img/tt/1130tt.jpg","null","mooney1","image-keyboard-response","322","1109261","0.0-6.0-1.45","3373886","co39823","norming","","","","","","",""
"10679.885000000475","","","post_mooney1_questions","survey-likert","323","1119944","0.0-6.0-2.45","3373886","co39823","norming","","","{""curiosity"":0,""confidence"":0}","[0,1]","../img/tt/1130tt.jpg","",""
"766.0150000001304","","","recognition","survey-text","324","1120712","0.0-6.0-3.45","3373886","co39823","norming","","","{""guess"":""""}","","../img/tt/1130tt.jpg","",""
"null","../img/gs/1130gs.jpg","null","reveal","image-keyboard-response","325","1122718","0.0-6.0-4.45","3373886","co39823","norming","","","","","","",""
"null","../img/tt/1130tt.jpg","null","mooney2","image-keyboard-response","326","1124720","0.0-6.0-5.45","3373886","co39823","norming","","","","","","",""
"2157.3050000006333","","","post_reveal_questions","survey-likert","327","1126880","0.0-6.0-6.45","3373886","co39823","norming","","","{""aha"":5}","[0]","../img/tt/1130tt.jpg","",""
"null","<div style=""font-size:60px;""> </div>","null","fixation","html-keyboard-response","328","1127081","0.0-6.0-0.46","3373886","co39823","norming","","","","","","",""
"null","../img/tt/076tt.jpg","null","mooney1","image-keyboard-response","329","1130093","0.0-6.0-1.46","3373886","co39823","norming","","","","","","",""
"3623.6549999993294","","","post_mooney1_questions","survey-likert","330","1133720","0.0-6.0-2.46","3373886","co39823","norming","","","{""curiosity"":5,""confidence"":2}","[0,1]","../img/tt/076tt.jpg","",""
"5558.100000000326","","","recognition","survey-text","331","1139280","0.0-6.0-3.46","3373886","co39823","norming","","","{""guess"":""rollerschaatsen""}","","../img/tt/076tt.jpg","",""
"null","../img/gs/076gs.jpg","null","reveal","image-keyboard-response","332","1141290","0.0-6.0-4.46","3373886","co39823","norming","","","","","","",""
"null","../img/tt/076tt.jpg","null","mooney2","image-keyboard-response","333","1143297","0.0-6.0-5.46","3373886","co39823","norming","","","","","","",""
"7380.030000000261","","","post_reveal_questions","survey-likert","334","1150680","0.0-6.0-6.46","3373886","co39823","norming","","","{""aha"":0}","[0]","../img/tt/076tt.jpg","",""
"null","<div style=""font-size:60px;""> </div>","null","fixation","html-keyboard-response","335","1150882","0.0-6.0-0.47","3373886","co39823","norming","","","","","","",""
"null","../img/tt/1173tt.jpg","null","mooney1","image-keyboard-response","336","1153889","0.0-6.0-1.47","3373886","co39823","norming","","","","","","",""
"5148.005000000121","","","post_mooney1_questions","survey-likert","337","1159040","0.0-6.0-2.47","3373886","co39823","norming","","","{""curiosity"":0,""confidence"":3}","[0,1]","../img/tt/1173tt.jpg","",""
"2813.6250000006985","","","recognition","survey-text","338","1161855","0.0-6.0-3.47","3373886","co39823","norming","","","{""guess"":""voetbal""}","","../img/tt/1173tt.jpg","",""
"null","../img/gs/1173gs.jpg","null","reveal","image-keyboard-response","339","1163861","0.0-6.0-4.47","3373886","co39823","norming","","","","","","",""
"null","../img/tt/1173tt.jpg","null","mooney2","image-keyboard-response","340","1165872","0.0-6.0-5.47","3373886","co39823","norming","","","","","","",""
"2324.064999999944","","","post_reveal_questions","survey-likert","341","1168199","0.0-6.0-6.47","3373886","co39823","norming","","","{""aha"":0}","[0]","../img/tt/1173tt.jpg","",""
"null","<div style=""font-size:60px;""> </div>","null","fixation","html-keyboard-response","342","1168401","0.0-6.0-0.48","3373886","co39823","norming","","","","","","",""
"null","../img/tt/1241tt.jpg","null","mooney1","image-keyboard-response","343","1171410","0.0-6.0-1.48","3373886","co39823","norming","","","","","","",""
"4769.729999999981","","","post_mooney1_questions","survey-likert","344","1176183","0.0-6.0-2.48","3373886","co39823","norming","","","{""curiosity"":6,""confidence"":0}","[0,1]","../img/tt/1241tt.jpg","",""
"1526.16500000027","","","recognition","survey-text","345","1177711","0.0-6.0-3.48","3373886","co39823","norming","","","{""guess"":""tiger""}","","../img/tt/1241tt.jpg","",""
"null","../img/gs/1241gs.jpg","null","reveal","image-keyboard-response","346","1179720","0.0-6.0-4.48","3373886","co39823","norming","","","","","","",""
"null","../img/tt/1241tt.jpg","null","mooney2","image-keyboard-response","347","1181730","0.0-6.0-5.48","3373886","co39823","norming","","","","","","",""
"2490.434999999823","","","post_reveal_questions","survey-likert","348","1184223","0.0-6.0-6.48","3373886","co39823","norming","","","{""aha"":4}","[0]","../img/tt/1241tt.jpg","",""
"null","<div style=""font-size:60px;""> </div>","null","fixation","html-keyboard-response","349","1184425","0.0-6.0-0.49","3373886","co39823","norming","","","","","","",""
"null","../img/tt/296tt.jpg","null","mooney1","image-keyboard-response","350","1187428","0.0-6.0-1.49","3373886","co39823","norming","","","","","","",""
"6127.480000000214","","","post_mooney1_questions","survey-likert","351","1193559","0.0-6.0-2.49","3373886","co39823","norming","","","{""curiosity"":4,""confidence"":2}","[0,1]","../img/tt/296tt.jpg","",""
"5078.394999999553","","","recognition","survey-text","352","1198639","0.0-6.0-3.49","3373886","co39823","norming","","","{""guess"":""attractie""}","","../img/tt/296tt.jpg","",""
"null","../img/gs/296gs.jpg","null","reveal","image-keyboard-response","353","1200641","0.0-6.0-4.49","3373886","co39823","norming","","","","","","",""
"null","../img/tt/296tt.jpg","null","mooney2","image-keyboard-response","354","1202649","0.0-6.0-5.49","3373886","co39823","norming","","","","","","",""
"2059.050000000745","","","post_reveal_questions","survey-likert","355","1204711","0.0-6.0-6.49","3373886","co39823","norming","","","{""aha"":4}","[0]","../img/tt/296tt.jpg","",""
"null","<div style=""font-size:60px;""> </div>","null","fixation","html-keyboard-response","356","1204912","0.0-6.0-0.50","3373886","co39823","norming","","","","","","",""
"null","../img/tt/1199tt.jpg","null","mooney1","image-keyboard-response","357","1207915","0.0-6.0-1.50","3373886","co39823","norming","","","","","","",""
"2894.5600000007544","","","post_mooney1_questions","survey-likert","358","1210815","0.0-6.0-2.50","3373886","co39823","norming","","","{""curiosity"":6,""confidence"":0}","[0,1]","../img/tt/1199tt.jpg","",""
"470.27499999967404","","","recognition","survey-text","359","1211287","0.0-6.0-3.50","3373886","co39823","norming","","","{""guess"":""""}","","../img/tt/1199tt.jpg","",""
"null","../img/gs/1199gs.jpg","null","reveal","image-keyboard-response","360","1213289","0.0-6.0-4.50","3373886","co39823","norming","","","","","","",""
"null","../img/tt/1199tt.jpg","null","mooney2","image-keyboard-response","361","1215291","0.0-6.0-5.50","3373886","co39823","norming","","","","","","",""
"1688.720000000205","","","post_reveal_questions","survey-likert","362","1216983","0.0-6.0-6.50","3373886","co39823","norming","","","{""aha"":5}","[0]","../img/tt/1199tt.jpg","",""
"null","<div style=""font-size:60px;""> </div>","null","fixation","html-keyboard-response","363","1217184","0.0-6.0-0.51","3373886","co39823","norming","","","","","","",""
"null","../img/tt/1190tt.jpg","null","mooney1","image-keyboard-response","364","1220188","0.0-6.0-1.51","3373886","co39823","norming","","","","","","",""
"6151.710000000196","","","post_mooney1_questions","survey-likert","365","1226345","0.0-6.0-2.51","3373886","co39823","norming","","","{""curiosity"":5,""confidence"":0}","[0,1]","../img/tt/1190tt.jpg","",""
"470.1199999998789","","","recognition","survey-text","366","1226817","0.0-6.0-3.51","3373886","co39823","norming","","","{""guess"":""""}","","../img/tt/1190tt.jpg","",""
"null","../img/gs/1190gs.jpg","null","reveal","image-keyboard-response","367","1228820","0.0-6.0-4.51","3373886","co39823","norming","","","","","","",""
"null","../img/tt/1190tt.jpg","null","mooney2","image-keyboard-response","368","1230824","0.0-6.0-5.51","3373886","co39823","norming","","","","","","",""
"1254.5200000004843","","","post_reveal_questions","survey-likert","369","1232081","0.0-6.0-6.51","3373886","co39823","norming","","","{""aha"":0}","[0]","../img/tt/1190tt.jpg","",""
"null","<div style=""font-size:60px;""> </div>","null","fixation","html-keyboard-response","370","1232282","0.0-6.0-0.52","3373886","co39823","norming","","","","","","",""
"null","../img/tt/1261tt.jpg","null","mooney1","image-keyboard-response","371","1235285","0.0-6.0-1.52","3373886","co39823","norming","","","","","","",""
"3368.174999999581","","","post_mooney1_questions","survey-likert","372","1238657","0.0-6.0-2.52","3373886","co39823","norming","","","{""curiosity"":6,""confidence"":0}","[0,1]","../img/tt/1261tt.jpg","",""
"501.98999999975786","","","recognition","survey-text","373","1239160","0.0-6.0-3.52","3373886","co39823","norming","","","{""guess"":""""}","","../img/tt/1261tt.jpg","",""
"null","../img/gs/1261gs.jpg","null","reveal","image-keyboard-response","374","1241162","0.0-6.0-4.52","3373886","co39823","norming","","","","","","",""
"null","../img/tt/1261tt.jpg","null","mooney2","image-keyboard-response","375","1243166","0.0-6.0-5.52","3373886","co39823","norming","","","","","","",""
"2120.2400000002235","","","post_reveal_questions","survey-likert","376","1245289","0.0-6.0-6.52","3373886","co39823","norming","","","{""aha"":2}","[0]","../img/tt/1261tt.jpg","",""
"null","<div style=""font-size:60px;""> </div>","null","fixation","html-keyboard-response","377","1245490","0.0-6.0-0.53","3373886","co39823","norming","","","","","","",""
"null","../img/tt/052tt.jpg","null","mooney1","image-keyboard-response","378","1248494","0.0-6.0-1.53","3373886","co39823","norming","","","","","","",""
"3679.255000000121","","","post_mooney1_questions","survey-likert","379","1252177","0.0-6.0-2.53","3373886","co39823","norming","","","{""curiosity"":6,""confidence"":2}","[0,1]","../img/tt/052tt.jpg","",""
"741.9950000003446","","","recognition","survey-text","380","1252921","0.0-6.0-3.53","3373886","co39823","norming","","","{""guess"":""""}","","../img/tt/052tt.jpg","",""
"null","../img/gs/052gs.jpg","null","reveal","image-keyboard-response","381","1254927","0.0-6.0-4.53","3373886","co39823","norming","","","","","","",""
"null","../img/tt/052tt.jpg","null","mooney2","image-keyboard-response","382","1256931","0.0-6.0-5.53","3373886","co39823","norming","","","","","","",""
"1411.2500000002328","","","post_reveal_questions","survey-likert","383","1258344","0.0-6.0-6.53","3373886","co39823","norming","","","{""aha"":0}","[0]","../img/tt/052tt.jpg","",""
"null","<div style=""font-size:60px;""> </div>","null","fixation","html-keyboard-response","384","1258546","0.0-6.0-0.54","3373886","co39823","norming","","","","","","",""
"null","../img/tt/1125tt.jpg","null","mooney1","image-keyboard-response","385","1261553","0.0-6.0-1.54","3373886","co39823","norming","","","","","","",""
"4854.324999999255","","","post_mooney1_questions","survey-likert","386","1266409","0.0-6.0-2.54","3373886","co39823","norming","","","{""curiosity"":1,""confidence"":1}","[0,1]","../img/tt/1125tt.jpg","",""
"557.9449999995995","","","recognition","survey-text","387","1266968","0.0-6.0-3.54","3373886","co39823","norming","","","{""guess"":""""}","","../img/tt/1125tt.jpg","",""
"null","../img/gs/1125gs.jpg","null","reveal","image-keyboard-response","388","1268973","0.0-6.0-4.54","3373886","co39823","norming","","","","","","",""
"null","../img/tt/1125tt.jpg","null","mooney2","image-keyboard-response","389","1270975","0.0-6.0-5.54","3373886","co39823","norming","","","","","","",""
"2438.9150000007357","","","post_reveal_questions","survey-likert","390","1273417","0.0-6.0-6.54","3373886","co39823","norming","","","{""aha"":2}","[0]","../img/tt/1125tt.jpg","",""
"null","<div style=""font-size:60px;""> </div>","null","fixation","html-keyboard-response","391","1273618","0.0-6.0-0.55","3373886","co39823","norming","","","","","","",""
"null","../img/tt/055tt.jpg","null","mooney1","image-keyboard-response","392","1276619","0.0-6.0-1.55","3373886","co39823","norming","","","","","","",""
"3706.5799999998417","","","post_mooney1_questions","survey-likert","393","1280329","0.0-6.0-2.55","3373886","co39823","norming","","","{""curiosity"":0,""confidence"":0}","[0,1]","../img/tt/055tt.jpg","",""
"510.0800000000745","","","recognition","survey-text","394","1280840","0.0-6.0-3.55","3373886","co39823","norming","","","{""guess"":""""}","","../img/tt/055tt.jpg","",""
"null","../img/gs/055gs.jpg","null","reveal","image-keyboard-response","395","1282844","0.0-6.0-4.55","3373886","co39823","norming","","","","","","",""
"null","../img/tt/055tt.jpg","null","mooney2","image-keyboard-response","396","1284845","0.0-6.0-5.55","3373886","co39823","norming","","","","","","",""
"1226.3899999996647","","","post_reveal_questions","survey-likert","397","1286075","0.0-6.0-6.55","3373886","co39823","norming","","","{""aha"":2}","[0]","../img/tt/055tt.jpg","",""
"null","<div style=""font-size:60px;""> </div>","null","fixation","html-keyboard-response","398","1286279","0.0-6.0-0.56","3373886","co39823","norming","","","","","","",""
"null","../img/tt/105tt.jpg","null","mooney1","image-keyboard-response","399","1289281","0.0-6.0-1.56","3373886","co39823","norming","","","","","","",""
"3774.7399999999907","","","post_mooney1_questions","survey-likert","400","1293059","0.0-6.0-2.56","3373886","co39823","norming","","","{""curiosity"":0,""confidence"":6}","[0,1]","../img/tt/105tt.jpg","",""
"3246.374999999767","","","recognition","survey-text","401","1296307","0.0-6.0-3.56","3373886","co39823","norming","","","{""guess"":""paperclips""}","","../img/tt/105tt.jpg","",""
"null","../img/gs/105gs.jpg","null","reveal","image-keyboard-response","402","1298315","0.0-6.0-4.56","3373886","co39823","norming","","","","","","",""
"null","../img/tt/105tt.jpg","null","mooney2","image-keyboard-response","403","1300325","0.0-6.0-5.56","3373886","co39823","norming","","","","","","",""
"2859.0450000001583","","","post_reveal_questions","survey-likert","404","1303187","0.0-6.0-6.56","3373886","co39823","norming","","","{""aha"":0}","[0]","../img/tt/105tt.jpg","",""
"null","<div style=""font-size:60px;""> </div>","null","fixation","html-keyboard-response","405","1303388","0.0-6.0-0.57","3373886","co39823","norming","","","","","","",""
"null","../img/tt/032tt.jpg","null","mooney1","image-keyboard-response","406","1306397","0.0-6.0-1.57","3373886","co39823","norming","","","","","","",""
"4860.230000000447","","","post_mooney1_questions","survey-likert","407","1311259","0.0-6.0-2.57","3373886","co39823","norming","","","{""curiosity"":5,""confidence"":0}","[0,1]","../img/tt/032tt.jpg","",""
"982.0300000000279","","","recognition","survey-text","408","1312243","0.0-6.0-3.57","3373886","co39823","norming","","","{""guess"":""""}","","../img/tt/032tt.jpg","",""
"null","../img/gs/032gs.jpg","null","reveal","image-keyboard-response","409","1314247","0.0-6.0-4.57","3373886","co39823","norming","","","","","","",""
"null","../img/tt/032tt.jpg","null","mooney2","image-keyboard-response","410","1316249","0.0-6.0-5.57","3373886","co39823","norming","","","","","","",""
"1583.279999999795","","","post_reveal_questions","survey-likert","411","1317835","0.0-6.0-6.57","3373886","co39823","norming","","","{""aha"":4}","[0]","../img/tt/032tt.jpg","",""
"null","<div style=""font-size:60px;""> </div>","null","fixation","html-keyboard-response","412","1318037","0.0-6.0-0.58","3373886","co39823","norming","","","","","","",""
"null","../img/tt/1242tt.jpg","null","mooney1","image-keyboard-response","413","1321039","0.0-6.0-1.58","3373886","co39823","norming","","","","","","",""
"3415.8799999996554","","","post_mooney1_questions","survey-likert","414","1324459","0.0-6.0-2.58","3373886","co39823","norming","","","{""curiosity"":6,""confidence"":0}","[0,1]","../img/tt/1242tt.jpg","",""
"598.0749999999534","","","recognition","survey-text","415","1325059","0.0-6.0-3.58","3373886","co39823","norming","","","{""guess"":""""}","","../img/tt/1242tt.jpg","",""
"null","../img/gs/1242gs.jpg","null","reveal","image-keyboard-response","416","1327061","0.0-6.0-4.58","3373886","co39823","norming","","","","","","",""
"null","../img/tt/1242tt.jpg","null","mooney2","image-keyboard-response","417","1329063","0.0-6.0-5.58","3373886","co39823","norming","","","","","","",""
"1361.5449999996927","","","post_reveal_questions","survey-likert","418","1330427","0.0-6.0-6.58","3373886","co39823","norming","","","{""aha"":6}","[0]","../img/tt/1242tt.jpg","",""
"null","<div style=""font-size:60px;""> </div>","null","fixation","html-keyboard-response","419","1330628","0.0-6.0-0.59","3373886","co39823","norming","","","","","","",""
"null","../img/tt/584tt.jpg","null","mooney1","image-keyboard-response","420","1333632","0.0-6.0-1.59","3373886","co39823","norming","","","","","","",""
"2665.6250000004657","","","post_mooney1_questions","survey-likert","421","1336299","0.0-6.0-2.59","3373886","co39823","norming","","","{""curiosity"":6,""confidence"":0}","[0,1]","../img/tt/584tt.jpg","",""
"709.8649999997579","","","recognition","survey-text","422","1337010","0.0-6.0-3.59","3373886","co39823","norming","","","{""guess"":""""}","","../img/tt/584tt.jpg","",""
"null","../img/gs/584gs.jpg","null","reveal","image-keyboard-response","423","1339012","0.0-6.0-4.59","3373886","co39823","norming","","","","","","",""
"null","../img/tt/584tt.jpg","null","mooney2","image-keyboard-response","424","1341014","0.0-6.0-5.59","3373886","co39823","norming","","","","","","",""
"1273.869999999879","","","post_reveal_questions","survey-likert","425","1342291","0.0-6.0-6.59","3373886","co39823","norming","","","{""aha"":6}","[0]","../img/tt/584tt.jpg","",""
"null","<div style=""font-size:60px;""> </div>","null","fixation","html-keyboard-response","426","1342492","0.0-6.0-0.60","3373886","co39823","norming","","","","","","",""
"null","../img/tt/1283tt.jpg","null","mooney1","image-keyboard-response","427","1345500","0.0-6.0-1.60","3373886","co39823","norming","","","","","","",""
"7381.470000000438","","","post_mooney1_questions","survey-likert","428","1352885","0.0-6.0-2.60","3373886","co39823","norming","","","{""curiosity"":4,""confidence"":3}","[0,1]","../img/tt/1283tt.jpg","",""
"3774.159999999916","","","recognition","survey-text","429","1356660","0.0-6.0-3.60","3373886","co39823","norming","","","{""guess"":""vogelnest""}","","../img/tt/1283tt.jpg","",""
"null","../img/gs/1283gs.jpg","null","reveal","image-keyboard-response","430","1358661","0.0-6.0-4.60","3373886","co39823","norming","","","","","","",""
"null","../img/tt/1283tt.jpg","null","mooney2","image-keyboard-response","431","1360666","0.0-6.0-5.60","3373886","co39823","norming","","","","","","",""
"6719.339999999618","","","post_reveal_questions","survey-likert","432","1367388","0.0-6.0-6.60","3373886","co39823","norming","","","{""aha"":1}","[0]","../img/tt/1283tt.jpg","",""
"null","<div style=""font-size:60px;""> </div>","null","fixation","html-keyboard-response","433","1367590","0.0-6.0-0.61","3373886","co39823","norming","","","","","","",""
"null","../img/tt/1040tt.jpg","null","mooney1","image-keyboard-response","434","1370593","0.0-6.0-1.61","3373886","co39823","norming","","","","","","",""
"3432.1399999998976","","","post_mooney1_questions","survey-likert","435","1374028","0.0-6.0-2.61","3373886","co39823","norming","","","{""curiosity"":2,""confidence"":4}","[0,1]","../img/tt/1040tt.jpg","",""
"2517.9749999996275","","","recognition","survey-text","436","1376548","0.0-6.0-3.61","3373886","co39823","norming","","","{""guess"":""alligator""}","","../img/tt/1040tt.jpg","",""
"null","../img/gs/1040gs.jpg","null","reveal","image-keyboard-response","437","1378551","0.0-6.0-4.61","3373886","co39823","norming","","","","","","",""
"null","../img/tt/1040tt.jpg","null","mooney2","image-keyboard-response","438","1380553","0.0-6.0-5.61","3373886","co39823","norming","","","","","","",""
"1977.0049999996554","","","post_reveal_questions","survey-likert","439","1382532","0.0-6.0-6.61","3373886","co39823","norming","","","{""aha"":4}","[0]","../img/tt/1040tt.jpg","",""
"null","<div style=""font-size:60px;""> </div>","null","fixation","html-keyboard-response","440","1382735","0.0-6.0-0.62","3373886","co39823","norming","","","","","","",""
"null","../img/tt/1154tt.jpg","null","mooney1","image-keyboard-response","441","1385747","0.0-6.0-1.62","3373886","co39823","norming","","","","","","",""
"9078.00499999919","","","post_mooney1_questions","survey-likert","442","1394828","0.0-6.0-2.62","3373886","co39823","norming","","","{""curiosity"":1,""confidence"":1}","[0,1]","../img/tt/1154tt.jpg","",""
"598.1899999997113","","","recognition","survey-text","443","1395428","0.0-6.0-3.62","3373886","co39823","norming","","","{""guess"":""""}","","../img/tt/1154tt.jpg","",""
"null","../img/gs/1154gs.jpg","null","reveal","image-keyboard-response","444","1397430","0.0-6.0-4.62","3373886","co39823","norming","","","","","","",""
"null","../img/tt/1154tt.jpg","null","mooney2","image-keyboard-response","445","1399434","0.0-6.0-5.62","3373886","co39823","norming","","","","","","",""
"1791.600000000326","","","post_reveal_questions","survey-likert","446","1401228","0.0-6.0-6.62","3373886","co39823","norming","","","{""aha"":0}","[0]","../img/tt/1154tt.jpg","",""
"null","<div style=""font-size:60px;""> </div>","null","fixation","html-keyboard-response","447","1401429","0.0-6.0-0.63","3373886","co39823","norming","","","","","","",""
"null","../img/tt/060tt.jpg","null","mooney1","image-keyboard-response","448","1404432","0.0-6.0-1.63","3373886","co39823","norming","","","","","","",""
"3544.7449999991804","","","post_mooney1_questions","survey-likert","449","1407983","0.0-6.0-2.63","3373886","co39823","norming","","","{""curiosity"":3,""confidence"":0}","[0,1]","../img/tt/060tt.jpg","",""
"573.9300000004005","","","recognition","survey-text","450","1408558","0.0-6.0-3.63","3373886","co39823","norming","","","{""guess"":""""}","","../img/tt/060tt.jpg","",""
"null","../img/gs/060gs.jpg","null","reveal","image-keyboard-response","451","1410567","0.0-6.0-4.63","3373886","co39823","norming","","","","","","",""
"null","../img/tt/060tt.jpg","null","mooney2","image-keyboard-response","452","1412570","0.0-6.0-5.63","3373886","co39823","norming","","","","","","",""
"1450.315000000177","","","post_reveal_questions","survey-likert","453","1414022","0.0-6.0-6.63","3373886","co39823","norming","","","{""aha"":1}","[0]","../img/tt/060tt.jpg","",""
"null","<div style=""font-size:60px;""> </div>","null","fixation","html-keyboard-response","454","1414224","0.0-6.0-0.64","3373886","co39823","norming","","","","","","",""
"null","../img/tt/1102tt.jpg","null","mooney1","image-keyboard-response","455","1417232","0.0-6.0-1.64","3373886","co39823","norming","","","","","","",""
"3226.9550000000745","","","post_mooney1_questions","survey-likert","456","1420463","0.0-6.0-2.64","3373886","co39823","norming","","","{""curiosity"":0,""confidence"":0}","[0,1]","../img/tt/1102tt.jpg","",""
"805.9199999999255","","","recognition","survey-text","457","1421270","0.0-6.0-3.64","3373886","co39823","norming","","","{""guess"":""""}","","../img/tt/1102tt.jpg","",""
"null","../img/gs/1102gs.jpg","null","reveal","image-keyboard-response","458","1423281","0.0-6.0-4.64","3373886","co39823","norming","","","","","","",""
"null","../img/tt/1102tt.jpg","null","mooney2","image-keyboard-response","459","1425290","0.0-6.0-5.64","3373886","co39823","norming","","","","","","",""
"1657.8950000002515","","","post_reveal_questions","survey-likert","460","1426951","0.0-6.0-6.64","3373886","co39823","norming","","","{""aha"":2}","[0]","../img/tt/1102tt.jpg","",""
"null","<div style=""font-size:60px;""> </div>","null","fixation","html-keyboard-response","461","1427152","0.0-6.0-0.65","3373886","co39823","norming","","","","","","",""
"null","../img/tt/112tt.jpg","null","mooney1","image-keyboard-response","462","1430160","0.0-6.0-1.65","3373886","co39823","norming","","","","","","",""
"4427.174999999814","","","post_mooney1_questions","survey-likert","463","1434591","0.0-6.0-2.65","3373886","co39823","norming","","","{""curiosity"":4,""confidence"":0}","[0,1]","../img/tt/112tt.jpg","",""
"685.9549999998417","","","recognition","survey-text","464","1435278","0.0-6.0-3.65","3373886","co39823","norming","","","{""guess"":""""}","","../img/tt/112tt.jpg","",""
"null","../img/gs/112gs.jpg","null","reveal","image-keyboard-response","465","1437290","0.0-6.0-4.65","3373886","co39823","norming","","","","","","",""
"null","../img/tt/112tt.jpg","null","mooney2","image-keyboard-response","466","1439293","0.0-6.0-5.65","3373886","co39823","norming","","","","","","",""
"2278.484999999637","","","post_reveal_questions","survey-likert","467","1441574","0.0-6.0-6.65","3373886","co39823","norming","","","{""aha"":6}","[0]","../img/tt/112tt.jpg","",""
"null","<div style=""font-size:60px;""> </div>","null","fixation","html-keyboard-response","468","1441775","0.0-6.0-0.66","3373886","co39823","norming","","","","","","",""
"null","../img/tt/1055tt.jpg","null","mooney1","image-keyboard-response","469","1444779","0.0-6.0-1.66","3373886","co39823","norming","","","","","","",""
"8024.2849999994505","","","post_mooney1_questions","survey-likert","470","1452807","0.0-6.0-2.66","3373886","co39823","norming","","","{""curiosity"":4,""confidence"":3}","[0,1]","../img/tt/1055tt.jpg","",""
"2190.0150000001304","","","recognition","survey-text","471","1454998","0.0-6.0-3.66","3373886","co39823","norming","","","{""guess"":""brug""}","","../img/tt/1055tt.jpg","",""
"null","../img/gs/1055gs.jpg","null","reveal","image-keyboard-response","472","1457007","0.0-6.0-4.66","3373886","co39823","norming","","","","","","",""
"null","../img/tt/1055tt.jpg","null","mooney2","image-keyboard-response","473","1459009","0.0-6.0-5.66","3373886","co39823","norming","","","","","","",""
"2835.189999999944","","","post_reveal_questions","survey-likert","474","1461846","0.0-6.0-6.66","3373886","co39823","norming","","","{""aha"":1}","[0]","../img/tt/1055tt.jpg","",""
"null","<div style=""font-size:60px;""> </div>","null","fixation","html-keyboard-response","475","1462048","0.0-6.0-0.67","3373886","co39823","norming","","","","","","",""
"null","../img/tt/094tt.jpg","null","mooney1","image-keyboard-response","476","1465053","0.0-6.0-1.67","3373886","co39823","norming","","","","","","",""
"3118.139999999432","","","post_mooney1_questions","survey-likert","477","1468171","0.0-6.0-2.67","3373886","co39823","norming","","","{""curiosity"":4,""confidence"":0}","[0,1]","../img/tt/094tt.jpg","",""
"414.25499999988824","","","recognition","survey-text","478","1468586","0.0-6.0-3.67","3373886","co39823","norming","","","{""guess"":""""}","","../img/tt/094tt.jpg","",""
"null","../img/gs/094gs.jpg","null","reveal","image-keyboard-response","479","1470592","0.0-6.0-4.67","3373886","co39823","norming","","","","","","",""
"null","../img/tt/094tt.jpg","null","mooney2","image-keyboard-response","480","1472597","0.0-6.0-5.67","3373886","co39823","norming","","","","","","",""
"1282.9099999996834","","","post_reveal_questions","survey-likert","481","1473882","0.0-6.0-6.67","3373886","co39823","norming","","","{""aha"":0}","[0]","../img/tt/094tt.jpg","",""
"null","<div style=""font-size:60px;""> </div>","null","fixation","html-keyboard-response","482","1474083","0.0-6.0-0.68","3373886","co39823","norming","","","","","","",""
"null","../img/tt/1122tt.jpg","null","mooney1","image-keyboard-response","483","1477087","0.0-6.0-1.68","3373886","co39823","norming","","","","","","",""
"3951.9950000003446","","","post_mooney1_questions","survey-likert","484","1481043","0.0-6.0-2.68","3373886","co39823","norming","","","{""curiosity"":3,""confidence"":2}","[0,1]","../img/tt/1122tt.jpg","",""
"2782.165000000503","","","recognition","survey-text","485","1483826","0.0-6.0-3.68","3373886","co39823","norming","","","{""guess"":""klaslokaal""}","","../img/tt/1122tt.jpg","",""
"null","../img/gs/1122gs.jpg","null","reveal","image-keyboard-response","486","1485829","0.0-6.0-4.68","3373886","co39823","norming","","","","","","",""
"null","../img/tt/1122tt.jpg","null","mooney2","image-keyboard-response","487","1487834","0.0-6.0-5.68","3373886","co39823","norming","","","","","","",""
"1741.184999999823","","","post_reveal_questions","survey-likert","488","1489578","0.0-6.0-6.68","3373886","co39823","norming","","","{""aha"":0}","[0]","../img/tt/1122tt.jpg","",""
"null","<div style=""font-size:60px;""> </div>","null","fixation","html-keyboard-response","489","1489780","0.0-6.0-0.69","3373886","co39823","norming","","","","","","",""
"null","../img/tt/496tt.jpg","null","mooney1","image-keyboard-response","490","1492783","0.0-6.0-1.69","3373886","co39823","norming","","","","","","",""
"3064.0600000005215","","","post_mooney1_questions","survey-likert","491","1495851","0.0-6.0-2.69","3373886","co39823","norming","","","{""curiosity"":4,""confidence"":0}","[0,1]","../img/tt/496tt.jpg","",""
"661.8149999994785","","","recognition","survey-text","492","1496514","0.0-6.0-3.69","3373886","co39823","norming","","","{""guess"":""""}","","../img/tt/496tt.jpg","",""
"null","../img/gs/496gs.jpg","null","reveal","image-keyboard-response","493","1498525","0.0-6.0-4.69","3373886","co39823","norming","","","","","","",""
"null","../img/tt/496tt.jpg","null","mooney2","image-keyboard-response","494","1500530","0.0-6.0-5.69","3373886","co39823","norming","","","","","","",""
"2573.5500000000466","","","post_reveal_questions","survey-likert","495","1503107","0.0-6.0-6.69","3373886","co39823","norming","","","{""aha"":3}","[0]","../img/tt/496tt.jpg","",""
"null","<div style=""font-size:60px;""> </div>","null","fixation","html-keyboard-response","496","1503317","0.0-6.0-0.70","3373886","co39823","norming","","","","","","",""
"null","../img/tt/567tt.jpg","null","mooney1","image-keyboard-response","497","1506326","0.0-6.0-1.70","3373886","co39823","norming","","","","","","",""
"2841.2500000004657","","","post_mooney1_questions","survey-likert","498","1509171","0.0-6.0-2.70","3373886","co39823","norming","","","{""curiosity"":0,""confidence"":0}","[0,1]","../img/tt/567tt.jpg","",""
"958.0150000001304","","","recognition","survey-text","499","1510130","0.0-6.0-3.70","3373886","co39823","norming","","","{""guess"":""""}","","../img/tt/567tt.jpg","",""
"null","../img/gs/567gs.jpg","null","reveal","image-keyboard-response","500","1512141","0.0-6.0-4.70","3373886","co39823","norming","","","","","","",""
"null","../img/tt/567tt.jpg","null","mooney2","image-keyboard-response","501","1514143","0.0-6.0-5.70","3373886","co39823","norming","","","","","","",""
"1240.845000000205","","","post_reveal_questions","survey-likert","502","1515386","0.0-6.0-6.70","3373886","co39823","norming","","","{""aha"":0}","[0]","../img/tt/567tt.jpg","",""
"null","<div style=""font-size:60px;""> </div>","null","fixation","html-keyboard-response","503","1515589","0.0-6.0-0.71","3373886","co39823","norming","","","","","","",""
"null","../img/tt/1247tt.jpg","null","mooney1","image-keyboard-response","504","1518591","0.0-6.0-1.71","3373886","co39823","norming","","","","","","",""
"4711.54000000027","","","post_mooney1_questions","survey-likert","505","1523306","0.0-6.0-2.71","3373886","co39823","norming","","","{""curiosity"":1,""confidence"":6}","[0,1]","../img/tt/1247tt.jpg","",""
"5478.215000000084","","","recognition","survey-text","506","1528785","0.0-6.0-3.71","3373886","co39823","norming","","","{""guess"":""female lion""}","","../img/tt/1247tt.jpg","",""
"null","../img/gs/1247gs.jpg","null","reveal","image-keyboard-response","507","1530787","0.0-6.0-4.71","3373886","co39823","norming","","","","","","",""
"null","../img/tt/1247tt.jpg","null","mooney2","image-keyboard-response","508","1532798","0.0-6.0-5.71","3373886","co39823","norming","","","","","","",""
"2168.4150000000373","","","post_reveal_questions","survey-likert","509","1534969","0.0-6.0-6.71","3373886","co39823","norming","","","{""aha"":0}","[0]","../img/tt/1247tt.jpg","",""
"null","<div style=""font-size:60px;""> </div>","null","fixation","html-keyboard-response","510","1535171","0.0-6.0-0.72","3373886","co39823","norming","","","","","","",""
"null","../img/tt/1004tt.jpg","null","mooney1","image-keyboard-response","511","1538174","0.0-6.0-1.72","3373886","co39823","norming","","","","","","",""
"7071.83499999973","","","post_mooney1_questions","survey-likert","512","1545249","0.0-6.0-2.72","3373886","co39823","norming","","","{""curiosity"":2,""confidence"":3}","[0,1]","../img/tt/1004tt.jpg","",""
"23198.06499999948","","","recognition","survey-text","513","1568449","0.0-6.0-3.72","3373886","co39823","norming","","","{""guess"":""man throwing a ball""}","","../img/tt/1004tt.jpg","",""
"null","../img/gs/1004gs.jpg","null","reveal","image-keyboard-response","514","1570451","0.0-6.0-4.72","3373886","co39823","norming","","","","","","",""
"null","../img/tt/1004tt.jpg","null","mooney2","image-keyboard-response","515","1572453","0.0-6.0-5.72","3373886","co39823","norming","","","","","","",""
"1505.4449999998324","","","post_reveal_questions","survey-likert","516","1573961","0.0-6.0-6.72","3373886","co39823","norming","","","{""aha"":5}","[0]","../img/tt/1004tt.jpg","",""
"null","<div style=""font-size:60px;""> </div>","null","fixation","html-keyboard-response","517","1574163","0.0-6.0-0.73","3373886","co39823","norming","","","","","","",""
"null","../img/tt/121tt.jpg","null","mooney1","image-keyboard-response","518","1577165","0.0-6.0-1.73","3373886","co39823","norming","","","","","","",""
"3424.715000000084","","","post_mooney1_questions","survey-likert","519","1580593","0.0-6.0-2.73","3373886","co39823","norming","","","{""curiosity"":1,""confidence"":6}","[0,1]","../img/tt/121tt.jpg","",""
"2990.110000000568","","","recognition","survey-text","520","1583585","0.0-6.0-3.73","3373886","co39823","norming","","","{""guess"":""kangaroe""}","","../img/tt/121tt.jpg","",""
"null","../img/gs/121gs.jpg","null","reveal","image-keyboard-response","521","1585595","0.0-6.0-4.73","3373886","co39823","norming","","","","","","",""
"null","../img/tt/121tt.jpg","null","mooney2","image-keyboard-response","522","1587607","0.0-6.0-5.73","3373886","co39823","norming","","","","","","",""
"10251.01000000001","","","post_reveal_questions","survey-likert","523","1597859","0.0-6.0-6.73","3373886","co39823","norming","","","{""aha"":0}","[0]","../img/tt/121tt.jpg","",""
"null","<div style=""font-size:60px;""> </div>","null","fixation","html-keyboard-response","524","1598060","0.0-6.0-0.74","3373886","co39823","norming","","","","","","",""
"null","../img/tt/1143tt.jpg","null","mooney1","image-keyboard-response","525","1601064","0.0-6.0-1.74","3373886","co39823","norming","","","","","","",""
"2551.3000000002794","","","post_mooney1_questions","survey-likert","526","1603619","0.0-6.0-2.74","3373886","co39823","norming","","","{""curiosity"":0,""confidence"":0}","[0,1]","../img/tt/1143tt.jpg","",""
"1030.225000000326","","","recognition","survey-text","527","1604651","0.0-6.0-3.74","3373886","co39823","norming","","","{""guess"":""""}","","../img/tt/1143tt.jpg","",""
"null","../img/gs/1143gs.jpg","null","reveal","image-keyboard-response","528","1606653","0.0-6.0-4.74","3373886","co39823","norming","","","","","","",""
"null","../img/tt/1143tt.jpg","null","mooney2","image-keyboard-response","529","1608655","0.0-6.0-5.74","3373886","co39823","norming","","","","","","",""
"1457.4000000003725","","","post_reveal_questions","survey-likert","530","1610115","0.0-6.0-6.74","3373886","co39823","norming","","","{""aha"":1}","[0]","../img/tt/1143tt.jpg","",""
"null","<div style=""font-size:60px;""> </div>","null","fixation","html-keyboard-response","531","1610316","0.0-6.0-0.75","3373886","co39823","norming","","","","","","",""
"null","../img/tt/1255tt.jpg","null","mooney1","image-keyboard-response","532","1613319","0.0-6.0-1.75","3373886","co39823","norming","","","","","","",""
"5192.3050000004005","","","post_mooney1_questions","survey-likert","533","1618515","0.0-6.0-2.75","3373886","co39823","norming","","","{""curiosity"":2,""confidence"":6}","[0,1]","../img/tt/1255tt.jpg","",""
"2117.9799999999814","","","recognition","survey-text","534","1620635","0.0-6.0-3.75","3373886","co39823","norming","","","{""guess"":""een haas""}","","../img/tt/1255tt.jpg","",""
"null","../img/gs/1255gs.jpg","null","reveal","image-keyboard-response","535","1622636","0.0-6.0-4.75","3373886","co39823","norming","","","","","","",""
"null","../img/tt/1255tt.jpg","null","mooney2","image-keyboard-response","536","1624641","0.0-6.0-5.75","3373886","co39823","norming","","","","","","",""
"1927.0049999994226","","","post_reveal_questions","survey-likert","537","1626571","0.0-6.0-6.75","3373886","co39823","norming","","","{""aha"":0}","[0]","../img/tt/1255tt.jpg","",""
"null","<div style=""font-size:60px;""> </div>","null","fixation","html-keyboard-response","538","1626772","0.0-6.0-0.76","3373886","co39823","norming","","","","","","",""
"null","../img/tt/1046tt.jpg","null","mooney1","image-keyboard-response","539","1629776","0.0-6.0-1.76","3373886","co39823","norming","","","","","","",""
"4990.785000000149","","","post_mooney1_questions","survey-likert","540","1634771","0.0-6.0-2.76","3373886","co39823","norming","","","{""curiosity"":0,""confidence"":0}","[0,1]","../img/tt/1046tt.jpg","",""
"574.3950000004843","","","recognition","survey-text","541","1635347","0.0-6.0-3.76","3373886","co39823","norming","","","{""guess"":""""}","","../img/tt/1046tt.jpg","",""
"null","../img/gs/1046gs.jpg","null","reveal","image-keyboard-response","542","1637352","0.0-6.0-4.76","3373886","co39823","norming","","","","","","",""
"null","../img/tt/1046tt.jpg","null","mooney2","image-keyboard-response","543","1639363","0.0-6.0-5.76","3373886","co39823","norming","","","","","","",""
"1923.5850000004284","","","post_reveal_questions","survey-likert","544","1641291","0.0-6.0-6.76","3373886","co39823","norming","","","{""aha"":0}","[0]","../img/tt/1046tt.jpg","",""
"null","<div style=""font-size:60px;""> </div>","null","fixation","html-keyboard-response","545","1641492","0.0-6.0-0.77","3373886","co39823","norming","","","","","","",""
"null","../img/tt/098tt.jpg","null","mooney1","image-keyboard-response","546","1644495","0.0-6.0-1.77","3373886","co39823","norming","","","","","","",""
"2888.8250000001863","","","post_mooney1_questions","survey-likert","547","1647387","0.0-6.0-2.77","3373886","co39823","norming","","","{""curiosity"":0,""confidence"":0}","[0,1]","../img/tt/098tt.jpg","",""
"525.9100000003818","","","recognition","survey-text","548","1647910","0.0-6.0-3.77","3373886","co39823","norming","","","{""guess"":""""}","","../img/tt/098tt.jpg","",""
"null","../img/gs/098gs.jpg","null","reveal","image-keyboard-response","549","1649913","0.0-6.0-4.77","3373886","co39823","norming","","","","","","",""
"null","../img/tt/098tt.jpg","null","mooney2","image-keyboard-response","550","1651920","0.0-6.0-5.77","3373886","co39823","norming","","","","","","",""
"1515.109999999404","","","post_reveal_questions","survey-likert","551","1653438","0.0-6.0-6.77","3373886","co39823","norming","","","{""aha"":0}","[0]","../img/tt/098tt.jpg","",""
"null","<div style=""font-size:60px;""> </div>","null","fixation","html-keyboard-response","552","1653639","0.0-6.0-0.78","3373886","co39823","norming","","","","","","",""
